"success","trial_type","trial_index","time_elapsed","internal_node_id","subject","condition","condition_code","measure","measure_code","codeword","gender","age","education","chinese","fach","handedness","comment","hinschauen","ablenkung","gewissenhaft","rt","url","responses","stimulus","key_press","val","type","type_specific","category","cs_selected","response","target","task","indirect","nr_pres"
"true","fullscreen","0","4294","0.0-0.0","t8rz6ww85w","one_one","1","direct_first","1","nn06en05","1","21","1","1","3","2","Die angezeigten Bilder waren zum Glück nicht so schlimm, wie in der Beschreibung beschrieben (besonders über das Fehlen von leidenden Tieren bin ich froh). Ansonsten ist mir aufgefallen, dass nur 2(?) der mit den Bildern gezeigten Zeichen, später auch in der Assoziation vorkamen. Da ich noch wusste, dass die jeweiligen Zeichen anfangs mit negativ empfundenen Bildern gezeigt wurden, habe ich versucht, meine Einschätzung des Zeichens unabhängig davon zu machen (wobei ich natürlich nicht weiß, ob mir das auch tatsächlich gelungen ist). Bei der Einschätzung der Silben kam es mir gefühlt nur auf mein Bauchgefühl und eigenen Geschmack an (ob ich z.B. den Klang der Silbe mochte).","0","1","0","","","","","","","","","","","","","","",""
"","external-html","1","80986","0.0-1.0","t8rz6ww85w","one_one","1","direct_first","1","nn06en05","1","21","1","1","3","2","Die angezeigten Bilder waren zum Glück nicht so schlimm, wie in der Beschreibung beschrieben (besonders über das Fehlen von leidenden Tieren bin ich froh). Ansonsten ist mir aufgefallen, dass nur 2(?) der mit den Bildern gezeigten Zeichen, später auch in der Assoziation vorkamen. Da ich noch wusste, dass die jeweiligen Zeichen anfangs mit negativ empfundenen Bildern gezeigt wurden, habe ich versucht, meine Einschätzung des Zeichens unabhängig davon zu machen (wobei ich natürlich nicht weiß, ob mir das auch tatsächlich gelungen ist). Bei der Einschätzung der Silben kam es mir gefühlt nur auf mein Bauchgefühl und eigenen Geschmack an (ob ich z.B. den Klang der Silbe mochte).","0","1","0","76653.90999987721","text/information.html","","","","","","","","","","","","",""
"","external-html","2","94175","0.0-2.0","t8rz6ww85w","one_one","1","direct_first","1","nn06en05","1","21","1","1","3","2","Die angezeigten Bilder waren zum Glück nicht so schlimm, wie in der Beschreibung beschrieben (besonders über das Fehlen von leidenden Tieren bin ich froh). Ansonsten ist mir aufgefallen, dass nur 2(?) der mit den Bildern gezeigten Zeichen, später auch in der Assoziation vorkamen. Da ich noch wusste, dass die jeweiligen Zeichen anfangs mit negativ empfundenen Bildern gezeigt wurden, habe ich versucht, meine Einschätzung des Zeichens unabhängig davon zu machen (wobei ich natürlich nicht weiß, ob mir das auch tatsächlich gelungen ist). Bei der Einschätzung der Silben kam es mir gefühlt nur auf mein Bauchgefühl und eigenen Geschmack an (ob ich z.B. den Klang der Silbe mochte).","0","1","0","13131.060000043362","text/consent.html","","","","","","","","","","","","",""
"","survey-html-form","3","240326","0.0-3.0","t8rz6ww85w","one_one","1","direct_first","1","nn06en05","1","21","1","1","3","2","Die angezeigten Bilder waren zum Glück nicht so schlimm, wie in der Beschreibung beschrieben (besonders über das Fehlen von leidenden Tieren bin ich froh). Ansonsten ist mir aufgefallen, dass nur 2(?) der mit den Bildern gezeigten Zeichen, später auch in der Assoziation vorkamen. Da ich noch wusste, dass die jeweiligen Zeichen anfangs mit negativ empfundenen Bildern gezeigt wurden, habe ich versucht, meine Einschätzung des Zeichens unabhängig davon zu machen (wobei ich natürlich nicht weiß, ob mir das auch tatsächlich gelungen ist). Bei der Einschätzung der Silben kam es mir gefühlt nur auf mein Bauchgefühl und eigenen Geschmack an (ob ich z.B. den Klang der Silbe mochte).","0","1","0","146148.98500032723","","{""codeword_enter"":""nn06en05""}","","","","","","","","","","","",""
"","survey-html-form","4","259426","0.0-4.0","t8rz6ww85w","one_one","1","direct_first","1","nn06en05","1","21","1","1","3","2","Die angezeigten Bilder waren zum Glück nicht so schlimm, wie in der Beschreibung beschrieben (besonders über das Fehlen von leidenden Tieren bin ich froh). Ansonsten ist mir aufgefallen, dass nur 2(?) der mit den Bildern gezeigten Zeichen, später auch in der Assoziation vorkamen. Da ich noch wusste, dass die jeweiligen Zeichen anfangs mit negativ empfundenen Bildern gezeigt wurden, habe ich versucht, meine Einschätzung des Zeichens unabhängig davon zu machen (wobei ich natürlich nicht weiß, ob mir das auch tatsächlich gelungen ist). Bei der Einschätzung der Silben kam es mir gefühlt nur auf mein Bauchgefühl und eigenen Geschmack an (ob ich z.B. den Klang der Silbe mochte).","0","1","0","19097.845000214875","","{""age"":""21"",""education"":""1"",""subject"":""3"",""gender"":""1"",""handedness"":""2"",""chinese"":""1""}","","","","","","","","","","","",""
"","survey-html-form","5","276740","0.0-5.0","t8rz6ww85w","one_one","1","direct_first","1","nn06en05","1","21","1","1","3","2","Die angezeigten Bilder waren zum Glück nicht so schlimm, wie in der Beschreibung beschrieben (besonders über das Fehlen von leidenden Tieren bin ich froh). Ansonsten ist mir aufgefallen, dass nur 2(?) der mit den Bildern gezeigten Zeichen, später auch in der Assoziation vorkamen. Da ich noch wusste, dass die jeweiligen Zeichen anfangs mit negativ empfundenen Bildern gezeigt wurden, habe ich versucht, meine Einschätzung des Zeichens unabhängig davon zu machen (wobei ich natürlich nicht weiß, ob mir das auch tatsächlich gelungen ist). Bei der Einschätzung der Silben kam es mir gefühlt nur auf mein Bauchgefühl und eigenen Geschmack an (ob ich z.B. den Klang der Silbe mochte).","0","1","0","17312.910000327975","","{}","","","","","","","","","","","",""
"","html-keyboard-response","6","280744","0.0-6.0-0.0-0.0","t8rz6ww85w","one_one","1","direct_first","1","nn06en05","1","21","1","1","3","2","Die angezeigten Bilder waren zum Glück nicht so schlimm, wie in der Beschreibung beschrieben (besonders über das Fehlen von leidenden Tieren bin ich froh). Ansonsten ist mir aufgefallen, dass nur 2(?) der mit den Bildern gezeigten Zeichen, später auch in der Assoziation vorkamen. Da ich noch wusste, dass die jeweiligen Zeichen anfangs mit negativ empfundenen Bildern gezeigt wurden, habe ich versucht, meine Einschätzung des Zeichens unabhängig davon zu machen (wobei ich natürlich nicht weiß, ob mir das auch tatsächlich gelungen ist). Bei der Einschätzung der Silben kam es mir gefühlt nur auf mein Bauchgefühl und eigenen Geschmack an (ob ich z.B. den Klang der Silbe mochte).","0","1","0","null","","","<div class = 'row'><div class = 'column'><img src = 'usneg/9830.bmp' width = '100%;'></div><div class = 'column'><img src = 'category2/CS1.png' width = '70%;'></div></div>","null","neg","CS","CS","2","category2/CS1.png","","","","",""
"","html-keyboard-response","7","283247","0.0-6.0-0.0-0.1","t8rz6ww85w","one_one","1","direct_first","1","nn06en05","1","21","1","1","3","2","Die angezeigten Bilder waren zum Glück nicht so schlimm, wie in der Beschreibung beschrieben (besonders über das Fehlen von leidenden Tieren bin ich froh). Ansonsten ist mir aufgefallen, dass nur 2(?) der mit den Bildern gezeigten Zeichen, später auch in der Assoziation vorkamen. Da ich noch wusste, dass die jeweiligen Zeichen anfangs mit negativ empfundenen Bildern gezeigt wurden, habe ich versucht, meine Einschätzung des Zeichens unabhängig davon zu machen (wobei ich natürlich nicht weiß, ob mir das auch tatsächlich gelungen ist). Bei der Einschätzung der Silben kam es mir gefühlt nur auf mein Bauchgefühl und eigenen Geschmack an (ob ich z.B. den Klang der Silbe mochte).","0","1","0","null","","","<div class = 'row'><div class = 'column'><img src = 'uspos/5470.bmp' width = '100%;'></div><div class = 'column'><img src = 'category4/CS2.png' width = '70%;'></div></div>","null","pos","CS","CS","4","category4/CS2.png","","","","",""
"","html-keyboard-response","8","285750","0.0-6.0-0.0-0.2","t8rz6ww85w","one_one","1","direct_first","1","nn06en05","1","21","1","1","3","2","Die angezeigten Bilder waren zum Glück nicht so schlimm, wie in der Beschreibung beschrieben (besonders über das Fehlen von leidenden Tieren bin ich froh). Ansonsten ist mir aufgefallen, dass nur 2(?) der mit den Bildern gezeigten Zeichen, später auch in der Assoziation vorkamen. Da ich noch wusste, dass die jeweiligen Zeichen anfangs mit negativ empfundenen Bildern gezeigt wurden, habe ich versucht, meine Einschätzung des Zeichens unabhängig davon zu machen (wobei ich natürlich nicht weiß, ob mir das auch tatsächlich gelungen ist). Bei der Einschätzung der Silben kam es mir gefühlt nur auf mein Bauchgefühl und eigenen Geschmack an (ob ich z.B. den Klang der Silbe mochte).","0","1","0","null","","","<div class = 'row'><div class = 'column'><img src = 'uspos/2341.bmp' width = '100%;'></div><div class = 'column'><img src = 'category1/CS1.png' width = '70%;'></div></div>","null","pos","CS","CS","1","category1/CS1.png","","","","",""
"","html-keyboard-response","9","288253","0.0-6.0-0.0-0.3","t8rz6ww85w","one_one","1","direct_first","1","nn06en05","1","21","1","1","3","2","Die angezeigten Bilder waren zum Glück nicht so schlimm, wie in der Beschreibung beschrieben (besonders über das Fehlen von leidenden Tieren bin ich froh). Ansonsten ist mir aufgefallen, dass nur 2(?) der mit den Bildern gezeigten Zeichen, später auch in der Assoziation vorkamen. Da ich noch wusste, dass die jeweiligen Zeichen anfangs mit negativ empfundenen Bildern gezeigt wurden, habe ich versucht, meine Einschätzung des Zeichens unabhängig davon zu machen (wobei ich natürlich nicht weiß, ob mir das auch tatsächlich gelungen ist). Bei der Einschätzung der Silben kam es mir gefühlt nur auf mein Bauchgefühl und eigenen Geschmack an (ob ich z.B. den Klang der Silbe mochte).","0","1","0","null","","","<div class = 'row'><div class = 'column'><img src = 'uspos/5470.bmp' width = '100%;'></div><div class = 'column'><img src = 'category4/CS2.png' width = '70%;'></div></div>","null","pos","CS","CS","4","category4/CS2.png","","","","",""
"","html-keyboard-response","10","290756","0.0-6.0-0.0-0.4","t8rz6ww85w","one_one","1","direct_first","1","nn06en05","1","21","1","1","3","2","Die angezeigten Bilder waren zum Glück nicht so schlimm, wie in der Beschreibung beschrieben (besonders über das Fehlen von leidenden Tieren bin ich froh). Ansonsten ist mir aufgefallen, dass nur 2(?) der mit den Bildern gezeigten Zeichen, später auch in der Assoziation vorkamen. Da ich noch wusste, dass die jeweiligen Zeichen anfangs mit negativ empfundenen Bildern gezeigt wurden, habe ich versucht, meine Einschätzung des Zeichens unabhängig davon zu machen (wobei ich natürlich nicht weiß, ob mir das auch tatsächlich gelungen ist). Bei der Einschätzung der Silben kam es mir gefühlt nur auf mein Bauchgefühl und eigenen Geschmack an (ob ich z.B. den Klang der Silbe mochte).","0","1","0","null","","","<div class = 'row'><div class = 'column'><img src = 'usneg/9330.bmp' width = '100%;'></div><div class = 'column'><img src = 'category3/CS8.png' width = '70%;'></div></div>","null","neg","CS","CS","3","category3/CS8.png","","","","",""
"","html-keyboard-response","11","293258","0.0-6.0-0.0-0.5","t8rz6ww85w","one_one","1","direct_first","1","nn06en05","1","21","1","1","3","2","Die angezeigten Bilder waren zum Glück nicht so schlimm, wie in der Beschreibung beschrieben (besonders über das Fehlen von leidenden Tieren bin ich froh). Ansonsten ist mir aufgefallen, dass nur 2(?) der mit den Bildern gezeigten Zeichen, später auch in der Assoziation vorkamen. Da ich noch wusste, dass die jeweiligen Zeichen anfangs mit negativ empfundenen Bildern gezeigt wurden, habe ich versucht, meine Einschätzung des Zeichens unabhängig davon zu machen (wobei ich natürlich nicht weiß, ob mir das auch tatsächlich gelungen ist). Bei der Einschätzung der Silben kam es mir gefühlt nur auf mein Bauchgefühl und eigenen Geschmack an (ob ich z.B. den Klang der Silbe mochte).","0","1","0","null","","","<div class = 'row'><div class = 'column'><img src = 'category1/CS1.png' width = '70%;'></div><div class = 'column'><img src = 'uspos/2341.bmp' width = '100%;'></div></div>","null","pos","CS","CS","1","category1/CS1.png","","","","",""
"","html-keyboard-response","12","295761","0.0-6.0-0.0-0.6","t8rz6ww85w","one_one","1","direct_first","1","nn06en05","1","21","1","1","3","2","Die angezeigten Bilder waren zum Glück nicht so schlimm, wie in der Beschreibung beschrieben (besonders über das Fehlen von leidenden Tieren bin ich froh). Ansonsten ist mir aufgefallen, dass nur 2(?) der mit den Bildern gezeigten Zeichen, später auch in der Assoziation vorkamen. Da ich noch wusste, dass die jeweiligen Zeichen anfangs mit negativ empfundenen Bildern gezeigt wurden, habe ich versucht, meine Einschätzung des Zeichens unabhängig davon zu machen (wobei ich natürlich nicht weiß, ob mir das auch tatsächlich gelungen ist). Bei der Einschätzung der Silben kam es mir gefühlt nur auf mein Bauchgefühl und eigenen Geschmack an (ob ich z.B. den Klang der Silbe mochte).","0","1","0","null","","","<div class = 'row'><div class = 'column'><img src = 'usneg/9330.bmp' width = '100%;'></div><div class = 'column'><img src = 'category3/CS8.png' width = '70%;'></div></div>","null","neg","CS","CS","3","category3/CS8.png","","","","",""
"","html-keyboard-response","13","298264","0.0-6.0-0.0-0.7","t8rz6ww85w","one_one","1","direct_first","1","nn06en05","1","21","1","1","3","2","Die angezeigten Bilder waren zum Glück nicht so schlimm, wie in der Beschreibung beschrieben (besonders über das Fehlen von leidenden Tieren bin ich froh). Ansonsten ist mir aufgefallen, dass nur 2(?) der mit den Bildern gezeigten Zeichen, später auch in der Assoziation vorkamen. Da ich noch wusste, dass die jeweiligen Zeichen anfangs mit negativ empfundenen Bildern gezeigt wurden, habe ich versucht, meine Einschätzung des Zeichens unabhängig davon zu machen (wobei ich natürlich nicht weiß, ob mir das auch tatsächlich gelungen ist). Bei der Einschätzung der Silben kam es mir gefühlt nur auf mein Bauchgefühl und eigenen Geschmack an (ob ich z.B. den Klang der Silbe mochte).","0","1","0","null","","","<div class = 'row'><div class = 'column'><img src = 'category1/CS1.png' width = '70%;'></div><div class = 'column'><img src = 'uspos/2341.bmp' width = '100%;'></div></div>","null","pos","CS","CS","1","category1/CS1.png","","","","",""
"","html-keyboard-response","14","300767","0.0-6.0-0.0-0.8","t8rz6ww85w","one_one","1","direct_first","1","nn06en05","1","21","1","1","3","2","Die angezeigten Bilder waren zum Glück nicht so schlimm, wie in der Beschreibung beschrieben (besonders über das Fehlen von leidenden Tieren bin ich froh). Ansonsten ist mir aufgefallen, dass nur 2(?) der mit den Bildern gezeigten Zeichen, später auch in der Assoziation vorkamen. Da ich noch wusste, dass die jeweiligen Zeichen anfangs mit negativ empfundenen Bildern gezeigt wurden, habe ich versucht, meine Einschätzung des Zeichens unabhängig davon zu machen (wobei ich natürlich nicht weiß, ob mir das auch tatsächlich gelungen ist). Bei der Einschätzung der Silben kam es mir gefühlt nur auf mein Bauchgefühl und eigenen Geschmack an (ob ich z.B. den Klang der Silbe mochte).","0","1","0","null","","","<div class = 'row'><div class = 'column'><img src = 'uspos/5470.bmp' width = '100%;'></div><div class = 'column'><img src = 'category4/CS2.png' width = '70%;'></div></div>","null","pos","CS","CS","4","category4/CS2.png","","","","",""
"","html-keyboard-response","15","303270","0.0-6.0-0.0-0.9","t8rz6ww85w","one_one","1","direct_first","1","nn06en05","1","21","1","1","3","2","Die angezeigten Bilder waren zum Glück nicht so schlimm, wie in der Beschreibung beschrieben (besonders über das Fehlen von leidenden Tieren bin ich froh). Ansonsten ist mir aufgefallen, dass nur 2(?) der mit den Bildern gezeigten Zeichen, später auch in der Assoziation vorkamen. Da ich noch wusste, dass die jeweiligen Zeichen anfangs mit negativ empfundenen Bildern gezeigt wurden, habe ich versucht, meine Einschätzung des Zeichens unabhängig davon zu machen (wobei ich natürlich nicht weiß, ob mir das auch tatsächlich gelungen ist). Bei der Einschätzung der Silben kam es mir gefühlt nur auf mein Bauchgefühl und eigenen Geschmack an (ob ich z.B. den Klang der Silbe mochte).","0","1","0","null","","","<div class = 'row'><div class = 'column'><img src = 'category2/CS1.png' width = '70%;'></div><div class = 'column'><img src = 'usneg/9830.bmp' width = '100%;'></div></div>","null","neg","CS","CS","2","category2/CS1.png","","","","",""
"","html-keyboard-response","16","305773","0.0-6.0-0.0-0.10","t8rz6ww85w","one_one","1","direct_first","1","nn06en05","1","21","1","1","3","2","Die angezeigten Bilder waren zum Glück nicht so schlimm, wie in der Beschreibung beschrieben (besonders über das Fehlen von leidenden Tieren bin ich froh). Ansonsten ist mir aufgefallen, dass nur 2(?) der mit den Bildern gezeigten Zeichen, später auch in der Assoziation vorkamen. Da ich noch wusste, dass die jeweiligen Zeichen anfangs mit negativ empfundenen Bildern gezeigt wurden, habe ich versucht, meine Einschätzung des Zeichens unabhängig davon zu machen (wobei ich natürlich nicht weiß, ob mir das auch tatsächlich gelungen ist). Bei der Einschätzung der Silben kam es mir gefühlt nur auf mein Bauchgefühl und eigenen Geschmack an (ob ich z.B. den Klang der Silbe mochte).","0","1","0","null","","","<div class = 'row'><div class = 'column'><img src = 'category3/CS8.png' width = '70%;'></div><div class = 'column'><img src = 'usneg/9330.bmp' width = '100%;'></div></div>","null","neg","CS","CS","3","category3/CS8.png","","","","",""
"","html-keyboard-response","17","308277","0.0-6.0-0.0-0.11","t8rz6ww85w","one_one","1","direct_first","1","nn06en05","1","21","1","1","3","2","Die angezeigten Bilder waren zum Glück nicht so schlimm, wie in der Beschreibung beschrieben (besonders über das Fehlen von leidenden Tieren bin ich froh). Ansonsten ist mir aufgefallen, dass nur 2(?) der mit den Bildern gezeigten Zeichen, später auch in der Assoziation vorkamen. Da ich noch wusste, dass die jeweiligen Zeichen anfangs mit negativ empfundenen Bildern gezeigt wurden, habe ich versucht, meine Einschätzung des Zeichens unabhängig davon zu machen (wobei ich natürlich nicht weiß, ob mir das auch tatsächlich gelungen ist). Bei der Einschätzung der Silben kam es mir gefühlt nur auf mein Bauchgefühl und eigenen Geschmack an (ob ich z.B. den Klang der Silbe mochte).","0","1","0","null","","","<div class = 'row'><div class = 'column'><img src = 'category2/CS1.png' width = '70%;'></div><div class = 'column'><img src = 'usneg/9830.bmp' width = '100%;'></div></div>","null","neg","CS","CS","2","category2/CS1.png","","","","",""
"","html-keyboard-response","18","310781","0.0-6.0-0.0-0.12","t8rz6ww85w","one_one","1","direct_first","1","nn06en05","1","21","1","1","3","2","Die angezeigten Bilder waren zum Glück nicht so schlimm, wie in der Beschreibung beschrieben (besonders über das Fehlen von leidenden Tieren bin ich froh). Ansonsten ist mir aufgefallen, dass nur 2(?) der mit den Bildern gezeigten Zeichen, später auch in der Assoziation vorkamen. Da ich noch wusste, dass die jeweiligen Zeichen anfangs mit negativ empfundenen Bildern gezeigt wurden, habe ich versucht, meine Einschätzung des Zeichens unabhängig davon zu machen (wobei ich natürlich nicht weiß, ob mir das auch tatsächlich gelungen ist). Bei der Einschätzung der Silben kam es mir gefühlt nur auf mein Bauchgefühl und eigenen Geschmack an (ob ich z.B. den Klang der Silbe mochte).","0","1","0","null","","","<div class = 'row'><div class = 'column'><img src = 'category4/CS2.png' width = '70%;'></div><div class = 'column'><img src = 'uspos/5470.bmp' width = '100%;'></div></div>","null","pos","CS","CS","4","category4/CS2.png","","","","",""
"","html-keyboard-response","19","313284","0.0-6.0-0.0-0.13","t8rz6ww85w","one_one","1","direct_first","1","nn06en05","1","21","1","1","3","2","Die angezeigten Bilder waren zum Glück nicht so schlimm, wie in der Beschreibung beschrieben (besonders über das Fehlen von leidenden Tieren bin ich froh). Ansonsten ist mir aufgefallen, dass nur 2(?) der mit den Bildern gezeigten Zeichen, später auch in der Assoziation vorkamen. Da ich noch wusste, dass die jeweiligen Zeichen anfangs mit negativ empfundenen Bildern gezeigt wurden, habe ich versucht, meine Einschätzung des Zeichens unabhängig davon zu machen (wobei ich natürlich nicht weiß, ob mir das auch tatsächlich gelungen ist). Bei der Einschätzung der Silben kam es mir gefühlt nur auf mein Bauchgefühl und eigenen Geschmack an (ob ich z.B. den Klang der Silbe mochte).","0","1","0","null","","","<div class = 'row'><div class = 'column'><img src = 'category2/CS1.png' width = '70%;'></div><div class = 'column'><img src = 'usneg/9830.bmp' width = '100%;'></div></div>","null","neg","CS","CS","2","category2/CS1.png","","","","",""
"","html-keyboard-response","20","315788","0.0-6.0-0.0-0.14","t8rz6ww85w","one_one","1","direct_first","1","nn06en05","1","21","1","1","3","2","Die angezeigten Bilder waren zum Glück nicht so schlimm, wie in der Beschreibung beschrieben (besonders über das Fehlen von leidenden Tieren bin ich froh). Ansonsten ist mir aufgefallen, dass nur 2(?) der mit den Bildern gezeigten Zeichen, später auch in der Assoziation vorkamen. Da ich noch wusste, dass die jeweiligen Zeichen anfangs mit negativ empfundenen Bildern gezeigt wurden, habe ich versucht, meine Einschätzung des Zeichens unabhängig davon zu machen (wobei ich natürlich nicht weiß, ob mir das auch tatsächlich gelungen ist). Bei der Einschätzung der Silben kam es mir gefühlt nur auf mein Bauchgefühl und eigenen Geschmack an (ob ich z.B. den Klang der Silbe mochte).","0","1","0","null","","","<div class = 'row'><div class = 'column'><img src = 'category1/CS1.png' width = '70%;'></div><div class = 'column'><img src = 'uspos/2341.bmp' width = '100%;'></div></div>","null","pos","CS","CS","1","category1/CS1.png","","","","",""
"","html-keyboard-response","21","318291","0.0-6.0-0.0-0.15","t8rz6ww85w","one_one","1","direct_first","1","nn06en05","1","21","1","1","3","2","Die angezeigten Bilder waren zum Glück nicht so schlimm, wie in der Beschreibung beschrieben (besonders über das Fehlen von leidenden Tieren bin ich froh). Ansonsten ist mir aufgefallen, dass nur 2(?) der mit den Bildern gezeigten Zeichen, später auch in der Assoziation vorkamen. Da ich noch wusste, dass die jeweiligen Zeichen anfangs mit negativ empfundenen Bildern gezeigt wurden, habe ich versucht, meine Einschätzung des Zeichens unabhängig davon zu machen (wobei ich natürlich nicht weiß, ob mir das auch tatsächlich gelungen ist). Bei der Einschätzung der Silben kam es mir gefühlt nur auf mein Bauchgefühl und eigenen Geschmack an (ob ich z.B. den Klang der Silbe mochte).","0","1","0","null","","","<div class = 'row'><div class = 'column'><img src = 'category3/CS8.png' width = '70%;'></div><div class = 'column'><img src = 'usneg/9330.bmp' width = '100%;'></div></div>","null","neg","CS","CS","3","category3/CS8.png","","","","",""
"","html-keyboard-response","22","320795","0.0-6.0-0.0-0.16","t8rz6ww85w","one_one","1","direct_first","1","nn06en05","1","21","1","1","3","2","Die angezeigten Bilder waren zum Glück nicht so schlimm, wie in der Beschreibung beschrieben (besonders über das Fehlen von leidenden Tieren bin ich froh). Ansonsten ist mir aufgefallen, dass nur 2(?) der mit den Bildern gezeigten Zeichen, später auch in der Assoziation vorkamen. Da ich noch wusste, dass die jeweiligen Zeichen anfangs mit negativ empfundenen Bildern gezeigt wurden, habe ich versucht, meine Einschätzung des Zeichens unabhängig davon zu machen (wobei ich natürlich nicht weiß, ob mir das auch tatsächlich gelungen ist). Bei der Einschätzung der Silben kam es mir gefühlt nur auf mein Bauchgefühl und eigenen Geschmack an (ob ich z.B. den Klang der Silbe mochte).","0","1","0","null","","","<div class = 'row'><div class = 'column'><img src = 'uspos/2341.bmp' width = '100%;'></div><div class = 'column'><img src = 'category1/CS1.png' width = '70%;'></div></div>","null","pos","CS","CS","1","category1/CS1.png","","","","",""
"","html-keyboard-response","23","323299","0.0-6.0-0.0-0.17","t8rz6ww85w","one_one","1","direct_first","1","nn06en05","1","21","1","1","3","2","Die angezeigten Bilder waren zum Glück nicht so schlimm, wie in der Beschreibung beschrieben (besonders über das Fehlen von leidenden Tieren bin ich froh). Ansonsten ist mir aufgefallen, dass nur 2(?) der mit den Bildern gezeigten Zeichen, später auch in der Assoziation vorkamen. Da ich noch wusste, dass die jeweiligen Zeichen anfangs mit negativ empfundenen Bildern gezeigt wurden, habe ich versucht, meine Einschätzung des Zeichens unabhängig davon zu machen (wobei ich natürlich nicht weiß, ob mir das auch tatsächlich gelungen ist). Bei der Einschätzung der Silben kam es mir gefühlt nur auf mein Bauchgefühl und eigenen Geschmack an (ob ich z.B. den Klang der Silbe mochte).","0","1","0","null","","","<div class = 'row'><div class = 'column'><img src = 'usneg/9330.bmp' width = '100%;'></div><div class = 'column'><img src = 'category3/CS8.png' width = '70%;'></div></div>","null","neg","CS","CS","3","category3/CS8.png","","","","",""
"","html-keyboard-response","24","325802","0.0-6.0-0.0-0.18","t8rz6ww85w","one_one","1","direct_first","1","nn06en05","1","21","1","1","3","2","Die angezeigten Bilder waren zum Glück nicht so schlimm, wie in der Beschreibung beschrieben (besonders über das Fehlen von leidenden Tieren bin ich froh). Ansonsten ist mir aufgefallen, dass nur 2(?) der mit den Bildern gezeigten Zeichen, später auch in der Assoziation vorkamen. Da ich noch wusste, dass die jeweiligen Zeichen anfangs mit negativ empfundenen Bildern gezeigt wurden, habe ich versucht, meine Einschätzung des Zeichens unabhängig davon zu machen (wobei ich natürlich nicht weiß, ob mir das auch tatsächlich gelungen ist). Bei der Einschätzung der Silben kam es mir gefühlt nur auf mein Bauchgefühl und eigenen Geschmack an (ob ich z.B. den Klang der Silbe mochte).","0","1","0","null","","","<div class = 'row'><div class = 'column'><img src = 'uspos/5470.bmp' width = '100%;'></div><div class = 'column'><img src = 'category4/CS2.png' width = '70%;'></div></div>","null","pos","CS","CS","4","category4/CS2.png","","","","",""
"","html-keyboard-response","25","328305","0.0-6.0-0.0-0.19","t8rz6ww85w","one_one","1","direct_first","1","nn06en05","1","21","1","1","3","2","Die angezeigten Bilder waren zum Glück nicht so schlimm, wie in der Beschreibung beschrieben (besonders über das Fehlen von leidenden Tieren bin ich froh). Ansonsten ist mir aufgefallen, dass nur 2(?) der mit den Bildern gezeigten Zeichen, später auch in der Assoziation vorkamen. Da ich noch wusste, dass die jeweiligen Zeichen anfangs mit negativ empfundenen Bildern gezeigt wurden, habe ich versucht, meine Einschätzung des Zeichens unabhängig davon zu machen (wobei ich natürlich nicht weiß, ob mir das auch tatsächlich gelungen ist). Bei der Einschätzung der Silben kam es mir gefühlt nur auf mein Bauchgefühl und eigenen Geschmack an (ob ich z.B. den Klang der Silbe mochte).","0","1","0","null","","","<div class = 'row'><div class = 'column'><img src = 'category2/CS1.png' width = '70%;'></div><div class = 'column'><img src = 'usneg/9830.bmp' width = '100%;'></div></div>","null","neg","CS","CS","2","category2/CS1.png","","","","",""
"","survey-html-form","26","336558","0.0-6.0-1.0","t8rz6ww85w","one_one","1","direct_first","1","nn06en05","1","21","1","1","3","2","Die angezeigten Bilder waren zum Glück nicht so schlimm, wie in der Beschreibung beschrieben (besonders über das Fehlen von leidenden Tieren bin ich froh). Ansonsten ist mir aufgefallen, dass nur 2(?) der mit den Bildern gezeigten Zeichen, später auch in der Assoziation vorkamen. Da ich noch wusste, dass die jeweiligen Zeichen anfangs mit negativ empfundenen Bildern gezeigt wurden, habe ich versucht, meine Einschätzung des Zeichens unabhängig davon zu machen (wobei ich natürlich nicht weiß, ob mir das auch tatsächlich gelungen ist). Bei der Einschätzung der Silben kam es mir gefühlt nur auf mein Bauchgefühl und eigenen Geschmack an (ob ich z.B. den Klang der Silbe mochte).","0","1","0","7751.629999838769","","{}","","","","","","","","","","","",""
"","html-keyboard-response","27","340561","0.0-6.0-2.0-0.0","t8rz6ww85w","one_one","1","direct_first","1","nn06en05","1","21","1","1","3","2","Die angezeigten Bilder waren zum Glück nicht so schlimm, wie in der Beschreibung beschrieben (besonders über das Fehlen von leidenden Tieren bin ich froh). Ansonsten ist mir aufgefallen, dass nur 2(?) der mit den Bildern gezeigten Zeichen, später auch in der Assoziation vorkamen. Da ich noch wusste, dass die jeweiligen Zeichen anfangs mit negativ empfundenen Bildern gezeigt wurden, habe ich versucht, meine Einschätzung des Zeichens unabhängig davon zu machen (wobei ich natürlich nicht weiß, ob mir das auch tatsächlich gelungen ist). Bei der Einschätzung der Silben kam es mir gefühlt nur auf mein Bauchgefühl und eigenen Geschmack an (ob ich z.B. den Klang der Silbe mochte).","0","1","0","null","","","<div class = 'row'><div class = 'column'><img src = 'usneg/9330.bmp' width = '100%;'></div><div class = 'column'><img src = 'category3/CS8.png' width = '70%;'></div></div>","null","neg","CS","CS","3","category3/CS8.png","","","","",""
"","html-keyboard-response","28","343064","0.0-6.0-2.0-0.1","t8rz6ww85w","one_one","1","direct_first","1","nn06en05","1","21","1","1","3","2","Die angezeigten Bilder waren zum Glück nicht so schlimm, wie in der Beschreibung beschrieben (besonders über das Fehlen von leidenden Tieren bin ich froh). Ansonsten ist mir aufgefallen, dass nur 2(?) der mit den Bildern gezeigten Zeichen, später auch in der Assoziation vorkamen. Da ich noch wusste, dass die jeweiligen Zeichen anfangs mit negativ empfundenen Bildern gezeigt wurden, habe ich versucht, meine Einschätzung des Zeichens unabhängig davon zu machen (wobei ich natürlich nicht weiß, ob mir das auch tatsächlich gelungen ist). Bei der Einschätzung der Silben kam es mir gefühlt nur auf mein Bauchgefühl und eigenen Geschmack an (ob ich z.B. den Klang der Silbe mochte).","0","1","0","null","","","<div class = 'row'><div class = 'column'><img src = 'uspos/2341.bmp' width = '100%;'></div><div class = 'column'><img src = 'category1/CS1.png' width = '70%;'></div></div>","null","pos","CS","CS","1","category1/CS1.png","","","","",""
"","html-keyboard-response","29","345567","0.0-6.0-2.0-0.2","t8rz6ww85w","one_one","1","direct_first","1","nn06en05","1","21","1","1","3","2","Die angezeigten Bilder waren zum Glück nicht so schlimm, wie in der Beschreibung beschrieben (besonders über das Fehlen von leidenden Tieren bin ich froh). Ansonsten ist mir aufgefallen, dass nur 2(?) der mit den Bildern gezeigten Zeichen, später auch in der Assoziation vorkamen. Da ich noch wusste, dass die jeweiligen Zeichen anfangs mit negativ empfundenen Bildern gezeigt wurden, habe ich versucht, meine Einschätzung des Zeichens unabhängig davon zu machen (wobei ich natürlich nicht weiß, ob mir das auch tatsächlich gelungen ist). Bei der Einschätzung der Silben kam es mir gefühlt nur auf mein Bauchgefühl und eigenen Geschmack an (ob ich z.B. den Klang der Silbe mochte).","0","1","0","null","","","<div class = 'row'><div class = 'column'><img src = 'usneg/9830.bmp' width = '100%;'></div><div class = 'column'><img src = 'category2/CS1.png' width = '70%;'></div></div>","null","neg","CS","CS","2","category2/CS1.png","","","","",""
"","html-keyboard-response","30","348069","0.0-6.0-2.0-0.3","t8rz6ww85w","one_one","1","direct_first","1","nn06en05","1","21","1","1","3","2","Die angezeigten Bilder waren zum Glück nicht so schlimm, wie in der Beschreibung beschrieben (besonders über das Fehlen von leidenden Tieren bin ich froh). Ansonsten ist mir aufgefallen, dass nur 2(?) der mit den Bildern gezeigten Zeichen, später auch in der Assoziation vorkamen. Da ich noch wusste, dass die jeweiligen Zeichen anfangs mit negativ empfundenen Bildern gezeigt wurden, habe ich versucht, meine Einschätzung des Zeichens unabhängig davon zu machen (wobei ich natürlich nicht weiß, ob mir das auch tatsächlich gelungen ist). Bei der Einschätzung der Silben kam es mir gefühlt nur auf mein Bauchgefühl und eigenen Geschmack an (ob ich z.B. den Klang der Silbe mochte).","0","1","0","null","","","<div class = 'row'><div class = 'column'><img src = 'uspos/2341.bmp' width = '100%;'></div><div class = 'column'><img src = 'category1/CS1.png' width = '70%;'></div></div>","null","pos","CS","CS","1","category1/CS1.png","","","","",""
"","html-keyboard-response","31","350572","0.0-6.0-2.0-0.4","t8rz6ww85w","one_one","1","direct_first","1","nn06en05","1","21","1","1","3","2","Die angezeigten Bilder waren zum Glück nicht so schlimm, wie in der Beschreibung beschrieben (besonders über das Fehlen von leidenden Tieren bin ich froh). Ansonsten ist mir aufgefallen, dass nur 2(?) der mit den Bildern gezeigten Zeichen, später auch in der Assoziation vorkamen. Da ich noch wusste, dass die jeweiligen Zeichen anfangs mit negativ empfundenen Bildern gezeigt wurden, habe ich versucht, meine Einschätzung des Zeichens unabhängig davon zu machen (wobei ich natürlich nicht weiß, ob mir das auch tatsächlich gelungen ist). Bei der Einschätzung der Silben kam es mir gefühlt nur auf mein Bauchgefühl und eigenen Geschmack an (ob ich z.B. den Klang der Silbe mochte).","0","1","0","null","","","<div class = 'row'><div class = 'column'><img src = 'category3/CS8.png' width = '70%;'></div><div class = 'column'><img src = 'usneg/9330.bmp' width = '100%;'></div></div>","null","neg","CS","CS","3","category3/CS8.png","","","","",""
"","html-keyboard-response","32","353076","0.0-6.0-2.0-0.5","t8rz6ww85w","one_one","1","direct_first","1","nn06en05","1","21","1","1","3","2","Die angezeigten Bilder waren zum Glück nicht so schlimm, wie in der Beschreibung beschrieben (besonders über das Fehlen von leidenden Tieren bin ich froh). Ansonsten ist mir aufgefallen, dass nur 2(?) der mit den Bildern gezeigten Zeichen, später auch in der Assoziation vorkamen. Da ich noch wusste, dass die jeweiligen Zeichen anfangs mit negativ empfundenen Bildern gezeigt wurden, habe ich versucht, meine Einschätzung des Zeichens unabhängig davon zu machen (wobei ich natürlich nicht weiß, ob mir das auch tatsächlich gelungen ist). Bei der Einschätzung der Silben kam es mir gefühlt nur auf mein Bauchgefühl und eigenen Geschmack an (ob ich z.B. den Klang der Silbe mochte).","0","1","0","null","","","<div class = 'row'><div class = 'column'><img src = 'category4/CS2.png' width = '70%;'></div><div class = 'column'><img src = 'uspos/5470.bmp' width = '100%;'></div></div>","null","pos","CS","CS","4","category4/CS2.png","","","","",""
"","html-keyboard-response","33","355579","0.0-6.0-2.0-0.6","t8rz6ww85w","one_one","1","direct_first","1","nn06en05","1","21","1","1","3","2","Die angezeigten Bilder waren zum Glück nicht so schlimm, wie in der Beschreibung beschrieben (besonders über das Fehlen von leidenden Tieren bin ich froh). Ansonsten ist mir aufgefallen, dass nur 2(?) der mit den Bildern gezeigten Zeichen, später auch in der Assoziation vorkamen. Da ich noch wusste, dass die jeweiligen Zeichen anfangs mit negativ empfundenen Bildern gezeigt wurden, habe ich versucht, meine Einschätzung des Zeichens unabhängig davon zu machen (wobei ich natürlich nicht weiß, ob mir das auch tatsächlich gelungen ist). Bei der Einschätzung der Silben kam es mir gefühlt nur auf mein Bauchgefühl und eigenen Geschmack an (ob ich z.B. den Klang der Silbe mochte).","0","1","0","null","","","<div class = 'row'><div class = 'column'><img src = 'usneg/9830.bmp' width = '100%;'></div><div class = 'column'><img src = 'category2/CS1.png' width = '70%;'></div></div>","null","neg","CS","CS","2","category2/CS1.png","","","","",""
"","html-keyboard-response","34","358081","0.0-6.0-2.0-0.7","t8rz6ww85w","one_one","1","direct_first","1","nn06en05","1","21","1","1","3","2","Die angezeigten Bilder waren zum Glück nicht so schlimm, wie in der Beschreibung beschrieben (besonders über das Fehlen von leidenden Tieren bin ich froh). Ansonsten ist mir aufgefallen, dass nur 2(?) der mit den Bildern gezeigten Zeichen, später auch in der Assoziation vorkamen. Da ich noch wusste, dass die jeweiligen Zeichen anfangs mit negativ empfundenen Bildern gezeigt wurden, habe ich versucht, meine Einschätzung des Zeichens unabhängig davon zu machen (wobei ich natürlich nicht weiß, ob mir das auch tatsächlich gelungen ist). Bei der Einschätzung der Silben kam es mir gefühlt nur auf mein Bauchgefühl und eigenen Geschmack an (ob ich z.B. den Klang der Silbe mochte).","0","1","0","null","","","<div class = 'row'><div class = 'column'><img src = 'uspos/2341.bmp' width = '100%;'></div><div class = 'column'><img src = 'category1/CS1.png' width = '70%;'></div></div>","null","pos","CS","CS","1","category1/CS1.png","","","","",""
"","html-keyboard-response","35","360584","0.0-6.0-2.0-0.8","t8rz6ww85w","one_one","1","direct_first","1","nn06en05","1","21","1","1","3","2","Die angezeigten Bilder waren zum Glück nicht so schlimm, wie in der Beschreibung beschrieben (besonders über das Fehlen von leidenden Tieren bin ich froh). Ansonsten ist mir aufgefallen, dass nur 2(?) der mit den Bildern gezeigten Zeichen, später auch in der Assoziation vorkamen. Da ich noch wusste, dass die jeweiligen Zeichen anfangs mit negativ empfundenen Bildern gezeigt wurden, habe ich versucht, meine Einschätzung des Zeichens unabhängig davon zu machen (wobei ich natürlich nicht weiß, ob mir das auch tatsächlich gelungen ist). Bei der Einschätzung der Silben kam es mir gefühlt nur auf mein Bauchgefühl und eigenen Geschmack an (ob ich z.B. den Klang der Silbe mochte).","0","1","0","null","","","<div class = 'row'><div class = 'column'><img src = 'category2/CS1.png' width = '70%;'></div><div class = 'column'><img src = 'usneg/9830.bmp' width = '100%;'></div></div>","null","neg","CS","CS","2","category2/CS1.png","","","","",""
"","html-keyboard-response","36","363089","0.0-6.0-2.0-0.9","t8rz6ww85w","one_one","1","direct_first","1","nn06en05","1","21","1","1","3","2","Die angezeigten Bilder waren zum Glück nicht so schlimm, wie in der Beschreibung beschrieben (besonders über das Fehlen von leidenden Tieren bin ich froh). Ansonsten ist mir aufgefallen, dass nur 2(?) der mit den Bildern gezeigten Zeichen, später auch in der Assoziation vorkamen. Da ich noch wusste, dass die jeweiligen Zeichen anfangs mit negativ empfundenen Bildern gezeigt wurden, habe ich versucht, meine Einschätzung des Zeichens unabhängig davon zu machen (wobei ich natürlich nicht weiß, ob mir das auch tatsächlich gelungen ist). Bei der Einschätzung der Silben kam es mir gefühlt nur auf mein Bauchgefühl und eigenen Geschmack an (ob ich z.B. den Klang der Silbe mochte).","0","1","0","null","","","<div class = 'row'><div class = 'column'><img src = 'category4/CS2.png' width = '70%;'></div><div class = 'column'><img src = 'uspos/5470.bmp' width = '100%;'></div></div>","null","pos","CS","CS","4","category4/CS2.png","","","","",""
"","html-keyboard-response","37","365590","0.0-6.0-2.0-0.10","t8rz6ww85w","one_one","1","direct_first","1","nn06en05","1","21","1","1","3","2","Die angezeigten Bilder waren zum Glück nicht so schlimm, wie in der Beschreibung beschrieben (besonders über das Fehlen von leidenden Tieren bin ich froh). Ansonsten ist mir aufgefallen, dass nur 2(?) der mit den Bildern gezeigten Zeichen, später auch in der Assoziation vorkamen. Da ich noch wusste, dass die jeweiligen Zeichen anfangs mit negativ empfundenen Bildern gezeigt wurden, habe ich versucht, meine Einschätzung des Zeichens unabhängig davon zu machen (wobei ich natürlich nicht weiß, ob mir das auch tatsächlich gelungen ist). Bei der Einschätzung der Silben kam es mir gefühlt nur auf mein Bauchgefühl und eigenen Geschmack an (ob ich z.B. den Klang der Silbe mochte).","0","1","0","null","","","<div class = 'row'><div class = 'column'><img src = 'category3/CS8.png' width = '70%;'></div><div class = 'column'><img src = 'usneg/9330.bmp' width = '100%;'></div></div>","null","neg","CS","CS","3","category3/CS8.png","","","","",""
"","html-keyboard-response","38","368093","0.0-6.0-2.0-0.11","t8rz6ww85w","one_one","1","direct_first","1","nn06en05","1","21","1","1","3","2","Die angezeigten Bilder waren zum Glück nicht so schlimm, wie in der Beschreibung beschrieben (besonders über das Fehlen von leidenden Tieren bin ich froh). Ansonsten ist mir aufgefallen, dass nur 2(?) der mit den Bildern gezeigten Zeichen, später auch in der Assoziation vorkamen. Da ich noch wusste, dass die jeweiligen Zeichen anfangs mit negativ empfundenen Bildern gezeigt wurden, habe ich versucht, meine Einschätzung des Zeichens unabhängig davon zu machen (wobei ich natürlich nicht weiß, ob mir das auch tatsächlich gelungen ist). Bei der Einschätzung der Silben kam es mir gefühlt nur auf mein Bauchgefühl und eigenen Geschmack an (ob ich z.B. den Klang der Silbe mochte).","0","1","0","null","","","<div class = 'row'><div class = 'column'><img src = 'category1/CS1.png' width = '70%;'></div><div class = 'column'><img src = 'uspos/2341.bmp' width = '100%;'></div></div>","null","pos","CS","CS","1","category1/CS1.png","","","","",""
"","html-keyboard-response","39","370596","0.0-6.0-2.0-0.12","t8rz6ww85w","one_one","1","direct_first","1","nn06en05","1","21","1","1","3","2","Die angezeigten Bilder waren zum Glück nicht so schlimm, wie in der Beschreibung beschrieben (besonders über das Fehlen von leidenden Tieren bin ich froh). Ansonsten ist mir aufgefallen, dass nur 2(?) der mit den Bildern gezeigten Zeichen, später auch in der Assoziation vorkamen. Da ich noch wusste, dass die jeweiligen Zeichen anfangs mit negativ empfundenen Bildern gezeigt wurden, habe ich versucht, meine Einschätzung des Zeichens unabhängig davon zu machen (wobei ich natürlich nicht weiß, ob mir das auch tatsächlich gelungen ist). Bei der Einschätzung der Silben kam es mir gefühlt nur auf mein Bauchgefühl und eigenen Geschmack an (ob ich z.B. den Klang der Silbe mochte).","0","1","0","null","","","<div class = 'row'><div class = 'column'><img src = 'usneg/9330.bmp' width = '100%;'></div><div class = 'column'><img src = 'category3/CS8.png' width = '70%;'></div></div>","null","neg","CS","CS","3","category3/CS8.png","","","","",""
"","html-keyboard-response","40","373098","0.0-6.0-2.0-0.13","t8rz6ww85w","one_one","1","direct_first","1","nn06en05","1","21","1","1","3","2","Die angezeigten Bilder waren zum Glück nicht so schlimm, wie in der Beschreibung beschrieben (besonders über das Fehlen von leidenden Tieren bin ich froh). Ansonsten ist mir aufgefallen, dass nur 2(?) der mit den Bildern gezeigten Zeichen, später auch in der Assoziation vorkamen. Da ich noch wusste, dass die jeweiligen Zeichen anfangs mit negativ empfundenen Bildern gezeigt wurden, habe ich versucht, meine Einschätzung des Zeichens unabhängig davon zu machen (wobei ich natürlich nicht weiß, ob mir das auch tatsächlich gelungen ist). Bei der Einschätzung der Silben kam es mir gefühlt nur auf mein Bauchgefühl und eigenen Geschmack an (ob ich z.B. den Klang der Silbe mochte).","0","1","0","null","","","<div class = 'row'><div class = 'column'><img src = 'category4/CS2.png' width = '70%;'></div><div class = 'column'><img src = 'uspos/5470.bmp' width = '100%;'></div></div>","null","pos","CS","CS","4","category4/CS2.png","","","","",""
"","html-keyboard-response","41","375602","0.0-6.0-2.0-0.14","t8rz6ww85w","one_one","1","direct_first","1","nn06en05","1","21","1","1","3","2","Die angezeigten Bilder waren zum Glück nicht so schlimm, wie in der Beschreibung beschrieben (besonders über das Fehlen von leidenden Tieren bin ich froh). Ansonsten ist mir aufgefallen, dass nur 2(?) der mit den Bildern gezeigten Zeichen, später auch in der Assoziation vorkamen. Da ich noch wusste, dass die jeweiligen Zeichen anfangs mit negativ empfundenen Bildern gezeigt wurden, habe ich versucht, meine Einschätzung des Zeichens unabhängig davon zu machen (wobei ich natürlich nicht weiß, ob mir das auch tatsächlich gelungen ist). Bei der Einschätzung der Silben kam es mir gefühlt nur auf mein Bauchgefühl und eigenen Geschmack an (ob ich z.B. den Klang der Silbe mochte).","0","1","0","null","","","<div class = 'row'><div class = 'column'><img src = 'category2/CS1.png' width = '70%;'></div><div class = 'column'><img src = 'usneg/9830.bmp' width = '100%;'></div></div>","null","neg","CS","CS","2","category2/CS1.png","","","","",""
"","html-keyboard-response","42","378105","0.0-6.0-2.0-0.15","t8rz6ww85w","one_one","1","direct_first","1","nn06en05","1","21","1","1","3","2","Die angezeigten Bilder waren zum Glück nicht so schlimm, wie in der Beschreibung beschrieben (besonders über das Fehlen von leidenden Tieren bin ich froh). Ansonsten ist mir aufgefallen, dass nur 2(?) der mit den Bildern gezeigten Zeichen, später auch in der Assoziation vorkamen. Da ich noch wusste, dass die jeweiligen Zeichen anfangs mit negativ empfundenen Bildern gezeigt wurden, habe ich versucht, meine Einschätzung des Zeichens unabhängig davon zu machen (wobei ich natürlich nicht weiß, ob mir das auch tatsächlich gelungen ist). Bei der Einschätzung der Silben kam es mir gefühlt nur auf mein Bauchgefühl und eigenen Geschmack an (ob ich z.B. den Klang der Silbe mochte).","0","1","0","null","","","<div class = 'row'><div class = 'column'><img src = 'usneg/9330.bmp' width = '100%;'></div><div class = 'column'><img src = 'category3/CS8.png' width = '70%;'></div></div>","null","neg","CS","CS","3","category3/CS8.png","","","","",""
"","html-keyboard-response","43","380610","0.0-6.0-2.0-0.16","t8rz6ww85w","one_one","1","direct_first","1","nn06en05","1","21","1","1","3","2","Die angezeigten Bilder waren zum Glück nicht so schlimm, wie in der Beschreibung beschrieben (besonders über das Fehlen von leidenden Tieren bin ich froh). Ansonsten ist mir aufgefallen, dass nur 2(?) der mit den Bildern gezeigten Zeichen, später auch in der Assoziation vorkamen. Da ich noch wusste, dass die jeweiligen Zeichen anfangs mit negativ empfundenen Bildern gezeigt wurden, habe ich versucht, meine Einschätzung des Zeichens unabhängig davon zu machen (wobei ich natürlich nicht weiß, ob mir das auch tatsächlich gelungen ist). Bei der Einschätzung der Silben kam es mir gefühlt nur auf mein Bauchgefühl und eigenen Geschmack an (ob ich z.B. den Klang der Silbe mochte).","0","1","0","null","","","<div class = 'row'><div class = 'column'><img src = 'category1/CS1.png' width = '70%;'></div><div class = 'column'><img src = 'uspos/2341.bmp' width = '100%;'></div></div>","null","pos","CS","CS","1","category1/CS1.png","","","","",""
"","html-keyboard-response","44","383112","0.0-6.0-2.0-0.17","t8rz6ww85w","one_one","1","direct_first","1","nn06en05","1","21","1","1","3","2","Die angezeigten Bilder waren zum Glück nicht so schlimm, wie in der Beschreibung beschrieben (besonders über das Fehlen von leidenden Tieren bin ich froh). Ansonsten ist mir aufgefallen, dass nur 2(?) der mit den Bildern gezeigten Zeichen, später auch in der Assoziation vorkamen. Da ich noch wusste, dass die jeweiligen Zeichen anfangs mit negativ empfundenen Bildern gezeigt wurden, habe ich versucht, meine Einschätzung des Zeichens unabhängig davon zu machen (wobei ich natürlich nicht weiß, ob mir das auch tatsächlich gelungen ist). Bei der Einschätzung der Silben kam es mir gefühlt nur auf mein Bauchgefühl und eigenen Geschmack an (ob ich z.B. den Klang der Silbe mochte).","0","1","0","null","","","<div class = 'row'><div class = 'column'><img src = 'uspos/5470.bmp' width = '100%;'></div><div class = 'column'><img src = 'category4/CS2.png' width = '70%;'></div></div>","null","pos","CS","CS","4","category4/CS2.png","","","","",""
"","html-keyboard-response","45","385615","0.0-6.0-2.0-0.18","t8rz6ww85w","one_one","1","direct_first","1","nn06en05","1","21","1","1","3","2","Die angezeigten Bilder waren zum Glück nicht so schlimm, wie in der Beschreibung beschrieben (besonders über das Fehlen von leidenden Tieren bin ich froh). Ansonsten ist mir aufgefallen, dass nur 2(?) der mit den Bildern gezeigten Zeichen, später auch in der Assoziation vorkamen. Da ich noch wusste, dass die jeweiligen Zeichen anfangs mit negativ empfundenen Bildern gezeigt wurden, habe ich versucht, meine Einschätzung des Zeichens unabhängig davon zu machen (wobei ich natürlich nicht weiß, ob mir das auch tatsächlich gelungen ist). Bei der Einschätzung der Silben kam es mir gefühlt nur auf mein Bauchgefühl und eigenen Geschmack an (ob ich z.B. den Klang der Silbe mochte).","0","1","0","null","","","<div class = 'row'><div class = 'column'><img src = 'usneg/9830.bmp' width = '100%;'></div><div class = 'column'><img src = 'category2/CS1.png' width = '70%;'></div></div>","null","neg","CS","CS","2","category2/CS1.png","","","","",""
"","html-keyboard-response","46","388119","0.0-6.0-2.0-0.19","t8rz6ww85w","one_one","1","direct_first","1","nn06en05","1","21","1","1","3","2","Die angezeigten Bilder waren zum Glück nicht so schlimm, wie in der Beschreibung beschrieben (besonders über das Fehlen von leidenden Tieren bin ich froh). Ansonsten ist mir aufgefallen, dass nur 2(?) der mit den Bildern gezeigten Zeichen, später auch in der Assoziation vorkamen. Da ich noch wusste, dass die jeweiligen Zeichen anfangs mit negativ empfundenen Bildern gezeigt wurden, habe ich versucht, meine Einschätzung des Zeichens unabhängig davon zu machen (wobei ich natürlich nicht weiß, ob mir das auch tatsächlich gelungen ist). Bei der Einschätzung der Silben kam es mir gefühlt nur auf mein Bauchgefühl und eigenen Geschmack an (ob ich z.B. den Klang der Silbe mochte).","0","1","0","null","","","<div class = 'row'><div class = 'column'><img src = 'uspos/5470.bmp' width = '100%;'></div><div class = 'column'><img src = 'category4/CS2.png' width = '70%;'></div></div>","null","pos","CS","CS","4","category4/CS2.png","","","","",""
"","survey-html-form","47","390500","0.0-6.0-3.0","t8rz6ww85w","one_one","1","direct_first","1","nn06en05","1","21","1","1","3","2","Die angezeigten Bilder waren zum Glück nicht so schlimm, wie in der Beschreibung beschrieben (besonders über das Fehlen von leidenden Tieren bin ich froh). Ansonsten ist mir aufgefallen, dass nur 2(?) der mit den Bildern gezeigten Zeichen, später auch in der Assoziation vorkamen. Da ich noch wusste, dass die jeweiligen Zeichen anfangs mit negativ empfundenen Bildern gezeigt wurden, habe ich versucht, meine Einschätzung des Zeichens unabhängig davon zu machen (wobei ich natürlich nicht weiß, ob mir das auch tatsächlich gelungen ist). Bei der Einschätzung der Silben kam es mir gefühlt nur auf mein Bauchgefühl und eigenen Geschmack an (ob ich z.B. den Klang der Silbe mochte).","0","1","0","1879.14999993518","","{}","","","","","","","","","","","",""
"","html-keyboard-response","48","394503","0.0-6.0-4.0-0.0","t8rz6ww85w","one_one","1","direct_first","1","nn06en05","1","21","1","1","3","2","Die angezeigten Bilder waren zum Glück nicht so schlimm, wie in der Beschreibung beschrieben (besonders über das Fehlen von leidenden Tieren bin ich froh). Ansonsten ist mir aufgefallen, dass nur 2(?) der mit den Bildern gezeigten Zeichen, später auch in der Assoziation vorkamen. Da ich noch wusste, dass die jeweiligen Zeichen anfangs mit negativ empfundenen Bildern gezeigt wurden, habe ich versucht, meine Einschätzung des Zeichens unabhängig davon zu machen (wobei ich natürlich nicht weiß, ob mir das auch tatsächlich gelungen ist). Bei der Einschätzung der Silben kam es mir gefühlt nur auf mein Bauchgefühl und eigenen Geschmack an (ob ich z.B. den Klang der Silbe mochte).","0","1","0","null","","","<div class = 'row'><div class = 'column'><img src = 'category3/CS8.png' width = '70%;'></div><div class = 'column'><img src = 'usneg/9330.bmp' width = '100%;'></div></div>","null","neg","CS","CS","3","category3/CS8.png","","","","",""
"","html-keyboard-response","49","397007","0.0-6.0-4.0-0.1","t8rz6ww85w","one_one","1","direct_first","1","nn06en05","1","21","1","1","3","2","Die angezeigten Bilder waren zum Glück nicht so schlimm, wie in der Beschreibung beschrieben (besonders über das Fehlen von leidenden Tieren bin ich froh). Ansonsten ist mir aufgefallen, dass nur 2(?) der mit den Bildern gezeigten Zeichen, später auch in der Assoziation vorkamen. Da ich noch wusste, dass die jeweiligen Zeichen anfangs mit negativ empfundenen Bildern gezeigt wurden, habe ich versucht, meine Einschätzung des Zeichens unabhängig davon zu machen (wobei ich natürlich nicht weiß, ob mir das auch tatsächlich gelungen ist). Bei der Einschätzung der Silben kam es mir gefühlt nur auf mein Bauchgefühl und eigenen Geschmack an (ob ich z.B. den Klang der Silbe mochte).","0","1","0","null","","","<div class = 'row'><div class = 'column'><img src = 'usneg/9830.bmp' width = '100%;'></div><div class = 'column'><img src = 'category2/CS1.png' width = '70%;'></div></div>","null","neg","CS","CS","2","category2/CS1.png","","","","",""
"","html-keyboard-response","50","399510","0.0-6.0-4.0-0.2","t8rz6ww85w","one_one","1","direct_first","1","nn06en05","1","21","1","1","3","2","Die angezeigten Bilder waren zum Glück nicht so schlimm, wie in der Beschreibung beschrieben (besonders über das Fehlen von leidenden Tieren bin ich froh). Ansonsten ist mir aufgefallen, dass nur 2(?) der mit den Bildern gezeigten Zeichen, später auch in der Assoziation vorkamen. Da ich noch wusste, dass die jeweiligen Zeichen anfangs mit negativ empfundenen Bildern gezeigt wurden, habe ich versucht, meine Einschätzung des Zeichens unabhängig davon zu machen (wobei ich natürlich nicht weiß, ob mir das auch tatsächlich gelungen ist). Bei der Einschätzung der Silben kam es mir gefühlt nur auf mein Bauchgefühl und eigenen Geschmack an (ob ich z.B. den Klang der Silbe mochte).","0","1","0","null","","","<div class = 'row'><div class = 'column'><img src = 'uspos/5470.bmp' width = '100%;'></div><div class = 'column'><img src = 'category4/CS2.png' width = '70%;'></div></div>","null","pos","CS","CS","4","category4/CS2.png","","","","",""
"","html-keyboard-response","51","402013","0.0-6.0-4.0-0.3","t8rz6ww85w","one_one","1","direct_first","1","nn06en05","1","21","1","1","3","2","Die angezeigten Bilder waren zum Glück nicht so schlimm, wie in der Beschreibung beschrieben (besonders über das Fehlen von leidenden Tieren bin ich froh). Ansonsten ist mir aufgefallen, dass nur 2(?) der mit den Bildern gezeigten Zeichen, später auch in der Assoziation vorkamen. Da ich noch wusste, dass die jeweiligen Zeichen anfangs mit negativ empfundenen Bildern gezeigt wurden, habe ich versucht, meine Einschätzung des Zeichens unabhängig davon zu machen (wobei ich natürlich nicht weiß, ob mir das auch tatsächlich gelungen ist). Bei der Einschätzung der Silben kam es mir gefühlt nur auf mein Bauchgefühl und eigenen Geschmack an (ob ich z.B. den Klang der Silbe mochte).","0","1","0","null","","","<div class = 'row'><div class = 'column'><img src = 'usneg/9830.bmp' width = '100%;'></div><div class = 'column'><img src = 'category2/CS1.png' width = '70%;'></div></div>","null","neg","CS","CS","2","category2/CS1.png","","","","",""
"","html-keyboard-response","52","404516","0.0-6.0-4.0-0.4","t8rz6ww85w","one_one","1","direct_first","1","nn06en05","1","21","1","1","3","2","Die angezeigten Bilder waren zum Glück nicht so schlimm, wie in der Beschreibung beschrieben (besonders über das Fehlen von leidenden Tieren bin ich froh). Ansonsten ist mir aufgefallen, dass nur 2(?) der mit den Bildern gezeigten Zeichen, später auch in der Assoziation vorkamen. Da ich noch wusste, dass die jeweiligen Zeichen anfangs mit negativ empfundenen Bildern gezeigt wurden, habe ich versucht, meine Einschätzung des Zeichens unabhängig davon zu machen (wobei ich natürlich nicht weiß, ob mir das auch tatsächlich gelungen ist). Bei der Einschätzung der Silben kam es mir gefühlt nur auf mein Bauchgefühl und eigenen Geschmack an (ob ich z.B. den Klang der Silbe mochte).","0","1","0","null","","","<div class = 'row'><div class = 'column'><img src = 'category3/CS8.png' width = '70%;'></div><div class = 'column'><img src = 'usneg/9330.bmp' width = '100%;'></div></div>","null","neg","CS","CS","3","category3/CS8.png","","","","",""
"","html-keyboard-response","53","407020","0.0-6.0-4.0-0.5","t8rz6ww85w","one_one","1","direct_first","1","nn06en05","1","21","1","1","3","2","Die angezeigten Bilder waren zum Glück nicht so schlimm, wie in der Beschreibung beschrieben (besonders über das Fehlen von leidenden Tieren bin ich froh). Ansonsten ist mir aufgefallen, dass nur 2(?) der mit den Bildern gezeigten Zeichen, später auch in der Assoziation vorkamen. Da ich noch wusste, dass die jeweiligen Zeichen anfangs mit negativ empfundenen Bildern gezeigt wurden, habe ich versucht, meine Einschätzung des Zeichens unabhängig davon zu machen (wobei ich natürlich nicht weiß, ob mir das auch tatsächlich gelungen ist). Bei der Einschätzung der Silben kam es mir gefühlt nur auf mein Bauchgefühl und eigenen Geschmack an (ob ich z.B. den Klang der Silbe mochte).","0","1","0","null","","","<div class = 'row'><div class = 'column'><img src = 'category2/CS1.png' width = '70%;'></div><div class = 'column'><img src = 'usneg/9830.bmp' width = '100%;'></div></div>","null","neg","CS","CS","2","category2/CS1.png","","","","",""
"","html-keyboard-response","54","409522","0.0-6.0-4.0-0.6","t8rz6ww85w","one_one","1","direct_first","1","nn06en05","1","21","1","1","3","2","Die angezeigten Bilder waren zum Glück nicht so schlimm, wie in der Beschreibung beschrieben (besonders über das Fehlen von leidenden Tieren bin ich froh). Ansonsten ist mir aufgefallen, dass nur 2(?) der mit den Bildern gezeigten Zeichen, später auch in der Assoziation vorkamen. Da ich noch wusste, dass die jeweiligen Zeichen anfangs mit negativ empfundenen Bildern gezeigt wurden, habe ich versucht, meine Einschätzung des Zeichens unabhängig davon zu machen (wobei ich natürlich nicht weiß, ob mir das auch tatsächlich gelungen ist). Bei der Einschätzung der Silben kam es mir gefühlt nur auf mein Bauchgefühl und eigenen Geschmack an (ob ich z.B. den Klang der Silbe mochte).","0","1","0","null","","","<div class = 'row'><div class = 'column'><img src = 'uspos/5470.bmp' width = '100%;'></div><div class = 'column'><img src = 'category4/CS2.png' width = '70%;'></div></div>","null","pos","CS","CS","4","category4/CS2.png","","","","",""
"","html-keyboard-response","55","412026","0.0-6.0-4.0-0.7","t8rz6ww85w","one_one","1","direct_first","1","nn06en05","1","21","1","1","3","2","Die angezeigten Bilder waren zum Glück nicht so schlimm, wie in der Beschreibung beschrieben (besonders über das Fehlen von leidenden Tieren bin ich froh). Ansonsten ist mir aufgefallen, dass nur 2(?) der mit den Bildern gezeigten Zeichen, später auch in der Assoziation vorkamen. Da ich noch wusste, dass die jeweiligen Zeichen anfangs mit negativ empfundenen Bildern gezeigt wurden, habe ich versucht, meine Einschätzung des Zeichens unabhängig davon zu machen (wobei ich natürlich nicht weiß, ob mir das auch tatsächlich gelungen ist). Bei der Einschätzung der Silben kam es mir gefühlt nur auf mein Bauchgefühl und eigenen Geschmack an (ob ich z.B. den Klang der Silbe mochte).","0","1","0","null","","","<div class = 'row'><div class = 'column'><img src = 'uspos/2341.bmp' width = '100%;'></div><div class = 'column'><img src = 'category1/CS1.png' width = '70%;'></div></div>","null","pos","CS","CS","1","category1/CS1.png","","","","",""
"","html-keyboard-response","56","414529","0.0-6.0-4.0-0.8","t8rz6ww85w","one_one","1","direct_first","1","nn06en05","1","21","1","1","3","2","Die angezeigten Bilder waren zum Glück nicht so schlimm, wie in der Beschreibung beschrieben (besonders über das Fehlen von leidenden Tieren bin ich froh). Ansonsten ist mir aufgefallen, dass nur 2(?) der mit den Bildern gezeigten Zeichen, später auch in der Assoziation vorkamen. Da ich noch wusste, dass die jeweiligen Zeichen anfangs mit negativ empfundenen Bildern gezeigt wurden, habe ich versucht, meine Einschätzung des Zeichens unabhängig davon zu machen (wobei ich natürlich nicht weiß, ob mir das auch tatsächlich gelungen ist). Bei der Einschätzung der Silben kam es mir gefühlt nur auf mein Bauchgefühl und eigenen Geschmack an (ob ich z.B. den Klang der Silbe mochte).","0","1","0","null","","","<div class = 'row'><div class = 'column'><img src = 'uspos/5470.bmp' width = '100%;'></div><div class = 'column'><img src = 'category4/CS2.png' width = '70%;'></div></div>","null","pos","CS","CS","4","category4/CS2.png","","","","",""
"","html-keyboard-response","57","417032","0.0-6.0-4.0-0.9","t8rz6ww85w","one_one","1","direct_first","1","nn06en05","1","21","1","1","3","2","Die angezeigten Bilder waren zum Glück nicht so schlimm, wie in der Beschreibung beschrieben (besonders über das Fehlen von leidenden Tieren bin ich froh). Ansonsten ist mir aufgefallen, dass nur 2(?) der mit den Bildern gezeigten Zeichen, später auch in der Assoziation vorkamen. Da ich noch wusste, dass die jeweiligen Zeichen anfangs mit negativ empfundenen Bildern gezeigt wurden, habe ich versucht, meine Einschätzung des Zeichens unabhängig davon zu machen (wobei ich natürlich nicht weiß, ob mir das auch tatsächlich gelungen ist). Bei der Einschätzung der Silben kam es mir gefühlt nur auf mein Bauchgefühl und eigenen Geschmack an (ob ich z.B. den Klang der Silbe mochte).","0","1","0","null","","","<div class = 'row'><div class = 'column'><img src = 'uspos/2341.bmp' width = '100%;'></div><div class = 'column'><img src = 'category1/CS1.png' width = '70%;'></div></div>","null","pos","CS","CS","1","category1/CS1.png","","","","",""
"","html-keyboard-response","58","419536","0.0-6.0-4.0-0.10","t8rz6ww85w","one_one","1","direct_first","1","nn06en05","1","21","1","1","3","2","Die angezeigten Bilder waren zum Glück nicht so schlimm, wie in der Beschreibung beschrieben (besonders über das Fehlen von leidenden Tieren bin ich froh). Ansonsten ist mir aufgefallen, dass nur 2(?) der mit den Bildern gezeigten Zeichen, später auch in der Assoziation vorkamen. Da ich noch wusste, dass die jeweiligen Zeichen anfangs mit negativ empfundenen Bildern gezeigt wurden, habe ich versucht, meine Einschätzung des Zeichens unabhängig davon zu machen (wobei ich natürlich nicht weiß, ob mir das auch tatsächlich gelungen ist). Bei der Einschätzung der Silben kam es mir gefühlt nur auf mein Bauchgefühl und eigenen Geschmack an (ob ich z.B. den Klang der Silbe mochte).","0","1","0","null","","","<div class = 'row'><div class = 'column'><img src = 'category3/CS8.png' width = '70%;'></div><div class = 'column'><img src = 'usneg/9330.bmp' width = '100%;'></div></div>","null","neg","CS","CS","3","category3/CS8.png","","","","",""
"","html-keyboard-response","59","422038","0.0-6.0-4.0-0.11","t8rz6ww85w","one_one","1","direct_first","1","nn06en05","1","21","1","1","3","2","Die angezeigten Bilder waren zum Glück nicht so schlimm, wie in der Beschreibung beschrieben (besonders über das Fehlen von leidenden Tieren bin ich froh). Ansonsten ist mir aufgefallen, dass nur 2(?) der mit den Bildern gezeigten Zeichen, später auch in der Assoziation vorkamen. Da ich noch wusste, dass die jeweiligen Zeichen anfangs mit negativ empfundenen Bildern gezeigt wurden, habe ich versucht, meine Einschätzung des Zeichens unabhängig davon zu machen (wobei ich natürlich nicht weiß, ob mir das auch tatsächlich gelungen ist). Bei der Einschätzung der Silben kam es mir gefühlt nur auf mein Bauchgefühl und eigenen Geschmack an (ob ich z.B. den Klang der Silbe mochte).","0","1","0","null","","","<div class = 'row'><div class = 'column'><img src = 'usneg/9830.bmp' width = '100%;'></div><div class = 'column'><img src = 'category2/CS1.png' width = '70%;'></div></div>","null","neg","CS","CS","2","category2/CS1.png","","","","",""
"","html-keyboard-response","60","424541","0.0-6.0-4.0-0.12","t8rz6ww85w","one_one","1","direct_first","1","nn06en05","1","21","1","1","3","2","Die angezeigten Bilder waren zum Glück nicht so schlimm, wie in der Beschreibung beschrieben (besonders über das Fehlen von leidenden Tieren bin ich froh). Ansonsten ist mir aufgefallen, dass nur 2(?) der mit den Bildern gezeigten Zeichen, später auch in der Assoziation vorkamen. Da ich noch wusste, dass die jeweiligen Zeichen anfangs mit negativ empfundenen Bildern gezeigt wurden, habe ich versucht, meine Einschätzung des Zeichens unabhängig davon zu machen (wobei ich natürlich nicht weiß, ob mir das auch tatsächlich gelungen ist). Bei der Einschätzung der Silben kam es mir gefühlt nur auf mein Bauchgefühl und eigenen Geschmack an (ob ich z.B. den Klang der Silbe mochte).","0","1","0","null","","","<div class = 'row'><div class = 'column'><img src = 'category4/CS2.png' width = '70%;'></div><div class = 'column'><img src = 'uspos/5470.bmp' width = '100%;'></div></div>","null","pos","CS","CS","4","category4/CS2.png","","","","",""
"","html-keyboard-response","61","427045","0.0-6.0-4.0-0.13","t8rz6ww85w","one_one","1","direct_first","1","nn06en05","1","21","1","1","3","2","Die angezeigten Bilder waren zum Glück nicht so schlimm, wie in der Beschreibung beschrieben (besonders über das Fehlen von leidenden Tieren bin ich froh). Ansonsten ist mir aufgefallen, dass nur 2(?) der mit den Bildern gezeigten Zeichen, später auch in der Assoziation vorkamen. Da ich noch wusste, dass die jeweiligen Zeichen anfangs mit negativ empfundenen Bildern gezeigt wurden, habe ich versucht, meine Einschätzung des Zeichens unabhängig davon zu machen (wobei ich natürlich nicht weiß, ob mir das auch tatsächlich gelungen ist). Bei der Einschätzung der Silben kam es mir gefühlt nur auf mein Bauchgefühl und eigenen Geschmack an (ob ich z.B. den Klang der Silbe mochte).","0","1","0","null","","","<div class = 'row'><div class = 'column'><img src = 'category2/CS1.png' width = '70%;'></div><div class = 'column'><img src = 'usneg/9830.bmp' width = '100%;'></div></div>","null","neg","CS","CS","2","category2/CS1.png","","","","",""
"","html-keyboard-response","62","429548","0.0-6.0-4.0-0.14","t8rz6ww85w","one_one","1","direct_first","1","nn06en05","1","21","1","1","3","2","Die angezeigten Bilder waren zum Glück nicht so schlimm, wie in der Beschreibung beschrieben (besonders über das Fehlen von leidenden Tieren bin ich froh). Ansonsten ist mir aufgefallen, dass nur 2(?) der mit den Bildern gezeigten Zeichen, später auch in der Assoziation vorkamen. Da ich noch wusste, dass die jeweiligen Zeichen anfangs mit negativ empfundenen Bildern gezeigt wurden, habe ich versucht, meine Einschätzung des Zeichens unabhängig davon zu machen (wobei ich natürlich nicht weiß, ob mir das auch tatsächlich gelungen ist). Bei der Einschätzung der Silben kam es mir gefühlt nur auf mein Bauchgefühl und eigenen Geschmack an (ob ich z.B. den Klang der Silbe mochte).","0","1","0","null","","","<div class = 'row'><div class = 'column'><img src = 'uspos/2341.bmp' width = '100%;'></div><div class = 'column'><img src = 'category1/CS1.png' width = '70%;'></div></div>","null","pos","CS","CS","1","category1/CS1.png","","","","",""
"","html-keyboard-response","63","432050","0.0-6.0-4.0-0.15","t8rz6ww85w","one_one","1","direct_first","1","nn06en05","1","21","1","1","3","2","Die angezeigten Bilder waren zum Glück nicht so schlimm, wie in der Beschreibung beschrieben (besonders über das Fehlen von leidenden Tieren bin ich froh). Ansonsten ist mir aufgefallen, dass nur 2(?) der mit den Bildern gezeigten Zeichen, später auch in der Assoziation vorkamen. Da ich noch wusste, dass die jeweiligen Zeichen anfangs mit negativ empfundenen Bildern gezeigt wurden, habe ich versucht, meine Einschätzung des Zeichens unabhängig davon zu machen (wobei ich natürlich nicht weiß, ob mir das auch tatsächlich gelungen ist). Bei der Einschätzung der Silben kam es mir gefühlt nur auf mein Bauchgefühl und eigenen Geschmack an (ob ich z.B. den Klang der Silbe mochte).","0","1","0","null","","","<div class = 'row'><div class = 'column'><img src = 'category3/CS8.png' width = '70%;'></div><div class = 'column'><img src = 'usneg/9330.bmp' width = '100%;'></div></div>","null","neg","CS","CS","3","category3/CS8.png","","","","",""
"","html-keyboard-response","64","434553","0.0-6.0-4.0-0.16","t8rz6ww85w","one_one","1","direct_first","1","nn06en05","1","21","1","1","3","2","Die angezeigten Bilder waren zum Glück nicht so schlimm, wie in der Beschreibung beschrieben (besonders über das Fehlen von leidenden Tieren bin ich froh). Ansonsten ist mir aufgefallen, dass nur 2(?) der mit den Bildern gezeigten Zeichen, später auch in der Assoziation vorkamen. Da ich noch wusste, dass die jeweiligen Zeichen anfangs mit negativ empfundenen Bildern gezeigt wurden, habe ich versucht, meine Einschätzung des Zeichens unabhängig davon zu machen (wobei ich natürlich nicht weiß, ob mir das auch tatsächlich gelungen ist). Bei der Einschätzung der Silben kam es mir gefühlt nur auf mein Bauchgefühl und eigenen Geschmack an (ob ich z.B. den Klang der Silbe mochte).","0","1","0","null","","","<div class = 'row'><div class = 'column'><img src = 'uspos/2341.bmp' width = '100%;'></div><div class = 'column'><img src = 'category1/CS1.png' width = '70%;'></div></div>","null","pos","CS","CS","1","category1/CS1.png","","","","",""
"","html-keyboard-response","65","437057","0.0-6.0-4.0-0.17","t8rz6ww85w","one_one","1","direct_first","1","nn06en05","1","21","1","1","3","2","Die angezeigten Bilder waren zum Glück nicht so schlimm, wie in der Beschreibung beschrieben (besonders über das Fehlen von leidenden Tieren bin ich froh). Ansonsten ist mir aufgefallen, dass nur 2(?) der mit den Bildern gezeigten Zeichen, später auch in der Assoziation vorkamen. Da ich noch wusste, dass die jeweiligen Zeichen anfangs mit negativ empfundenen Bildern gezeigt wurden, habe ich versucht, meine Einschätzung des Zeichens unabhängig davon zu machen (wobei ich natürlich nicht weiß, ob mir das auch tatsächlich gelungen ist). Bei der Einschätzung der Silben kam es mir gefühlt nur auf mein Bauchgefühl und eigenen Geschmack an (ob ich z.B. den Klang der Silbe mochte).","0","1","0","null","","","<div class = 'row'><div class = 'column'><img src = 'uspos/5470.bmp' width = '100%;'></div><div class = 'column'><img src = 'category4/CS2.png' width = '70%;'></div></div>","null","pos","CS","CS","4","category4/CS2.png","","","","",""
"","html-keyboard-response","66","439561","0.0-6.0-4.0-0.18","t8rz6ww85w","one_one","1","direct_first","1","nn06en05","1","21","1","1","3","2","Die angezeigten Bilder waren zum Glück nicht so schlimm, wie in der Beschreibung beschrieben (besonders über das Fehlen von leidenden Tieren bin ich froh). Ansonsten ist mir aufgefallen, dass nur 2(?) der mit den Bildern gezeigten Zeichen, später auch in der Assoziation vorkamen. Da ich noch wusste, dass die jeweiligen Zeichen anfangs mit negativ empfundenen Bildern gezeigt wurden, habe ich versucht, meine Einschätzung des Zeichens unabhängig davon zu machen (wobei ich natürlich nicht weiß, ob mir das auch tatsächlich gelungen ist). Bei der Einschätzung der Silben kam es mir gefühlt nur auf mein Bauchgefühl und eigenen Geschmack an (ob ich z.B. den Klang der Silbe mochte).","0","1","0","null","","","<div class = 'row'><div class = 'column'><img src = 'usneg/9330.bmp' width = '100%;'></div><div class = 'column'><img src = 'category3/CS8.png' width = '70%;'></div></div>","null","neg","CS","CS","3","category3/CS8.png","","","","",""
"","html-keyboard-response","67","442064","0.0-6.0-4.0-0.19","t8rz6ww85w","one_one","1","direct_first","1","nn06en05","1","21","1","1","3","2","Die angezeigten Bilder waren zum Glück nicht so schlimm, wie in der Beschreibung beschrieben (besonders über das Fehlen von leidenden Tieren bin ich froh). Ansonsten ist mir aufgefallen, dass nur 2(?) der mit den Bildern gezeigten Zeichen, später auch in der Assoziation vorkamen. Da ich noch wusste, dass die jeweiligen Zeichen anfangs mit negativ empfundenen Bildern gezeigt wurden, habe ich versucht, meine Einschätzung des Zeichens unabhängig davon zu machen (wobei ich natürlich nicht weiß, ob mir das auch tatsächlich gelungen ist). Bei der Einschätzung der Silben kam es mir gefühlt nur auf mein Bauchgefühl und eigenen Geschmack an (ob ich z.B. den Klang der Silbe mochte).","0","1","0","null","","","<div class = 'row'><div class = 'column'><img src = 'uspos/2341.bmp' width = '100%;'></div><div class = 'column'><img src = 'category1/CS1.png' width = '70%;'></div></div>","null","pos","CS","CS","1","category1/CS1.png","","","","",""
"","survey-html-form","68","443950","0.0-6.0-5.0","t8rz6ww85w","one_one","1","direct_first","1","nn06en05","1","21","1","1","3","2","Die angezeigten Bilder waren zum Glück nicht so schlimm, wie in der Beschreibung beschrieben (besonders über das Fehlen von leidenden Tieren bin ich froh). Ansonsten ist mir aufgefallen, dass nur 2(?) der mit den Bildern gezeigten Zeichen, später auch in der Assoziation vorkamen. Da ich noch wusste, dass die jeweiligen Zeichen anfangs mit negativ empfundenen Bildern gezeigt wurden, habe ich versucht, meine Einschätzung des Zeichens unabhängig davon zu machen (wobei ich natürlich nicht weiß, ob mir das auch tatsächlich gelungen ist). Bei der Einschätzung der Silben kam es mir gefühlt nur auf mein Bauchgefühl und eigenen Geschmack an (ob ich z.B. den Klang der Silbe mochte).","0","1","0","1383.6949998512864","","{}","","","","","","","","","","","",""
"","html-keyboard-response","69","447955","0.0-6.0-6.0-0.0","t8rz6ww85w","one_one","1","direct_first","1","nn06en05","1","21","1","1","3","2","Die angezeigten Bilder waren zum Glück nicht so schlimm, wie in der Beschreibung beschrieben (besonders über das Fehlen von leidenden Tieren bin ich froh). Ansonsten ist mir aufgefallen, dass nur 2(?) der mit den Bildern gezeigten Zeichen, später auch in der Assoziation vorkamen. Da ich noch wusste, dass die jeweiligen Zeichen anfangs mit negativ empfundenen Bildern gezeigt wurden, habe ich versucht, meine Einschätzung des Zeichens unabhängig davon zu machen (wobei ich natürlich nicht weiß, ob mir das auch tatsächlich gelungen ist). Bei der Einschätzung der Silben kam es mir gefühlt nur auf mein Bauchgefühl und eigenen Geschmack an (ob ich z.B. den Klang der Silbe mochte).","0","1","0","null","","","<div class = 'row'><div class = 'column'><img src = 'category3/CS8.png' width = '70%;'></div><div class = 'column'><img src = 'usneg/9330.bmp' width = '100%;'></div></div>","null","neg","CS","CS","3","category3/CS8.png","","","","",""
"","html-keyboard-response","70","450458","0.0-6.0-6.0-0.1","t8rz6ww85w","one_one","1","direct_first","1","nn06en05","1","21","1","1","3","2","Die angezeigten Bilder waren zum Glück nicht so schlimm, wie in der Beschreibung beschrieben (besonders über das Fehlen von leidenden Tieren bin ich froh). Ansonsten ist mir aufgefallen, dass nur 2(?) der mit den Bildern gezeigten Zeichen, später auch in der Assoziation vorkamen. Da ich noch wusste, dass die jeweiligen Zeichen anfangs mit negativ empfundenen Bildern gezeigt wurden, habe ich versucht, meine Einschätzung des Zeichens unabhängig davon zu machen (wobei ich natürlich nicht weiß, ob mir das auch tatsächlich gelungen ist). Bei der Einschätzung der Silben kam es mir gefühlt nur auf mein Bauchgefühl und eigenen Geschmack an (ob ich z.B. den Klang der Silbe mochte).","0","1","0","null","","","<div class = 'row'><div class = 'column'><img src = 'usneg/9830.bmp' width = '100%;'></div><div class = 'column'><img src = 'category2/CS1.png' width = '70%;'></div></div>","null","neg","CS","CS","2","category2/CS1.png","","","","",""
"","html-keyboard-response","71","452962","0.0-6.0-6.0-0.2","t8rz6ww85w","one_one","1","direct_first","1","nn06en05","1","21","1","1","3","2","Die angezeigten Bilder waren zum Glück nicht so schlimm, wie in der Beschreibung beschrieben (besonders über das Fehlen von leidenden Tieren bin ich froh). Ansonsten ist mir aufgefallen, dass nur 2(?) der mit den Bildern gezeigten Zeichen, später auch in der Assoziation vorkamen. Da ich noch wusste, dass die jeweiligen Zeichen anfangs mit negativ empfundenen Bildern gezeigt wurden, habe ich versucht, meine Einschätzung des Zeichens unabhängig davon zu machen (wobei ich natürlich nicht weiß, ob mir das auch tatsächlich gelungen ist). Bei der Einschätzung der Silben kam es mir gefühlt nur auf mein Bauchgefühl und eigenen Geschmack an (ob ich z.B. den Klang der Silbe mochte).","0","1","0","null","","","<div class = 'row'><div class = 'column'><img src = 'category3/CS8.png' width = '70%;'></div><div class = 'column'><img src = 'usneg/9330.bmp' width = '100%;'></div></div>","null","neg","CS","CS","3","category3/CS8.png","","","","",""
"","html-keyboard-response","72","455464","0.0-6.0-6.0-0.3","t8rz6ww85w","one_one","1","direct_first","1","nn06en05","1","21","1","1","3","2","Die angezeigten Bilder waren zum Glück nicht so schlimm, wie in der Beschreibung beschrieben (besonders über das Fehlen von leidenden Tieren bin ich froh). Ansonsten ist mir aufgefallen, dass nur 2(?) der mit den Bildern gezeigten Zeichen, später auch in der Assoziation vorkamen. Da ich noch wusste, dass die jeweiligen Zeichen anfangs mit negativ empfundenen Bildern gezeigt wurden, habe ich versucht, meine Einschätzung des Zeichens unabhängig davon zu machen (wobei ich natürlich nicht weiß, ob mir das auch tatsächlich gelungen ist). Bei der Einschätzung der Silben kam es mir gefühlt nur auf mein Bauchgefühl und eigenen Geschmack an (ob ich z.B. den Klang der Silbe mochte).","0","1","0","null","","","<div class = 'row'><div class = 'column'><img src = 'usneg/9830.bmp' width = '100%;'></div><div class = 'column'><img src = 'category2/CS1.png' width = '70%;'></div></div>","null","neg","CS","CS","2","category2/CS1.png","","","","",""
"","html-keyboard-response","73","457967","0.0-6.0-6.0-0.4","t8rz6ww85w","one_one","1","direct_first","1","nn06en05","1","21","1","1","3","2","Die angezeigten Bilder waren zum Glück nicht so schlimm, wie in der Beschreibung beschrieben (besonders über das Fehlen von leidenden Tieren bin ich froh). Ansonsten ist mir aufgefallen, dass nur 2(?) der mit den Bildern gezeigten Zeichen, später auch in der Assoziation vorkamen. Da ich noch wusste, dass die jeweiligen Zeichen anfangs mit negativ empfundenen Bildern gezeigt wurden, habe ich versucht, meine Einschätzung des Zeichens unabhängig davon zu machen (wobei ich natürlich nicht weiß, ob mir das auch tatsächlich gelungen ist). Bei der Einschätzung der Silben kam es mir gefühlt nur auf mein Bauchgefühl und eigenen Geschmack an (ob ich z.B. den Klang der Silbe mochte).","0","1","0","null","","","<div class = 'row'><div class = 'column'><img src = 'category3/CS8.png' width = '70%;'></div><div class = 'column'><img src = 'usneg/9330.bmp' width = '100%;'></div></div>","null","neg","CS","CS","3","category3/CS8.png","","","","",""
"","html-keyboard-response","74","460470","0.0-6.0-6.0-0.5","t8rz6ww85w","one_one","1","direct_first","1","nn06en05","1","21","1","1","3","2","Die angezeigten Bilder waren zum Glück nicht so schlimm, wie in der Beschreibung beschrieben (besonders über das Fehlen von leidenden Tieren bin ich froh). Ansonsten ist mir aufgefallen, dass nur 2(?) der mit den Bildern gezeigten Zeichen, später auch in der Assoziation vorkamen. Da ich noch wusste, dass die jeweiligen Zeichen anfangs mit negativ empfundenen Bildern gezeigt wurden, habe ich versucht, meine Einschätzung des Zeichens unabhängig davon zu machen (wobei ich natürlich nicht weiß, ob mir das auch tatsächlich gelungen ist). Bei der Einschätzung der Silben kam es mir gefühlt nur auf mein Bauchgefühl und eigenen Geschmack an (ob ich z.B. den Klang der Silbe mochte).","0","1","0","null","","","<div class = 'row'><div class = 'column'><img src = 'category4/CS2.png' width = '70%;'></div><div class = 'column'><img src = 'uspos/5470.bmp' width = '100%;'></div></div>","null","pos","CS","CS","4","category4/CS2.png","","","","",""
"","html-keyboard-response","75","462973","0.0-6.0-6.0-0.6","t8rz6ww85w","one_one","1","direct_first","1","nn06en05","1","21","1","1","3","2","Die angezeigten Bilder waren zum Glück nicht so schlimm, wie in der Beschreibung beschrieben (besonders über das Fehlen von leidenden Tieren bin ich froh). Ansonsten ist mir aufgefallen, dass nur 2(?) der mit den Bildern gezeigten Zeichen, später auch in der Assoziation vorkamen. Da ich noch wusste, dass die jeweiligen Zeichen anfangs mit negativ empfundenen Bildern gezeigt wurden, habe ich versucht, meine Einschätzung des Zeichens unabhängig davon zu machen (wobei ich natürlich nicht weiß, ob mir das auch tatsächlich gelungen ist). Bei der Einschätzung der Silben kam es mir gefühlt nur auf mein Bauchgefühl und eigenen Geschmack an (ob ich z.B. den Klang der Silbe mochte).","0","1","0","null","","","<div class = 'row'><div class = 'column'><img src = 'uspos/2341.bmp' width = '100%;'></div><div class = 'column'><img src = 'category1/CS1.png' width = '70%;'></div></div>","null","pos","CS","CS","1","category1/CS1.png","","","","",""
"","html-keyboard-response","76","465476","0.0-6.0-6.0-0.7","t8rz6ww85w","one_one","1","direct_first","1","nn06en05","1","21","1","1","3","2","Die angezeigten Bilder waren zum Glück nicht so schlimm, wie in der Beschreibung beschrieben (besonders über das Fehlen von leidenden Tieren bin ich froh). Ansonsten ist mir aufgefallen, dass nur 2(?) der mit den Bildern gezeigten Zeichen, später auch in der Assoziation vorkamen. Da ich noch wusste, dass die jeweiligen Zeichen anfangs mit negativ empfundenen Bildern gezeigt wurden, habe ich versucht, meine Einschätzung des Zeichens unabhängig davon zu machen (wobei ich natürlich nicht weiß, ob mir das auch tatsächlich gelungen ist). Bei der Einschätzung der Silben kam es mir gefühlt nur auf mein Bauchgefühl und eigenen Geschmack an (ob ich z.B. den Klang der Silbe mochte).","0","1","0","null","","","<div class = 'row'><div class = 'column'><img src = 'uspos/5470.bmp' width = '100%;'></div><div class = 'column'><img src = 'category4/CS2.png' width = '70%;'></div></div>","null","pos","CS","CS","4","category4/CS2.png","","","","",""
"","html-keyboard-response","77","467979","0.0-6.0-6.0-0.8","t8rz6ww85w","one_one","1","direct_first","1","nn06en05","1","21","1","1","3","2","Die angezeigten Bilder waren zum Glück nicht so schlimm, wie in der Beschreibung beschrieben (besonders über das Fehlen von leidenden Tieren bin ich froh). Ansonsten ist mir aufgefallen, dass nur 2(?) der mit den Bildern gezeigten Zeichen, später auch in der Assoziation vorkamen. Da ich noch wusste, dass die jeweiligen Zeichen anfangs mit negativ empfundenen Bildern gezeigt wurden, habe ich versucht, meine Einschätzung des Zeichens unabhängig davon zu machen (wobei ich natürlich nicht weiß, ob mir das auch tatsächlich gelungen ist). Bei der Einschätzung der Silben kam es mir gefühlt nur auf mein Bauchgefühl und eigenen Geschmack an (ob ich z.B. den Klang der Silbe mochte).","0","1","0","null","","","<div class = 'row'><div class = 'column'><img src = 'category1/CS1.png' width = '70%;'></div><div class = 'column'><img src = 'uspos/2341.bmp' width = '100%;'></div></div>","null","pos","CS","CS","1","category1/CS1.png","","","","",""
"","html-keyboard-response","78","470482","0.0-6.0-6.0-0.9","t8rz6ww85w","one_one","1","direct_first","1","nn06en05","1","21","1","1","3","2","Die angezeigten Bilder waren zum Glück nicht so schlimm, wie in der Beschreibung beschrieben (besonders über das Fehlen von leidenden Tieren bin ich froh). Ansonsten ist mir aufgefallen, dass nur 2(?) der mit den Bildern gezeigten Zeichen, später auch in der Assoziation vorkamen. Da ich noch wusste, dass die jeweiligen Zeichen anfangs mit negativ empfundenen Bildern gezeigt wurden, habe ich versucht, meine Einschätzung des Zeichens unabhängig davon zu machen (wobei ich natürlich nicht weiß, ob mir das auch tatsächlich gelungen ist). Bei der Einschätzung der Silben kam es mir gefühlt nur auf mein Bauchgefühl und eigenen Geschmack an (ob ich z.B. den Klang der Silbe mochte).","0","1","0","null","","","<div class = 'row'><div class = 'column'><img src = 'category4/CS2.png' width = '70%;'></div><div class = 'column'><img src = 'uspos/5470.bmp' width = '100%;'></div></div>","null","pos","CS","CS","4","category4/CS2.png","","","","",""
"","html-keyboard-response","79","472985","0.0-6.0-6.0-0.10","t8rz6ww85w","one_one","1","direct_first","1","nn06en05","1","21","1","1","3","2","Die angezeigten Bilder waren zum Glück nicht so schlimm, wie in der Beschreibung beschrieben (besonders über das Fehlen von leidenden Tieren bin ich froh). Ansonsten ist mir aufgefallen, dass nur 2(?) der mit den Bildern gezeigten Zeichen, später auch in der Assoziation vorkamen. Da ich noch wusste, dass die jeweiligen Zeichen anfangs mit negativ empfundenen Bildern gezeigt wurden, habe ich versucht, meine Einschätzung des Zeichens unabhängig davon zu machen (wobei ich natürlich nicht weiß, ob mir das auch tatsächlich gelungen ist). Bei der Einschätzung der Silben kam es mir gefühlt nur auf mein Bauchgefühl und eigenen Geschmack an (ob ich z.B. den Klang der Silbe mochte).","0","1","0","null","","","<div class = 'row'><div class = 'column'><img src = 'usneg/9830.bmp' width = '100%;'></div><div class = 'column'><img src = 'category2/CS1.png' width = '70%;'></div></div>","null","neg","CS","CS","2","category2/CS1.png","","","","",""
"","html-keyboard-response","80","475488","0.0-6.0-6.0-0.11","t8rz6ww85w","one_one","1","direct_first","1","nn06en05","1","21","1","1","3","2","Die angezeigten Bilder waren zum Glück nicht so schlimm, wie in der Beschreibung beschrieben (besonders über das Fehlen von leidenden Tieren bin ich froh). Ansonsten ist mir aufgefallen, dass nur 2(?) der mit den Bildern gezeigten Zeichen, später auch in der Assoziation vorkamen. Da ich noch wusste, dass die jeweiligen Zeichen anfangs mit negativ empfundenen Bildern gezeigt wurden, habe ich versucht, meine Einschätzung des Zeichens unabhängig davon zu machen (wobei ich natürlich nicht weiß, ob mir das auch tatsächlich gelungen ist). Bei der Einschätzung der Silben kam es mir gefühlt nur auf mein Bauchgefühl und eigenen Geschmack an (ob ich z.B. den Klang der Silbe mochte).","0","1","0","null","","","<div class = 'row'><div class = 'column'><img src = 'uspos/2341.bmp' width = '100%;'></div><div class = 'column'><img src = 'category1/CS1.png' width = '70%;'></div></div>","null","pos","CS","CS","1","category1/CS1.png","","","","",""
"","html-keyboard-response","81","477992","0.0-6.0-6.0-0.12","t8rz6ww85w","one_one","1","direct_first","1","nn06en05","1","21","1","1","3","2","Die angezeigten Bilder waren zum Glück nicht so schlimm, wie in der Beschreibung beschrieben (besonders über das Fehlen von leidenden Tieren bin ich froh). Ansonsten ist mir aufgefallen, dass nur 2(?) der mit den Bildern gezeigten Zeichen, später auch in der Assoziation vorkamen. Da ich noch wusste, dass die jeweiligen Zeichen anfangs mit negativ empfundenen Bildern gezeigt wurden, habe ich versucht, meine Einschätzung des Zeichens unabhängig davon zu machen (wobei ich natürlich nicht weiß, ob mir das auch tatsächlich gelungen ist). Bei der Einschätzung der Silben kam es mir gefühlt nur auf mein Bauchgefühl und eigenen Geschmack an (ob ich z.B. den Klang der Silbe mochte).","0","1","0","null","","","<div class = 'row'><div class = 'column'><img src = 'usneg/9330.bmp' width = '100%;'></div><div class = 'column'><img src = 'category3/CS8.png' width = '70%;'></div></div>","null","neg","CS","CS","3","category3/CS8.png","","","","",""
"","html-keyboard-response","82","480494","0.0-6.0-6.0-0.13","t8rz6ww85w","one_one","1","direct_first","1","nn06en05","1","21","1","1","3","2","Die angezeigten Bilder waren zum Glück nicht so schlimm, wie in der Beschreibung beschrieben (besonders über das Fehlen von leidenden Tieren bin ich froh). Ansonsten ist mir aufgefallen, dass nur 2(?) der mit den Bildern gezeigten Zeichen, später auch in der Assoziation vorkamen. Da ich noch wusste, dass die jeweiligen Zeichen anfangs mit negativ empfundenen Bildern gezeigt wurden, habe ich versucht, meine Einschätzung des Zeichens unabhängig davon zu machen (wobei ich natürlich nicht weiß, ob mir das auch tatsächlich gelungen ist). Bei der Einschätzung der Silben kam es mir gefühlt nur auf mein Bauchgefühl und eigenen Geschmack an (ob ich z.B. den Klang der Silbe mochte).","0","1","0","null","","","<div class = 'row'><div class = 'column'><img src = 'category4/CS2.png' width = '70%;'></div><div class = 'column'><img src = 'uspos/5470.bmp' width = '100%;'></div></div>","null","pos","CS","CS","4","category4/CS2.png","","","","",""
"","html-keyboard-response","83","482998","0.0-6.0-6.0-0.14","t8rz6ww85w","one_one","1","direct_first","1","nn06en05","1","21","1","1","3","2","Die angezeigten Bilder waren zum Glück nicht so schlimm, wie in der Beschreibung beschrieben (besonders über das Fehlen von leidenden Tieren bin ich froh). Ansonsten ist mir aufgefallen, dass nur 2(?) der mit den Bildern gezeigten Zeichen, später auch in der Assoziation vorkamen. Da ich noch wusste, dass die jeweiligen Zeichen anfangs mit negativ empfundenen Bildern gezeigt wurden, habe ich versucht, meine Einschätzung des Zeichens unabhängig davon zu machen (wobei ich natürlich nicht weiß, ob mir das auch tatsächlich gelungen ist). Bei der Einschätzung der Silben kam es mir gefühlt nur auf mein Bauchgefühl und eigenen Geschmack an (ob ich z.B. den Klang der Silbe mochte).","0","1","0","null","","","<div class = 'row'><div class = 'column'><img src = 'uspos/2341.bmp' width = '100%;'></div><div class = 'column'><img src = 'category1/CS1.png' width = '70%;'></div></div>","null","pos","CS","CS","1","category1/CS1.png","","","","",""
"","html-keyboard-response","84","485502","0.0-6.0-6.0-0.15","t8rz6ww85w","one_one","1","direct_first","1","nn06en05","1","21","1","1","3","2","Die angezeigten Bilder waren zum Glück nicht so schlimm, wie in der Beschreibung beschrieben (besonders über das Fehlen von leidenden Tieren bin ich froh). Ansonsten ist mir aufgefallen, dass nur 2(?) der mit den Bildern gezeigten Zeichen, später auch in der Assoziation vorkamen. Da ich noch wusste, dass die jeweiligen Zeichen anfangs mit negativ empfundenen Bildern gezeigt wurden, habe ich versucht, meine Einschätzung des Zeichens unabhängig davon zu machen (wobei ich natürlich nicht weiß, ob mir das auch tatsächlich gelungen ist). Bei der Einschätzung der Silben kam es mir gefühlt nur auf mein Bauchgefühl und eigenen Geschmack an (ob ich z.B. den Klang der Silbe mochte).","0","1","0","null","","","<div class = 'row'><div class = 'column'><img src = 'category2/CS1.png' width = '70%;'></div><div class = 'column'><img src = 'usneg/9830.bmp' width = '100%;'></div></div>","null","neg","CS","CS","2","category2/CS1.png","","","","",""
"","html-keyboard-response","85","488006","0.0-6.0-6.0-0.16","t8rz6ww85w","one_one","1","direct_first","1","nn06en05","1","21","1","1","3","2","Die angezeigten Bilder waren zum Glück nicht so schlimm, wie in der Beschreibung beschrieben (besonders über das Fehlen von leidenden Tieren bin ich froh). Ansonsten ist mir aufgefallen, dass nur 2(?) der mit den Bildern gezeigten Zeichen, später auch in der Assoziation vorkamen. Da ich noch wusste, dass die jeweiligen Zeichen anfangs mit negativ empfundenen Bildern gezeigt wurden, habe ich versucht, meine Einschätzung des Zeichens unabhängig davon zu machen (wobei ich natürlich nicht weiß, ob mir das auch tatsächlich gelungen ist). Bei der Einschätzung der Silben kam es mir gefühlt nur auf mein Bauchgefühl und eigenen Geschmack an (ob ich z.B. den Klang der Silbe mochte).","0","1","0","null","","","<div class = 'row'><div class = 'column'><img src = 'category4/CS2.png' width = '70%;'></div><div class = 'column'><img src = 'uspos/5470.bmp' width = '100%;'></div></div>","null","pos","CS","CS","4","category4/CS2.png","","","","",""
"","html-keyboard-response","86","490507","0.0-6.0-6.0-0.17","t8rz6ww85w","one_one","1","direct_first","1","nn06en05","1","21","1","1","3","2","Die angezeigten Bilder waren zum Glück nicht so schlimm, wie in der Beschreibung beschrieben (besonders über das Fehlen von leidenden Tieren bin ich froh). Ansonsten ist mir aufgefallen, dass nur 2(?) der mit den Bildern gezeigten Zeichen, später auch in der Assoziation vorkamen. Da ich noch wusste, dass die jeweiligen Zeichen anfangs mit negativ empfundenen Bildern gezeigt wurden, habe ich versucht, meine Einschätzung des Zeichens unabhängig davon zu machen (wobei ich natürlich nicht weiß, ob mir das auch tatsächlich gelungen ist). Bei der Einschätzung der Silben kam es mir gefühlt nur auf mein Bauchgefühl und eigenen Geschmack an (ob ich z.B. den Klang der Silbe mochte).","0","1","0","null","","","<div class = 'row'><div class = 'column'><img src = 'category2/CS1.png' width = '70%;'></div><div class = 'column'><img src = 'usneg/9830.bmp' width = '100%;'></div></div>","null","neg","CS","CS","2","category2/CS1.png","","","","",""
"","html-keyboard-response","87","493011","0.0-6.0-6.0-0.18","t8rz6ww85w","one_one","1","direct_first","1","nn06en05","1","21","1","1","3","2","Die angezeigten Bilder waren zum Glück nicht so schlimm, wie in der Beschreibung beschrieben (besonders über das Fehlen von leidenden Tieren bin ich froh). Ansonsten ist mir aufgefallen, dass nur 2(?) der mit den Bildern gezeigten Zeichen, später auch in der Assoziation vorkamen. Da ich noch wusste, dass die jeweiligen Zeichen anfangs mit negativ empfundenen Bildern gezeigt wurden, habe ich versucht, meine Einschätzung des Zeichens unabhängig davon zu machen (wobei ich natürlich nicht weiß, ob mir das auch tatsächlich gelungen ist). Bei der Einschätzung der Silben kam es mir gefühlt nur auf mein Bauchgefühl und eigenen Geschmack an (ob ich z.B. den Klang der Silbe mochte).","0","1","0","null","","","<div class = 'row'><div class = 'column'><img src = 'category3/CS8.png' width = '70%;'></div><div class = 'column'><img src = 'usneg/9330.bmp' width = '100%;'></div></div>","null","neg","CS","CS","3","category3/CS8.png","","","","",""
"","html-keyboard-response","88","495514","0.0-6.0-6.0-0.19","t8rz6ww85w","one_one","1","direct_first","1","nn06en05","1","21","1","1","3","2","Die angezeigten Bilder waren zum Glück nicht so schlimm, wie in der Beschreibung beschrieben (besonders über das Fehlen von leidenden Tieren bin ich froh). Ansonsten ist mir aufgefallen, dass nur 2(?) der mit den Bildern gezeigten Zeichen, später auch in der Assoziation vorkamen. Da ich noch wusste, dass die jeweiligen Zeichen anfangs mit negativ empfundenen Bildern gezeigt wurden, habe ich versucht, meine Einschätzung des Zeichens unabhängig davon zu machen (wobei ich natürlich nicht weiß, ob mir das auch tatsächlich gelungen ist). Bei der Einschätzung der Silben kam es mir gefühlt nur auf mein Bauchgefühl und eigenen Geschmack an (ob ich z.B. den Klang der Silbe mochte).","0","1","0","null","","","<div class = 'row'><div class = 'column'><img src = 'category1/CS1.png' width = '70%;'></div><div class = 'column'><img src = 'uspos/2341.bmp' width = '100%;'></div></div>","null","pos","CS","CS","1","category1/CS1.png","","","","",""
"","survey-html-form","89","505552","0.0-7.0","t8rz6ww85w","one_one","1","direct_first","1","nn06en05","1","21","1","1","3","2","Die angezeigten Bilder waren zum Glück nicht so schlimm, wie in der Beschreibung beschrieben (besonders über das Fehlen von leidenden Tieren bin ich froh). Ansonsten ist mir aufgefallen, dass nur 2(?) der mit den Bildern gezeigten Zeichen, später auch in der Assoziation vorkamen. Da ich noch wusste, dass die jeweiligen Zeichen anfangs mit negativ empfundenen Bildern gezeigt wurden, habe ich versucht, meine Einschätzung des Zeichens unabhängig davon zu machen (wobei ich natürlich nicht weiß, ob mir das auch tatsächlich gelungen ist). Bei der Einschätzung der Silben kam es mir gefühlt nur auf mein Bauchgefühl und eigenen Geschmack an (ob ich z.B. den Klang der Silbe mochte).","0","1","0","9535.550000146031","","{}","","","","","","","","","","","",""
"","image-slider-response","90","523147","0.0-8.0-0.0","t8rz6ww85w","one_one","1","direct_first","1","nn06en05","1","21","1","1","3","2","Die angezeigten Bilder waren zum Glück nicht so schlimm, wie in der Beschreibung beschrieben (besonders über das Fehlen von leidenden Tieren bin ich froh). Ansonsten ist mir aufgefallen, dass nur 2(?) der mit den Bildern gezeigten Zeichen, später auch in der Assoziation vorkamen. Da ich noch wusste, dass die jeweiligen Zeichen anfangs mit negativ empfundenen Bildern gezeigt wurden, habe ich versucht, meine Einschätzung des Zeichens unabhängig davon zu machen (wobei ich natürlich nicht weiß, ob mir das auch tatsächlich gelungen ist). Bei der Einschätzung der Silben kam es mir gefühlt nur auf mein Bauchgefühl und eigenen Geschmack an (ob ich z.B. den Klang der Silbe mochte).","0","1","0","15593.185000121593","","","","","neg","GS","GSold","3","category3/CS7.png","-58","targets/26.png","direct","",""
"","image-slider-response","91","533921","0.0-8.0-0.1","t8rz6ww85w","one_one","1","direct_first","1","nn06en05","1","21","1","1","3","2","Die angezeigten Bilder waren zum Glück nicht so schlimm, wie in der Beschreibung beschrieben (besonders über das Fehlen von leidenden Tieren bin ich froh). Ansonsten ist mir aufgefallen, dass nur 2(?) der mit den Bildern gezeigten Zeichen, später auch in der Assoziation vorkamen. Da ich noch wusste, dass die jeweiligen Zeichen anfangs mit negativ empfundenen Bildern gezeigt wurden, habe ich versucht, meine Einschätzung des Zeichens unabhängig davon zu machen (wobei ich natürlich nicht weiß, ob mir das auch tatsächlich gelungen ist). Bei der Einschätzung der Silben kam es mir gefühlt nur auf mein Bauchgefühl und eigenen Geschmack an (ob ich z.B. den Klang der Silbe mochte).","0","1","0","10772.150000091642","","","","","neg","GS","GSold","3","category3/CS3.png","43","targets/16.png","direct","",""
"","image-slider-response","92","538574","0.0-8.0-0.2","t8rz6ww85w","one_one","1","direct_first","1","nn06en05","1","21","1","1","3","2","Die angezeigten Bilder waren zum Glück nicht so schlimm, wie in der Beschreibung beschrieben (besonders über das Fehlen von leidenden Tieren bin ich froh). Ansonsten ist mir aufgefallen, dass nur 2(?) der mit den Bildern gezeigten Zeichen, später auch in der Assoziation vorkamen. Da ich noch wusste, dass die jeweiligen Zeichen anfangs mit negativ empfundenen Bildern gezeigt wurden, habe ich versucht, meine Einschätzung des Zeichens unabhängig davon zu machen (wobei ich natürlich nicht weiß, ob mir das auch tatsächlich gelungen ist). Bei der Einschätzung der Silben kam es mir gefühlt nur auf mein Bauchgefühl und eigenen Geschmack an (ob ich z.B. den Klang der Silbe mochte).","0","1","0","4651.5199998393655","","","","","pos","GS","GSnew","4","category4/GS3.png","84","targets/15.png","direct","",""
