"success","trial_type","trial_index","time_elapsed","internal_node_id","subject","condition","condition_code","measure","measure_code","codeword","gender","age","education","chinese","fach","handedness","comment","hinschauen","ablenkung","gewissenhaft","rt","url","responses","stimulus","key_press","val","type","type_specific","category","cs_selected","response","target","task","indirect","nr_pres"
"true","fullscreen","0","16580","0.0-0.0","yzbdb1jnlr","many_one","0","direct_first","1","tz06ng08","0","25","1","1","3","1","","0","1","0","","","","","","","","","","","","","","",""
"","external-html","1","76617","0.0-1.0","yzbdb1jnlr","many_one","0","direct_first","1","tz06ng08","0","25","1","1","3","1","","0","1","0","59938","text/information.html","","","","","","","","","","","","",""
"","external-html","2","107180","0.0-2.0","yzbdb1jnlr","many_one","0","direct_first","1","tz06ng08","0","25","1","1","3","1","","0","1","0","30477","text/consent.html","","","","","","","","","","","","",""
"","survey-html-form","3","153959","0.0-3.0","yzbdb1jnlr","many_one","0","direct_first","1","tz06ng08","0","25","1","1","3","1","","0","1","0","46772","","{""codeword_enter"":""tz06ng08""}","","","","","","","","","","","",""
"","survey-html-form","4","171427","0.0-4.0","yzbdb1jnlr","many_one","0","direct_first","1","tz06ng08","0","25","1","1","3","1","","0","1","0","17464","","{""age"":""25"",""education"":""1"",""subject"":""3"",""gender"":""0"",""handedness"":""1"",""chinese"":""1""}","","","","","","","","","","","",""
"","survey-html-form","5","186861","0.0-5.0","yzbdb1jnlr","many_one","0","direct_first","1","tz06ng08","0","25","1","1","3","1","","0","1","0","15432","","{}","","","","","","","","","","","",""
"","html-keyboard-response","6","190878","0.0-6.0-0.0-0.0","yzbdb1jnlr","many_one","0","direct_first","1","tz06ng08","0","25","1","1","3","1","","0","1","0","null","","","<div class = 'row'><div class = 'column'><img src = 'usneg/6020.bmp' width = '100%;'></div><div class = 'column'><img src = 'category2/CS1.png' width = '70%;'></div></div>","null","neg","CS","CS","2","category2/CS1.png","","","","",""
"","html-keyboard-response","7","193388","0.0-6.0-0.0-0.1","yzbdb1jnlr","many_one","0","direct_first","1","tz06ng08","0","25","1","1","3","1","","0","1","0","null","","","<div class = 'row'><div class = 'column'><img src = 'category3/CS3.png' width = '70%;'></div><div class = 'column'><img src = 'uspos/2165.bmp' width = '100%;'></div></div>","null","pos","CS","CS","3","category3/CS3.png","","","","",""
"","html-keyboard-response","8","195903","0.0-6.0-0.0-0.2","yzbdb1jnlr","many_one","0","direct_first","1","tz06ng08","0","25","1","1","3","1","","0","1","0","null","","","<div class = 'row'><div class = 'column'><img src = 'usneg/9561.bmp' width = '100%;'></div><div class = 'column'><img src = 'category1/CS1.png' width = '70%;'></div></div>","null","neg","CS","CS","1","category1/CS1.png","","","","",""
"","html-keyboard-response","9","198437","0.0-6.0-0.0-0.3","yzbdb1jnlr","many_one","0","direct_first","1","tz06ng08","0","25","1","1","3","1","","0","1","0","null","","","<div class = 'row'><div class = 'column'><img src = 'category4/CS8.png' width = '70%;'></div><div class = 'column'><img src = 'uspos/8490.bmp' width = '100%;'></div></div>","null","pos","CS","CS","4","category4/CS8.png","","","","",""
"","html-keyboard-response","10","200958","0.0-6.0-0.0-0.4","yzbdb1jnlr","many_one","0","direct_first","1","tz06ng08","0","25","1","1","3","1","","0","1","0","null","","","<div class = 'row'><div class = 'column'><img src = 'uspos/2340.bmp' width = '100%;'></div><div class = 'column'><img src = 'category4/CS7.png' width = '70%;'></div></div>","null","pos","CS","CS","4","category4/CS7.png","","","","",""
"","html-keyboard-response","11","203498","0.0-6.0-0.0-0.5","yzbdb1jnlr","many_one","0","direct_first","1","tz06ng08","0","25","1","1","3","1","","0","1","0","null","","","<div class = 'row'><div class = 'column'><img src = 'usneg/9635.2.bmp' width = '100%;'></div><div class = 'column'><img src = 'category2/CS4.png' width = '70%;'></div></div>","null","neg","CS","CS","2","category2/CS4.png","","","","",""
"","html-keyboard-response","12","206037","0.0-6.0-0.0-0.6","yzbdb1jnlr","many_one","0","direct_first","1","tz06ng08","0","25","1","1","3","1","","0","1","0","null","","","<div class = 'row'><div class = 'column'><img src = 'category1/CS10.png' width = '70%;'></div><div class = 'column'><img src = 'usneg/9290.bmp' width = '100%;'></div></div>","null","neg","CS","CS","1","category1/CS10.png","","","","",""
"","html-keyboard-response","13","208568","0.0-6.0-0.0-0.7","yzbdb1jnlr","many_one","0","direct_first","1","tz06ng08","0","25","1","1","3","1","","0","1","0","null","","","<div class = 'row'><div class = 'column'><img src = 'usneg/2205.bmp' width = '100%;'></div><div class = 'column'><img src = 'category1/CS9.png' width = '70%;'></div></div>","null","neg","CS","CS","1","category1/CS9.png","","","","",""
"","html-keyboard-response","14","211098","0.0-6.0-0.0-0.8","yzbdb1jnlr","many_one","0","direct_first","1","tz06ng08","0","25","1","1","3","1","","0","1","0","null","","","<div class = 'row'><div class = 'column'><img src = 'category1/CS3.png' width = '70%;'></div><div class = 'column'><img src = 'usneg/8485.bmp' width = '100%;'></div></div>","null","neg","CS","CS","1","category1/CS3.png","","","","",""
"","html-keyboard-response","15","213626","0.0-6.0-0.0-0.9","yzbdb1jnlr","many_one","0","direct_first","1","tz06ng08","0","25","1","1","3","1","","0","1","0","null","","","<div class = 'row'><div class = 'column'><img src = 'uspos/8080.bmp' width = '100%;'></div><div class = 'column'><img src = 'category3/CS5.png' width = '70%;'></div></div>","null","pos","CS","CS","3","category3/CS5.png","","","","",""
"","html-keyboard-response","16","216157","0.0-6.0-0.0-0.10","yzbdb1jnlr","many_one","0","direct_first","1","tz06ng08","0","25","1","1","3","1","","0","1","0","null","","","<div class = 'row'><div class = 'column'><img src = 'category3/CS1.png' width = '70%;'></div><div class = 'column'><img src = 'uspos/8190.bmp' width = '100%;'></div></div>","null","pos","CS","CS","3","category3/CS1.png","","","","",""
"","html-keyboard-response","17","218687","0.0-6.0-0.0-0.11","yzbdb1jnlr","many_one","0","direct_first","1","tz06ng08","0","25","1","1","3","1","","0","1","0","null","","","<div class = 'row'><div class = 'column'><img src = 'usneg/9000.bmp' width = '100%;'></div><div class = 'column'><img src = 'category2/CS5.png' width = '70%;'></div></div>","null","neg","CS","CS","2","category2/CS5.png","","","","",""
"","html-keyboard-response","18","221198","0.0-6.0-0.0-0.12","yzbdb1jnlr","many_one","0","direct_first","1","tz06ng08","0","25","1","1","3","1","","0","1","0","null","","","<div class = 'row'><div class = 'column'><img src = 'category2/CS2.png' width = '70%;'></div><div class = 'column'><img src = 'usneg/9280.bmp' width = '100%;'></div></div>","null","neg","CS","CS","2","category2/CS2.png","","","","",""
"","html-keyboard-response","19","223718","0.0-6.0-0.0-0.13","yzbdb1jnlr","many_one","0","direct_first","1","tz06ng08","0","25","1","1","3","1","","0","1","0","null","","","<div class = 'row'><div class = 'column'><img src = 'uspos/2057.bmp' width = '100%;'></div><div class = 'column'><img src = 'category4/CS3.png' width = '70%;'></div></div>","null","pos","CS","CS","4","category4/CS3.png","","","","",""
"","html-keyboard-response","20","226237","0.0-6.0-0.0-0.14","yzbdb1jnlr","many_one","0","direct_first","1","tz06ng08","0","25","1","1","3","1","","0","1","0","null","","","<div class = 'row'><div class = 'column'><img src = 'category1/CS6.png' width = '70%;'></div><div class = 'column'><img src = 'usneg/9520.bmp' width = '100%;'></div></div>","null","neg","CS","CS","1","category1/CS6.png","","","","",""
"","html-keyboard-response","21","228767","0.0-6.0-0.0-0.15","yzbdb1jnlr","many_one","0","direct_first","1","tz06ng08","0","25","1","1","3","1","","0","1","0","null","","","<div class = 'row'><div class = 'column'><img src = 'uspos/5760.bmp' width = '100%;'></div><div class = 'column'><img src = 'category3/CS2.png' width = '70%;'></div></div>","null","pos","CS","CS","3","category3/CS2.png","","","","",""
"","html-keyboard-response","22","231311","0.0-6.0-0.0-0.16","yzbdb1jnlr","many_one","0","direct_first","1","tz06ng08","0","25","1","1","3","1","","0","1","0","null","","","<div class = 'row'><div class = 'column'><img src = 'category3/CS7.png' width = '70%;'></div><div class = 'column'><img src = 'uspos/2160.bmp' width = '100%;'></div></div>","null","pos","CS","CS","3","category3/CS7.png","","","","",""
"","html-keyboard-response","23","233847","0.0-6.0-0.0-0.17","yzbdb1jnlr","many_one","0","direct_first","1","tz06ng08","0","25","1","1","3","1","","0","1","0","null","","","<div class = 'row'><div class = 'column'><img src = 'usneg/9041.bmp' width = '100%;'></div><div class = 'column'><img src = 'category2/CS7.png' width = '70%;'></div></div>","null","neg","CS","CS","2","category2/CS7.png","","","","",""
"","html-keyboard-response","24","236372","0.0-6.0-0.0-0.18","yzbdb1jnlr","many_one","0","direct_first","1","tz06ng08","0","25","1","1","3","1","","0","1","0","null","","","<div class = 'row'><div class = 'column'><img src = 'uspos/2900.2.bmp' width = '100%;'></div><div class = 'column'><img src = 'category4/CS2.png' width = '70%;'></div></div>","null","pos","CS","CS","4","category4/CS2.png","","","","",""
"","html-keyboard-response","25","238894","0.0-6.0-0.0-0.19","yzbdb1jnlr","many_one","0","direct_first","1","tz06ng08","0","25","1","1","3","1","","0","1","0","null","","","<div class = 'row'><div class = 'column'><img src = 'category4/CS9.png' width = '70%;'></div><div class = 'column'><img src = 'uspos/1460.bmp' width = '100%;'></div></div>","null","pos","CS","CS","4","category4/CS9.png","","","","",""
"","survey-html-form","26","271220","0.0-6.0-1.0","yzbdb1jnlr","many_one","0","direct_first","1","tz06ng08","0","25","1","1","3","1","","0","1","0","31814","","{}","","","","","","","","","","","",""
"","html-keyboard-response","27","275237","0.0-6.0-2.0-0.0","yzbdb1jnlr","many_one","0","direct_first","1","tz06ng08","0","25","1","1","3","1","","0","1","0","null","","","<div class = 'row'><div class = 'column'><img src = 'category3/CS2.png' width = '70%;'></div><div class = 'column'><img src = 'uspos/5760.bmp' width = '100%;'></div></div>","null","pos","CS","CS","3","category3/CS2.png","","","","",""
"","html-keyboard-response","28","277758","0.0-6.0-2.0-0.1","yzbdb1jnlr","many_one","0","direct_first","1","tz06ng08","0","25","1","1","3","1","","0","1","0","null","","","<div class = 'row'><div class = 'column'><img src = 'category3/CS3.png' width = '70%;'></div><div class = 'column'><img src = 'uspos/2165.bmp' width = '100%;'></div></div>","null","pos","CS","CS","3","category3/CS3.png","","","","",""
"","html-keyboard-response","29","280288","0.0-6.0-2.0-0.2","yzbdb1jnlr","many_one","0","direct_first","1","tz06ng08","0","25","1","1","3","1","","0","1","0","null","","","<div class = 'row'><div class = 'column'><img src = 'category1/CS10.png' width = '70%;'></div><div class = 'column'><img src = 'usneg/9290.bmp' width = '100%;'></div></div>","null","neg","CS","CS","1","category1/CS10.png","","","","",""
"","html-keyboard-response","30","282827","0.0-6.0-2.0-0.3","yzbdb1jnlr","many_one","0","direct_first","1","tz06ng08","0","25","1","1","3","1","","0","1","0","null","","","<div class = 'row'><div class = 'column'><img src = 'category2/CS4.png' width = '70%;'></div><div class = 'column'><img src = 'usneg/9635.2.bmp' width = '100%;'></div></div>","null","neg","CS","CS","2","category2/CS4.png","","","","",""
"","html-keyboard-response","31","285338","0.0-6.0-2.0-0.4","yzbdb1jnlr","many_one","0","direct_first","1","tz06ng08","0","25","1","1","3","1","","0","1","0","null","","","<div class = 'row'><div class = 'column'><img src = 'uspos/2900.2.bmp' width = '100%;'></div><div class = 'column'><img src = 'category4/CS2.png' width = '70%;'></div></div>","null","pos","CS","CS","4","category4/CS2.png","","","","",""
"","html-keyboard-response","32","287843","0.0-6.0-2.0-0.5","yzbdb1jnlr","many_one","0","direct_first","1","tz06ng08","0","25","1","1","3","1","","0","1","0","null","","","<div class = 'row'><div class = 'column'><img src = 'category1/CS6.png' width = '70%;'></div><div class = 'column'><img src = 'usneg/9520.bmp' width = '100%;'></div></div>","null","neg","CS","CS","1","category1/CS6.png","","","","",""
"","html-keyboard-response","33","290366","0.0-6.0-2.0-0.6","yzbdb1jnlr","many_one","0","direct_first","1","tz06ng08","0","25","1","1","3","1","","0","1","0","null","","","<div class = 'row'><div class = 'column'><img src = 'uspos/1460.bmp' width = '100%;'></div><div class = 'column'><img src = 'category4/CS9.png' width = '70%;'></div></div>","null","pos","CS","CS","4","category4/CS9.png","","","","",""
"","html-keyboard-response","34","292887","0.0-6.0-2.0-0.7","yzbdb1jnlr","many_one","0","direct_first","1","tz06ng08","0","25","1","1","3","1","","0","1","0","null","","","<div class = 'row'><div class = 'column'><img src = 'uspos/2057.bmp' width = '100%;'></div><div class = 'column'><img src = 'category4/CS3.png' width = '70%;'></div></div>","null","pos","CS","CS","4","category4/CS3.png","","","","",""
"","html-keyboard-response","35","295426","0.0-6.0-2.0-0.8","yzbdb1jnlr","many_one","0","direct_first","1","tz06ng08","0","25","1","1","3","1","","0","1","0","null","","","<div class = 'row'><div class = 'column'><img src = 'usneg/9000.bmp' width = '100%;'></div><div class = 'column'><img src = 'category2/CS5.png' width = '70%;'></div></div>","null","neg","CS","CS","2","category2/CS5.png","","","","",""
"","html-keyboard-response","36","297938","0.0-6.0-2.0-0.9","yzbdb1jnlr","many_one","0","direct_first","1","tz06ng08","0","25","1","1","3","1","","0","1","0","null","","","<div class = 'row'><div class = 'column'><img src = 'uspos/2340.bmp' width = '100%;'></div><div class = 'column'><img src = 'category4/CS7.png' width = '70%;'></div></div>","null","pos","CS","CS","4","category4/CS7.png","","","","",""
"","html-keyboard-response","37","300477","0.0-6.0-2.0-0.10","yzbdb1jnlr","many_one","0","direct_first","1","tz06ng08","0","25","1","1","3","1","","0","1","0","null","","","<div class = 'row'><div class = 'column'><img src = 'usneg/6020.bmp' width = '100%;'></div><div class = 'column'><img src = 'category2/CS1.png' width = '70%;'></div></div>","null","neg","CS","CS","2","category2/CS1.png","","","","",""
"","html-keyboard-response","38","302998","0.0-6.0-2.0-0.11","yzbdb1jnlr","many_one","0","direct_first","1","tz06ng08","0","25","1","1","3","1","","0","1","0","null","","","<div class = 'row'><div class = 'column'><img src = 'category2/CS2.png' width = '70%;'></div><div class = 'column'><img src = 'usneg/9280.bmp' width = '100%;'></div></div>","null","neg","CS","CS","2","category2/CS2.png","","","","",""
"","html-keyboard-response","39","305527","0.0-6.0-2.0-0.12","yzbdb1jnlr","many_one","0","direct_first","1","tz06ng08","0","25","1","1","3","1","","0","1","0","null","","","<div class = 'row'><div class = 'column'><img src = 'category3/CS1.png' width = '70%;'></div><div class = 'column'><img src = 'uspos/8190.bmp' width = '100%;'></div></div>","null","pos","CS","CS","3","category3/CS1.png","","","","",""
"","html-keyboard-response","40","308041","0.0-6.0-2.0-0.13","yzbdb1jnlr","many_one","0","direct_first","1","tz06ng08","0","25","1","1","3","1","","0","1","0","null","","","<div class = 'row'><div class = 'column'><img src = 'category3/CS5.png' width = '70%;'></div><div class = 'column'><img src = 'uspos/8080.bmp' width = '100%;'></div></div>","null","pos","CS","CS","3","category3/CS5.png","","","","",""
"","html-keyboard-response","41","310566","0.0-6.0-2.0-0.14","yzbdb1jnlr","many_one","0","direct_first","1","tz06ng08","0","25","1","1","3","1","","0","1","0","null","","","<div class = 'row'><div class = 'column'><img src = 'category4/CS8.png' width = '70%;'></div><div class = 'column'><img src = 'uspos/8490.bmp' width = '100%;'></div></div>","null","pos","CS","CS","4","category4/CS8.png","","","","",""
"","html-keyboard-response","42","313088","0.0-6.0-2.0-0.15","yzbdb1jnlr","many_one","0","direct_first","1","tz06ng08","0","25","1","1","3","1","","0","1","0","null","","","<div class = 'row'><div class = 'column'><img src = 'uspos/2160.bmp' width = '100%;'></div><div class = 'column'><img src = 'category3/CS7.png' width = '70%;'></div></div>","null","pos","CS","CS","3","category3/CS7.png","","","","",""
"","html-keyboard-response","43","315617","0.0-6.0-2.0-0.16","yzbdb1jnlr","many_one","0","direct_first","1","tz06ng08","0","25","1","1","3","1","","0","1","0","null","","","<div class = 'row'><div class = 'column'><img src = 'category1/CS1.png' width = '70%;'></div><div class = 'column'><img src = 'usneg/9561.bmp' width = '100%;'></div></div>","null","neg","CS","CS","1","category1/CS1.png","","","","",""
"","html-keyboard-response","44","318140","0.0-6.0-2.0-0.17","yzbdb1jnlr","many_one","0","direct_first","1","tz06ng08","0","25","1","1","3","1","","0","1","0","null","","","<div class = 'row'><div class = 'column'><img src = 'usneg/8485.bmp' width = '100%;'></div><div class = 'column'><img src = 'category1/CS3.png' width = '70%;'></div></div>","null","neg","CS","CS","1","category1/CS3.png","","","","",""
"","html-keyboard-response","45","320667","0.0-6.0-2.0-0.18","yzbdb1jnlr","many_one","0","direct_first","1","tz06ng08","0","25","1","1","3","1","","0","1","0","null","","","<div class = 'row'><div class = 'column'><img src = 'usneg/9041.bmp' width = '100%;'></div><div class = 'column'><img src = 'category2/CS7.png' width = '70%;'></div></div>","null","neg","CS","CS","2","category2/CS7.png","","","","",""
"","html-keyboard-response","46","323187","0.0-6.0-2.0-0.19","yzbdb1jnlr","many_one","0","direct_first","1","tz06ng08","0","25","1","1","3","1","","0","1","0","null","","","<div class = 'row'><div class = 'column'><img src = 'usneg/2205.bmp' width = '100%;'></div><div class = 'column'><img src = 'category1/CS9.png' width = '70%;'></div></div>","null","neg","CS","CS","1","category1/CS9.png","","","","",""
"","survey-html-form","47","326083","0.0-6.0-3.0","yzbdb1jnlr","many_one","0","direct_first","1","tz06ng08","0","25","1","1","3","1","","0","1","0","2376","","{}","","","","","","","","","","","",""
"","html-keyboard-response","48","330107","0.0-6.0-4.0-0.0","yzbdb1jnlr","many_one","0","direct_first","1","tz06ng08","0","25","1","1","3","1","","0","1","0","null","","","<div class = 'row'><div class = 'column'><img src = 'uspos/2057.bmp' width = '100%;'></div><div class = 'column'><img src = 'category4/CS3.png' width = '70%;'></div></div>","null","pos","CS","CS","4","category4/CS3.png","","","","",""
"","html-keyboard-response","49","332637","0.0-6.0-4.0-0.1","yzbdb1jnlr","many_one","0","direct_first","1","tz06ng08","0","25","1","1","3","1","","0","1","0","null","","","<div class = 'row'><div class = 'column'><img src = 'uspos/2165.bmp' width = '100%;'></div><div class = 'column'><img src = 'category3/CS3.png' width = '70%;'></div></div>","null","pos","CS","CS","3","category3/CS3.png","","","","",""
"","html-keyboard-response","50","335157","0.0-6.0-4.0-0.2","yzbdb1jnlr","many_one","0","direct_first","1","tz06ng08","0","25","1","1","3","1","","0","1","0","null","","","<div class = 'row'><div class = 'column'><img src = 'category4/CS7.png' width = '70%;'></div><div class = 'column'><img src = 'uspos/2340.bmp' width = '100%;'></div></div>","null","pos","CS","CS","4","category4/CS7.png","","","","",""
"","html-keyboard-response","51","337697","0.0-6.0-4.0-0.3","yzbdb1jnlr","many_one","0","direct_first","1","tz06ng08","0","25","1","1","3","1","","0","1","0","null","","","<div class = 'row'><div class = 'column'><img src = 'category4/CS9.png' width = '70%;'></div><div class = 'column'><img src = 'uspos/1460.bmp' width = '100%;'></div></div>","null","pos","CS","CS","4","category4/CS9.png","","","","",""
"","html-keyboard-response","52","340227","0.0-6.0-4.0-0.4","yzbdb1jnlr","many_one","0","direct_first","1","tz06ng08","0","25","1","1","3","1","","0","1","0","null","","","<div class = 'row'><div class = 'column'><img src = 'category3/CS7.png' width = '70%;'></div><div class = 'column'><img src = 'uspos/2160.bmp' width = '100%;'></div></div>","null","pos","CS","CS","3","category3/CS7.png","","","","",""
"","html-keyboard-response","53","342767","0.0-6.0-4.0-0.5","yzbdb1jnlr","many_one","0","direct_first","1","tz06ng08","0","25","1","1","3","1","","0","1","0","null","","","<div class = 'row'><div class = 'column'><img src = 'category2/CS5.png' width = '70%;'></div><div class = 'column'><img src = 'usneg/9000.bmp' width = '100%;'></div></div>","null","neg","CS","CS","2","category2/CS5.png","","","","",""
"","html-keyboard-response","54","345307","0.0-6.0-4.0-0.6","yzbdb1jnlr","many_one","0","direct_first","1","tz06ng08","0","25","1","1","3","1","","0","1","0","null","","","<div class = 'row'><div class = 'column'><img src = 'category4/CS8.png' width = '70%;'></div><div class = 'column'><img src = 'uspos/8490.bmp' width = '100%;'></div></div>","null","pos","CS","CS","4","category4/CS8.png","","","","",""
"","html-keyboard-response","55","347832","0.0-6.0-4.0-0.7","yzbdb1jnlr","many_one","0","direct_first","1","tz06ng08","0","25","1","1","3","1","","0","1","0","null","","","<div class = 'row'><div class = 'column'><img src = 'usneg/9520.bmp' width = '100%;'></div><div class = 'column'><img src = 'category1/CS6.png' width = '70%;'></div></div>","null","neg","CS","CS","1","category1/CS6.png","","","","",""
"","html-keyboard-response","56","350347","0.0-6.0-4.0-0.8","yzbdb1jnlr","many_one","0","direct_first","1","tz06ng08","0","25","1","1","3","1","","0","1","0","null","","","<div class = 'row'><div class = 'column'><img src = 'uspos/5760.bmp' width = '100%;'></div><div class = 'column'><img src = 'category3/CS2.png' width = '70%;'></div></div>","null","pos","CS","CS","3","category3/CS2.png","","","","",""
"","html-keyboard-response","57","352887","0.0-6.0-4.0-0.9","yzbdb1jnlr","many_one","0","direct_first","1","tz06ng08","0","25","1","1","3","1","","0","1","0","null","","","<div class = 'row'><div class = 'column'><img src = 'usneg/9280.bmp' width = '100%;'></div><div class = 'column'><img src = 'category2/CS2.png' width = '70%;'></div></div>","null","neg","CS","CS","2","category2/CS2.png","","","","",""
"","html-keyboard-response","58","355416","0.0-6.0-4.0-0.10","yzbdb1jnlr","many_one","0","direct_first","1","tz06ng08","0","25","1","1","3","1","","0","1","0","null","","","<div class = 'row'><div class = 'column'><img src = 'category1/CS9.png' width = '70%;'></div><div class = 'column'><img src = 'usneg/2205.bmp' width = '100%;'></div></div>","null","neg","CS","CS","1","category1/CS9.png","","","","",""
"","html-keyboard-response","59","357937","0.0-6.0-4.0-0.11","yzbdb1jnlr","many_one","0","direct_first","1","tz06ng08","0","25","1","1","3","1","","0","1","0","null","","","<div class = 'row'><div class = 'column'><img src = 'category3/CS5.png' width = '70%;'></div><div class = 'column'><img src = 'uspos/8080.bmp' width = '100%;'></div></div>","null","pos","CS","CS","3","category3/CS5.png","","","","",""
"","html-keyboard-response","60","360457","0.0-6.0-4.0-0.12","yzbdb1jnlr","many_one","0","direct_first","1","tz06ng08","0","25","1","1","3","1","","0","1","0","null","","","<div class = 'row'><div class = 'column'><img src = 'usneg/8485.bmp' width = '100%;'></div><div class = 'column'><img src = 'category1/CS3.png' width = '70%;'></div></div>","null","neg","CS","CS","1","category1/CS3.png","","","","",""
"","html-keyboard-response","61","362989","0.0-6.0-4.0-0.13","yzbdb1jnlr","many_one","0","direct_first","1","tz06ng08","0","25","1","1","3","1","","0","1","0","null","","","<div class = 'row'><div class = 'column'><img src = 'usneg/9635.2.bmp' width = '100%;'></div><div class = 'column'><img src = 'category2/CS4.png' width = '70%;'></div></div>","null","neg","CS","CS","2","category2/CS4.png","","","","",""
"","html-keyboard-response","62","365512","0.0-6.0-4.0-0.14","yzbdb1jnlr","many_one","0","direct_first","1","tz06ng08","0","25","1","1","3","1","","0","1","0","null","","","<div class = 'row'><div class = 'column'><img src = 'category2/CS7.png' width = '70%;'></div><div class = 'column'><img src = 'usneg/9041.bmp' width = '100%;'></div></div>","null","neg","CS","CS","2","category2/CS7.png","","","","",""
"","html-keyboard-response","63","368034","0.0-6.0-4.0-0.15","yzbdb1jnlr","many_one","0","direct_first","1","tz06ng08","0","25","1","1","3","1","","0","1","0","null","","","<div class = 'row'><div class = 'column'><img src = 'category1/CS10.png' width = '70%;'></div><div class = 'column'><img src = 'usneg/9290.bmp' width = '100%;'></div></div>","null","neg","CS","CS","1","category1/CS10.png","","","","",""
"","html-keyboard-response","64","370556","0.0-6.0-4.0-0.16","yzbdb1jnlr","many_one","0","direct_first","1","tz06ng08","0","25","1","1","3","1","","0","1","0","null","","","<div class = 'row'><div class = 'column'><img src = 'uspos/8190.bmp' width = '100%;'></div><div class = 'column'><img src = 'category3/CS1.png' width = '70%;'></div></div>","null","pos","CS","CS","3","category3/CS1.png","","","","",""
"","html-keyboard-response","65","373076","0.0-6.0-4.0-0.17","yzbdb1jnlr","many_one","0","direct_first","1","tz06ng08","0","25","1","1","3","1","","0","1","0","null","","","<div class = 'row'><div class = 'column'><img src = 'usneg/9561.bmp' width = '100%;'></div><div class = 'column'><img src = 'category1/CS1.png' width = '70%;'></div></div>","null","neg","CS","CS","1","category1/CS1.png","","","","",""
"","html-keyboard-response","66","375617","0.0-6.0-4.0-0.18","yzbdb1jnlr","many_one","0","direct_first","1","tz06ng08","0","25","1","1","3","1","","0","1","0","null","","","<div class = 'row'><div class = 'column'><img src = 'category2/CS1.png' width = '70%;'></div><div class = 'column'><img src = 'usneg/6020.bmp' width = '100%;'></div></div>","null","neg","CS","CS","2","category2/CS1.png","","","","",""
"","html-keyboard-response","67","378146","0.0-6.0-4.0-0.19","yzbdb1jnlr","many_one","0","direct_first","1","tz06ng08","0","25","1","1","3","1","","0","1","0","null","","","<div class = 'row'><div class = 'column'><img src = 'category4/CS2.png' width = '70%;'></div><div class = 'column'><img src = 'uspos/2900.2.bmp' width = '100%;'></div></div>","null","pos","CS","CS","4","category4/CS2.png","","","","",""
"","survey-html-form","68","380149","0.0-6.0-5.0","yzbdb1jnlr","many_one","0","direct_first","1","tz06ng08","0","25","1","1","3","1","","0","1","0","1494","","{}","","","","","","","","","","","",""
"","html-keyboard-response","69","384157","0.0-6.0-6.0-0.0","yzbdb1jnlr","many_one","0","direct_first","1","tz06ng08","0","25","1","1","3","1","","0","1","0","null","","","<div class = 'row'><div class = 'column'><img src = 'usneg/9041.bmp' width = '100%;'></div><div class = 'column'><img src = 'category2/CS7.png' width = '70%;'></div></div>","null","neg","CS","CS","2","category2/CS7.png","","","","",""
"","html-keyboard-response","70","386677","0.0-6.0-6.0-0.1","yzbdb1jnlr","many_one","0","direct_first","1","tz06ng08","0","25","1","1","3","1","","0","1","0","null","","","<div class = 'row'><div class = 'column'><img src = 'uspos/2340.bmp' width = '100%;'></div><div class = 'column'><img src = 'category4/CS7.png' width = '70%;'></div></div>","null","pos","CS","CS","4","category4/CS7.png","","","","",""
"","html-keyboard-response","71","389207","0.0-6.0-6.0-0.2","yzbdb1jnlr","many_one","0","direct_first","1","tz06ng08","0","25","1","1","3","1","","0","1","0","null","","","<div class = 'row'><div class = 'column'><img src = 'usneg/9635.2.bmp' width = '100%;'></div><div class = 'column'><img src = 'category2/CS4.png' width = '70%;'></div></div>","null","neg","CS","CS","2","category2/CS4.png","","","","",""
"","html-keyboard-response","72","391718","0.0-6.0-6.0-0.3","yzbdb1jnlr","many_one","0","direct_first","1","tz06ng08","0","25","1","1","3","1","","0","1","0","null","","","<div class = 'row'><div class = 'column'><img src = 'uspos/8190.bmp' width = '100%;'></div><div class = 'column'><img src = 'category3/CS1.png' width = '70%;'></div></div>","null","pos","CS","CS","3","category3/CS1.png","","","","",""
"","html-keyboard-response","73","394228","0.0-6.0-6.0-0.4","yzbdb1jnlr","many_one","0","direct_first","1","tz06ng08","0","25","1","1","3","1","","0","1","0","null","","","<div class = 'row'><div class = 'column'><img src = 'category3/CS2.png' width = '70%;'></div><div class = 'column'><img src = 'uspos/5760.bmp' width = '100%;'></div></div>","null","pos","CS","CS","3","category3/CS2.png","","","","",""
"","html-keyboard-response","74","396757","0.0-6.0-6.0-0.5","yzbdb1jnlr","many_one","0","direct_first","1","tz06ng08","0","25","1","1","3","1","","0","1","0","null","","","<div class = 'row'><div class = 'column'><img src = 'category2/CS5.png' width = '70%;'></div><div class = 'column'><img src = 'usneg/9000.bmp' width = '100%;'></div></div>","null","neg","CS","CS","2","category2/CS5.png","","","","",""
"","html-keyboard-response","75","399297","0.0-6.0-6.0-0.6","yzbdb1jnlr","many_one","0","direct_first","1","tz06ng08","0","25","1","1","3","1","","0","1","0","null","","","<div class = 'row'><div class = 'column'><img src = 'category3/CS5.png' width = '70%;'></div><div class = 'column'><img src = 'uspos/8080.bmp' width = '100%;'></div></div>","null","pos","CS","CS","3","category3/CS5.png","","","","",""
"","html-keyboard-response","76","401817","0.0-6.0-6.0-0.7","yzbdb1jnlr","many_one","0","direct_first","1","tz06ng08","0","25","1","1","3","1","","0","1","0","null","","","<div class = 'row'><div class = 'column'><img src = 'uspos/2057.bmp' width = '100%;'></div><div class = 'column'><img src = 'category4/CS3.png' width = '70%;'></div></div>","null","pos","CS","CS","4","category4/CS3.png","","","","",""
"","html-keyboard-response","77","404347","0.0-6.0-6.0-0.8","yzbdb1jnlr","many_one","0","direct_first","1","tz06ng08","0","25","1","1","3","1","","0","1","0","null","","","<div class = 'row'><div class = 'column'><img src = 'category2/CS1.png' width = '70%;'></div><div class = 'column'><img src = 'usneg/6020.bmp' width = '100%;'></div></div>","null","neg","CS","CS","2","category2/CS1.png","","","","",""
"","html-keyboard-response","78","406876","0.0-6.0-6.0-0.9","yzbdb1jnlr","many_one","0","direct_first","1","tz06ng08","0","25","1","1","3","1","","0","1","0","null","","","<div class = 'row'><div class = 'column'><img src = 'category1/CS3.png' width = '70%;'></div><div class = 'column'><img src = 'usneg/8485.bmp' width = '100%;'></div></div>","null","neg","CS","CS","1","category1/CS3.png","","","","",""
"","html-keyboard-response","79","409406","0.0-6.0-6.0-0.10","yzbdb1jnlr","many_one","0","direct_first","1","tz06ng08","0","25","1","1","3","1","","0","1","0","null","","","<div class = 'row'><div class = 'column'><img src = 'uspos/2900.2.bmp' width = '100%;'></div><div class = 'column'><img src = 'category4/CS2.png' width = '70%;'></div></div>","null","pos","CS","CS","4","category4/CS2.png","","","","",""
"","html-keyboard-response","80","411927","0.0-6.0-6.0-0.11","yzbdb1jnlr","many_one","0","direct_first","1","tz06ng08","0","25","1","1","3","1","","0","1","0","null","","","<div class = 'row'><div class = 'column'><img src = 'category4/CS9.png' width = '70%;'></div><div class = 'column'><img src = 'uspos/1460.bmp' width = '100%;'></div></div>","null","pos","CS","CS","4","category4/CS9.png","","","","",""
"","html-keyboard-response","81","414447","0.0-6.0-6.0-0.12","yzbdb1jnlr","many_one","0","direct_first","1","tz06ng08","0","25","1","1","3","1","","0","1","0","null","","","<div class = 'row'><div class = 'column'><img src = 'category1/CS1.png' width = '70%;'></div><div class = 'column'><img src = 'usneg/9561.bmp' width = '100%;'></div></div>","null","neg","CS","CS","1","category1/CS1.png","","","","",""
"","html-keyboard-response","82","416977","0.0-6.0-6.0-0.13","yzbdb1jnlr","many_one","0","direct_first","1","tz06ng08","0","25","1","1","3","1","","0","1","0","null","","","<div class = 'row'><div class = 'column'><img src = 'uspos/8490.bmp' width = '100%;'></div><div class = 'column'><img src = 'category4/CS8.png' width = '70%;'></div></div>","null","pos","CS","CS","4","category4/CS8.png","","","","",""
"","html-keyboard-response","83","419507","0.0-6.0-6.0-0.14","yzbdb1jnlr","many_one","0","direct_first","1","tz06ng08","0","25","1","1","3","1","","0","1","0","null","","","<div class = 'row'><div class = 'column'><img src = 'usneg/2205.bmp' width = '100%;'></div><div class = 'column'><img src = 'category1/CS9.png' width = '70%;'></div></div>","null","neg","CS","CS","1","category1/CS9.png","","","","",""
"","html-keyboard-response","84","422026","0.0-6.0-6.0-0.15","yzbdb1jnlr","many_one","0","direct_first","1","tz06ng08","0","25","1","1","3","1","","0","1","0","null","","","<div class = 'row'><div class = 'column'><img src = 'usneg/9280.bmp' width = '100%;'></div><div class = 'column'><img src = 'category2/CS2.png' width = '70%;'></div></div>","null","neg","CS","CS","2","category2/CS2.png","","","","",""
"","html-keyboard-response","85","424557","0.0-6.0-6.0-0.16","yzbdb1jnlr","many_one","0","direct_first","1","tz06ng08","0","25","1","1","3","1","","0","1","0","null","","","<div class = 'row'><div class = 'column'><img src = 'uspos/2165.bmp' width = '100%;'></div><div class = 'column'><img src = 'category3/CS3.png' width = '70%;'></div></div>","null","pos","CS","CS","3","category3/CS3.png","","","","",""
"","html-keyboard-response","86","427077","0.0-6.0-6.0-0.17","yzbdb1jnlr","many_one","0","direct_first","1","tz06ng08","0","25","1","1","3","1","","0","1","0","null","","","<div class = 'row'><div class = 'column'><img src = 'usneg/9290.bmp' width = '100%;'></div><div class = 'column'><img src = 'category1/CS10.png' width = '70%;'></div></div>","null","neg","CS","CS","1","category1/CS10.png","","","","",""
"","html-keyboard-response","87","429617","0.0-6.0-6.0-0.18","yzbdb1jnlr","many_one","0","direct_first","1","tz06ng08","0","25","1","1","3","1","","0","1","0","null","","","<div class = 'row'><div class = 'column'><img src = 'category3/CS7.png' width = '70%;'></div><div class = 'column'><img src = 'uspos/2160.bmp' width = '100%;'></div></div>","null","pos","CS","CS","3","category3/CS7.png","","","","",""
"","html-keyboard-response","88","432127","0.0-6.0-6.0-0.19","yzbdb1jnlr","many_one","0","direct_first","1","tz06ng08","0","25","1","1","3","1","","0","1","0","null","","","<div class = 'row'><div class = 'column'><img src = 'usneg/9520.bmp' width = '100%;'></div><div class = 'column'><img src = 'category1/CS6.png' width = '70%;'></div></div>","null","neg","CS","CS","1","category1/CS6.png","","","","",""
"","survey-html-form","89","444403","0.0-7.0","yzbdb1jnlr","many_one","0","direct_first","1","tz06ng08","0","25","1","1","3","1","","0","1","0","11755","","{}","","","","","","","","","","","",""
"","image-slider-response","90","452391","0.0-8.0-0.0","yzbdb1jnlr","many_one","0","direct_first","1","tz06ng08","0","25","1","1","3","1","","0","1","0","5950","","","","","pos","GS","GSold","4","category4/CS5.png","29","targets/20.png","direct","",""
"","image-slider-response","91","456128","0.0-8.0-0.1","yzbdb1jnlr","many_one","0","direct_first","1","tz06ng08","0","25","1","1","3","1","","0","1","0","3735","","","","","neg","GS","GSold","2","category2/CS3.png","-64","targets/16.png","direct","",""
"","image-slider-response","92","459792","0.0-8.0-0.2","yzbdb1jnlr","many_one","0","direct_first","1","tz06ng08","0","25","1","1","3","1","","0","1","0","3662","","","","","pos","GS","GSold","4","category4/CS4.png","21","targets/11.png","direct","",""
"","image-slider-response","93","462854","0.0-8.0-0.3","yzbdb1jnlr","many_one","0","direct_first","1","tz06ng08","0","25","1","1","3","1","","0","1","0","3061","","","","","pos","GS","GSnew","4","category4/GS2.png","-68","targets/22.png","direct","",""
"","image-slider-response","94","467770","0.0-8.0-0.4","yzbdb1jnlr","many_one","0","direct_first","1","tz06ng08","0","25","1","1","3","1","","0","1","0","4913","","","","","pos","GS","GSold","3","category3/CS4.png","72","targets/29.png","direct","",""
"","image-slider-response","95","472439","0.0-8.0-0.5","yzbdb1jnlr","many_one","0","direct_first","1","tz06ng08","0","25","1","1","3","1","","0","1","0","4669","","","","","pos","GS","GSnew","3","category3/GS1.png","27","targets/30.png","direct","",""
"","image-slider-response","96","477542","0.0-8.0-0.6","yzbdb1jnlr","many_one","0","direct_first","1","tz06ng08","0","25","1","1","3","1","","0","1","0","5100","","","","","neg","GS","GSnew","2","category2/GS1.png","-18","targets/21.png","direct","",""
"","image-slider-response","97","483489","0.0-8.0-0.7","yzbdb1jnlr","many_one","0","direct_first","1","tz06ng08","0","25","1","1","3","1","","0","1","0","5944","","","","","neg","CS","CS","1","category1/CS1.png","-10","targets/4.png","direct","",""
"","image-slider-response","98","485992","0.0-8.0-0.8","yzbdb1jnlr","many_one","0","direct_first","1","tz06ng08","0","25","1","1","3","1","","0","1","0","2502","","","","","neg","CS","CS","2","category2/CS7.png","-99","targets/14.png","direct","",""
"","image-slider-response","99","488578","0.0-8.0-0.9","yzbdb1jnlr","many_one","0","direct_first","1","tz06ng08","0","25","1","1","3","1","","0","1","0","2582","","","","","pos","GS","GSold","3","category3/CS8.png","89","targets/31.png","direct","",""
"","image-slider-response","100","491451","0.0-8.0-0.10","yzbdb1jnlr","many_one","0","direct_first","1","tz06ng08","0","25","1","1","3","1","","0","1","0","2870","","","","","neg","CS","CS","2","category2/CS1.png","-91","targets/43.png","direct","",""
"","image-slider-response","101","494027","0.0-8.0-0.11","yzbdb1jnlr","many_one","0","direct_first","1","tz06ng08","0","25","1","1","3","1","","0","1","0","2573","","","","","neg","CS","CS","2","category2/CS5.png","-68","targets/34.png","direct","",""
"","image-slider-response","102","498014","0.0-8.0-0.12","yzbdb1jnlr","many_one","0","direct_first","1","tz06ng08","0","25","1","1","3","1","","0","1","0","3985","","","","","neg","GS","GSold","1","category1/CS8.png","-21","targets/23.png","direct","",""
"","image-slider-response","103","499945","0.0-8.0-0.13","yzbdb1jnlr","many_one","0","direct_first","1","tz06ng08","0","25","1","1","3","1","","0","1","0","1928","","","","","pos","CS","CS","3","category3/CS5.png","78","targets/45.png","direct","",""
"","image-slider-response","104","502407","0.0-8.0-0.14","yzbdb1jnlr","many_one","0","direct_first","1","tz06ng08","0","25","1","1","3","1","","0","1","0","2460","","","","","neg","GS","GSold","2","category2/CS10.png","-55","targets/10.png","direct","",""
"","image-slider-response","105","505580","0.0-8.0-0.15","yzbdb1jnlr","many_one","0","direct_first","1","tz06ng08","0","25","1","1","3","1","","0","1","0","3170","","","","","neg","GS","abstract","1","category1/ma.png","-24","targets/2.png","direct","",""
"","image-slider-response","106","507582","0.0-8.0-0.16","yzbdb1jnlr","many_one","0","direct_first","1","tz06ng08","0","25","1","1","3","1","","0","1","0","2001","","","","","neg","CS","CS","2","category2/CS4.png","-68","targets/36.png","direct","",""
"","image-slider-response","107","511370","0.0-8.0-0.17","yzbdb1jnlr","many_one","0","direct_first","1","tz06ng08","0","25","1","1","3","1","","0","1","0","3785","","","","","pos","CS","CS","4","category4/CS3.png","25","targets/37.png","direct","",""
"","image-slider-response","108","514024","0.0-8.0-0.18","yzbdb1jnlr","many_one","0","direct_first","1","tz06ng08","0","25","1","1","3","1","","0","1","0","2649","","","","","neg","GS","GSold","2","category2/CS6.png","-59","targets/19.png","direct","",""
"","image-slider-response","109","518036","0.0-8.0-0.19","yzbdb1jnlr","many_one","0","direct_first","1","tz06ng08","0","25","1","1","3","1","","0","1","0","4009","","","","","neg","GS","GSold","1","category1/CS4.png","-38","targets/48.png","direct","",""
"","image-slider-response","110","522066","0.0-8.0-0.20","yzbdb1jnlr","many_one","0","direct_first","1","tz06ng08","0","25","1","1","3","1","","0","1","0","4025","","","","","pos","GS","GSold","4","category4/CS6.png","21","targets/15.png","direct","",""
"","image-slider-response","111","524903","0.0-8.0-0.21","yzbdb1jnlr","many_one","0","direct_first","1","tz06ng08","0","25","1","1","3","1","","0","1","0","2834","","","","","pos","CS","CS","3","category3/CS7.png","59","targets/33.png","direct","",""
"","image-slider-response","112","527464","0.0-8.0-0.22","yzbdb1jnlr","many_one","0","direct_first","1","tz06ng08","0","25","1","1","3","1","","0","1","0","2560","","","","","pos","CS","CS","4","category4/CS2.png","32","targets/13.png","direct","",""
"","image-slider-response","113","529890","0.0-8.0-0.23","yzbdb1jnlr","many_one","0","direct_first","1","tz06ng08","0","25","1","1","3","1","","0","1","0","2425","","","","","neg","GS","abstract","2","category2/men.png","-69","targets/40.png","direct","",""
"","image-slider-response","114","532696","0.0-8.0-0.24","yzbdb1jnlr","many_one","0","direct_first","1","tz06ng08","0","25","1","1","3","1","","0","1","0","2803","","","","","pos","GS","GSnew","4","category4/GS3.png","-91","targets/24.png","direct","",""
"","image-slider-response","115","535361","0.0-8.0-0.25","yzbdb1jnlr","many_one","0","direct_first","1","tz06ng08","0","25","1","1","3","1","","0","1","0","2662","","","","","pos","CS","CS","3","category3/CS1.png","86","targets/3.png","direct","",""
"","image-slider-response","116","539390","0.0-8.0-0.26","yzbdb1jnlr","many_one","0","direct_first","1","tz06ng08","0","25","1","1","3","1","","0","1","0","4028","","","","","neg","GS","GSnew","1","category1/GS1.png","-16","targets/25.png","direct","",""
"","image-slider-response","117","543207","0.0-8.0-0.27","yzbdb1jnlr","many_one","0","direct_first","1","tz06ng08","0","25","1","1","3","1","","0","1","0","3810","","","","","pos","GS","GSnew","3","category3/GS3.png","3","targets/39.png","direct","",""
"","image-slider-response","118","547176","0.0-8.0-0.28","yzbdb1jnlr","many_one","0","direct_first","1","tz06ng08","0","25","1","1","3","1","","0","1","0","3968","","","","","neg","GS","GSnew","2","category2/GS2.png","-16","targets/17.png","direct","",""
"","image-slider-response","119","550080","0.0-8.0-0.29","yzbdb1jnlr","many_one","0","direct_first","1","tz06ng08","0","25","1","1","3","1","","0","1","0","2901","","","","","pos","GS","GSnew","3","category3/GS2.png","31","targets/32.png","direct","",""
"","image-slider-response","120","552272","0.0-8.0-0.30","yzbdb1jnlr","many_one","0","direct_first","1","tz06ng08","0","25","1","1","3","1","","0","1","0","2189","","","","","neg","CS","CS","1","category1/CS6.png","-16","targets/42.png","direct","",""
"","image-slider-response","121","557628","0.0-8.0-0.31","yzbdb1jnlr","many_one","0","direct_first","1","tz06ng08","0","25","1","1","3","1","","0","1","0","5354","","","","","pos","CS","CS","4","category4/CS7.png","32","targets/35.png","direct","",""
"","image-slider-response","122","560275","0.0-8.0-0.32","yzbdb1jnlr","many_one","0","direct_first","1","tz06ng08","0","25","1","1","3","1","","0","1","0","2643","","","","","pos","GS","GSnew","4","category4/GS1.png","-50","targets/27.png","direct","",""
"","image-slider-response","123","562811","0.0-8.0-0.33","yzbdb1jnlr","many_one","0","direct_first","1","tz06ng08","0","25","1","1","3","1","","0","1","0","2533","","","","","neg","CS","CS","1","category1/CS9.png","-13","targets/41.png","direct","",""
"","image-slider-response","124","565338","0.0-8.0-0.34","yzbdb1jnlr","many_one","0","direct_first","1","tz06ng08","0","25","1","1","3","1","","0","1","0","2526","","","","","pos","GS","abstract","3","category3/wang.png","82","targets/46.png","direct","",""
"","image-slider-response","125","567750","0.0-8.0-0.35","yzbdb1jnlr","many_one","0","direct_first","1","tz06ng08","0","25","1","1","3","1","","0","1","0","2410","","","","","pos","CS","CS","3","category3/CS2.png","93","targets/9.png","direct","",""
"","image-slider-response","126","569878","0.0-8.0-0.36","yzbdb1jnlr","many_one","0","direct_first","1","tz06ng08","0","25","1","1","3","1","","0","1","0","2126","","","","","pos","GS","abstract","4","category4/lin.png","-10","targets/47.png","direct","",""
"","image-slider-response","127","571938","0.0-8.0-0.37","yzbdb1jnlr","many_one","0","direct_first","1","tz06ng08","0","25","1","1","3","1","","0","1","0","2058","","","","","pos","GS","GSold","3","category3/CS9.png","87","targets/26.png","direct","",""
"","image-slider-response","128","574258","0.0-8.0-0.38","yzbdb1jnlr","many_one","0","direct_first","1","tz06ng08","0","25","1","1","3","1","","0","1","0","2317","","","","","neg","GS","GSold","1","category1/CS5.png","-25","targets/7.png","direct","",""
"","image-slider-response","129","576602","0.0-8.0-0.39","yzbdb1jnlr","many_one","0","direct_first","1","tz06ng08","0","25","1","1","3","1","","0","1","0","2342","","","","","neg","CS","CS","1","category1/CS3.png","-31","targets/12.png","direct","",""
"","image-slider-response","130","579502","0.0-8.0-0.40","yzbdb1jnlr","many_one","0","direct_first","1","tz06ng08","0","25","1","1","3","1","","0","1","0","2898","","","","","pos","CS","CS","4","category4/CS8.png","-1","targets/38.png","direct","",""
"","image-slider-response","131","582244","0.0-8.0-0.41","yzbdb1jnlr","many_one","0","direct_first","1","tz06ng08","0","25","1","1","3","1","","0","1","0","2739","","","","","neg","CS","CS","2","category2/CS2.png","-83","targets/8.png","direct","",""
"","image-slider-response","132","584610","0.0-8.0-0.42","yzbdb1jnlr","many_one","0","direct_first","1","tz06ng08","0","25","1","1","3","1","","0","1","0","2363","","","","","pos","CS","CS","3","category3/CS3.png","82","targets/5.png","direct","",""
"","image-slider-response","133","588872","0.0-8.0-0.43","yzbdb1jnlr","many_one","0","direct_first","1","tz06ng08","0","25","1","1","3","1","","0","1","0","4261","","","","","neg","CS","CS","1","category1/CS10.png","-25","targets/1.png","direct","",""
"","image-slider-response","134","591486","0.0-8.0-0.44","yzbdb1jnlr","many_one","0","direct_first","1","tz06ng08","0","25","1","1","3","1","","0","1","0","2611","","","","","neg","GS","GSnew","1","category1/GS2.png","-54","targets/18.png","direct","",""
"","image-slider-response","135","593848","0.0-8.0-0.45","yzbdb1jnlr","many_one","0","direct_first","1","tz06ng08","0","25","1","1","3","1","","0","1","0","2360","","","","","neg","GS","GSnew","2","category2/GS3.png","-78","targets/44.png","direct","",""
"","image-slider-response","136","596466","0.0-8.0-0.46","yzbdb1jnlr","many_one","0","direct_first","1","tz06ng08","0","25","1","1","3","1","","0","1","0","2615","","","","","pos","CS","CS","4","category4/CS9.png","12","targets/28.png","direct","",""
"","image-slider-response","137","598734","0.0-8.0-0.47","yzbdb1jnlr","many_one","0","direct_first","1","tz06ng08","0","25","1","1","3","1","","0","1","0","2266","","","","","neg","GS","GSnew","1","category1/GS3.png","21","targets/6.png","direct","",""
"","html-keyboard-response","138","633455","0.0-9.0","yzbdb1jnlr","many_one","0","direct_first","1","tz06ng08","0","25","1","1","3","1","","0","1","0","34719","","","<p>Sie sehen nun die chinesischen Zeichen nur ganz kurz. Danach sehen Sie die jeweilige Aussprache der Zeichen als Silbe auf dem Bildschrim. Ihre Aufgabe ist es, für jede Silbe anzugeben, ob diese etwas angenehmes, oder unangenehmes bedeuten könnte. Verlassen Sie sich hier vor allem auf Ihre Intuition.<br><br>Die Zeichen werden nur zur Orientierung dargestellt, beachten Sie sie deshalb nicht. Konzentrieren Sie sich vor allem auf die Silben. <br>Reagieren Sie mit folgenden zwei Tasten: <br><br><b>'D' </b> wenn die Silbe etwas <b>unangenehmes</b> bedeuten könnte. <br><b>'K'</b> wenn die Silbe etwas <b>angenehmes</b> bedeuten könnte. <br><br>Bitte legen Sie nun den Zeigefinger der linken Hand auf die Taste 'D' und den Zeigefinger der rechten Hand auf die Taste 'K'. <br>Reagieren Sie auf jede Silbe so schnell wie möglich. Uns interessiert Ihre spontane Reaktion. <br> <br> <br>Drücken Sie 'D' oder 'K', um die nächste Aufgabe zu starten. </p>","68","","","","","","","","","",""
"","html-keyboard-response","139","636467","0.0-10.0-0.0","yzbdb1jnlr","many_one","0","direct_first","1","tz06ng08","0","25","1","1","3","1","","0","1","0","null","","","<div style=""font-size:60px;"">+</div>","null","","","","","","","","","",""
"","html-keyboard-response","140","636574","0.0-10.0-1.0","yzbdb1jnlr","many_one","0","direct_first","1","tz06ng08","0","25","1","1","3","1","","0","1","0","null","","","<img src = 'category2/CS2.png' width = '100%;'>","null","","","","","","","","","",""
"","html-keyboard-response","141","636839","0.0-10.0-2.0","yzbdb1jnlr","many_one","0","direct_first","1","tz06ng08","0","25","1","1","3","1","","0","1","0","null","","","<img src = 'targets/8.png' width = '100%;'>","null","","","","","","","","","",""
"","html-keyboard-response","142","640935","0.0-10.0-3.0","yzbdb1jnlr","many_one","0","direct_first","1","tz06ng08","0","25","1","1","3","1","","0","1","0","4090","","","<img src = 'targets/mask.png' width = '100%;'>","68","neg","CS","CS","2","category2/CS2.png","","targets/8.png","indirect","0","0"
"","html-keyboard-response","143","642446","0.0-10.0-0.1","yzbdb1jnlr","many_one","0","direct_first","1","tz06ng08","0","25","1","1","3","1","","0","1","0","null","","","<div style=""font-size:60px;"">+</div>","null","","","","","","","","","",""
"","html-keyboard-response","144","642552","0.0-10.0-1.1","yzbdb1jnlr","many_one","0","direct_first","1","tz06ng08","0","25","1","1","3","1","","0","1","0","null","","","<img src = 'category1/CS5.png' width = '100%;'>","null","","","","","","","","","",""
"","html-keyboard-response","145","642823","0.0-10.0-2.1","yzbdb1jnlr","many_one","0","direct_first","1","tz06ng08","0","25","1","1","3","1","","0","1","0","null","","","<img src = 'targets/7.png' width = '100%;'>","null","","","","","","","","","",""
"","html-keyboard-response","146","644758","0.0-10.0-3.1","yzbdb1jnlr","many_one","0","direct_first","1","tz06ng08","0","25","1","1","3","1","","0","1","0","1933","","","<img src = 'targets/mask.png' width = '100%;'>","75","neg","GS","GSold","1","category1/CS5.png","","targets/7.png","indirect","1","1"
"","html-keyboard-response","147","646276","0.0-10.0-0.2","yzbdb1jnlr","many_one","0","direct_first","1","tz06ng08","0","25","1","1","3","1","","0","1","0","null","","","<div style=""font-size:60px;"">+</div>","null","","","","","","","","","",""
"","html-keyboard-response","148","646373","0.0-10.0-1.2","yzbdb1jnlr","many_one","0","direct_first","1","tz06ng08","0","25","1","1","3","1","","0","1","0","null","","","<img src = 'category4/CS4.png' width = '100%;'>","null","","","","","","","","","",""
"","html-keyboard-response","149","646638","0.0-10.0-2.2","yzbdb1jnlr","many_one","0","direct_first","1","tz06ng08","0","25","1","1","3","1","","0","1","0","null","","","<img src = 'targets/11.png' width = '100%;'>","null","","","","","","","","","",""
"","html-keyboard-response","150","647369","0.0-10.0-3.2","yzbdb1jnlr","many_one","0","direct_first","1","tz06ng08","0","25","1","1","3","1","","0","1","0","728","","","<img src = 'targets/mask.png' width = '100%;'>","75","pos","GS","GSold","4","category4/CS4.png","","targets/11.png","indirect","1","2"
"","html-keyboard-response","151","648887","0.0-10.0-0.3","yzbdb1jnlr","many_one","0","direct_first","1","tz06ng08","0","25","1","1","3","1","","0","1","0","null","","","<div style=""font-size:60px;"">+</div>","null","","","","","","","","","",""
"","html-keyboard-response","152","648988","0.0-10.0-1.3","yzbdb1jnlr","many_one","0","direct_first","1","tz06ng08","0","25","1","1","3","1","","0","1","0","null","","","<img src = 'category1/CS1.png' width = '100%;'>","null","","","","","","","","","",""
"","html-keyboard-response","153","649256","0.0-10.0-2.3","yzbdb1jnlr","many_one","0","direct_first","1","tz06ng08","0","25","1","1","3","1","","0","1","0","null","","","<img src = 'targets/4.png' width = '100%;'>","null","","","","","","","","","",""
"","html-keyboard-response","154","650012","0.0-10.0-3.3","yzbdb1jnlr","many_one","0","direct_first","1","tz06ng08","0","25","1","1","3","1","","0","1","0","756","","","<img src = 'targets/mask.png' width = '100%;'>","75","neg","CS","CS","1","category1/CS1.png","","targets/4.png","indirect","1","3"
"","html-keyboard-response","155","651516","0.0-10.0-0.4","yzbdb1jnlr","many_one","0","direct_first","1","tz06ng08","0","25","1","1","3","1","","0","1","0","null","","","<div style=""font-size:60px;"">+</div>","null","","","","","","","","","",""
"","html-keyboard-response","156","651623","0.0-10.0-1.4","yzbdb1jnlr","many_one","0","direct_first","1","tz06ng08","0","25","1","1","3","1","","0","1","0","null","","","<img src = 'category4/CS9.png' width = '100%;'>","null","","","","","","","","","",""
"","html-keyboard-response","157","651889","0.0-10.0-2.4","yzbdb1jnlr","many_one","0","direct_first","1","tz06ng08","0","25","1","1","3","1","","0","1","0","null","","","<img src = 'targets/28.png' width = '100%;'>","null","","","","","","","","","",""
"","html-keyboard-response","158","652314","0.0-10.0-3.4","yzbdb1jnlr","many_one","0","direct_first","1","tz06ng08","0","25","1","1","3","1","","0","1","0","420","","","<img src = 'targets/mask.png' width = '100%;'>","75","pos","CS","CS","4","category4/CS9.png","","targets/28.png","indirect","1","4"
"","html-keyboard-response","159","653837","0.0-10.0-0.5","yzbdb1jnlr","many_one","0","direct_first","1","tz06ng08","0","25","1","1","3","1","","0","1","0","null","","","<div style=""font-size:60px;"">+</div>","null","","","","","","","","","",""
"","html-keyboard-response","160","653938","0.0-10.0-1.5","yzbdb1jnlr","many_one","0","direct_first","1","tz06ng08","0","25","1","1","3","1","","0","1","0","null","","","<img src = 'category1/CS3.png' width = '100%;'>","null","","","","","","","","","",""
"","html-keyboard-response","161","654205","0.0-10.0-2.5","yzbdb1jnlr","many_one","0","direct_first","1","tz06ng08","0","25","1","1","3","1","","0","1","0","null","","","<img src = 'targets/12.png' width = '100%;'>","null","","","","","","","","","",""
"","html-keyboard-response","162","654352","0.0-10.0-3.5","yzbdb1jnlr","many_one","0","direct_first","1","tz06ng08","0","25","1","1","3","1","","0","1","0","144","","","<img src = 'targets/mask.png' width = '100%;'>","68","neg","CS","CS","1","category1/CS3.png","","targets/12.png","indirect","0","5"
"","html-keyboard-response","163","655886","0.0-10.0-0.6","yzbdb1jnlr","many_one","0","direct_first","1","tz06ng08","0","25","1","1","3","1","","0","1","0","null","","","<div style=""font-size:60px;"">+</div>","null","","","","","","","","","",""
"","html-keyboard-response","164","655988","0.0-10.0-1.6","yzbdb1jnlr","many_one","0","direct_first","1","tz06ng08","0","25","1","1","3","1","","0","1","0","null","","","<img src = 'category1/CS10.png' width = '100%;'>","null","","","","","","","","","",""
"","html-keyboard-response","165","656256","0.0-10.0-2.6","yzbdb1jnlr","many_one","0","direct_first","1","tz06ng08","0","25","1","1","3","1","","0","1","0","null","","","<img src = 'targets/1.png' width = '100%;'>","null","","","","","","","","","",""
"","html-keyboard-response","166","656746","0.0-10.0-3.6","yzbdb1jnlr","many_one","0","direct_first","1","tz06ng08","0","25","1","1","3","1","","0","1","0","488","","","<img src = 'targets/mask.png' width = '100%;'>","68","neg","CS","CS","1","category1/CS10.png","","targets/1.png","indirect","0","6"
"","html-keyboard-response","167","658286","0.0-10.0-0.7","yzbdb1jnlr","many_one","0","direct_first","1","tz06ng08","0","25","1","1","3","1","","0","1","0","null","","","<div style=""font-size:60px;"">+</div>","null","","","","","","","","","",""
"","html-keyboard-response","168","658388","0.0-10.0-1.7","yzbdb1jnlr","many_one","0","direct_first","1","tz06ng08","0","25","1","1","3","1","","0","1","0","null","","","<img src = 'category1/CS4.png' width = '100%;'>","null","","","","","","","","","",""
"","html-keyboard-response","169","658656","0.0-10.0-2.7","yzbdb1jnlr","many_one","0","direct_first","1","tz06ng08","0","25","1","1","3","1","","0","1","0","null","","","<img src = 'targets/48.png' width = '100%;'>","null","","","","","","","","","",""
"","html-keyboard-response","170","658976","0.0-10.0-3.7","yzbdb1jnlr","many_one","0","direct_first","1","tz06ng08","0","25","1","1","3","1","","0","1","0","318","","","<img src = 'targets/mask.png' width = '100%;'>","68","neg","GS","GSold","1","category1/CS4.png","","targets/48.png","indirect","0","7"
"","html-keyboard-response","171","660496","0.0-10.0-0.8","yzbdb1jnlr","many_one","0","direct_first","1","tz06ng08","0","25","1","1","3","1","","0","1","0","null","","","<div style=""font-size:60px;"">+</div>","null","","","","","","","","","",""
"","html-keyboard-response","172","660605","0.0-10.0-1.8","yzbdb1jnlr","many_one","0","direct_first","1","tz06ng08","0","25","1","1","3","1","","0","1","0","null","","","<img src = 'category3/CS7.png' width = '100%;'>","null","","","","","","","","","",""
"","html-keyboard-response","173","660870","0.0-10.0-2.8","yzbdb1jnlr","many_one","0","direct_first","1","tz06ng08","0","25","1","1","3","1","","0","1","0","null","","","<img src = 'targets/33.png' width = '100%;'>","null","","","","","","","","","",""
"","html-keyboard-response","174","661203","0.0-10.0-3.8","yzbdb1jnlr","many_one","0","direct_first","1","tz06ng08","0","25","1","1","3","1","","0","1","0","330","","","<img src = 'targets/mask.png' width = '100%;'>","75","pos","CS","CS","3","category3/CS7.png","","targets/33.png","indirect","1","8"
"","html-keyboard-response","175","662736","0.0-10.0-0.9","yzbdb1jnlr","many_one","0","direct_first","1","tz06ng08","0","25","1","1","3","1","","0","1","0","null","","","<div style=""font-size:60px;"">+</div>","null","","","","","","","","","",""
"","html-keyboard-response","176","662839","0.0-10.0-1.9","yzbdb1jnlr","many_one","0","direct_first","1","tz06ng08","0","25","1","1","3","1","","0","1","0","null","","","<img src = 'category4/CS8.png' width = '100%;'>","null","","","","","","","","","",""
"","html-keyboard-response","177","663103","0.0-10.0-2.9","yzbdb1jnlr","many_one","0","direct_first","1","tz06ng08","0","25","1","1","3","1","","0","1","0","null","","","<img src = 'targets/38.png' width = '100%;'>","null","","","","","","","","","",""
"","html-keyboard-response","178","663385","0.0-10.0-3.9","yzbdb1jnlr","many_one","0","direct_first","1","tz06ng08","0","25","1","1","3","1","","0","1","0","279","","","<img src = 'targets/mask.png' width = '100%;'>","68","pos","CS","CS","4","category4/CS8.png","","targets/38.png","indirect","0","9"
"","html-keyboard-response","179","664887","0.0-10.0-0.10","yzbdb1jnlr","many_one","0","direct_first","1","tz06ng08","0","25","1","1","3","1","","0","1","0","null","","","<div style=""font-size:60px;"">+</div>","null","","","","","","","","","",""
"","html-keyboard-response","180","664988","0.0-10.0-1.10","yzbdb1jnlr","many_one","0","direct_first","1","tz06ng08","0","25","1","1","3","1","","0","1","0","null","","","<img src = 'category2/CS1.png' width = '100%;'>","null","","","","","","","","","",""
"","html-keyboard-response","181","665255","0.0-10.0-2.10","yzbdb1jnlr","many_one","0","direct_first","1","tz06ng08","0","25","1","1","3","1","","0","1","0","null","","","<img src = 'targets/43.png' width = '100%;'>","null","","","","","","","","","",""
"","html-keyboard-response","182","665452","0.0-10.0-3.10","yzbdb1jnlr","many_one","0","direct_first","1","tz06ng08","0","25","1","1","3","1","","0","1","0","195","","","<img src = 'targets/mask.png' width = '100%;'>","68","neg","CS","CS","2","category2/CS1.png","","targets/43.png","indirect","0","10"
"","html-keyboard-response","183","666978","0.0-10.0-0.11","yzbdb1jnlr","many_one","0","direct_first","1","tz06ng08","0","25","1","1","3","1","","0","1","0","null","","","<div style=""font-size:60px;"">+</div>","null","","","","","","","","","",""
"","html-keyboard-response","184","667086","0.0-10.0-1.11","yzbdb1jnlr","many_one","0","direct_first","1","tz06ng08","0","25","1","1","3","1","","0","1","0","null","","","<img src = 'category1/CS9.png' width = '100%;'>","null","","","","","","","","","",""
"","html-keyboard-response","185","667355","0.0-10.0-2.11","yzbdb1jnlr","many_one","0","direct_first","1","tz06ng08","0","25","1","1","3","1","","0","1","0","null","","","<img src = 'targets/41.png' width = '100%;'>","null","","","","","","","","","",""
"","html-keyboard-response","186","667899","0.0-10.0-3.11","yzbdb1jnlr","many_one","0","direct_first","1","tz06ng08","0","25","1","1","3","1","","0","1","0","543","","","<img src = 'targets/mask.png' width = '100%;'>","75","neg","CS","CS","1","category1/CS9.png","","targets/41.png","indirect","1","11"
"","html-keyboard-response","187","669436","0.0-10.0-0.12","yzbdb1jnlr","many_one","0","direct_first","1","tz06ng08","0","25","1","1","3","1","","0","1","0","null","","","<div style=""font-size:60px;"">+</div>","null","","","","","","","","","",""
"","html-keyboard-response","188","669536","0.0-10.0-1.12","yzbdb1jnlr","many_one","0","direct_first","1","tz06ng08","0","25","1","1","3","1","","0","1","0","null","","","<img src = 'category2/CS7.png' width = '100%;'>","null","","","","","","","","","",""
"","html-keyboard-response","189","669805","0.0-10.0-2.12","yzbdb1jnlr","many_one","0","direct_first","1","tz06ng08","0","25","1","1","3","1","","0","1","0","null","","","<img src = 'targets/14.png' width = '100%;'>","null","","","","","","","","","",""
"","html-keyboard-response","190","669991","0.0-10.0-3.12","yzbdb1jnlr","many_one","0","direct_first","1","tz06ng08","0","25","1","1","3","1","","0","1","0","184","","","<img src = 'targets/mask.png' width = '100%;'>","68","neg","CS","CS","2","category2/CS7.png","","targets/14.png","indirect","0","12"
"","html-keyboard-response","191","671506","0.0-10.0-0.13","yzbdb1jnlr","many_one","0","direct_first","1","tz06ng08","0","25","1","1","3","1","","0","1","0","null","","","<div style=""font-size:60px;"">+</div>","null","","","","","","","","","",""
"","html-keyboard-response","192","671604","0.0-10.0-1.13","yzbdb1jnlr","many_one","0","direct_first","1","tz06ng08","0","25","1","1","3","1","","0","1","0","null","","","<img src = 'category3/CS2.png' width = '100%;'>","null","","","","","","","","","",""
"","html-keyboard-response","193","671872","0.0-10.0-2.13","yzbdb1jnlr","many_one","0","direct_first","1","tz06ng08","0","25","1","1","3","1","","0","1","0","null","","","<img src = 'targets/9.png' width = '100%;'>","null","","","","","","","","","",""
"","html-keyboard-response","194","672100","0.0-10.0-3.13","yzbdb1jnlr","many_one","0","direct_first","1","tz06ng08","0","25","1","1","3","1","","0","1","0","227","","","<img src = 'targets/mask.png' width = '100%;'>","75","pos","CS","CS","3","category3/CS2.png","","targets/9.png","indirect","1","13"
"","html-keyboard-response","195","673617","0.0-10.0-0.14","yzbdb1jnlr","many_one","0","direct_first","1","tz06ng08","0","25","1","1","3","1","","0","1","0","null","","","<div style=""font-size:60px;"">+</div>","null","","","","","","","","","",""
"","html-keyboard-response","196","673720","0.0-10.0-1.14","yzbdb1jnlr","many_one","0","direct_first","1","tz06ng08","0","25","1","1","3","1","","0","1","0","null","","","<img src = 'category3/CS1.png' width = '100%;'>","null","","","","","","","","","",""
"","html-keyboard-response","197","673986","0.0-10.0-2.14","yzbdb1jnlr","many_one","0","direct_first","1","tz06ng08","0","25","1","1","3","1","","0","1","0","null","","","<img src = 'targets/3.png' width = '100%;'>","null","","","","","","","","","",""
"","html-keyboard-response","198","674354","0.0-10.0-3.14","yzbdb1jnlr","many_one","0","direct_first","1","tz06ng08","0","25","1","1","3","1","","0","1","0","365","","","<img src = 'targets/mask.png' width = '100%;'>","75","pos","CS","CS","3","category3/CS1.png","","targets/3.png","indirect","1","14"
"","html-keyboard-response","199","675876","0.0-10.0-0.15","yzbdb1jnlr","many_one","0","direct_first","1","tz06ng08","0","25","1","1","3","1","","0","1","0","null","","","<div style=""font-size:60px;"">+</div>","null","","","","","","","","","",""
"","html-keyboard-response","200","675971","0.0-10.0-1.15","yzbdb1jnlr","many_one","0","direct_first","1","tz06ng08","0","25","1","1","3","1","","0","1","0","null","","","<img src = 'category4/CS3.png' width = '100%;'>","null","","","","","","","","","",""
"","html-keyboard-response","201","676236","0.0-10.0-2.15","yzbdb1jnlr","many_one","0","direct_first","1","tz06ng08","0","25","1","1","3","1","","0","1","0","null","","","<img src = 'targets/37.png' width = '100%;'>","null","","","","","","","","","",""
"","html-keyboard-response","202","676752","0.0-10.0-3.15","yzbdb1jnlr","many_one","0","direct_first","1","tz06ng08","0","25","1","1","3","1","","0","1","0","513","","","<img src = 'targets/mask.png' width = '100%;'>","75","pos","CS","CS","4","category4/CS3.png","","targets/37.png","indirect","1","15"
"","html-keyboard-response","203","678275","0.0-10.0-0.16","yzbdb1jnlr","many_one","0","direct_first","1","tz06ng08","0","25","1","1","3","1","","0","1","0","null","","","<div style=""font-size:60px;"">+</div>","null","","","","","","","","","",""
"","html-keyboard-response","204","678371","0.0-10.0-1.16","yzbdb1jnlr","many_one","0","direct_first","1","tz06ng08","0","25","1","1","3","1","","0","1","0","null","","","<img src = 'category3/CS3.png' width = '100%;'>","null","","","","","","","","","",""
"","html-keyboard-response","205","678636","0.0-10.0-2.16","yzbdb1jnlr","many_one","0","direct_first","1","tz06ng08","0","25","1","1","3","1","","0","1","0","null","","","<img src = 'targets/5.png' width = '100%;'>","null","","","","","","","","","",""
"","html-keyboard-response","206","678820","0.0-10.0-3.16","yzbdb1jnlr","many_one","0","direct_first","1","tz06ng08","0","25","1","1","3","1","","0","1","0","182","","","<img src = 'targets/mask.png' width = '100%;'>","75","pos","CS","CS","3","category3/CS3.png","","targets/5.png","indirect","1","16"
"","html-keyboard-response","207","680356","0.0-10.0-0.17","yzbdb1jnlr","many_one","0","direct_first","1","tz06ng08","0","25","1","1","3","1","","0","1","0","null","","","<div style=""font-size:60px;"">+</div>","null","","","","","","","","","",""
"","html-keyboard-response","208","680454","0.0-10.0-1.17","yzbdb1jnlr","many_one","0","direct_first","1","tz06ng08","0","25","1","1","3","1","","0","1","0","null","","","<img src = 'category2/CS5.png' width = '100%;'>","null","","","","","","","","","",""
"","html-keyboard-response","209","680721","0.0-10.0-2.17","yzbdb1jnlr","many_one","0","direct_first","1","tz06ng08","0","25","1","1","3","1","","0","1","0","null","","","<img src = 'targets/34.png' width = '100%;'>","null","","","","","","","","","",""
"","html-keyboard-response","210","680889","0.0-10.0-3.17","yzbdb1jnlr","many_one","0","direct_first","1","tz06ng08","0","25","1","1","3","1","","0","1","0","168","","","<img src = 'targets/mask.png' width = '100%;'>","68","neg","CS","CS","2","category2/CS5.png","","targets/34.png","indirect","0","17"
"","html-keyboard-response","211","682406","0.0-10.0-0.18","yzbdb1jnlr","many_one","0","direct_first","1","tz06ng08","0","25","1","1","3","1","","0","1","0","null","","","<div style=""font-size:60px;"">+</div>","null","","","","","","","","","",""
"","html-keyboard-response","212","682504","0.0-10.0-1.18","yzbdb1jnlr","many_one","0","direct_first","1","tz06ng08","0","25","1","1","3","1","","0","1","0","null","","","<img src = 'category1/CS6.png' width = '100%;'>","null","","","","","","","","","",""
"","html-keyboard-response","213","682771","0.0-10.0-2.18","yzbdb1jnlr","many_one","0","direct_first","1","tz06ng08","0","25","1","1","3","1","","0","1","0","null","","","<img src = 'targets/42.png' width = '100%;'>","null","","","","","","","","","",""
"","html-keyboard-response","214","683051","0.0-10.0-3.18","yzbdb1jnlr","many_one","0","direct_first","1","tz06ng08","0","25","1","1","3","1","","0","1","0","278","","","<img src = 'targets/mask.png' width = '100%;'>","68","neg","CS","CS","1","category1/CS6.png","","targets/42.png","indirect","0","18"
"","html-keyboard-response","215","684586","0.0-10.0-0.19","yzbdb1jnlr","many_one","0","direct_first","1","tz06ng08","0","25","1","1","3","1","","0","1","0","null","","","<div style=""font-size:60px;"">+</div>","null","","","","","","","","","",""
"","html-keyboard-response","216","684686","0.0-10.0-1.19","yzbdb1jnlr","many_one","0","direct_first","1","tz06ng08","0","25","1","1","3","1","","0","1","0","null","","","<img src = 'category1/CS8.png' width = '100%;'>","null","","","","","","","","","",""
"","html-keyboard-response","217","684954","0.0-10.0-2.19","yzbdb1jnlr","many_one","0","direct_first","1","tz06ng08","0","25","1","1","3","1","","0","1","0","null","","","<img src = 'targets/23.png' width = '100%;'>","null","","","","","","","","","",""
"","html-keyboard-response","218","685273","0.0-10.0-3.19","yzbdb1jnlr","many_one","0","direct_first","1","tz06ng08","0","25","1","1","3","1","","0","1","0","317","","","<img src = 'targets/mask.png' width = '100%;'>","68","neg","GS","GSold","1","category1/CS8.png","","targets/23.png","indirect","0","19"
"","html-keyboard-response","219","686806","0.0-10.0-0.20","yzbdb1jnlr","many_one","0","direct_first","1","tz06ng08","0","25","1","1","3","1","","0","1","0","null","","","<div style=""font-size:60px;"">+</div>","null","","","","","","","","","",""
"","html-keyboard-response","220","686903","0.0-10.0-1.20","yzbdb1jnlr","many_one","0","direct_first","1","tz06ng08","0","25","1","1","3","1","","0","1","0","null","","","<img src = 'category2/CS4.png' width = '100%;'>","null","","","","","","","","","",""
"","html-keyboard-response","221","687170","0.0-10.0-2.20","yzbdb1jnlr","many_one","0","direct_first","1","tz06ng08","0","25","1","1","3","1","","0","1","0","null","","","<img src = 'targets/36.png' width = '100%;'>","null","","","","","","","","","",""
"","html-keyboard-response","222","687367","0.0-10.0-3.20","yzbdb1jnlr","many_one","0","direct_first","1","tz06ng08","0","25","1","1","3","1","","0","1","0","195","","","<img src = 'targets/mask.png' width = '100%;'>","68","neg","CS","CS","2","category2/CS4.png","","targets/36.png","indirect","0","20"
"","html-keyboard-response","223","688897","0.0-10.0-0.21","yzbdb1jnlr","many_one","0","direct_first","1","tz06ng08","0","25","1","1","3","1","","0","1","0","null","","","<div style=""font-size:60px;"">+</div>","null","","","","","","","","","",""
"","html-keyboard-response","224","689004","0.0-10.0-1.21","yzbdb1jnlr","many_one","0","direct_first","1","tz06ng08","0","25","1","1","3","1","","0","1","0","null","","","<img src = 'category3/CS5.png' width = '100%;'>","null","","","","","","","","","",""
"","html-keyboard-response","225","689270","0.0-10.0-2.21","yzbdb1jnlr","many_one","0","direct_first","1","tz06ng08","0","25","1","1","3","1","","0","1","0","null","","","<img src = 'targets/45.png' width = '100%;'>","null","","","","","","","","","",""
"","html-keyboard-response","226","689325","0.0-10.0-3.21","yzbdb1jnlr","many_one","0","direct_first","1","tz06ng08","0","25","1","1","3","1","","0","1","0","52","","","<img src = 'targets/mask.png' width = '100%;'>","75","pos","CS","CS","3","category3/CS5.png","","targets/45.png","indirect","1","21"
"","html-keyboard-response","227","690857","0.0-10.0-0.22","yzbdb1jnlr","many_one","0","direct_first","1","tz06ng08","0","25","1","1","3","1","","0","1","0","null","","","<div style=""font-size:60px;"">+</div>","null","","","","","","","","","",""
"","html-keyboard-response","228","690954","0.0-10.0-1.22","yzbdb1jnlr","many_one","0","direct_first","1","tz06ng08","0","25","1","1","3","1","","0","1","0","null","","","<img src = 'category4/CS2.png' width = '100%;'>","null","","","","","","","","","",""
"","html-keyboard-response","229","691219","0.0-10.0-2.22","yzbdb1jnlr","many_one","0","direct_first","1","tz06ng08","0","25","1","1","3","1","","0","1","0","null","","","<img src = 'targets/13.png' width = '100%;'>","null","","","","","","","","","",""
"","html-keyboard-response","230","691714","0.0-10.0-3.22","yzbdb1jnlr","many_one","0","direct_first","1","tz06ng08","0","25","1","1","3","1","","0","1","0","493","","","<img src = 'targets/mask.png' width = '100%;'>","75","pos","CS","CS","4","category4/CS2.png","","targets/13.png","indirect","1","22"
"","html-keyboard-response","231","693246","0.0-10.0-0.23","yzbdb1jnlr","many_one","0","direct_first","1","tz06ng08","0","25","1","1","3","1","","0","1","0","null","","","<div style=""font-size:60px;"">+</div>","null","","","","","","","","","",""
"","html-keyboard-response","232","693352","0.0-10.0-1.23","yzbdb1jnlr","many_one","0","direct_first","1","tz06ng08","0","25","1","1","3","1","","0","1","0","null","","","<img src = 'category4/CS7.png' width = '100%;'>","null","","","","","","","","","",""
"","html-keyboard-response","233","693619","0.0-10.0-2.23","yzbdb1jnlr","many_one","0","direct_first","1","tz06ng08","0","25","1","1","3","1","","0","1","0","null","","","<img src = 'targets/35.png' width = '100%;'>","null","","","","","","","","","",""
"","html-keyboard-response","234","694077","0.0-10.0-3.23","yzbdb1jnlr","many_one","0","direct_first","1","tz06ng08","0","25","1","1","3","1","","0","1","0","457","","","<img src = 'targets/mask.png' width = '100%;'>","75","pos","CS","CS","4","category4/CS7.png","","targets/35.png","indirect","1","23"
"","survey-html-form","235","697087","0.0-11.0","yzbdb1jnlr","many_one","0","direct_first","1","tz06ng08","0","25","1","1","3","1","","0","1","0","2501","","{}","","","","","","","","","","","",""
"","html-keyboard-response","236","700117","0.0-12.0-0.0","yzbdb1jnlr","many_one","0","direct_first","1","tz06ng08","0","25","1","1","3","1","","0","1","0","null","","","<div style=""font-size:60px;"">+</div>","null","","","","","","","","","",""
"","html-keyboard-response","237","700219","0.0-12.0-1.0","yzbdb1jnlr","many_one","0","direct_first","1","tz06ng08","0","25","1","1","3","1","","0","1","0","null","","","<img src = 'category2/GS2.png' width = '100%;'>","null","","","","","","","","","",""
"","html-keyboard-response","238","700486","0.0-12.0-2.0","yzbdb1jnlr","many_one","0","direct_first","1","tz06ng08","0","25","1","1","3","1","","0","1","0","null","","","<img src = 'targets/17.png' width = '100%;'>","null","","","","","","","","","",""
"","html-keyboard-response","239","700886","0.0-12.0-3.0","yzbdb1jnlr","many_one","0","direct_first","1","tz06ng08","0","25","1","1","3","1","","0","1","0","399","","","<img src = 'targets/mask.png' width = '100%;'>","68","neg","GS","GSnew","2","category2/GS2.png","","targets/17.png","indirect","0","24"
"","html-keyboard-response","240","702416","0.0-12.0-0.1","yzbdb1jnlr","many_one","0","direct_first","1","tz06ng08","0","25","1","1","3","1","","0","1","0","null","","","<div style=""font-size:60px;"">+</div>","null","","","","","","","","","",""
"","html-keyboard-response","241","702519","0.0-12.0-1.1","yzbdb1jnlr","many_one","0","direct_first","1","tz06ng08","0","25","1","1","3","1","","0","1","0","null","","","<img src = 'category3/CS8.png' width = '100%;'>","null","","","","","","","","","",""
"","html-keyboard-response","242","702786","0.0-12.0-2.1","yzbdb1jnlr","many_one","0","direct_first","1","tz06ng08","0","25","1","1","3","1","","0","1","0","null","","","<img src = 'targets/31.png' width = '100%;'>","null","","","","","","","","","",""
"","html-keyboard-response","243","702807","0.0-12.0-3.1","yzbdb1jnlr","many_one","0","direct_first","1","tz06ng08","0","25","1","1","3","1","","0","1","0","18","","","<img src = 'targets/mask.png' width = '100%;'>","75","pos","GS","GSold","3","category3/CS8.png","","targets/31.png","indirect","1","25"
"","html-keyboard-response","244","704346","0.0-12.0-0.2","yzbdb1jnlr","many_one","0","direct_first","1","tz06ng08","0","25","1","1","3","1","","0","1","0","null","","","<div style=""font-size:60px;"">+</div>","null","","","","","","","","","",""
"","html-keyboard-response","245","704453","0.0-12.0-1.2","yzbdb1jnlr","many_one","0","direct_first","1","tz06ng08","0","25","1","1","3","1","","0","1","0","null","","","<img src = 'category4/GS3.png' width = '100%;'>","null","","","","","","","","","",""
"","html-keyboard-response","246","704720","0.0-12.0-2.2","yzbdb1jnlr","many_one","0","direct_first","1","tz06ng08","0","25","1","1","3","1","","0","1","0","null","","","<img src = 'targets/24.png' width = '100%;'>","null","","","","","","","","","",""
"","html-keyboard-response","247","704888","0.0-12.0-3.2","yzbdb1jnlr","many_one","0","direct_first","1","tz06ng08","0","25","1","1","3","1","","0","1","0","168","","","<img src = 'targets/mask.png' width = '100%;'>","68","pos","GS","GSnew","4","category4/GS3.png","","targets/24.png","indirect","0","26"
"","html-keyboard-response","248","706407","0.0-12.0-0.3","yzbdb1jnlr","many_one","0","direct_first","1","tz06ng08","0","25","1","1","3","1","","0","1","0","null","","","<div style=""font-size:60px;"">+</div>","null","","","","","","","","","",""
"","html-keyboard-response","249","706503","0.0-12.0-1.3","yzbdb1jnlr","many_one","0","direct_first","1","tz06ng08","0","25","1","1","3","1","","0","1","0","null","","","<img src = 'category4/GS2.png' width = '100%;'>","null","","","","","","","","","",""
"","html-keyboard-response","250","706768","0.0-12.0-2.3","yzbdb1jnlr","many_one","0","direct_first","1","tz06ng08","0","25","1","1","3","1","","0","1","0","null","","","<img src = 'targets/22.png' width = '100%;'>","null","","","","","","","","","",""
"","html-keyboard-response","251","706850","0.0-12.0-3.3","yzbdb1jnlr","many_one","0","direct_first","1","tz06ng08","0","25","1","1","3","1","","0","1","0","81","","","<img src = 'targets/mask.png' width = '100%;'>","68","pos","GS","GSnew","4","category4/GS2.png","","targets/22.png","indirect","0","27"
"","html-keyboard-response","252","708376","0.0-12.0-0.4","yzbdb1jnlr","many_one","0","direct_first","1","tz06ng08","0","25","1","1","3","1","","0","1","0","null","","","<div style=""font-size:60px;"">+</div>","null","","","","","","","","","",""
"","html-keyboard-response","253","708468","0.0-12.0-1.4","yzbdb1jnlr","many_one","0","direct_first","1","tz06ng08","0","25","1","1","3","1","","0","1","0","null","","","<img src = 'category3/CS9.png' width = '100%;'>","null","","","","","","","","","",""
"","html-keyboard-response","254","708737","0.0-12.0-2.4","yzbdb1jnlr","many_one","0","direct_first","1","tz06ng08","0","25","1","1","3","1","","0","1","0","null","","","<img src = 'targets/26.png' width = '100%;'>","null","","","","","","","","","",""
"","html-keyboard-response","255","708893","0.0-12.0-3.4","yzbdb1jnlr","many_one","0","direct_first","1","tz06ng08","0","25","1","1","3","1","","0","1","0","155","","","<img src = 'targets/mask.png' width = '100%;'>","75","pos","GS","GSold","3","category3/CS9.png","","targets/26.png","indirect","1","28"
"","html-keyboard-response","256","710412","0.0-12.0-0.5","yzbdb1jnlr","many_one","0","direct_first","1","tz06ng08","0","25","1","1","3","1","","0","1","0","null","","","<div style=""font-size:60px;"">+</div>","null","","","","","","","","","",""
"","html-keyboard-response","257","710517","0.0-12.0-1.5","yzbdb1jnlr","many_one","0","direct_first","1","tz06ng08","0","25","1","1","3","1","","0","1","0","null","","","<img src = 'category3/GS2.png' width = '100%;'>","null","","","","","","","","","",""
"","html-keyboard-response","258","710785","0.0-12.0-2.5","yzbdb1jnlr","many_one","0","direct_first","1","tz06ng08","0","25","1","1","3","1","","0","1","0","null","","","<img src = 'targets/32.png' width = '100%;'>","null","","","","","","","","","",""
"","html-keyboard-response","259","711258","0.0-12.0-3.5","yzbdb1jnlr","many_one","0","direct_first","1","tz06ng08","0","25","1","1","3","1","","0","1","0","473","","","<img src = 'targets/mask.png' width = '100%;'>","68","pos","GS","GSnew","3","category3/GS2.png","","targets/32.png","indirect","0","29"
"","html-keyboard-response","260","712766","0.0-12.0-0.6","yzbdb1jnlr","many_one","0","direct_first","1","tz06ng08","0","25","1","1","3","1","","0","1","0","null","","","<div style=""font-size:60px;"">+</div>","null","","","","","","","","","",""
"","html-keyboard-response","261","712868","0.0-12.0-1.6","yzbdb1jnlr","many_one","0","direct_first","1","tz06ng08","0","25","1","1","3","1","","0","1","0","null","","","<img src = 'category1/GS1.png' width = '100%;'>","null","","","","","","","","","",""
"","html-keyboard-response","262","713136","0.0-12.0-2.6","yzbdb1jnlr","many_one","0","direct_first","1","tz06ng08","0","25","1","1","3","1","","0","1","0","null","","","<img src = 'targets/25.png' width = '100%;'>","null","","","","","","","","","",""
"","html-keyboard-response","263","713590","0.0-12.0-3.6","yzbdb1jnlr","many_one","0","direct_first","1","tz06ng08","0","25","1","1","3","1","","0","1","0","452","","","<img src = 'targets/mask.png' width = '100%;'>","75","neg","GS","GSnew","1","category1/GS1.png","","targets/25.png","indirect","1","30"
"","html-keyboard-response","264","715094","0.0-12.0-0.7","yzbdb1jnlr","many_one","0","direct_first","1","tz06ng08","0","25","1","1","3","1","","0","1","0","null","","","<div style=""font-size:60px;"">+</div>","null","","","","","","","","","",""
"","html-keyboard-response","265","715186","0.0-12.0-1.7","yzbdb1jnlr","many_one","0","direct_first","1","tz06ng08","0","25","1","1","3","1","","0","1","0","null","","","<img src = 'category1/ma.png' width = '100%;'>","null","","","","","","","","","",""
"","html-keyboard-response","266","715453","0.0-12.0-2.7","yzbdb1jnlr","many_one","0","direct_first","1","tz06ng08","0","25","1","1","3","1","","0","1","0","null","","","<img src = 'targets/2.png' width = '100%;'>","null","","","","","","","","","",""
"","html-keyboard-response","267","715830","0.0-12.0-3.7","yzbdb1jnlr","many_one","0","direct_first","1","tz06ng08","0","25","1","1","3","1","","0","1","0","376","","","<img src = 'targets/mask.png' width = '100%;'>","75","neg","GS","abstract","1","category1/ma.png","","targets/2.png","indirect","1","31"
"","html-keyboard-response","268","717356","0.0-12.0-0.8","yzbdb1jnlr","many_one","0","direct_first","1","tz06ng08","0","25","1","1","3","1","","0","1","0","null","","","<div style=""font-size:60px;"">+</div>","null","","","","","","","","","",""
"","html-keyboard-response","269","717466","0.0-12.0-1.8","yzbdb1jnlr","many_one","0","direct_first","1","tz06ng08","0","25","1","1","3","1","","0","1","0","null","","","<img src = 'category3/CS4.png' width = '100%;'>","null","","","","","","","","","",""
"","html-keyboard-response","270","717736","0.0-12.0-2.8","yzbdb1jnlr","many_one","0","direct_first","1","tz06ng08","0","25","1","1","3","1","","0","1","0","null","","","<img src = 'targets/29.png' width = '100%;'>","null","","","","","","","","","",""
"","html-keyboard-response","271","717913","0.0-12.0-3.8","yzbdb1jnlr","many_one","0","direct_first","1","tz06ng08","0","25","1","1","3","1","","0","1","0","175","","","<img src = 'targets/mask.png' width = '100%;'>","75","pos","GS","GSold","3","category3/CS4.png","","targets/29.png","indirect","1","32"
"","html-keyboard-response","272","719437","0.0-12.0-0.9","yzbdb1jnlr","many_one","0","direct_first","1","tz06ng08","0","25","1","1","3","1","","0","1","0","null","","","<div style=""font-size:60px;"">+</div>","null","","","","","","","","","",""
"","html-keyboard-response","273","719535","0.0-12.0-1.9","yzbdb1jnlr","many_one","0","direct_first","1","tz06ng08","0","25","1","1","3","1","","0","1","0","null","","","<img src = 'category4/GS1.png' width = '100%;'>","null","","","","","","","","","",""
"","html-keyboard-response","274","719802","0.0-12.0-2.9","yzbdb1jnlr","many_one","0","direct_first","1","tz06ng08","0","25","1","1","3","1","","0","1","0","null","","","<img src = 'targets/27.png' width = '100%;'>","null","","","","","","","","","",""
"","html-keyboard-response","275","719942","0.0-12.0-3.9","yzbdb1jnlr","many_one","0","direct_first","1","tz06ng08","0","25","1","1","3","1","","0","1","0","138","","","<img src = 'targets/mask.png' width = '100%;'>","68","pos","GS","GSnew","4","category4/GS1.png","","targets/27.png","indirect","0","33"
"","html-keyboard-response","276","721476","0.0-12.0-0.10","yzbdb1jnlr","many_one","0","direct_first","1","tz06ng08","0","25","1","1","3","1","","0","1","0","null","","","<div style=""font-size:60px;"">+</div>","null","","","","","","","","","",""
"","html-keyboard-response","277","721583","0.0-12.0-1.10","yzbdb1jnlr","many_one","0","direct_first","1","tz06ng08","0","25","1","1","3","1","","0","1","0","null","","","<img src = 'category1/GS2.png' width = '100%;'>","null","","","","","","","","","",""
"","html-keyboard-response","278","721852","0.0-12.0-2.10","yzbdb1jnlr","many_one","0","direct_first","1","tz06ng08","0","25","1","1","3","1","","0","1","0","null","","","<img src = 'targets/18.png' width = '100%;'>","null","","","","","","","","","",""
"","html-keyboard-response","279","722171","0.0-12.0-3.10","yzbdb1jnlr","many_one","0","direct_first","1","tz06ng08","0","25","1","1","3","1","","0","1","0","317","","","<img src = 'targets/mask.png' width = '100%;'>","75","neg","GS","GSnew","1","category1/GS2.png","","targets/18.png","indirect","1","34"
"","html-keyboard-response","280","723687","0.0-12.0-0.11","yzbdb1jnlr","many_one","0","direct_first","1","tz06ng08","0","25","1","1","3","1","","0","1","0","null","","","<div style=""font-size:60px;"">+</div>","null","","","","","","","","","",""
"","html-keyboard-response","281","723786","0.0-12.0-1.11","yzbdb1jnlr","many_one","0","direct_first","1","tz06ng08","0","25","1","1","3","1","","0","1","0","null","","","<img src = 'category2/men.png' width = '100%;'>","null","","","","","","","","","",""
"","html-keyboard-response","282","724051","0.0-12.0-2.11","yzbdb1jnlr","many_one","0","direct_first","1","tz06ng08","0","25","1","1","3","1","","0","1","0","null","","","<img src = 'targets/40.png' width = '100%;'>","null","","","","","","","","","",""
"","html-keyboard-response","283","724177","0.0-12.0-3.11","yzbdb1jnlr","many_one","0","direct_first","1","tz06ng08","0","25","1","1","3","1","","0","1","0","125","","","<img src = 'targets/mask.png' width = '100%;'>","68","neg","GS","abstract","2","category2/men.png","","targets/40.png","indirect","0","35"
"","html-keyboard-response","284","725687","0.0-12.0-0.12","yzbdb1jnlr","many_one","0","direct_first","1","tz06ng08","0","25","1","1","3","1","","0","1","0","null","","","<div style=""font-size:60px;"">+</div>","null","","","","","","","","","",""
"","html-keyboard-response","285","725785","0.0-12.0-1.12","yzbdb1jnlr","many_one","0","direct_first","1","tz06ng08","0","25","1","1","3","1","","0","1","0","null","","","<img src = 'category4/CS5.png' width = '100%;'>","null","","","","","","","","","",""
"","html-keyboard-response","286","726052","0.0-12.0-2.12","yzbdb1jnlr","many_one","0","direct_first","1","tz06ng08","0","25","1","1","3","1","","0","1","0","null","","","<img src = 'targets/20.png' width = '100%;'>","null","","","","","","","","","",""
"","html-keyboard-response","287","726641","0.0-12.0-3.12","yzbdb1jnlr","many_one","0","direct_first","1","tz06ng08","0","25","1","1","3","1","","0","1","0","588","","","<img src = 'targets/mask.png' width = '100%;'>","68","pos","GS","GSold","4","category4/CS5.png","","targets/20.png","indirect","0","36"
"","html-keyboard-response","288","728177","0.0-12.0-0.13","yzbdb1jnlr","many_one","0","direct_first","1","tz06ng08","0","25","1","1","3","1","","0","1","0","null","","","<div style=""font-size:60px;"">+</div>","null","","","","","","","","","",""
"","html-keyboard-response","289","728276","0.0-12.0-1.13","yzbdb1jnlr","many_one","0","direct_first","1","tz06ng08","0","25","1","1","3","1","","0","1","0","null","","","<img src = 'category4/lin.png' width = '100%;'>","null","","","","","","","","","",""
"","html-keyboard-response","290","728552","0.0-12.0-2.13","yzbdb1jnlr","many_one","0","direct_first","1","tz06ng08","0","25","1","1","3","1","","0","1","0","null","","","<img src = 'targets/47.png' width = '100%;'>","null","","","","","","","","","",""
"","html-keyboard-response","291","728808","0.0-12.0-3.13","yzbdb1jnlr","many_one","0","direct_first","1","tz06ng08","0","25","1","1","3","1","","0","1","0","255","","","<img src = 'targets/mask.png' width = '100%;'>","75","pos","GS","abstract","4","category4/lin.png","","targets/47.png","indirect","1","37"
"","html-keyboard-response","292","730332","0.0-12.0-0.14","yzbdb1jnlr","many_one","0","direct_first","1","tz06ng08","0","25","1","1","3","1","","0","1","0","null","","","<div style=""font-size:60px;"">+</div>","null","","","","","","","","","",""
"","html-keyboard-response","293","730435","0.0-12.0-1.14","yzbdb1jnlr","many_one","0","direct_first","1","tz06ng08","0","25","1","1","3","1","","0","1","0","null","","","<img src = 'category2/CS3.png' width = '100%;'>","null","","","","","","","","","",""
"","html-keyboard-response","294","730701","0.0-12.0-2.14","yzbdb1jnlr","many_one","0","direct_first","1","tz06ng08","0","25","1","1","3","1","","0","1","0","null","","","<img src = 'targets/16.png' width = '100%;'>","null","","","","","","","","","",""
"","html-keyboard-response","295","730854","0.0-12.0-3.14","yzbdb1jnlr","many_one","0","direct_first","1","tz06ng08","0","25","1","1","3","1","","0","1","0","151","","","<img src = 'targets/mask.png' width = '100%;'>","68","neg","GS","GSold","2","category2/CS3.png","","targets/16.png","indirect","0","38"
"","html-keyboard-response","296","732376","0.0-12.0-0.15","yzbdb1jnlr","many_one","0","direct_first","1","tz06ng08","0","25","1","1","3","1","","0","1","0","null","","","<div style=""font-size:60px;"">+</div>","null","","","","","","","","","",""
"","html-keyboard-response","297","732481","0.0-12.0-1.15","yzbdb1jnlr","many_one","0","direct_first","1","tz06ng08","0","25","1","1","3","1","","0","1","0","null","","","<img src = 'category3/GS1.png' width = '100%;'>","null","","","","","","","","","",""
"","html-keyboard-response","298","732752","0.0-12.0-2.15","yzbdb1jnlr","many_one","0","direct_first","1","tz06ng08","0","25","1","1","3","1","","0","1","0","null","","","<img src = 'targets/30.png' width = '100%;'>","null","","","","","","","","","",""
"","html-keyboard-response","299","733241","0.0-12.0-3.15","yzbdb1jnlr","many_one","0","direct_first","1","tz06ng08","0","25","1","1","3","1","","0","1","0","488","","","<img src = 'targets/mask.png' width = '100%;'>","68","pos","GS","GSnew","3","category3/GS1.png","","targets/30.png","indirect","0","39"
"","html-keyboard-response","300","734776","0.0-12.0-0.16","yzbdb1jnlr","many_one","0","direct_first","1","tz06ng08","0","25","1","1","3","1","","0","1","0","null","","","<div style=""font-size:60px;"">+</div>","null","","","","","","","","","",""
"","html-keyboard-response","301","734868","0.0-12.0-1.16","yzbdb1jnlr","many_one","0","direct_first","1","tz06ng08","0","25","1","1","3","1","","0","1","0","null","","","<img src = 'category2/CS6.png' width = '100%;'>","null","","","","","","","","","",""
"","html-keyboard-response","302","735135","0.0-12.0-2.16","yzbdb1jnlr","many_one","0","direct_first","1","tz06ng08","0","25","1","1","3","1","","0","1","0","null","","","<img src = 'targets/19.png' width = '100%;'>","null","","","","","","","","","",""
"","html-keyboard-response","303","735225","0.0-12.0-3.16","yzbdb1jnlr","many_one","0","direct_first","1","tz06ng08","0","25","1","1","3","1","","0","1","0","89","","","<img src = 'targets/mask.png' width = '100%;'>","68","neg","GS","GSold","2","category2/CS6.png","","targets/19.png","indirect","0","40"
"","html-keyboard-response","304","736757","0.0-12.0-0.17","yzbdb1jnlr","many_one","0","direct_first","1","tz06ng08","0","25","1","1","3","1","","0","1","0","null","","","<div style=""font-size:60px;"">+</div>","null","","","","","","","","","",""
"","html-keyboard-response","305","736851","0.0-12.0-1.17","yzbdb1jnlr","many_one","0","direct_first","1","tz06ng08","0","25","1","1","3","1","","0","1","0","null","","","<img src = 'category2/CS10.png' width = '100%;'>","null","","","","","","","","","",""
"","html-keyboard-response","306","737118","0.0-12.0-2.17","yzbdb1jnlr","many_one","0","direct_first","1","tz06ng08","0","25","1","1","3","1","","0","1","0","null","","","<img src = 'targets/10.png' width = '100%;'>","null","","","","","","","","","",""
"","html-keyboard-response","307","737198","0.0-12.0-3.17","yzbdb1jnlr","many_one","0","direct_first","1","tz06ng08","0","25","1","1","3","1","","0","1","0","79","","","<img src = 'targets/mask.png' width = '100%;'>","68","neg","GS","GSold","2","category2/CS10.png","","targets/10.png","indirect","0","41"
"","html-keyboard-response","308","738716","0.0-12.0-0.18","yzbdb1jnlr","many_one","0","direct_first","1","tz06ng08","0","25","1","1","3","1","","0","1","0","null","","","<div style=""font-size:60px;"">+</div>","null","","","","","","","","","",""
"","html-keyboard-response","309","738817","0.0-12.0-1.18","yzbdb1jnlr","many_one","0","direct_first","1","tz06ng08","0","25","1","1","3","1","","0","1","0","null","","","<img src = 'category1/GS3.png' width = '100%;'>","null","","","","","","","","","",""
"","html-keyboard-response","310","739084","0.0-12.0-2.18","yzbdb1jnlr","many_one","0","direct_first","1","tz06ng08","0","25","1","1","3","1","","0","1","0","null","","","<img src = 'targets/6.png' width = '100%;'>","null","","","","","","","","","",""
"","html-keyboard-response","311","739404","0.0-12.0-3.18","yzbdb1jnlr","many_one","0","direct_first","1","tz06ng08","0","25","1","1","3","1","","0","1","0","318","","","<img src = 'targets/mask.png' width = '100%;'>","75","neg","GS","GSnew","1","category1/GS3.png","","targets/6.png","indirect","1","42"
"","html-keyboard-response","312","740917","0.0-12.0-0.19","yzbdb1jnlr","many_one","0","direct_first","1","tz06ng08","0","25","1","1","3","1","","0","1","0","null","","","<div style=""font-size:60px;"">+</div>","null","","","","","","","","","",""
"","html-keyboard-response","313","741016","0.0-12.0-1.19","yzbdb1jnlr","many_one","0","direct_first","1","tz06ng08","0","25","1","1","3","1","","0","1","0","null","","","<img src = 'category2/GS3.png' width = '100%;'>","null","","","","","","","","","",""
"","html-keyboard-response","314","741285","0.0-12.0-2.19","yzbdb1jnlr","many_one","0","direct_first","1","tz06ng08","0","25","1","1","3","1","","0","1","0","null","","","<img src = 'targets/44.png' width = '100%;'>","null","","","","","","","","","",""
"","html-keyboard-response","315","741459","0.0-12.0-3.19","yzbdb1jnlr","many_one","0","direct_first","1","tz06ng08","0","25","1","1","3","1","","0","1","0","173","","","<img src = 'targets/mask.png' width = '100%;'>","68","neg","GS","GSnew","2","category2/GS3.png","","targets/44.png","indirect","0","43"
"","html-keyboard-response","316","742977","0.0-12.0-0.20","yzbdb1jnlr","many_one","0","direct_first","1","tz06ng08","0","25","1","1","3","1","","0","1","0","null","","","<div style=""font-size:60px;"">+</div>","null","","","","","","","","","",""
"","html-keyboard-response","317","743085","0.0-12.0-1.20","yzbdb1jnlr","many_one","0","direct_first","1","tz06ng08","0","25","1","1","3","1","","0","1","0","null","","","<img src = 'category2/GS1.png' width = '100%;'>","null","","","","","","","","","",""
"","html-keyboard-response","318","743352","0.0-12.0-2.20","yzbdb1jnlr","many_one","0","direct_first","1","tz06ng08","0","25","1","1","3","1","","0","1","0","null","","","<img src = 'targets/21.png' width = '100%;'>","null","","","","","","","","","",""
"","html-keyboard-response","319","743468","0.0-12.0-3.20","yzbdb1jnlr","many_one","0","direct_first","1","tz06ng08","0","25","1","1","3","1","","0","1","0","115","","","<img src = 'targets/mask.png' width = '100%;'>","68","neg","GS","GSnew","2","category2/GS1.png","","targets/21.png","indirect","0","44"
"","html-keyboard-response","320","744996","0.0-12.0-0.21","yzbdb1jnlr","many_one","0","direct_first","1","tz06ng08","0","25","1","1","3","1","","0","1","0","null","","","<div style=""font-size:60px;"">+</div>","null","","","","","","","","","",""
"","html-keyboard-response","321","745101","0.0-12.0-1.21","yzbdb1jnlr","many_one","0","direct_first","1","tz06ng08","0","25","1","1","3","1","","0","1","0","null","","","<img src = 'category3/GS3.png' width = '100%;'>","null","","","","","","","","","",""
"","html-keyboard-response","322","745366","0.0-12.0-2.21","yzbdb1jnlr","many_one","0","direct_first","1","tz06ng08","0","25","1","1","3","1","","0","1","0","null","","","<img src = 'targets/39.png' width = '100%;'>","null","","","","","","","","","",""
"","html-keyboard-response","323","745643","0.0-12.0-3.21","yzbdb1jnlr","many_one","0","direct_first","1","tz06ng08","0","25","1","1","3","1","","0","1","0","274","","","<img src = 'targets/mask.png' width = '100%;'>","75","pos","GS","GSnew","3","category3/GS3.png","","targets/39.png","indirect","1","45"
"","html-keyboard-response","324","747166","0.0-12.0-0.22","yzbdb1jnlr","many_one","0","direct_first","1","tz06ng08","0","25","1","1","3","1","","0","1","0","null","","","<div style=""font-size:60px;"">+</div>","null","","","","","","","","","",""
"","html-keyboard-response","325","747266","0.0-12.0-1.22","yzbdb1jnlr","many_one","0","direct_first","1","tz06ng08","0","25","1","1","3","1","","0","1","0","null","","","<img src = 'category4/CS6.png' width = '100%;'>","null","","","","","","","","","",""
"","html-keyboard-response","326","747534","0.0-12.0-2.22","yzbdb1jnlr","many_one","0","direct_first","1","tz06ng08","0","25","1","1","3","1","","0","1","0","null","","","<img src = 'targets/15.png' width = '100%;'>","null","","","","","","","","","",""
"","html-keyboard-response","327","747716","0.0-12.0-3.22","yzbdb1jnlr","many_one","0","direct_first","1","tz06ng08","0","25","1","1","3","1","","0","1","0","179","","","<img src = 'targets/mask.png' width = '100%;'>","75","pos","GS","GSold","4","category4/CS6.png","","targets/15.png","indirect","1","46"
"","html-keyboard-response","328","749226","0.0-12.0-0.23","yzbdb1jnlr","many_one","0","direct_first","1","tz06ng08","0","25","1","1","3","1","","0","1","0","null","","","<div style=""font-size:60px;"">+</div>","null","","","","","","","","","",""
"","html-keyboard-response","329","749334","0.0-12.0-1.23","yzbdb1jnlr","many_one","0","direct_first","1","tz06ng08","0","25","1","1","3","1","","0","1","0","null","","","<img src = 'category3/wang.png' width = '100%;'>","null","","","","","","","","","",""
"","html-keyboard-response","330","749600","0.0-12.0-2.23","yzbdb1jnlr","many_one","0","direct_first","1","tz06ng08","0","25","1","1","3","1","","0","1","0","null","","","<img src = 'targets/46.png' width = '100%;'>","null","","","","","","","","","",""
"","html-keyboard-response","331","749843","0.0-12.0-3.23","yzbdb1jnlr","many_one","0","direct_first","1","tz06ng08","0","25","1","1","3","1","","0","1","0","240","","","<img src = 'targets/mask.png' width = '100%;'>","75","pos","GS","abstract","3","category3/wang.png","","targets/46.png","indirect","1","47"
"","survey-html-form","332","758139","0.0-13.0","yzbdb1jnlr","many_one","0","direct_first","1","tz06ng08","0","25","1","1","3","1","","0","1","0","7789","","{}","","","","","","","","","","","",""
