"success","trial_type","trial_index","time_elapsed","internal_node_id","subject","condition","condition_code","measure","measure_code","codeword","gender","age","education","chinese","fach","handedness","comment","hinschauen","ablenkung","gewissenhaft","rt","url","responses","stimulus","key_press","val","type","type_specific","category","cs_selected","target","indirect","task","nr_pres","response"
"true","fullscreen","0","52447","0.0-0.0","b1exvcf50o","one_one","1","indirect_first","0","rt06rd12","0","23","1","1","3","1","Ich fand die ganze Umfrage sehr random. Wirkliche Empfindungen gegenüber den Schriftzeichen habe ich gar nicht. Also bin ich mir auch nicht sicher, wie belastbar meine Antworten sind, wenn ich ""gezwungen"" werde, einzustufen, wie ich die Zeichen finde.
In Summe eine sehr komische Umfrage...","0","1","0","","","","","","","","","","","","","","",""
"","external-html","1","56756","0.0-1.0","b1exvcf50o","one_one","1","indirect_first","0","rt06rd12","0","23","1","1","3","1","Ich fand die ganze Umfrage sehr random. Wirkliche Empfindungen gegenüber den Schriftzeichen habe ich gar nicht. Also bin ich mir auch nicht sicher, wie belastbar meine Antworten sind, wenn ich ""gezwungen"" werde, einzustufen, wie ich die Zeichen finde.
In Summe eine sehr komische Umfrage...","0","1","0","4193","text/information.html","","","","","","","","","","","","",""
"","external-html","2","75891","0.0-2.0","b1exvcf50o","one_one","1","indirect_first","0","rt06rd12","0","23","1","1","3","1","Ich fand die ganze Umfrage sehr random. Wirkliche Empfindungen gegenüber den Schriftzeichen habe ich gar nicht. Also bin ich mir auch nicht sicher, wie belastbar meine Antworten sind, wenn ich ""gezwungen"" werde, einzustufen, wie ich die Zeichen finde.
In Summe eine sehr komische Umfrage...","0","1","0","19083","text/consent.html","","","","","","","","","","","","",""
"","survey-html-form","3","127603","0.0-3.0","b1exvcf50o","one_one","1","indirect_first","0","rt06rd12","0","23","1","1","3","1","Ich fand die ganze Umfrage sehr random. Wirkliche Empfindungen gegenüber den Schriftzeichen habe ich gar nicht. Also bin ich mir auch nicht sicher, wie belastbar meine Antworten sind, wenn ich ""gezwungen"" werde, einzustufen, wie ich die Zeichen finde.
In Summe eine sehr komische Umfrage...","0","1","0","51708","","{""codeword_enter"":""rt06rd12""}","","","","","","","","","","","",""
"","survey-html-form","4","139782","0.0-4.0","b1exvcf50o","one_one","1","indirect_first","0","rt06rd12","0","23","1","1","3","1","Ich fand die ganze Umfrage sehr random. Wirkliche Empfindungen gegenüber den Schriftzeichen habe ich gar nicht. Also bin ich mir auch nicht sicher, wie belastbar meine Antworten sind, wenn ich ""gezwungen"" werde, einzustufen, wie ich die Zeichen finde.
In Summe eine sehr komische Umfrage...","0","1","0","12174","","{""age"":""23"",""education"":""1"",""subject"":""3"",""gender"":""0"",""handedness"":""1"",""chinese"":""1""}","","","","","","","","","","","",""
"","survey-html-form","5","140907","0.0-5.0","b1exvcf50o","one_one","1","indirect_first","0","rt06rd12","0","23","1","1","3","1","Ich fand die ganze Umfrage sehr random. Wirkliche Empfindungen gegenüber den Schriftzeichen habe ich gar nicht. Also bin ich mir auch nicht sicher, wie belastbar meine Antworten sind, wenn ich ""gezwungen"" werde, einzustufen, wie ich die Zeichen finde.
In Summe eine sehr komische Umfrage...","0","1","0","1124","","{}","","","","","","","","","","","",""
"","html-keyboard-response","6","144922","0.0-6.0-0.0-0.0","b1exvcf50o","one_one","1","indirect_first","0","rt06rd12","0","23","1","1","3","1","Ich fand die ganze Umfrage sehr random. Wirkliche Empfindungen gegenüber den Schriftzeichen habe ich gar nicht. Also bin ich mir auch nicht sicher, wie belastbar meine Antworten sind, wenn ich ""gezwungen"" werde, einzustufen, wie ich die Zeichen finde.
In Summe eine sehr komische Umfrage...","0","1","0","null","","","<div class = 'row'><div class = 'column'><img src = 'category1/CS4.png' width = '70%;'></div><div class = 'column'><img src = 'usneg/9830.bmp' width = '100%;'></div></div>","null","neg","CS","CS","1","category1/CS4.png","","","","",""
"","html-keyboard-response","7","147445","0.0-6.0-0.0-0.1","b1exvcf50o","one_one","1","indirect_first","0","rt06rd12","0","23","1","1","3","1","Ich fand die ganze Umfrage sehr random. Wirkliche Empfindungen gegenüber den Schriftzeichen habe ich gar nicht. Also bin ich mir auch nicht sicher, wie belastbar meine Antworten sind, wenn ich ""gezwungen"" werde, einzustufen, wie ich die Zeichen finde.
In Summe eine sehr komische Umfrage...","0","1","0","null","","","<div class = 'row'><div class = 'column'><img src = 'category3/CS3.png' width = '70%;'></div><div class = 'column'><img src = 'usneg/9050.bmp' width = '100%;'></div></div>","null","neg","CS","CS","3","category3/CS3.png","","","","",""
"","html-keyboard-response","8","149980","0.0-6.0-0.0-0.2","b1exvcf50o","one_one","1","indirect_first","0","rt06rd12","0","23","1","1","3","1","Ich fand die ganze Umfrage sehr random. Wirkliche Empfindungen gegenüber den Schriftzeichen habe ich gar nicht. Also bin ich mir auch nicht sicher, wie belastbar meine Antworten sind, wenn ich ""gezwungen"" werde, einzustufen, wie ich die Zeichen finde.
In Summe eine sehr komische Umfrage...","0","1","0","null","","","<div class = 'row'><div class = 'column'><img src = 'category4/CS10.png' width = '70%;'></div><div class = 'column'><img src = 'uspos/2030.bmp' width = '100%;'></div></div>","null","pos","CS","CS","4","category4/CS10.png","","","","",""
"","html-keyboard-response","9","152493","0.0-6.0-0.0-0.3","b1exvcf50o","one_one","1","indirect_first","0","rt06rd12","0","23","1","1","3","1","Ich fand die ganze Umfrage sehr random. Wirkliche Empfindungen gegenüber den Schriftzeichen habe ich gar nicht. Also bin ich mir auch nicht sicher, wie belastbar meine Antworten sind, wenn ich ""gezwungen"" werde, einzustufen, wie ich die Zeichen finde.
In Summe eine sehr komische Umfrage...","0","1","0","null","","","<div class = 'row'><div class = 'column'><img src = 'category3/CS3.png' width = '70%;'></div><div class = 'column'><img src = 'usneg/9050.bmp' width = '100%;'></div></div>","null","neg","CS","CS","3","category3/CS3.png","","","","",""
"","html-keyboard-response","10","155032","0.0-6.0-0.0-0.4","b1exvcf50o","one_one","1","indirect_first","0","rt06rd12","0","23","1","1","3","1","Ich fand die ganze Umfrage sehr random. Wirkliche Empfindungen gegenüber den Schriftzeichen habe ich gar nicht. Also bin ich mir auch nicht sicher, wie belastbar meine Antworten sind, wenn ich ""gezwungen"" werde, einzustufen, wie ich die Zeichen finde.
In Summe eine sehr komische Umfrage...","0","1","0","null","","","<div class = 'row'><div class = 'column'><img src = 'category1/CS4.png' width = '70%;'></div><div class = 'column'><img src = 'usneg/9830.bmp' width = '100%;'></div></div>","null","neg","CS","CS","1","category1/CS4.png","","","","",""
"","html-keyboard-response","11","157572","0.0-6.0-0.0-0.5","b1exvcf50o","one_one","1","indirect_first","0","rt06rd12","0","23","1","1","3","1","Ich fand die ganze Umfrage sehr random. Wirkliche Empfindungen gegenüber den Schriftzeichen habe ich gar nicht. Also bin ich mir auch nicht sicher, wie belastbar meine Antworten sind, wenn ich ""gezwungen"" werde, einzustufen, wie ich die Zeichen finde.
In Summe eine sehr komische Umfrage...","0","1","0","null","","","<div class = 'row'><div class = 'column'><img src = 'category3/CS3.png' width = '70%;'></div><div class = 'column'><img src = 'usneg/9050.bmp' width = '100%;'></div></div>","null","neg","CS","CS","3","category3/CS3.png","","","","",""
"","html-keyboard-response","12","160103","0.0-6.0-0.0-0.6","b1exvcf50o","one_one","1","indirect_first","0","rt06rd12","0","23","1","1","3","1","Ich fand die ganze Umfrage sehr random. Wirkliche Empfindungen gegenüber den Schriftzeichen habe ich gar nicht. Also bin ich mir auch nicht sicher, wie belastbar meine Antworten sind, wenn ich ""gezwungen"" werde, einzustufen, wie ich die Zeichen finde.
In Summe eine sehr komische Umfrage...","0","1","0","null","","","<div class = 'row'><div class = 'column'><img src = 'uspos/2030.bmp' width = '100%;'></div><div class = 'column'><img src = 'category4/CS10.png' width = '70%;'></div></div>","null","pos","CS","CS","4","category4/CS10.png","","","","",""
"","html-keyboard-response","13","162622","0.0-6.0-0.0-0.7","b1exvcf50o","one_one","1","indirect_first","0","rt06rd12","0","23","1","1","3","1","Ich fand die ganze Umfrage sehr random. Wirkliche Empfindungen gegenüber den Schriftzeichen habe ich gar nicht. Also bin ich mir auch nicht sicher, wie belastbar meine Antworten sind, wenn ich ""gezwungen"" werde, einzustufen, wie ich die Zeichen finde.
In Summe eine sehr komische Umfrage...","0","1","0","null","","","<div class = 'row'><div class = 'column'><img src = 'uspos/2340.bmp' width = '100%;'></div><div class = 'column'><img src = 'category2/CS7.png' width = '70%;'></div></div>","null","pos","CS","CS","2","category2/CS7.png","","","","",""
"","html-keyboard-response","14","165143","0.0-6.0-0.0-0.8","b1exvcf50o","one_one","1","indirect_first","0","rt06rd12","0","23","1","1","3","1","Ich fand die ganze Umfrage sehr random. Wirkliche Empfindungen gegenüber den Schriftzeichen habe ich gar nicht. Also bin ich mir auch nicht sicher, wie belastbar meine Antworten sind, wenn ich ""gezwungen"" werde, einzustufen, wie ich die Zeichen finde.
In Summe eine sehr komische Umfrage...","0","1","0","null","","","<div class = 'row'><div class = 'column'><img src = 'category1/CS4.png' width = '70%;'></div><div class = 'column'><img src = 'usneg/9830.bmp' width = '100%;'></div></div>","null","neg","CS","CS","1","category1/CS4.png","","","","",""
"","html-keyboard-response","15","167672","0.0-6.0-0.0-0.9","b1exvcf50o","one_one","1","indirect_first","0","rt06rd12","0","23","1","1","3","1","Ich fand die ganze Umfrage sehr random. Wirkliche Empfindungen gegenüber den Schriftzeichen habe ich gar nicht. Also bin ich mir auch nicht sicher, wie belastbar meine Antworten sind, wenn ich ""gezwungen"" werde, einzustufen, wie ich die Zeichen finde.
In Summe eine sehr komische Umfrage...","0","1","0","null","","","<div class = 'row'><div class = 'column'><img src = 'category3/CS3.png' width = '70%;'></div><div class = 'column'><img src = 'usneg/9050.bmp' width = '100%;'></div></div>","null","neg","CS","CS","3","category3/CS3.png","","","","",""
"","html-keyboard-response","16","170213","0.0-6.0-0.0-0.10","b1exvcf50o","one_one","1","indirect_first","0","rt06rd12","0","23","1","1","3","1","Ich fand die ganze Umfrage sehr random. Wirkliche Empfindungen gegenüber den Schriftzeichen habe ich gar nicht. Also bin ich mir auch nicht sicher, wie belastbar meine Antworten sind, wenn ich ""gezwungen"" werde, einzustufen, wie ich die Zeichen finde.
In Summe eine sehr komische Umfrage...","0","1","0","null","","","<div class = 'row'><div class = 'column'><img src = 'usneg/9830.bmp' width = '100%;'></div><div class = 'column'><img src = 'category1/CS4.png' width = '70%;'></div></div>","null","neg","CS","CS","1","category1/CS4.png","","","","",""
"","html-keyboard-response","17","172743","0.0-6.0-0.0-0.11","b1exvcf50o","one_one","1","indirect_first","0","rt06rd12","0","23","1","1","3","1","Ich fand die ganze Umfrage sehr random. Wirkliche Empfindungen gegenüber den Schriftzeichen habe ich gar nicht. Also bin ich mir auch nicht sicher, wie belastbar meine Antworten sind, wenn ich ""gezwungen"" werde, einzustufen, wie ich die Zeichen finde.
In Summe eine sehr komische Umfrage...","0","1","0","null","","","<div class = 'row'><div class = 'column'><img src = 'category2/CS7.png' width = '70%;'></div><div class = 'column'><img src = 'uspos/2340.bmp' width = '100%;'></div></div>","null","pos","CS","CS","2","category2/CS7.png","","","","",""
"","html-keyboard-response","18","175272","0.0-6.0-0.0-0.12","b1exvcf50o","one_one","1","indirect_first","0","rt06rd12","0","23","1","1","3","1","Ich fand die ganze Umfrage sehr random. Wirkliche Empfindungen gegenüber den Schriftzeichen habe ich gar nicht. Also bin ich mir auch nicht sicher, wie belastbar meine Antworten sind, wenn ich ""gezwungen"" werde, einzustufen, wie ich die Zeichen finde.
In Summe eine sehr komische Umfrage...","0","1","0","null","","","<div class = 'row'><div class = 'column'><img src = 'category3/CS3.png' width = '70%;'></div><div class = 'column'><img src = 'usneg/9050.bmp' width = '100%;'></div></div>","null","neg","CS","CS","3","category3/CS3.png","","","","",""
"","html-keyboard-response","19","177799","0.0-6.0-0.0-0.13","b1exvcf50o","one_one","1","indirect_first","0","rt06rd12","0","23","1","1","3","1","Ich fand die ganze Umfrage sehr random. Wirkliche Empfindungen gegenüber den Schriftzeichen habe ich gar nicht. Also bin ich mir auch nicht sicher, wie belastbar meine Antworten sind, wenn ich ""gezwungen"" werde, einzustufen, wie ich die Zeichen finde.
In Summe eine sehr komische Umfrage...","0","1","0","null","","","<div class = 'row'><div class = 'column'><img src = 'category4/CS10.png' width = '70%;'></div><div class = 'column'><img src = 'uspos/2030.bmp' width = '100%;'></div></div>","null","pos","CS","CS","4","category4/CS10.png","","","","",""
"","html-keyboard-response","20","180333","0.0-6.0-0.0-0.14","b1exvcf50o","one_one","1","indirect_first","0","rt06rd12","0","23","1","1","3","1","Ich fand die ganze Umfrage sehr random. Wirkliche Empfindungen gegenüber den Schriftzeichen habe ich gar nicht. Also bin ich mir auch nicht sicher, wie belastbar meine Antworten sind, wenn ich ""gezwungen"" werde, einzustufen, wie ich die Zeichen finde.
In Summe eine sehr komische Umfrage...","0","1","0","null","","","<div class = 'row'><div class = 'column'><img src = 'uspos/2340.bmp' width = '100%;'></div><div class = 'column'><img src = 'category2/CS7.png' width = '70%;'></div></div>","null","pos","CS","CS","2","category2/CS7.png","","","","",""
"","html-keyboard-response","21","182863","0.0-6.0-0.0-0.15","b1exvcf50o","one_one","1","indirect_first","0","rt06rd12","0","23","1","1","3","1","Ich fand die ganze Umfrage sehr random. Wirkliche Empfindungen gegenüber den Schriftzeichen habe ich gar nicht. Also bin ich mir auch nicht sicher, wie belastbar meine Antworten sind, wenn ich ""gezwungen"" werde, einzustufen, wie ich die Zeichen finde.
In Summe eine sehr komische Umfrage...","0","1","0","null","","","<div class = 'row'><div class = 'column'><img src = 'usneg/9830.bmp' width = '100%;'></div><div class = 'column'><img src = 'category1/CS4.png' width = '70%;'></div></div>","null","neg","CS","CS","1","category1/CS4.png","","","","",""
"","html-keyboard-response","22","185383","0.0-6.0-0.0-0.16","b1exvcf50o","one_one","1","indirect_first","0","rt06rd12","0","23","1","1","3","1","Ich fand die ganze Umfrage sehr random. Wirkliche Empfindungen gegenüber den Schriftzeichen habe ich gar nicht. Also bin ich mir auch nicht sicher, wie belastbar meine Antworten sind, wenn ich ""gezwungen"" werde, einzustufen, wie ich die Zeichen finde.
In Summe eine sehr komische Umfrage...","0","1","0","null","","","<div class = 'row'><div class = 'column'><img src = 'uspos/2340.bmp' width = '100%;'></div><div class = 'column'><img src = 'category2/CS7.png' width = '70%;'></div></div>","null","pos","CS","CS","2","category2/CS7.png","","","","",""
"","html-keyboard-response","23","187913","0.0-6.0-0.0-0.17","b1exvcf50o","one_one","1","indirect_first","0","rt06rd12","0","23","1","1","3","1","Ich fand die ganze Umfrage sehr random. Wirkliche Empfindungen gegenüber den Schriftzeichen habe ich gar nicht. Also bin ich mir auch nicht sicher, wie belastbar meine Antworten sind, wenn ich ""gezwungen"" werde, einzustufen, wie ich die Zeichen finde.
In Summe eine sehr komische Umfrage...","0","1","0","null","","","<div class = 'row'><div class = 'column'><img src = 'category4/CS10.png' width = '70%;'></div><div class = 'column'><img src = 'uspos/2030.bmp' width = '100%;'></div></div>","null","pos","CS","CS","4","category4/CS10.png","","","","",""
"","html-keyboard-response","24","190433","0.0-6.0-0.0-0.18","b1exvcf50o","one_one","1","indirect_first","0","rt06rd12","0","23","1","1","3","1","Ich fand die ganze Umfrage sehr random. Wirkliche Empfindungen gegenüber den Schriftzeichen habe ich gar nicht. Also bin ich mir auch nicht sicher, wie belastbar meine Antworten sind, wenn ich ""gezwungen"" werde, einzustufen, wie ich die Zeichen finde.
In Summe eine sehr komische Umfrage...","0","1","0","null","","","<div class = 'row'><div class = 'column'><img src = 'category2/CS7.png' width = '70%;'></div><div class = 'column'><img src = 'uspos/2340.bmp' width = '100%;'></div></div>","null","pos","CS","CS","2","category2/CS7.png","","","","",""
"","html-keyboard-response","25","192943","0.0-6.0-0.0-0.19","b1exvcf50o","one_one","1","indirect_first","0","rt06rd12","0","23","1","1","3","1","Ich fand die ganze Umfrage sehr random. Wirkliche Empfindungen gegenüber den Schriftzeichen habe ich gar nicht. Also bin ich mir auch nicht sicher, wie belastbar meine Antworten sind, wenn ich ""gezwungen"" werde, einzustufen, wie ich die Zeichen finde.
In Summe eine sehr komische Umfrage...","0","1","0","null","","","<div class = 'row'><div class = 'column'><img src = 'uspos/2030.bmp' width = '100%;'></div><div class = 'column'><img src = 'category4/CS10.png' width = '70%;'></div></div>","null","pos","CS","CS","4","category4/CS10.png","","","","",""
"","survey-html-form","26","195952","0.0-6.0-1.0","b1exvcf50o","one_one","1","indirect_first","0","rt06rd12","0","23","1","1","3","1","Ich fand die ganze Umfrage sehr random. Wirkliche Empfindungen gegenüber den Schriftzeichen habe ich gar nicht. Also bin ich mir auch nicht sicher, wie belastbar meine Antworten sind, wenn ich ""gezwungen"" werde, einzustufen, wie ich die Zeichen finde.
In Summe eine sehr komische Umfrage...","0","1","0","2490","","{}","","","","","","","","","","","",""
"","html-keyboard-response","27","199982","0.0-6.0-2.0-0.0","b1exvcf50o","one_one","1","indirect_first","0","rt06rd12","0","23","1","1","3","1","Ich fand die ganze Umfrage sehr random. Wirkliche Empfindungen gegenüber den Schriftzeichen habe ich gar nicht. Also bin ich mir auch nicht sicher, wie belastbar meine Antworten sind, wenn ich ""gezwungen"" werde, einzustufen, wie ich die Zeichen finde.
In Summe eine sehr komische Umfrage...","0","1","0","null","","","<div class = 'row'><div class = 'column'><img src = 'uspos/2340.bmp' width = '100%;'></div><div class = 'column'><img src = 'category2/CS7.png' width = '70%;'></div></div>","null","pos","CS","CS","2","category2/CS7.png","","","","",""
"","html-keyboard-response","28","202513","0.0-6.0-2.0-0.1","b1exvcf50o","one_one","1","indirect_first","0","rt06rd12","0","23","1","1","3","1","Ich fand die ganze Umfrage sehr random. Wirkliche Empfindungen gegenüber den Schriftzeichen habe ich gar nicht. Also bin ich mir auch nicht sicher, wie belastbar meine Antworten sind, wenn ich ""gezwungen"" werde, einzustufen, wie ich die Zeichen finde.
In Summe eine sehr komische Umfrage...","0","1","0","null","","","<div class = 'row'><div class = 'column'><img src = 'category1/CS4.png' width = '70%;'></div><div class = 'column'><img src = 'usneg/9830.bmp' width = '100%;'></div></div>","null","neg","CS","CS","1","category1/CS4.png","","","","",""
"","html-keyboard-response","29","205033","0.0-6.0-2.0-0.2","b1exvcf50o","one_one","1","indirect_first","0","rt06rd12","0","23","1","1","3","1","Ich fand die ganze Umfrage sehr random. Wirkliche Empfindungen gegenüber den Schriftzeichen habe ich gar nicht. Also bin ich mir auch nicht sicher, wie belastbar meine Antworten sind, wenn ich ""gezwungen"" werde, einzustufen, wie ich die Zeichen finde.
In Summe eine sehr komische Umfrage...","0","1","0","null","","","<div class = 'row'><div class = 'column'><img src = 'usneg/9050.bmp' width = '100%;'></div><div class = 'column'><img src = 'category3/CS3.png' width = '70%;'></div></div>","null","neg","CS","CS","3","category3/CS3.png","","","","",""
"","html-keyboard-response","30","207573","0.0-6.0-2.0-0.3","b1exvcf50o","one_one","1","indirect_first","0","rt06rd12","0","23","1","1","3","1","Ich fand die ganze Umfrage sehr random. Wirkliche Empfindungen gegenüber den Schriftzeichen habe ich gar nicht. Also bin ich mir auch nicht sicher, wie belastbar meine Antworten sind, wenn ich ""gezwungen"" werde, einzustufen, wie ich die Zeichen finde.
In Summe eine sehr komische Umfrage...","0","1","0","null","","","<div class = 'row'><div class = 'column'><img src = 'category4/CS10.png' width = '70%;'></div><div class = 'column'><img src = 'uspos/2030.bmp' width = '100%;'></div></div>","null","pos","CS","CS","4","category4/CS10.png","","","","",""
"","html-keyboard-response","31","210103","0.0-6.0-2.0-0.4","b1exvcf50o","one_one","1","indirect_first","0","rt06rd12","0","23","1","1","3","1","Ich fand die ganze Umfrage sehr random. Wirkliche Empfindungen gegenüber den Schriftzeichen habe ich gar nicht. Also bin ich mir auch nicht sicher, wie belastbar meine Antworten sind, wenn ich ""gezwungen"" werde, einzustufen, wie ich die Zeichen finde.
In Summe eine sehr komische Umfrage...","0","1","0","null","","","<div class = 'row'><div class = 'column'><img src = 'category3/CS3.png' width = '70%;'></div><div class = 'column'><img src = 'usneg/9050.bmp' width = '100%;'></div></div>","null","neg","CS","CS","3","category3/CS3.png","","","","",""
"","html-keyboard-response","32","212640","0.0-6.0-2.0-0.5","b1exvcf50o","one_one","1","indirect_first","0","rt06rd12","0","23","1","1","3","1","Ich fand die ganze Umfrage sehr random. Wirkliche Empfindungen gegenüber den Schriftzeichen habe ich gar nicht. Also bin ich mir auch nicht sicher, wie belastbar meine Antworten sind, wenn ich ""gezwungen"" werde, einzustufen, wie ich die Zeichen finde.
In Summe eine sehr komische Umfrage...","0","1","0","null","","","<div class = 'row'><div class = 'column'><img src = 'category4/CS10.png' width = '70%;'></div><div class = 'column'><img src = 'uspos/2030.bmp' width = '100%;'></div></div>","null","pos","CS","CS","4","category4/CS10.png","","","","",""
"","html-keyboard-response","33","215175","0.0-6.0-2.0-0.6","b1exvcf50o","one_one","1","indirect_first","0","rt06rd12","0","23","1","1","3","1","Ich fand die ganze Umfrage sehr random. Wirkliche Empfindungen gegenüber den Schriftzeichen habe ich gar nicht. Also bin ich mir auch nicht sicher, wie belastbar meine Antworten sind, wenn ich ""gezwungen"" werde, einzustufen, wie ich die Zeichen finde.
In Summe eine sehr komische Umfrage...","0","1","0","null","","","<div class = 'row'><div class = 'column'><img src = 'uspos/2340.bmp' width = '100%;'></div><div class = 'column'><img src = 'category2/CS7.png' width = '70%;'></div></div>","null","pos","CS","CS","2","category2/CS7.png","","","","",""
"","html-keyboard-response","34","217693","0.0-6.0-2.0-0.7","b1exvcf50o","one_one","1","indirect_first","0","rt06rd12","0","23","1","1","3","1","Ich fand die ganze Umfrage sehr random. Wirkliche Empfindungen gegenüber den Schriftzeichen habe ich gar nicht. Also bin ich mir auch nicht sicher, wie belastbar meine Antworten sind, wenn ich ""gezwungen"" werde, einzustufen, wie ich die Zeichen finde.
In Summe eine sehr komische Umfrage...","0","1","0","null","","","<div class = 'row'><div class = 'column'><img src = 'category3/CS3.png' width = '70%;'></div><div class = 'column'><img src = 'usneg/9050.bmp' width = '100%;'></div></div>","null","neg","CS","CS","3","category3/CS3.png","","","","",""
"","html-keyboard-response","35","220223","0.0-6.0-2.0-0.8","b1exvcf50o","one_one","1","indirect_first","0","rt06rd12","0","23","1","1","3","1","Ich fand die ganze Umfrage sehr random. Wirkliche Empfindungen gegenüber den Schriftzeichen habe ich gar nicht. Also bin ich mir auch nicht sicher, wie belastbar meine Antworten sind, wenn ich ""gezwungen"" werde, einzustufen, wie ich die Zeichen finde.
In Summe eine sehr komische Umfrage...","0","1","0","null","","","<div class = 'row'><div class = 'column'><img src = 'uspos/2340.bmp' width = '100%;'></div><div class = 'column'><img src = 'category2/CS7.png' width = '70%;'></div></div>","null","pos","CS","CS","2","category2/CS7.png","","","","",""
"","html-keyboard-response","36","222753","0.0-6.0-2.0-0.9","b1exvcf50o","one_one","1","indirect_first","0","rt06rd12","0","23","1","1","3","1","Ich fand die ganze Umfrage sehr random. Wirkliche Empfindungen gegenüber den Schriftzeichen habe ich gar nicht. Also bin ich mir auch nicht sicher, wie belastbar meine Antworten sind, wenn ich ""gezwungen"" werde, einzustufen, wie ich die Zeichen finde.
In Summe eine sehr komische Umfrage...","0","1","0","null","","","<div class = 'row'><div class = 'column'><img src = 'category1/CS4.png' width = '70%;'></div><div class = 'column'><img src = 'usneg/9830.bmp' width = '100%;'></div></div>","null","neg","CS","CS","1","category1/CS4.png","","","","",""
"","html-keyboard-response","37","225283","0.0-6.0-2.0-0.10","b1exvcf50o","one_one","1","indirect_first","0","rt06rd12","0","23","1","1","3","1","Ich fand die ganze Umfrage sehr random. Wirkliche Empfindungen gegenüber den Schriftzeichen habe ich gar nicht. Also bin ich mir auch nicht sicher, wie belastbar meine Antworten sind, wenn ich ""gezwungen"" werde, einzustufen, wie ich die Zeichen finde.
In Summe eine sehr komische Umfrage...","0","1","0","null","","","<div class = 'row'><div class = 'column'><img src = 'uspos/2030.bmp' width = '100%;'></div><div class = 'column'><img src = 'category4/CS10.png' width = '70%;'></div></div>","null","pos","CS","CS","4","category4/CS10.png","","","","",""
"","html-keyboard-response","38","227813","0.0-6.0-2.0-0.11","b1exvcf50o","one_one","1","indirect_first","0","rt06rd12","0","23","1","1","3","1","Ich fand die ganze Umfrage sehr random. Wirkliche Empfindungen gegenüber den Schriftzeichen habe ich gar nicht. Also bin ich mir auch nicht sicher, wie belastbar meine Antworten sind, wenn ich ""gezwungen"" werde, einzustufen, wie ich die Zeichen finde.
In Summe eine sehr komische Umfrage...","0","1","0","null","","","<div class = 'row'><div class = 'column'><img src = 'category3/CS3.png' width = '70%;'></div><div class = 'column'><img src = 'usneg/9050.bmp' width = '100%;'></div></div>","null","neg","CS","CS","3","category3/CS3.png","","","","",""
"","html-keyboard-response","39","230344","0.0-6.0-2.0-0.12","b1exvcf50o","one_one","1","indirect_first","0","rt06rd12","0","23","1","1","3","1","Ich fand die ganze Umfrage sehr random. Wirkliche Empfindungen gegenüber den Schriftzeichen habe ich gar nicht. Also bin ich mir auch nicht sicher, wie belastbar meine Antworten sind, wenn ich ""gezwungen"" werde, einzustufen, wie ich die Zeichen finde.
In Summe eine sehr komische Umfrage...","0","1","0","null","","","<div class = 'row'><div class = 'column'><img src = 'category1/CS4.png' width = '70%;'></div><div class = 'column'><img src = 'usneg/9830.bmp' width = '100%;'></div></div>","null","neg","CS","CS","1","category1/CS4.png","","","","",""
"","html-keyboard-response","40","232871","0.0-6.0-2.0-0.13","b1exvcf50o","one_one","1","indirect_first","0","rt06rd12","0","23","1","1","3","1","Ich fand die ganze Umfrage sehr random. Wirkliche Empfindungen gegenüber den Schriftzeichen habe ich gar nicht. Also bin ich mir auch nicht sicher, wie belastbar meine Antworten sind, wenn ich ""gezwungen"" werde, einzustufen, wie ich die Zeichen finde.
In Summe eine sehr komische Umfrage...","0","1","0","null","","","<div class = 'row'><div class = 'column'><img src = 'usneg/9050.bmp' width = '100%;'></div><div class = 'column'><img src = 'category3/CS3.png' width = '70%;'></div></div>","null","neg","CS","CS","3","category3/CS3.png","","","","",""
"","html-keyboard-response","41","235393","0.0-6.0-2.0-0.14","b1exvcf50o","one_one","1","indirect_first","0","rt06rd12","0","23","1","1","3","1","Ich fand die ganze Umfrage sehr random. Wirkliche Empfindungen gegenüber den Schriftzeichen habe ich gar nicht. Also bin ich mir auch nicht sicher, wie belastbar meine Antworten sind, wenn ich ""gezwungen"" werde, einzustufen, wie ich die Zeichen finde.
In Summe eine sehr komische Umfrage...","0","1","0","null","","","<div class = 'row'><div class = 'column'><img src = 'uspos/2030.bmp' width = '100%;'></div><div class = 'column'><img src = 'category4/CS10.png' width = '70%;'></div></div>","null","pos","CS","CS","4","category4/CS10.png","","","","",""
"","html-keyboard-response","42","237933","0.0-6.0-2.0-0.15","b1exvcf50o","one_one","1","indirect_first","0","rt06rd12","0","23","1","1","3","1","Ich fand die ganze Umfrage sehr random. Wirkliche Empfindungen gegenüber den Schriftzeichen habe ich gar nicht. Also bin ich mir auch nicht sicher, wie belastbar meine Antworten sind, wenn ich ""gezwungen"" werde, einzustufen, wie ich die Zeichen finde.
In Summe eine sehr komische Umfrage...","0","1","0","null","","","<div class = 'row'><div class = 'column'><img src = 'uspos/2340.bmp' width = '100%;'></div><div class = 'column'><img src = 'category2/CS7.png' width = '70%;'></div></div>","null","pos","CS","CS","2","category2/CS7.png","","","","",""
"","html-keyboard-response","43","240477","0.0-6.0-2.0-0.16","b1exvcf50o","one_one","1","indirect_first","0","rt06rd12","0","23","1","1","3","1","Ich fand die ganze Umfrage sehr random. Wirkliche Empfindungen gegenüber den Schriftzeichen habe ich gar nicht. Also bin ich mir auch nicht sicher, wie belastbar meine Antworten sind, wenn ich ""gezwungen"" werde, einzustufen, wie ich die Zeichen finde.
In Summe eine sehr komische Umfrage...","0","1","0","null","","","<div class = 'row'><div class = 'column'><img src = 'category1/CS4.png' width = '70%;'></div><div class = 'column'><img src = 'usneg/9830.bmp' width = '100%;'></div></div>","null","neg","CS","CS","1","category1/CS4.png","","","","",""
"","html-keyboard-response","44","243003","0.0-6.0-2.0-0.17","b1exvcf50o","one_one","1","indirect_first","0","rt06rd12","0","23","1","1","3","1","Ich fand die ganze Umfrage sehr random. Wirkliche Empfindungen gegenüber den Schriftzeichen habe ich gar nicht. Also bin ich mir auch nicht sicher, wie belastbar meine Antworten sind, wenn ich ""gezwungen"" werde, einzustufen, wie ich die Zeichen finde.
In Summe eine sehr komische Umfrage...","0","1","0","null","","","<div class = 'row'><div class = 'column'><img src = 'category2/CS7.png' width = '70%;'></div><div class = 'column'><img src = 'uspos/2340.bmp' width = '100%;'></div></div>","null","pos","CS","CS","2","category2/CS7.png","","","","",""
"","html-keyboard-response","45","245524","0.0-6.0-2.0-0.18","b1exvcf50o","one_one","1","indirect_first","0","rt06rd12","0","23","1","1","3","1","Ich fand die ganze Umfrage sehr random. Wirkliche Empfindungen gegenüber den Schriftzeichen habe ich gar nicht. Also bin ich mir auch nicht sicher, wie belastbar meine Antworten sind, wenn ich ""gezwungen"" werde, einzustufen, wie ich die Zeichen finde.
In Summe eine sehr komische Umfrage...","0","1","0","null","","","<div class = 'row'><div class = 'column'><img src = 'category4/CS10.png' width = '70%;'></div><div class = 'column'><img src = 'uspos/2030.bmp' width = '100%;'></div></div>","null","pos","CS","CS","4","category4/CS10.png","","","","",""
"","html-keyboard-response","46","248043","0.0-6.0-2.0-0.19","b1exvcf50o","one_one","1","indirect_first","0","rt06rd12","0","23","1","1","3","1","Ich fand die ganze Umfrage sehr random. Wirkliche Empfindungen gegenüber den Schriftzeichen habe ich gar nicht. Also bin ich mir auch nicht sicher, wie belastbar meine Antworten sind, wenn ich ""gezwungen"" werde, einzustufen, wie ich die Zeichen finde.
In Summe eine sehr komische Umfrage...","0","1","0","null","","","<div class = 'row'><div class = 'column'><img src = 'usneg/9830.bmp' width = '100%;'></div><div class = 'column'><img src = 'category1/CS4.png' width = '70%;'></div></div>","null","neg","CS","CS","1","category1/CS4.png","","","","",""
"","survey-html-form","47","250066","0.0-6.0-3.0","b1exvcf50o","one_one","1","indirect_first","0","rt06rd12","0","23","1","1","3","1","Ich fand die ganze Umfrage sehr random. Wirkliche Empfindungen gegenüber den Schriftzeichen habe ich gar nicht. Also bin ich mir auch nicht sicher, wie belastbar meine Antworten sind, wenn ich ""gezwungen"" werde, einzustufen, wie ich die Zeichen finde.
In Summe eine sehr komische Umfrage...","0","1","0","1503","","{}","","","","","","","","","","","",""
"","html-keyboard-response","48","254103","0.0-6.0-4.0-0.0","b1exvcf50o","one_one","1","indirect_first","0","rt06rd12","0","23","1","1","3","1","Ich fand die ganze Umfrage sehr random. Wirkliche Empfindungen gegenüber den Schriftzeichen habe ich gar nicht. Also bin ich mir auch nicht sicher, wie belastbar meine Antworten sind, wenn ich ""gezwungen"" werde, einzustufen, wie ich die Zeichen finde.
In Summe eine sehr komische Umfrage...","0","1","0","null","","","<div class = 'row'><div class = 'column'><img src = 'uspos/2340.bmp' width = '100%;'></div><div class = 'column'><img src = 'category2/CS7.png' width = '70%;'></div></div>","null","pos","CS","CS","2","category2/CS7.png","","","","",""
"","html-keyboard-response","49","256644","0.0-6.0-4.0-0.1","b1exvcf50o","one_one","1","indirect_first","0","rt06rd12","0","23","1","1","3","1","Ich fand die ganze Umfrage sehr random. Wirkliche Empfindungen gegenüber den Schriftzeichen habe ich gar nicht. Also bin ich mir auch nicht sicher, wie belastbar meine Antworten sind, wenn ich ""gezwungen"" werde, einzustufen, wie ich die Zeichen finde.
In Summe eine sehr komische Umfrage...","0","1","0","null","","","<div class = 'row'><div class = 'column'><img src = 'category4/CS10.png' width = '70%;'></div><div class = 'column'><img src = 'uspos/2030.bmp' width = '100%;'></div></div>","null","pos","CS","CS","4","category4/CS10.png","","","","",""
"","html-keyboard-response","50","259164","0.0-6.0-4.0-0.2","b1exvcf50o","one_one","1","indirect_first","0","rt06rd12","0","23","1","1","3","1","Ich fand die ganze Umfrage sehr random. Wirkliche Empfindungen gegenüber den Schriftzeichen habe ich gar nicht. Also bin ich mir auch nicht sicher, wie belastbar meine Antworten sind, wenn ich ""gezwungen"" werde, einzustufen, wie ich die Zeichen finde.
In Summe eine sehr komische Umfrage...","0","1","0","null","","","<div class = 'row'><div class = 'column'><img src = 'category1/CS4.png' width = '70%;'></div><div class = 'column'><img src = 'usneg/9830.bmp' width = '100%;'></div></div>","null","neg","CS","CS","1","category1/CS4.png","","","","",""
"","html-keyboard-response","51","261683","0.0-6.0-4.0-0.3","b1exvcf50o","one_one","1","indirect_first","0","rt06rd12","0","23","1","1","3","1","Ich fand die ganze Umfrage sehr random. Wirkliche Empfindungen gegenüber den Schriftzeichen habe ich gar nicht. Also bin ich mir auch nicht sicher, wie belastbar meine Antworten sind, wenn ich ""gezwungen"" werde, einzustufen, wie ich die Zeichen finde.
In Summe eine sehr komische Umfrage...","0","1","0","null","","","<div class = 'row'><div class = 'column'><img src = 'uspos/2030.bmp' width = '100%;'></div><div class = 'column'><img src = 'category4/CS10.png' width = '70%;'></div></div>","null","pos","CS","CS","4","category4/CS10.png","","","","",""
"","html-keyboard-response","52","264194","0.0-6.0-4.0-0.4","b1exvcf50o","one_one","1","indirect_first","0","rt06rd12","0","23","1","1","3","1","Ich fand die ganze Umfrage sehr random. Wirkliche Empfindungen gegenüber den Schriftzeichen habe ich gar nicht. Also bin ich mir auch nicht sicher, wie belastbar meine Antworten sind, wenn ich ""gezwungen"" werde, einzustufen, wie ich die Zeichen finde.
In Summe eine sehr komische Umfrage...","0","1","0","null","","","<div class = 'row'><div class = 'column'><img src = 'category1/CS4.png' width = '70%;'></div><div class = 'column'><img src = 'usneg/9830.bmp' width = '100%;'></div></div>","null","neg","CS","CS","1","category1/CS4.png","","","","",""
"","html-keyboard-response","53","266734","0.0-6.0-4.0-0.5","b1exvcf50o","one_one","1","indirect_first","0","rt06rd12","0","23","1","1","3","1","Ich fand die ganze Umfrage sehr random. Wirkliche Empfindungen gegenüber den Schriftzeichen habe ich gar nicht. Also bin ich mir auch nicht sicher, wie belastbar meine Antworten sind, wenn ich ""gezwungen"" werde, einzustufen, wie ich die Zeichen finde.
In Summe eine sehr komische Umfrage...","0","1","0","null","","","<div class = 'row'><div class = 'column'><img src = 'usneg/9050.bmp' width = '100%;'></div><div class = 'column'><img src = 'category3/CS3.png' width = '70%;'></div></div>","null","neg","CS","CS","3","category3/CS3.png","","","","",""
"","html-keyboard-response","54","269273","0.0-6.0-4.0-0.6","b1exvcf50o","one_one","1","indirect_first","0","rt06rd12","0","23","1","1","3","1","Ich fand die ganze Umfrage sehr random. Wirkliche Empfindungen gegenüber den Schriftzeichen habe ich gar nicht. Also bin ich mir auch nicht sicher, wie belastbar meine Antworten sind, wenn ich ""gezwungen"" werde, einzustufen, wie ich die Zeichen finde.
In Summe eine sehr komische Umfrage...","0","1","0","null","","","<div class = 'row'><div class = 'column'><img src = 'usneg/9830.bmp' width = '100%;'></div><div class = 'column'><img src = 'category1/CS4.png' width = '70%;'></div></div>","null","neg","CS","CS","1","category1/CS4.png","","","","",""
"","html-keyboard-response","55","271813","0.0-6.0-4.0-0.7","b1exvcf50o","one_one","1","indirect_first","0","rt06rd12","0","23","1","1","3","1","Ich fand die ganze Umfrage sehr random. Wirkliche Empfindungen gegenüber den Schriftzeichen habe ich gar nicht. Also bin ich mir auch nicht sicher, wie belastbar meine Antworten sind, wenn ich ""gezwungen"" werde, einzustufen, wie ich die Zeichen finde.
In Summe eine sehr komische Umfrage...","0","1","0","null","","","<div class = 'row'><div class = 'column'><img src = 'category4/CS10.png' width = '70%;'></div><div class = 'column'><img src = 'uspos/2030.bmp' width = '100%;'></div></div>","null","pos","CS","CS","4","category4/CS10.png","","","","",""
"","html-keyboard-response","56","274325","0.0-6.0-4.0-0.8","b1exvcf50o","one_one","1","indirect_first","0","rt06rd12","0","23","1","1","3","1","Ich fand die ganze Umfrage sehr random. Wirkliche Empfindungen gegenüber den Schriftzeichen habe ich gar nicht. Also bin ich mir auch nicht sicher, wie belastbar meine Antworten sind, wenn ich ""gezwungen"" werde, einzustufen, wie ich die Zeichen finde.
In Summe eine sehr komische Umfrage...","0","1","0","null","","","<div class = 'row'><div class = 'column'><img src = 'category2/CS7.png' width = '70%;'></div><div class = 'column'><img src = 'uspos/2340.bmp' width = '100%;'></div></div>","null","pos","CS","CS","2","category2/CS7.png","","","","",""
"","html-keyboard-response","57","276856","0.0-6.0-4.0-0.9","b1exvcf50o","one_one","1","indirect_first","0","rt06rd12","0","23","1","1","3","1","Ich fand die ganze Umfrage sehr random. Wirkliche Empfindungen gegenüber den Schriftzeichen habe ich gar nicht. Also bin ich mir auch nicht sicher, wie belastbar meine Antworten sind, wenn ich ""gezwungen"" werde, einzustufen, wie ich die Zeichen finde.
In Summe eine sehr komische Umfrage...","0","1","0","null","","","<div class = 'row'><div class = 'column'><img src = 'category3/CS3.png' width = '70%;'></div><div class = 'column'><img src = 'usneg/9050.bmp' width = '100%;'></div></div>","null","neg","CS","CS","3","category3/CS3.png","","","","",""
"","html-keyboard-response","58","279384","0.0-6.0-4.0-0.10","b1exvcf50o","one_one","1","indirect_first","0","rt06rd12","0","23","1","1","3","1","Ich fand die ganze Umfrage sehr random. Wirkliche Empfindungen gegenüber den Schriftzeichen habe ich gar nicht. Also bin ich mir auch nicht sicher, wie belastbar meine Antworten sind, wenn ich ""gezwungen"" werde, einzustufen, wie ich die Zeichen finde.
In Summe eine sehr komische Umfrage...","0","1","0","null","","","<div class = 'row'><div class = 'column'><img src = 'category1/CS4.png' width = '70%;'></div><div class = 'column'><img src = 'usneg/9830.bmp' width = '100%;'></div></div>","null","neg","CS","CS","1","category1/CS4.png","","","","",""
"","html-keyboard-response","59","281913","0.0-6.0-4.0-0.11","b1exvcf50o","one_one","1","indirect_first","0","rt06rd12","0","23","1","1","3","1","Ich fand die ganze Umfrage sehr random. Wirkliche Empfindungen gegenüber den Schriftzeichen habe ich gar nicht. Also bin ich mir auch nicht sicher, wie belastbar meine Antworten sind, wenn ich ""gezwungen"" werde, einzustufen, wie ich die Zeichen finde.
In Summe eine sehr komische Umfrage...","0","1","0","null","","","<div class = 'row'><div class = 'column'><img src = 'category3/CS3.png' width = '70%;'></div><div class = 'column'><img src = 'usneg/9050.bmp' width = '100%;'></div></div>","null","neg","CS","CS","3","category3/CS3.png","","","","",""
"","html-keyboard-response","60","284433","0.0-6.0-4.0-0.12","b1exvcf50o","one_one","1","indirect_first","0","rt06rd12","0","23","1","1","3","1","Ich fand die ganze Umfrage sehr random. Wirkliche Empfindungen gegenüber den Schriftzeichen habe ich gar nicht. Also bin ich mir auch nicht sicher, wie belastbar meine Antworten sind, wenn ich ""gezwungen"" werde, einzustufen, wie ich die Zeichen finde.
In Summe eine sehr komische Umfrage...","0","1","0","null","","","<div class = 'row'><div class = 'column'><img src = 'category2/CS7.png' width = '70%;'></div><div class = 'column'><img src = 'uspos/2340.bmp' width = '100%;'></div></div>","null","pos","CS","CS","2","category2/CS7.png","","","","",""
"","html-keyboard-response","61","286964","0.0-6.0-4.0-0.13","b1exvcf50o","one_one","1","indirect_first","0","rt06rd12","0","23","1","1","3","1","Ich fand die ganze Umfrage sehr random. Wirkliche Empfindungen gegenüber den Schriftzeichen habe ich gar nicht. Also bin ich mir auch nicht sicher, wie belastbar meine Antworten sind, wenn ich ""gezwungen"" werde, einzustufen, wie ich die Zeichen finde.
In Summe eine sehr komische Umfrage...","0","1","0","null","","","<div class = 'row'><div class = 'column'><img src = 'category1/CS4.png' width = '70%;'></div><div class = 'column'><img src = 'usneg/9830.bmp' width = '100%;'></div></div>","null","neg","CS","CS","1","category1/CS4.png","","","","",""
"","html-keyboard-response","62","289481","0.0-6.0-4.0-0.14","b1exvcf50o","one_one","1","indirect_first","0","rt06rd12","0","23","1","1","3","1","Ich fand die ganze Umfrage sehr random. Wirkliche Empfindungen gegenüber den Schriftzeichen habe ich gar nicht. Also bin ich mir auch nicht sicher, wie belastbar meine Antworten sind, wenn ich ""gezwungen"" werde, einzustufen, wie ich die Zeichen finde.
In Summe eine sehr komische Umfrage...","0","1","0","null","","","<div class = 'row'><div class = 'column'><img src = 'category3/CS3.png' width = '70%;'></div><div class = 'column'><img src = 'usneg/9050.bmp' width = '100%;'></div></div>","null","neg","CS","CS","3","category3/CS3.png","","","","",""
"","html-keyboard-response","63","292024","0.0-6.0-4.0-0.15","b1exvcf50o","one_one","1","indirect_first","0","rt06rd12","0","23","1","1","3","1","Ich fand die ganze Umfrage sehr random. Wirkliche Empfindungen gegenüber den Schriftzeichen habe ich gar nicht. Also bin ich mir auch nicht sicher, wie belastbar meine Antworten sind, wenn ich ""gezwungen"" werde, einzustufen, wie ich die Zeichen finde.
In Summe eine sehr komische Umfrage...","0","1","0","null","","","<div class = 'row'><div class = 'column'><img src = 'uspos/2030.bmp' width = '100%;'></div><div class = 'column'><img src = 'category4/CS10.png' width = '70%;'></div></div>","null","pos","CS","CS","4","category4/CS10.png","","","","",""
"","html-keyboard-response","64","294564","0.0-6.0-4.0-0.16","b1exvcf50o","one_one","1","indirect_first","0","rt06rd12","0","23","1","1","3","1","Ich fand die ganze Umfrage sehr random. Wirkliche Empfindungen gegenüber den Schriftzeichen habe ich gar nicht. Also bin ich mir auch nicht sicher, wie belastbar meine Antworten sind, wenn ich ""gezwungen"" werde, einzustufen, wie ich die Zeichen finde.
In Summe eine sehr komische Umfrage...","0","1","0","null","","","<div class = 'row'><div class = 'column'><img src = 'category3/CS3.png' width = '70%;'></div><div class = 'column'><img src = 'usneg/9050.bmp' width = '100%;'></div></div>","null","neg","CS","CS","3","category3/CS3.png","","","","",""
"","html-keyboard-response","65","297084","0.0-6.0-4.0-0.17","b1exvcf50o","one_one","1","indirect_first","0","rt06rd12","0","23","1","1","3","1","Ich fand die ganze Umfrage sehr random. Wirkliche Empfindungen gegenüber den Schriftzeichen habe ich gar nicht. Also bin ich mir auch nicht sicher, wie belastbar meine Antworten sind, wenn ich ""gezwungen"" werde, einzustufen, wie ich die Zeichen finde.
In Summe eine sehr komische Umfrage...","0","1","0","null","","","<div class = 'row'><div class = 'column'><img src = 'category2/CS7.png' width = '70%;'></div><div class = 'column'><img src = 'uspos/2340.bmp' width = '100%;'></div></div>","null","pos","CS","CS","2","category2/CS7.png","","","","",""
"","html-keyboard-response","66","299613","0.0-6.0-4.0-0.18","b1exvcf50o","one_one","1","indirect_first","0","rt06rd12","0","23","1","1","3","1","Ich fand die ganze Umfrage sehr random. Wirkliche Empfindungen gegenüber den Schriftzeichen habe ich gar nicht. Also bin ich mir auch nicht sicher, wie belastbar meine Antworten sind, wenn ich ""gezwungen"" werde, einzustufen, wie ich die Zeichen finde.
In Summe eine sehr komische Umfrage...","0","1","0","null","","","<div class = 'row'><div class = 'column'><img src = 'uspos/2030.bmp' width = '100%;'></div><div class = 'column'><img src = 'category4/CS10.png' width = '70%;'></div></div>","null","pos","CS","CS","4","category4/CS10.png","","","","",""
"","html-keyboard-response","67","302144","0.0-6.0-4.0-0.19","b1exvcf50o","one_one","1","indirect_first","0","rt06rd12","0","23","1","1","3","1","Ich fand die ganze Umfrage sehr random. Wirkliche Empfindungen gegenüber den Schriftzeichen habe ich gar nicht. Also bin ich mir auch nicht sicher, wie belastbar meine Antworten sind, wenn ich ""gezwungen"" werde, einzustufen, wie ich die Zeichen finde.
In Summe eine sehr komische Umfrage...","0","1","0","null","","","<div class = 'row'><div class = 'column'><img src = 'category2/CS7.png' width = '70%;'></div><div class = 'column'><img src = 'uspos/2340.bmp' width = '100%;'></div></div>","null","pos","CS","CS","2","category2/CS7.png","","","","",""
"","survey-html-form","68","304673","0.0-6.0-5.0","b1exvcf50o","one_one","1","indirect_first","0","rt06rd12","0","23","1","1","3","1","Ich fand die ganze Umfrage sehr random. Wirkliche Empfindungen gegenüber den Schriftzeichen habe ich gar nicht. Also bin ich mir auch nicht sicher, wie belastbar meine Antworten sind, wenn ich ""gezwungen"" werde, einzustufen, wie ich die Zeichen finde.
In Summe eine sehr komische Umfrage...","0","1","0","2009","","{}","","","","","","","","","","","",""
"","html-keyboard-response","69","308694","0.0-6.0-6.0-0.0","b1exvcf50o","one_one","1","indirect_first","0","rt06rd12","0","23","1","1","3","1","Ich fand die ganze Umfrage sehr random. Wirkliche Empfindungen gegenüber den Schriftzeichen habe ich gar nicht. Also bin ich mir auch nicht sicher, wie belastbar meine Antworten sind, wenn ich ""gezwungen"" werde, einzustufen, wie ich die Zeichen finde.
In Summe eine sehr komische Umfrage...","0","1","0","null","","","<div class = 'row'><div class = 'column'><img src = 'uspos/2030.bmp' width = '100%;'></div><div class = 'column'><img src = 'category4/CS10.png' width = '70%;'></div></div>","null","pos","CS","CS","4","category4/CS10.png","","","","",""
"","html-keyboard-response","70","311224","0.0-6.0-6.0-0.1","b1exvcf50o","one_one","1","indirect_first","0","rt06rd12","0","23","1","1","3","1","Ich fand die ganze Umfrage sehr random. Wirkliche Empfindungen gegenüber den Schriftzeichen habe ich gar nicht. Also bin ich mir auch nicht sicher, wie belastbar meine Antworten sind, wenn ich ""gezwungen"" werde, einzustufen, wie ich die Zeichen finde.
In Summe eine sehr komische Umfrage...","0","1","0","null","","","<div class = 'row'><div class = 'column'><img src = 'usneg/9830.bmp' width = '100%;'></div><div class = 'column'><img src = 'category1/CS4.png' width = '70%;'></div></div>","null","neg","CS","CS","1","category1/CS4.png","","","","",""
"","html-keyboard-response","71","313754","0.0-6.0-6.0-0.2","b1exvcf50o","one_one","1","indirect_first","0","rt06rd12","0","23","1","1","3","1","Ich fand die ganze Umfrage sehr random. Wirkliche Empfindungen gegenüber den Schriftzeichen habe ich gar nicht. Also bin ich mir auch nicht sicher, wie belastbar meine Antworten sind, wenn ich ""gezwungen"" werde, einzustufen, wie ich die Zeichen finde.
In Summe eine sehr komische Umfrage...","0","1","0","null","","","<div class = 'row'><div class = 'column'><img src = 'category2/CS7.png' width = '70%;'></div><div class = 'column'><img src = 'uspos/2340.bmp' width = '100%;'></div></div>","null","pos","CS","CS","2","category2/CS7.png","","","","",""
"","html-keyboard-response","72","316274","0.0-6.0-6.0-0.3","b1exvcf50o","one_one","1","indirect_first","0","rt06rd12","0","23","1","1","3","1","Ich fand die ganze Umfrage sehr random. Wirkliche Empfindungen gegenüber den Schriftzeichen habe ich gar nicht. Also bin ich mir auch nicht sicher, wie belastbar meine Antworten sind, wenn ich ""gezwungen"" werde, einzustufen, wie ich die Zeichen finde.
In Summe eine sehr komische Umfrage...","0","1","0","null","","","<div class = 'row'><div class = 'column'><img src = 'uspos/2030.bmp' width = '100%;'></div><div class = 'column'><img src = 'category4/CS10.png' width = '70%;'></div></div>","null","pos","CS","CS","4","category4/CS10.png","","","","",""
"","html-keyboard-response","73","318804","0.0-6.0-6.0-0.4","b1exvcf50o","one_one","1","indirect_first","0","rt06rd12","0","23","1","1","3","1","Ich fand die ganze Umfrage sehr random. Wirkliche Empfindungen gegenüber den Schriftzeichen habe ich gar nicht. Also bin ich mir auch nicht sicher, wie belastbar meine Antworten sind, wenn ich ""gezwungen"" werde, einzustufen, wie ich die Zeichen finde.
In Summe eine sehr komische Umfrage...","0","1","0","null","","","<div class = 'row'><div class = 'column'><img src = 'category3/CS3.png' width = '70%;'></div><div class = 'column'><img src = 'usneg/9050.bmp' width = '100%;'></div></div>","null","neg","CS","CS","3","category3/CS3.png","","","","",""
"","html-keyboard-response","74","321324","0.0-6.0-6.0-0.5","b1exvcf50o","one_one","1","indirect_first","0","rt06rd12","0","23","1","1","3","1","Ich fand die ganze Umfrage sehr random. Wirkliche Empfindungen gegenüber den Schriftzeichen habe ich gar nicht. Also bin ich mir auch nicht sicher, wie belastbar meine Antworten sind, wenn ich ""gezwungen"" werde, einzustufen, wie ich die Zeichen finde.
In Summe eine sehr komische Umfrage...","0","1","0","null","","","<div class = 'row'><div class = 'column'><img src = 'category2/CS7.png' width = '70%;'></div><div class = 'column'><img src = 'uspos/2340.bmp' width = '100%;'></div></div>","null","pos","CS","CS","2","category2/CS7.png","","","","",""
"","html-keyboard-response","75","323864","0.0-6.0-6.0-0.6","b1exvcf50o","one_one","1","indirect_first","0","rt06rd12","0","23","1","1","3","1","Ich fand die ganze Umfrage sehr random. Wirkliche Empfindungen gegenüber den Schriftzeichen habe ich gar nicht. Also bin ich mir auch nicht sicher, wie belastbar meine Antworten sind, wenn ich ""gezwungen"" werde, einzustufen, wie ich die Zeichen finde.
In Summe eine sehr komische Umfrage...","0","1","0","null","","","<div class = 'row'><div class = 'column'><img src = 'usneg/9830.bmp' width = '100%;'></div><div class = 'column'><img src = 'category1/CS4.png' width = '70%;'></div></div>","null","neg","CS","CS","1","category1/CS4.png","","","","",""
"","html-keyboard-response","76","326394","0.0-6.0-6.0-0.7","b1exvcf50o","one_one","1","indirect_first","0","rt06rd12","0","23","1","1","3","1","Ich fand die ganze Umfrage sehr random. Wirkliche Empfindungen gegenüber den Schriftzeichen habe ich gar nicht. Also bin ich mir auch nicht sicher, wie belastbar meine Antworten sind, wenn ich ""gezwungen"" werde, einzustufen, wie ich die Zeichen finde.
In Summe eine sehr komische Umfrage...","0","1","0","null","","","<div class = 'row'><div class = 'column'><img src = 'usneg/9050.bmp' width = '100%;'></div><div class = 'column'><img src = 'category3/CS3.png' width = '70%;'></div></div>","null","neg","CS","CS","3","category3/CS3.png","","","","",""
"","html-keyboard-response","77","328914","0.0-6.0-6.0-0.8","b1exvcf50o","one_one","1","indirect_first","0","rt06rd12","0","23","1","1","3","1","Ich fand die ganze Umfrage sehr random. Wirkliche Empfindungen gegenüber den Schriftzeichen habe ich gar nicht. Also bin ich mir auch nicht sicher, wie belastbar meine Antworten sind, wenn ich ""gezwungen"" werde, einzustufen, wie ich die Zeichen finde.
In Summe eine sehr komische Umfrage...","0","1","0","null","","","<div class = 'row'><div class = 'column'><img src = 'uspos/2030.bmp' width = '100%;'></div><div class = 'column'><img src = 'category4/CS10.png' width = '70%;'></div></div>","null","pos","CS","CS","4","category4/CS10.png","","","","",""
"","html-keyboard-response","78","331454","0.0-6.0-6.0-0.9","b1exvcf50o","one_one","1","indirect_first","0","rt06rd12","0","23","1","1","3","1","Ich fand die ganze Umfrage sehr random. Wirkliche Empfindungen gegenüber den Schriftzeichen habe ich gar nicht. Also bin ich mir auch nicht sicher, wie belastbar meine Antworten sind, wenn ich ""gezwungen"" werde, einzustufen, wie ich die Zeichen finde.
In Summe eine sehr komische Umfrage...","0","1","0","null","","","<div class = 'row'><div class = 'column'><img src = 'category1/CS4.png' width = '70%;'></div><div class = 'column'><img src = 'usneg/9830.bmp' width = '100%;'></div></div>","null","neg","CS","CS","1","category1/CS4.png","","","","",""
"","html-keyboard-response","79","333994","0.0-6.0-6.0-0.10","b1exvcf50o","one_one","1","indirect_first","0","rt06rd12","0","23","1","1","3","1","Ich fand die ganze Umfrage sehr random. Wirkliche Empfindungen gegenüber den Schriftzeichen habe ich gar nicht. Also bin ich mir auch nicht sicher, wie belastbar meine Antworten sind, wenn ich ""gezwungen"" werde, einzustufen, wie ich die Zeichen finde.
In Summe eine sehr komische Umfrage...","0","1","0","null","","","<div class = 'row'><div class = 'column'><img src = 'uspos/2030.bmp' width = '100%;'></div><div class = 'column'><img src = 'category4/CS10.png' width = '70%;'></div></div>","null","pos","CS","CS","4","category4/CS10.png","","","","",""
"","html-keyboard-response","80","336516","0.0-6.0-6.0-0.11","b1exvcf50o","one_one","1","indirect_first","0","rt06rd12","0","23","1","1","3","1","Ich fand die ganze Umfrage sehr random. Wirkliche Empfindungen gegenüber den Schriftzeichen habe ich gar nicht. Also bin ich mir auch nicht sicher, wie belastbar meine Antworten sind, wenn ich ""gezwungen"" werde, einzustufen, wie ich die Zeichen finde.
In Summe eine sehr komische Umfrage...","0","1","0","null","","","<div class = 'row'><div class = 'column'><img src = 'category2/CS7.png' width = '70%;'></div><div class = 'column'><img src = 'uspos/2340.bmp' width = '100%;'></div></div>","null","pos","CS","CS","2","category2/CS7.png","","","","",""
"","html-keyboard-response","81","339044","0.0-6.0-6.0-0.12","b1exvcf50o","one_one","1","indirect_first","0","rt06rd12","0","23","1","1","3","1","Ich fand die ganze Umfrage sehr random. Wirkliche Empfindungen gegenüber den Schriftzeichen habe ich gar nicht. Also bin ich mir auch nicht sicher, wie belastbar meine Antworten sind, wenn ich ""gezwungen"" werde, einzustufen, wie ich die Zeichen finde.
In Summe eine sehr komische Umfrage...","0","1","0","null","","","<div class = 'row'><div class = 'column'><img src = 'category3/CS3.png' width = '70%;'></div><div class = 'column'><img src = 'usneg/9050.bmp' width = '100%;'></div></div>","null","neg","CS","CS","3","category3/CS3.png","","","","",""
"","html-keyboard-response","82","341564","0.0-6.0-6.0-0.13","b1exvcf50o","one_one","1","indirect_first","0","rt06rd12","0","23","1","1","3","1","Ich fand die ganze Umfrage sehr random. Wirkliche Empfindungen gegenüber den Schriftzeichen habe ich gar nicht. Also bin ich mir auch nicht sicher, wie belastbar meine Antworten sind, wenn ich ""gezwungen"" werde, einzustufen, wie ich die Zeichen finde.
In Summe eine sehr komische Umfrage...","0","1","0","null","","","<div class = 'row'><div class = 'column'><img src = 'uspos/2340.bmp' width = '100%;'></div><div class = 'column'><img src = 'category2/CS7.png' width = '70%;'></div></div>","null","pos","CS","CS","2","category2/CS7.png","","","","",""
"","html-keyboard-response","83","344084","0.0-6.0-6.0-0.14","b1exvcf50o","one_one","1","indirect_first","0","rt06rd12","0","23","1","1","3","1","Ich fand die ganze Umfrage sehr random. Wirkliche Empfindungen gegenüber den Schriftzeichen habe ich gar nicht. Also bin ich mir auch nicht sicher, wie belastbar meine Antworten sind, wenn ich ""gezwungen"" werde, einzustufen, wie ich die Zeichen finde.
In Summe eine sehr komische Umfrage...","0","1","0","null","","","<div class = 'row'><div class = 'column'><img src = 'usneg/9830.bmp' width = '100%;'></div><div class = 'column'><img src = 'category1/CS4.png' width = '70%;'></div></div>","null","neg","CS","CS","1","category1/CS4.png","","","","",""
"","html-keyboard-response","84","346616","0.0-6.0-6.0-0.15","b1exvcf50o","one_one","1","indirect_first","0","rt06rd12","0","23","1","1","3","1","Ich fand die ganze Umfrage sehr random. Wirkliche Empfindungen gegenüber den Schriftzeichen habe ich gar nicht. Also bin ich mir auch nicht sicher, wie belastbar meine Antworten sind, wenn ich ""gezwungen"" werde, einzustufen, wie ich die Zeichen finde.
In Summe eine sehr komische Umfrage...","0","1","0","null","","","<div class = 'row'><div class = 'column'><img src = 'category3/CS3.png' width = '70%;'></div><div class = 'column'><img src = 'usneg/9050.bmp' width = '100%;'></div></div>","null","neg","CS","CS","3","category3/CS3.png","","","","",""
"","html-keyboard-response","85","349155","0.0-6.0-6.0-0.16","b1exvcf50o","one_one","1","indirect_first","0","rt06rd12","0","23","1","1","3","1","Ich fand die ganze Umfrage sehr random. Wirkliche Empfindungen gegenüber den Schriftzeichen habe ich gar nicht. Also bin ich mir auch nicht sicher, wie belastbar meine Antworten sind, wenn ich ""gezwungen"" werde, einzustufen, wie ich die Zeichen finde.
In Summe eine sehr komische Umfrage...","0","1","0","null","","","<div class = 'row'><div class = 'column'><img src = 'uspos/2340.bmp' width = '100%;'></div><div class = 'column'><img src = 'category2/CS7.png' width = '70%;'></div></div>","null","pos","CS","CS","2","category2/CS7.png","","","","",""
"","html-keyboard-response","86","351694","0.0-6.0-6.0-0.17","b1exvcf50o","one_one","1","indirect_first","0","rt06rd12","0","23","1","1","3","1","Ich fand die ganze Umfrage sehr random. Wirkliche Empfindungen gegenüber den Schriftzeichen habe ich gar nicht. Also bin ich mir auch nicht sicher, wie belastbar meine Antworten sind, wenn ich ""gezwungen"" werde, einzustufen, wie ich die Zeichen finde.
In Summe eine sehr komische Umfrage...","0","1","0","null","","","<div class = 'row'><div class = 'column'><img src = 'uspos/2030.bmp' width = '100%;'></div><div class = 'column'><img src = 'category4/CS10.png' width = '70%;'></div></div>","null","pos","CS","CS","4","category4/CS10.png","","","","",""
"","html-keyboard-response","87","354234","0.0-6.0-6.0-0.18","b1exvcf50o","one_one","1","indirect_first","0","rt06rd12","0","23","1","1","3","1","Ich fand die ganze Umfrage sehr random. Wirkliche Empfindungen gegenüber den Schriftzeichen habe ich gar nicht. Also bin ich mir auch nicht sicher, wie belastbar meine Antworten sind, wenn ich ""gezwungen"" werde, einzustufen, wie ich die Zeichen finde.
In Summe eine sehr komische Umfrage...","0","1","0","null","","","<div class = 'row'><div class = 'column'><img src = 'category1/CS4.png' width = '70%;'></div><div class = 'column'><img src = 'usneg/9830.bmp' width = '100%;'></div></div>","null","neg","CS","CS","1","category1/CS4.png","","","","",""
"","html-keyboard-response","88","356774","0.0-6.0-6.0-0.19","b1exvcf50o","one_one","1","indirect_first","0","rt06rd12","0","23","1","1","3","1","Ich fand die ganze Umfrage sehr random. Wirkliche Empfindungen gegenüber den Schriftzeichen habe ich gar nicht. Also bin ich mir auch nicht sicher, wie belastbar meine Antworten sind, wenn ich ""gezwungen"" werde, einzustufen, wie ich die Zeichen finde.
In Summe eine sehr komische Umfrage...","0","1","0","null","","","<div class = 'row'><div class = 'column'><img src = 'category3/CS3.png' width = '70%;'></div><div class = 'column'><img src = 'usneg/9050.bmp' width = '100%;'></div></div>","null","neg","CS","CS","3","category3/CS3.png","","","","",""
"","html-keyboard-response","89","384612","0.0-7.0","b1exvcf50o","one_one","1","indirect_first","0","rt06rd12","0","23","1","1","3","1","Ich fand die ganze Umfrage sehr random. Wirkliche Empfindungen gegenüber den Schriftzeichen habe ich gar nicht. Also bin ich mir auch nicht sicher, wie belastbar meine Antworten sind, wenn ich ""gezwungen"" werde, einzustufen, wie ich die Zeichen finde.
In Summe eine sehr komische Umfrage...","0","1","0","27328","","","<p>Sie sehen nun die chinesischen Zeichen nur ganz kurz. Danach sehen Sie die jeweilige Aussprache der Zeichen als Silbe auf dem Bildschrim. Ihre Aufgabe ist es, für jede Silbe anzugeben, ob diese etwas angenehmes, oder unangenehmes bedeuten könnte. Verlassen Sie sich hier vor allem auf Ihre Intuition.<br><br>Die Zeichen werden nur zur Orientierung dargestellt, beachten Sie sie deshalb nicht. Konzentrieren Sie sich vor allem auf die Silben. <br>Reagieren Sie mit folgenden zwei Tasten: <br><br><b>'D' </b> wenn die Silbe etwas <b>unangenehmes</b> bedeuten könnte. <br><b>'K'</b> wenn die Silbe etwas <b>angenehmes</b> bedeuten könnte. <br><br>Bitte legen Sie nun den Zeigefinger der linken Hand auf die Taste 'D' und den Zeigefinger der rechten Hand auf die Taste 'K'. <br>Reagieren Sie auf jede Silbe so schnell wie möglich. Uns interessiert Ihre spontane Reaktion. <br> <br> <br>Drücken Sie 'D' oder 'K', um die nächste Aufgabe zu starten. </p>","68","","","","","","","","","",""
"","html-keyboard-response","90","387635","0.0-8.0-0.0","b1exvcf50o","one_one","1","indirect_first","0","rt06rd12","0","23","1","1","3","1","Ich fand die ganze Umfrage sehr random. Wirkliche Empfindungen gegenüber den Schriftzeichen habe ich gar nicht. Also bin ich mir auch nicht sicher, wie belastbar meine Antworten sind, wenn ich ""gezwungen"" werde, einzustufen, wie ich die Zeichen finde.
In Summe eine sehr komische Umfrage...","0","1","0","null","","","<div style=""font-size:60px;"">+</div>","null","","","","","","","","","",""
"","html-keyboard-response","91","387735","0.0-8.0-1.0","b1exvcf50o","one_one","1","indirect_first","0","rt06rd12","0","23","1","1","3","1","Ich fand die ganze Umfrage sehr random. Wirkliche Empfindungen gegenüber den Schriftzeichen habe ich gar nicht. Also bin ich mir auch nicht sicher, wie belastbar meine Antworten sind, wenn ich ""gezwungen"" werde, einzustufen, wie ich die Zeichen finde.
In Summe eine sehr komische Umfrage...","0","1","0","null","","","<img src = 'category1/CS6.png' width = '100%;'>","null","","","","","","","","","",""
"","html-keyboard-response","92","388013","0.0-8.0-2.0","b1exvcf50o","one_one","1","indirect_first","0","rt06rd12","0","23","1","1","3","1","Ich fand die ganze Umfrage sehr random. Wirkliche Empfindungen gegenüber den Schriftzeichen habe ich gar nicht. Also bin ich mir auch nicht sicher, wie belastbar meine Antworten sind, wenn ich ""gezwungen"" werde, einzustufen, wie ich die Zeichen finde.
In Summe eine sehr komische Umfrage...","0","1","0","null","","","<img src = 'targets/1.png' width = '100%;'>","null","","","","","","","","","",""
"","html-keyboard-response","93","394689","0.0-8.0-3.0","b1exvcf50o","one_one","1","indirect_first","0","rt06rd12","0","23","1","1","3","1","Ich fand die ganze Umfrage sehr random. Wirkliche Empfindungen gegenüber den Schriftzeichen habe ich gar nicht. Also bin ich mir auch nicht sicher, wie belastbar meine Antworten sind, wenn ich ""gezwungen"" werde, einzustufen, wie ich die Zeichen finde.
In Summe eine sehr komische Umfrage...","0","1","0","6675","","","<img src = 'targets/mask.png' width = '100%;'>","75","neg","GS","GSold","1","category1/CS6.png","targets/1.png","1","indirect","0",""
"","html-keyboard-response","94","396204","0.0-8.0-0.1","b1exvcf50o","one_one","1","indirect_first","0","rt06rd12","0","23","1","1","3","1","Ich fand die ganze Umfrage sehr random. Wirkliche Empfindungen gegenüber den Schriftzeichen habe ich gar nicht. Also bin ich mir auch nicht sicher, wie belastbar meine Antworten sind, wenn ich ""gezwungen"" werde, einzustufen, wie ich die Zeichen finde.
In Summe eine sehr komische Umfrage...","0","1","0","null","","","<div style=""font-size:60px;"">+</div>","null","","","","","","","","","",""
"","html-keyboard-response","95","396304","0.0-8.0-1.1","b1exvcf50o","one_one","1","indirect_first","0","rt06rd12","0","23","1","1","3","1","Ich fand die ganze Umfrage sehr random. Wirkliche Empfindungen gegenüber den Schriftzeichen habe ich gar nicht. Also bin ich mir auch nicht sicher, wie belastbar meine Antworten sind, wenn ich ""gezwungen"" werde, einzustufen, wie ich die Zeichen finde.
In Summe eine sehr komische Umfrage...","0","1","0","null","","","<img src = 'category4/CS10.png' width = '100%;'>","null","","","","","","","","","",""
"","html-keyboard-response","96","396585","0.0-8.0-2.1","b1exvcf50o","one_one","1","indirect_first","0","rt06rd12","0","23","1","1","3","1","Ich fand die ganze Umfrage sehr random. Wirkliche Empfindungen gegenüber den Schriftzeichen habe ich gar nicht. Also bin ich mir auch nicht sicher, wie belastbar meine Antworten sind, wenn ich ""gezwungen"" werde, einzustufen, wie ich die Zeichen finde.
In Summe eine sehr komische Umfrage...","0","1","0","null","","","<img src = 'targets/15.png' width = '100%;'>","null","","","","","","","","","",""
"","html-keyboard-response","97","399479","0.0-8.0-3.1","b1exvcf50o","one_one","1","indirect_first","0","rt06rd12","0","23","1","1","3","1","Ich fand die ganze Umfrage sehr random. Wirkliche Empfindungen gegenüber den Schriftzeichen habe ich gar nicht. Also bin ich mir auch nicht sicher, wie belastbar meine Antworten sind, wenn ich ""gezwungen"" werde, einzustufen, wie ich die Zeichen finde.
In Summe eine sehr komische Umfrage...","0","1","0","2893","","","<img src = 'targets/mask.png' width = '100%;'>","75","pos","CS","CS","4","category4/CS10.png","targets/15.png","1","indirect","1",""
"","html-keyboard-response","98","401004","0.0-8.0-0.2","b1exvcf50o","one_one","1","indirect_first","0","rt06rd12","0","23","1","1","3","1","Ich fand die ganze Umfrage sehr random. Wirkliche Empfindungen gegenüber den Schriftzeichen habe ich gar nicht. Also bin ich mir auch nicht sicher, wie belastbar meine Antworten sind, wenn ich ""gezwungen"" werde, einzustufen, wie ich die Zeichen finde.
In Summe eine sehr komische Umfrage...","0","1","0","null","","","<div style=""font-size:60px;"">+</div>","null","","","","","","","","","",""
"","html-keyboard-response","99","401104","0.0-8.0-1.2","b1exvcf50o","one_one","1","indirect_first","0","rt06rd12","0","23","1","1","3","1","Ich fand die ganze Umfrage sehr random. Wirkliche Empfindungen gegenüber den Schriftzeichen habe ich gar nicht. Also bin ich mir auch nicht sicher, wie belastbar meine Antworten sind, wenn ich ""gezwungen"" werde, einzustufen, wie ich die Zeichen finde.
In Summe eine sehr komische Umfrage...","0","1","0","null","","","<img src = 'category2/CS9.png' width = '100%;'>","null","","","","","","","","","",""
"","html-keyboard-response","100","401384","0.0-8.0-2.2","b1exvcf50o","one_one","1","indirect_first","0","rt06rd12","0","23","1","1","3","1","Ich fand die ganze Umfrage sehr random. Wirkliche Empfindungen gegenüber den Schriftzeichen habe ich gar nicht. Also bin ich mir auch nicht sicher, wie belastbar meine Antworten sind, wenn ich ""gezwungen"" werde, einzustufen, wie ich die Zeichen finde.
In Summe eine sehr komische Umfrage...","0","1","0","null","","","<img src = 'targets/22.png' width = '100%;'>","null","","","","","","","","","",""
"","html-keyboard-response","101","402689","0.0-8.0-3.2","b1exvcf50o","one_one","1","indirect_first","0","rt06rd12","0","23","1","1","3","1","Ich fand die ganze Umfrage sehr random. Wirkliche Empfindungen gegenüber den Schriftzeichen habe ich gar nicht. Also bin ich mir auch nicht sicher, wie belastbar meine Antworten sind, wenn ich ""gezwungen"" werde, einzustufen, wie ich die Zeichen finde.
In Summe eine sehr komische Umfrage...","0","1","0","1303","","","<img src = 'targets/mask.png' width = '100%;'>","68","pos","GS","GSold","2","category2/CS9.png","targets/22.png","0","indirect","2",""
"","html-keyboard-response","102","404215","0.0-8.0-0.3","b1exvcf50o","one_one","1","indirect_first","0","rt06rd12","0","23","1","1","3","1","Ich fand die ganze Umfrage sehr random. Wirkliche Empfindungen gegenüber den Schriftzeichen habe ich gar nicht. Also bin ich mir auch nicht sicher, wie belastbar meine Antworten sind, wenn ich ""gezwungen"" werde, einzustufen, wie ich die Zeichen finde.
In Summe eine sehr komische Umfrage...","0","1","0","null","","","<div style=""font-size:60px;"">+</div>","null","","","","","","","","","",""
"","html-keyboard-response","103","404315","0.0-8.0-1.3","b1exvcf50o","one_one","1","indirect_first","0","rt06rd12","0","23","1","1","3","1","Ich fand die ganze Umfrage sehr random. Wirkliche Empfindungen gegenüber den Schriftzeichen habe ich gar nicht. Also bin ich mir auch nicht sicher, wie belastbar meine Antworten sind, wenn ich ""gezwungen"" werde, einzustufen, wie ich die Zeichen finde.
In Summe eine sehr komische Umfrage...","0","1","0","null","","","<img src = 'category1/CS2.png' width = '100%;'>","null","","","","","","","","","",""
"","html-keyboard-response","104","404585","0.0-8.0-2.3","b1exvcf50o","one_one","1","indirect_first","0","rt06rd12","0","23","1","1","3","1","Ich fand die ganze Umfrage sehr random. Wirkliche Empfindungen gegenüber den Schriftzeichen habe ich gar nicht. Also bin ich mir auch nicht sicher, wie belastbar meine Antworten sind, wenn ich ""gezwungen"" werde, einzustufen, wie ich die Zeichen finde.
In Summe eine sehr komische Umfrage...","0","1","0","null","","","<img src = 'targets/27.png' width = '100%;'>","null","","","","","","","","","",""
"","html-keyboard-response","105","405579","0.0-8.0-3.3","b1exvcf50o","one_one","1","indirect_first","0","rt06rd12","0","23","1","1","3","1","Ich fand die ganze Umfrage sehr random. Wirkliche Empfindungen gegenüber den Schriftzeichen habe ich gar nicht. Also bin ich mir auch nicht sicher, wie belastbar meine Antworten sind, wenn ich ""gezwungen"" werde, einzustufen, wie ich die Zeichen finde.
In Summe eine sehr komische Umfrage...","0","1","0","994","","","<img src = 'targets/mask.png' width = '100%;'>","68","neg","GS","GSold","1","category1/CS2.png","targets/27.png","0","indirect","3",""
"","html-keyboard-response","106","407105","0.0-8.0-0.4","b1exvcf50o","one_one","1","indirect_first","0","rt06rd12","0","23","1","1","3","1","Ich fand die ganze Umfrage sehr random. Wirkliche Empfindungen gegenüber den Schriftzeichen habe ich gar nicht. Also bin ich mir auch nicht sicher, wie belastbar meine Antworten sind, wenn ich ""gezwungen"" werde, einzustufen, wie ich die Zeichen finde.
In Summe eine sehr komische Umfrage...","0","1","0","null","","","<div style=""font-size:60px;"">+</div>","null","","","","","","","","","",""
"","html-keyboard-response","107","407204","0.0-8.0-1.4","b1exvcf50o","one_one","1","indirect_first","0","rt06rd12","0","23","1","1","3","1","Ich fand die ganze Umfrage sehr random. Wirkliche Empfindungen gegenüber den Schriftzeichen habe ich gar nicht. Also bin ich mir auch nicht sicher, wie belastbar meine Antworten sind, wenn ich ""gezwungen"" werde, einzustufen, wie ich die Zeichen finde.
In Summe eine sehr komische Umfrage...","0","1","0","null","","","<img src = 'category3/CS3.png' width = '100%;'>","null","","","","","","","","","",""
"","html-keyboard-response","108","407485","0.0-8.0-2.4","b1exvcf50o","one_one","1","indirect_first","0","rt06rd12","0","23","1","1","3","1","Ich fand die ganze Umfrage sehr random. Wirkliche Empfindungen gegenüber den Schriftzeichen habe ich gar nicht. Also bin ich mir auch nicht sicher, wie belastbar meine Antworten sind, wenn ich ""gezwungen"" werde, einzustufen, wie ich die Zeichen finde.
In Summe eine sehr komische Umfrage...","0","1","0","null","","","<img src = 'targets/20.png' width = '100%;'>","null","","","","","","","","","",""
"","html-keyboard-response","109","408149","0.0-8.0-3.4","b1exvcf50o","one_one","1","indirect_first","0","rt06rd12","0","23","1","1","3","1","Ich fand die ganze Umfrage sehr random. Wirkliche Empfindungen gegenüber den Schriftzeichen habe ich gar nicht. Also bin ich mir auch nicht sicher, wie belastbar meine Antworten sind, wenn ich ""gezwungen"" werde, einzustufen, wie ich die Zeichen finde.
In Summe eine sehr komische Umfrage...","0","1","0","664","","","<img src = 'targets/mask.png' width = '100%;'>","68","neg","CS","CS","3","category3/CS3.png","targets/20.png","0","indirect","4",""
"","html-keyboard-response","110","409674","0.0-8.0-0.5","b1exvcf50o","one_one","1","indirect_first","0","rt06rd12","0","23","1","1","3","1","Ich fand die ganze Umfrage sehr random. Wirkliche Empfindungen gegenüber den Schriftzeichen habe ich gar nicht. Also bin ich mir auch nicht sicher, wie belastbar meine Antworten sind, wenn ich ""gezwungen"" werde, einzustufen, wie ich die Zeichen finde.
In Summe eine sehr komische Umfrage...","0","1","0","null","","","<div style=""font-size:60px;"">+</div>","null","","","","","","","","","",""
"","html-keyboard-response","111","409774","0.0-8.0-1.5","b1exvcf50o","one_one","1","indirect_first","0","rt06rd12","0","23","1","1","3","1","Ich fand die ganze Umfrage sehr random. Wirkliche Empfindungen gegenüber den Schriftzeichen habe ich gar nicht. Also bin ich mir auch nicht sicher, wie belastbar meine Antworten sind, wenn ich ""gezwungen"" werde, einzustufen, wie ich die Zeichen finde.
In Summe eine sehr komische Umfrage...","0","1","0","null","","","<img src = 'category3/CS5.png' width = '100%;'>","null","","","","","","","","","",""
"","html-keyboard-response","112","410045","0.0-8.0-2.5","b1exvcf50o","one_one","1","indirect_first","0","rt06rd12","0","23","1","1","3","1","Ich fand die ganze Umfrage sehr random. Wirkliche Empfindungen gegenüber den Schriftzeichen habe ich gar nicht. Also bin ich mir auch nicht sicher, wie belastbar meine Antworten sind, wenn ich ""gezwungen"" werde, einzustufen, wie ich die Zeichen finde.
In Summe eine sehr komische Umfrage...","0","1","0","null","","","<img src = 'targets/26.png' width = '100%;'>","null","","","","","","","","","",""
"","html-keyboard-response","113","411499","0.0-8.0-3.5","b1exvcf50o","one_one","1","indirect_first","0","rt06rd12","0","23","1","1","3","1","Ich fand die ganze Umfrage sehr random. Wirkliche Empfindungen gegenüber den Schriftzeichen habe ich gar nicht. Also bin ich mir auch nicht sicher, wie belastbar meine Antworten sind, wenn ich ""gezwungen"" werde, einzustufen, wie ich die Zeichen finde.
In Summe eine sehr komische Umfrage...","0","1","0","1452","","","<img src = 'targets/mask.png' width = '100%;'>","68","neg","GS","GSold","3","category3/CS5.png","targets/26.png","0","indirect","5",""
"","html-keyboard-response","114","413005","0.0-8.0-0.6","b1exvcf50o","one_one","1","indirect_first","0","rt06rd12","0","23","1","1","3","1","Ich fand die ganze Umfrage sehr random. Wirkliche Empfindungen gegenüber den Schriftzeichen habe ich gar nicht. Also bin ich mir auch nicht sicher, wie belastbar meine Antworten sind, wenn ich ""gezwungen"" werde, einzustufen, wie ich die Zeichen finde.
In Summe eine sehr komische Umfrage...","0","1","0","null","","","<div style=""font-size:60px;"">+</div>","null","","","","","","","","","",""
"","html-keyboard-response","115","413104","0.0-8.0-1.6","b1exvcf50o","one_one","1","indirect_first","0","rt06rd12","0","23","1","1","3","1","Ich fand die ganze Umfrage sehr random. Wirkliche Empfindungen gegenüber den Schriftzeichen habe ich gar nicht. Also bin ich mir auch nicht sicher, wie belastbar meine Antworten sind, wenn ich ""gezwungen"" werde, einzustufen, wie ich die Zeichen finde.
In Summe eine sehr komische Umfrage...","0","1","0","null","","","<img src = 'category4/CS2.png' width = '100%;'>","null","","","","","","","","","",""
"","html-keyboard-response","116","413385","0.0-8.0-2.6","b1exvcf50o","one_one","1","indirect_first","0","rt06rd12","0","23","1","1","3","1","Ich fand die ganze Umfrage sehr random. Wirkliche Empfindungen gegenüber den Schriftzeichen habe ich gar nicht. Also bin ich mir auch nicht sicher, wie belastbar meine Antworten sind, wenn ich ""gezwungen"" werde, einzustufen, wie ich die Zeichen finde.
In Summe eine sehr komische Umfrage...","0","1","0","null","","","<img src = 'targets/44.png' width = '100%;'>","null","","","","","","","","","",""
"","html-keyboard-response","117","414050","0.0-8.0-3.6","b1exvcf50o","one_one","1","indirect_first","0","rt06rd12","0","23","1","1","3","1","Ich fand die ganze Umfrage sehr random. Wirkliche Empfindungen gegenüber den Schriftzeichen habe ich gar nicht. Also bin ich mir auch nicht sicher, wie belastbar meine Antworten sind, wenn ich ""gezwungen"" werde, einzustufen, wie ich die Zeichen finde.
In Summe eine sehr komische Umfrage...","0","1","0","664","","","<img src = 'targets/mask.png' width = '100%;'>","75","pos","GS","GSold","4","category4/CS2.png","targets/44.png","1","indirect","6",""
"","html-keyboard-response","118","415565","0.0-8.0-0.7","b1exvcf50o","one_one","1","indirect_first","0","rt06rd12","0","23","1","1","3","1","Ich fand die ganze Umfrage sehr random. Wirkliche Empfindungen gegenüber den Schriftzeichen habe ich gar nicht. Also bin ich mir auch nicht sicher, wie belastbar meine Antworten sind, wenn ich ""gezwungen"" werde, einzustufen, wie ich die Zeichen finde.
In Summe eine sehr komische Umfrage...","0","1","0","null","","","<div style=""font-size:60px;"">+</div>","null","","","","","","","","","",""
"","html-keyboard-response","119","415675","0.0-8.0-1.7","b1exvcf50o","one_one","1","indirect_first","0","rt06rd12","0","23","1","1","3","1","Ich fand die ganze Umfrage sehr random. Wirkliche Empfindungen gegenüber den Schriftzeichen habe ich gar nicht. Also bin ich mir auch nicht sicher, wie belastbar meine Antworten sind, wenn ich ""gezwungen"" werde, einzustufen, wie ich die Zeichen finde.
In Summe eine sehr komische Umfrage...","0","1","0","null","","","<img src = 'category4/CS6.png' width = '100%;'>","null","","","","","","","","","",""
"","html-keyboard-response","120","415954","0.0-8.0-2.7","b1exvcf50o","one_one","1","indirect_first","0","rt06rd12","0","23","1","1","3","1","Ich fand die ganze Umfrage sehr random. Wirkliche Empfindungen gegenüber den Schriftzeichen habe ich gar nicht. Also bin ich mir auch nicht sicher, wie belastbar meine Antworten sind, wenn ich ""gezwungen"" werde, einzustufen, wie ich die Zeichen finde.
In Summe eine sehr komische Umfrage...","0","1","0","null","","","<img src = 'targets/42.png' width = '100%;'>","null","","","","","","","","","",""
"","html-keyboard-response","121","416579","0.0-8.0-3.7","b1exvcf50o","one_one","1","indirect_first","0","rt06rd12","0","23","1","1","3","1","Ich fand die ganze Umfrage sehr random. Wirkliche Empfindungen gegenüber den Schriftzeichen habe ich gar nicht. Also bin ich mir auch nicht sicher, wie belastbar meine Antworten sind, wenn ich ""gezwungen"" werde, einzustufen, wie ich die Zeichen finde.
In Summe eine sehr komische Umfrage...","0","1","0","622","","","<img src = 'targets/mask.png' width = '100%;'>","75","pos","GS","GSold","4","category4/CS6.png","targets/42.png","1","indirect","7",""
"","html-keyboard-response","122","418105","0.0-8.0-0.8","b1exvcf50o","one_one","1","indirect_first","0","rt06rd12","0","23","1","1","3","1","Ich fand die ganze Umfrage sehr random. Wirkliche Empfindungen gegenüber den Schriftzeichen habe ich gar nicht. Also bin ich mir auch nicht sicher, wie belastbar meine Antworten sind, wenn ich ""gezwungen"" werde, einzustufen, wie ich die Zeichen finde.
In Summe eine sehr komische Umfrage...","0","1","0","null","","","<div style=""font-size:60px;"">+</div>","null","","","","","","","","","",""
"","html-keyboard-response","123","418205","0.0-8.0-1.8","b1exvcf50o","one_one","1","indirect_first","0","rt06rd12","0","23","1","1","3","1","Ich fand die ganze Umfrage sehr random. Wirkliche Empfindungen gegenüber den Schriftzeichen habe ich gar nicht. Also bin ich mir auch nicht sicher, wie belastbar meine Antworten sind, wenn ich ""gezwungen"" werde, einzustufen, wie ich die Zeichen finde.
In Summe eine sehr komische Umfrage...","0","1","0","null","","","<img src = 'category2/CS7.png' width = '100%;'>","null","","","","","","","","","",""
"","html-keyboard-response","124","418475","0.0-8.0-2.8","b1exvcf50o","one_one","1","indirect_first","0","rt06rd12","0","23","1","1","3","1","Ich fand die ganze Umfrage sehr random. Wirkliche Empfindungen gegenüber den Schriftzeichen habe ich gar nicht. Also bin ich mir auch nicht sicher, wie belastbar meine Antworten sind, wenn ich ""gezwungen"" werde, einzustufen, wie ich die Zeichen finde.
In Summe eine sehr komische Umfrage...","0","1","0","null","","","<img src = 'targets/28.png' width = '100%;'>","null","","","","","","","","","",""
"","html-keyboard-response","125","419139","0.0-8.0-3.8","b1exvcf50o","one_one","1","indirect_first","0","rt06rd12","0","23","1","1","3","1","Ich fand die ganze Umfrage sehr random. Wirkliche Empfindungen gegenüber den Schriftzeichen habe ich gar nicht. Also bin ich mir auch nicht sicher, wie belastbar meine Antworten sind, wenn ich ""gezwungen"" werde, einzustufen, wie ich die Zeichen finde.
In Summe eine sehr komische Umfrage...","0","1","0","663","","","<img src = 'targets/mask.png' width = '100%;'>","75","pos","CS","CS","2","category2/CS7.png","targets/28.png","1","indirect","8",""
"","html-keyboard-response","126","420675","0.0-8.0-0.9","b1exvcf50o","one_one","1","indirect_first","0","rt06rd12","0","23","1","1","3","1","Ich fand die ganze Umfrage sehr random. Wirkliche Empfindungen gegenüber den Schriftzeichen habe ich gar nicht. Also bin ich mir auch nicht sicher, wie belastbar meine Antworten sind, wenn ich ""gezwungen"" werde, einzustufen, wie ich die Zeichen finde.
In Summe eine sehr komische Umfrage...","0","1","0","null","","","<div style=""font-size:60px;"">+</div>","null","","","","","","","","","",""
"","html-keyboard-response","127","420775","0.0-8.0-1.9","b1exvcf50o","one_one","1","indirect_first","0","rt06rd12","0","23","1","1","3","1","Ich fand die ganze Umfrage sehr random. Wirkliche Empfindungen gegenüber den Schriftzeichen habe ich gar nicht. Also bin ich mir auch nicht sicher, wie belastbar meine Antworten sind, wenn ich ""gezwungen"" werde, einzustufen, wie ich die Zeichen finde.
In Summe eine sehr komische Umfrage...","0","1","0","null","","","<img src = 'category3/CS7.png' width = '100%;'>","null","","","","","","","","","",""
"","html-keyboard-response","128","421052","0.0-8.0-2.9","b1exvcf50o","one_one","1","indirect_first","0","rt06rd12","0","23","1","1","3","1","Ich fand die ganze Umfrage sehr random. Wirkliche Empfindungen gegenüber den Schriftzeichen habe ich gar nicht. Also bin ich mir auch nicht sicher, wie belastbar meine Antworten sind, wenn ich ""gezwungen"" werde, einzustufen, wie ich die Zeichen finde.
In Summe eine sehr komische Umfrage...","0","1","0","null","","","<img src = 'targets/5.png' width = '100%;'>","null","","","","","","","","","",""
"","html-keyboard-response","129","422359","0.0-8.0-3.9","b1exvcf50o","one_one","1","indirect_first","0","rt06rd12","0","23","1","1","3","1","Ich fand die ganze Umfrage sehr random. Wirkliche Empfindungen gegenüber den Schriftzeichen habe ich gar nicht. Also bin ich mir auch nicht sicher, wie belastbar meine Antworten sind, wenn ich ""gezwungen"" werde, einzustufen, wie ich die Zeichen finde.
In Summe eine sehr komische Umfrage...","0","1","0","1306","","","<img src = 'targets/mask.png' width = '100%;'>","68","neg","GS","GSold","3","category3/CS7.png","targets/5.png","0","indirect","9",""
"","html-keyboard-response","130","423895","0.0-8.0-0.10","b1exvcf50o","one_one","1","indirect_first","0","rt06rd12","0","23","1","1","3","1","Ich fand die ganze Umfrage sehr random. Wirkliche Empfindungen gegenüber den Schriftzeichen habe ich gar nicht. Also bin ich mir auch nicht sicher, wie belastbar meine Antworten sind, wenn ich ""gezwungen"" werde, einzustufen, wie ich die Zeichen finde.
In Summe eine sehr komische Umfrage...","0","1","0","null","","","<div style=""font-size:60px;"">+</div>","null","","","","","","","","","",""
"","html-keyboard-response","131","423995","0.0-8.0-1.10","b1exvcf50o","one_one","1","indirect_first","0","rt06rd12","0","23","1","1","3","1","Ich fand die ganze Umfrage sehr random. Wirkliche Empfindungen gegenüber den Schriftzeichen habe ich gar nicht. Also bin ich mir auch nicht sicher, wie belastbar meine Antworten sind, wenn ich ""gezwungen"" werde, einzustufen, wie ich die Zeichen finde.
In Summe eine sehr komische Umfrage...","0","1","0","null","","","<img src = 'category1/CS4.png' width = '100%;'>","null","","","","","","","","","",""
"","html-keyboard-response","132","424265","0.0-8.0-2.10","b1exvcf50o","one_one","1","indirect_first","0","rt06rd12","0","23","1","1","3","1","Ich fand die ganze Umfrage sehr random. Wirkliche Empfindungen gegenüber den Schriftzeichen habe ich gar nicht. Also bin ich mir auch nicht sicher, wie belastbar meine Antworten sind, wenn ich ""gezwungen"" werde, einzustufen, wie ich die Zeichen finde.
In Summe eine sehr komische Umfrage...","0","1","0","null","","","<img src = 'targets/19.png' width = '100%;'>","null","","","","","","","","","",""
"","html-keyboard-response","133","425110","0.0-8.0-3.10","b1exvcf50o","one_one","1","indirect_first","0","rt06rd12","0","23","1","1","3","1","Ich fand die ganze Umfrage sehr random. Wirkliche Empfindungen gegenüber den Schriftzeichen habe ich gar nicht. Also bin ich mir auch nicht sicher, wie belastbar meine Antworten sind, wenn ich ""gezwungen"" werde, einzustufen, wie ich die Zeichen finde.
In Summe eine sehr komische Umfrage...","0","1","0","843","","","<img src = 'targets/mask.png' width = '100%;'>","75","neg","CS","CS","1","category1/CS4.png","targets/19.png","1","indirect","10",""
"","html-keyboard-response","134","426635","0.0-8.0-0.11","b1exvcf50o","one_one","1","indirect_first","0","rt06rd12","0","23","1","1","3","1","Ich fand die ganze Umfrage sehr random. Wirkliche Empfindungen gegenüber den Schriftzeichen habe ich gar nicht. Also bin ich mir auch nicht sicher, wie belastbar meine Antworten sind, wenn ich ""gezwungen"" werde, einzustufen, wie ich die Zeichen finde.
In Summe eine sehr komische Umfrage...","0","1","0","null","","","<div style=""font-size:60px;"">+</div>","null","","","","","","","","","",""
"","html-keyboard-response","135","426735","0.0-8.0-1.11","b1exvcf50o","one_one","1","indirect_first","0","rt06rd12","0","23","1","1","3","1","Ich fand die ganze Umfrage sehr random. Wirkliche Empfindungen gegenüber den Schriftzeichen habe ich gar nicht. Also bin ich mir auch nicht sicher, wie belastbar meine Antworten sind, wenn ich ""gezwungen"" werde, einzustufen, wie ich die Zeichen finde.
In Summe eine sehr komische Umfrage...","0","1","0","null","","","<img src = 'category2/CS1.png' width = '100%;'>","null","","","","","","","","","",""
"","html-keyboard-response","136","427015","0.0-8.0-2.11","b1exvcf50o","one_one","1","indirect_first","0","rt06rd12","0","23","1","1","3","1","Ich fand die ganze Umfrage sehr random. Wirkliche Empfindungen gegenüber den Schriftzeichen habe ich gar nicht. Also bin ich mir auch nicht sicher, wie belastbar meine Antworten sind, wenn ich ""gezwungen"" werde, einzustufen, wie ich die Zeichen finde.
In Summe eine sehr komische Umfrage...","0","1","0","null","","","<img src = 'targets/24.png' width = '100%;'>","null","","","","","","","","","",""
"","html-keyboard-response","137","427629","0.0-8.0-3.11","b1exvcf50o","one_one","1","indirect_first","0","rt06rd12","0","23","1","1","3","1","Ich fand die ganze Umfrage sehr random. Wirkliche Empfindungen gegenüber den Schriftzeichen habe ich gar nicht. Also bin ich mir auch nicht sicher, wie belastbar meine Antworten sind, wenn ich ""gezwungen"" werde, einzustufen, wie ich die Zeichen finde.
In Summe eine sehr komische Umfrage...","0","1","0","613","","","<img src = 'targets/mask.png' width = '100%;'>","75","pos","GS","GSold","2","category2/CS1.png","targets/24.png","1","indirect","11",""
"","html-keyboard-response","138","429165","0.0-8.0-0.12","b1exvcf50o","one_one","1","indirect_first","0","rt06rd12","0","23","1","1","3","1","Ich fand die ganze Umfrage sehr random. Wirkliche Empfindungen gegenüber den Schriftzeichen habe ich gar nicht. Also bin ich mir auch nicht sicher, wie belastbar meine Antworten sind, wenn ich ""gezwungen"" werde, einzustufen, wie ich die Zeichen finde.
In Summe eine sehr komische Umfrage...","0","1","0","null","","","<div style=""font-size:60px;"">+</div>","null","","","","","","","","","",""
"","html-keyboard-response","139","429265","0.0-8.0-1.12","b1exvcf50o","one_one","1","indirect_first","0","rt06rd12","0","23","1","1","3","1","Ich fand die ganze Umfrage sehr random. Wirkliche Empfindungen gegenüber den Schriftzeichen habe ich gar nicht. Also bin ich mir auch nicht sicher, wie belastbar meine Antworten sind, wenn ich ""gezwungen"" werde, einzustufen, wie ich die Zeichen finde.
In Summe eine sehr komische Umfrage...","0","1","0","null","","","<img src = 'category1/CS3.png' width = '100%;'>","null","","","","","","","","","",""
"","html-keyboard-response","140","429535","0.0-8.0-2.12","b1exvcf50o","one_one","1","indirect_first","0","rt06rd12","0","23","1","1","3","1","Ich fand die ganze Umfrage sehr random. Wirkliche Empfindungen gegenüber den Schriftzeichen habe ich gar nicht. Also bin ich mir auch nicht sicher, wie belastbar meine Antworten sind, wenn ich ""gezwungen"" werde, einzustufen, wie ich die Zeichen finde.
In Summe eine sehr komische Umfrage...","0","1","0","null","","","<img src = 'targets/29.png' width = '100%;'>","null","","","","","","","","","",""
"","html-keyboard-response","141","430130","0.0-8.0-3.12","b1exvcf50o","one_one","1","indirect_first","0","rt06rd12","0","23","1","1","3","1","Ich fand die ganze Umfrage sehr random. Wirkliche Empfindungen gegenüber den Schriftzeichen habe ich gar nicht. Also bin ich mir auch nicht sicher, wie belastbar meine Antworten sind, wenn ich ""gezwungen"" werde, einzustufen, wie ich die Zeichen finde.
In Summe eine sehr komische Umfrage...","0","1","0","593","","","<img src = 'targets/mask.png' width = '100%;'>","75","neg","GS","GSold","1","category1/CS3.png","targets/29.png","1","indirect","12",""
"","html-keyboard-response","142","431644","0.0-8.0-0.13","b1exvcf50o","one_one","1","indirect_first","0","rt06rd12","0","23","1","1","3","1","Ich fand die ganze Umfrage sehr random. Wirkliche Empfindungen gegenüber den Schriftzeichen habe ich gar nicht. Also bin ich mir auch nicht sicher, wie belastbar meine Antworten sind, wenn ich ""gezwungen"" werde, einzustufen, wie ich die Zeichen finde.
In Summe eine sehr komische Umfrage...","0","1","0","null","","","<div style=""font-size:60px;"">+</div>","null","","","","","","","","","",""
"","html-keyboard-response","143","431745","0.0-8.0-1.13","b1exvcf50o","one_one","1","indirect_first","0","rt06rd12","0","23","1","1","3","1","Ich fand die ganze Umfrage sehr random. Wirkliche Empfindungen gegenüber den Schriftzeichen habe ich gar nicht. Also bin ich mir auch nicht sicher, wie belastbar meine Antworten sind, wenn ich ""gezwungen"" werde, einzustufen, wie ich die Zeichen finde.
In Summe eine sehr komische Umfrage...","0","1","0","null","","","<img src = 'category4/CS7.png' width = '100%;'>","null","","","","","","","","","",""
"","html-keyboard-response","144","432015","0.0-8.0-2.13","b1exvcf50o","one_one","1","indirect_first","0","rt06rd12","0","23","1","1","3","1","Ich fand die ganze Umfrage sehr random. Wirkliche Empfindungen gegenüber den Schriftzeichen habe ich gar nicht. Also bin ich mir auch nicht sicher, wie belastbar meine Antworten sind, wenn ich ""gezwungen"" werde, einzustufen, wie ich die Zeichen finde.
In Summe eine sehr komische Umfrage...","0","1","0","null","","","<img src = 'targets/35.png' width = '100%;'>","null","","","","","","","","","",""
"","html-keyboard-response","145","432688","0.0-8.0-3.13","b1exvcf50o","one_one","1","indirect_first","0","rt06rd12","0","23","1","1","3","1","Ich fand die ganze Umfrage sehr random. Wirkliche Empfindungen gegenüber den Schriftzeichen habe ich gar nicht. Also bin ich mir auch nicht sicher, wie belastbar meine Antworten sind, wenn ich ""gezwungen"" werde, einzustufen, wie ich die Zeichen finde.
In Summe eine sehr komische Umfrage...","0","1","0","674","","","<img src = 'targets/mask.png' width = '100%;'>","75","pos","GS","GSold","4","category4/CS7.png","targets/35.png","1","indirect","13",""
"","html-keyboard-response","146","434205","0.0-8.0-0.14","b1exvcf50o","one_one","1","indirect_first","0","rt06rd12","0","23","1","1","3","1","Ich fand die ganze Umfrage sehr random. Wirkliche Empfindungen gegenüber den Schriftzeichen habe ich gar nicht. Also bin ich mir auch nicht sicher, wie belastbar meine Antworten sind, wenn ich ""gezwungen"" werde, einzustufen, wie ich die Zeichen finde.
In Summe eine sehr komische Umfrage...","0","1","0","null","","","<div style=""font-size:60px;"">+</div>","null","","","","","","","","","",""
"","html-keyboard-response","147","434305","0.0-8.0-1.14","b1exvcf50o","one_one","1","indirect_first","0","rt06rd12","0","23","1","1","3","1","Ich fand die ganze Umfrage sehr random. Wirkliche Empfindungen gegenüber den Schriftzeichen habe ich gar nicht. Also bin ich mir auch nicht sicher, wie belastbar meine Antworten sind, wenn ich ""gezwungen"" werde, einzustufen, wie ich die Zeichen finde.
In Summe eine sehr komische Umfrage...","0","1","0","null","","","<img src = 'category2/CS3.png' width = '100%;'>","null","","","","","","","","","",""
"","html-keyboard-response","148","434585","0.0-8.0-2.14","b1exvcf50o","one_one","1","indirect_first","0","rt06rd12","0","23","1","1","3","1","Ich fand die ganze Umfrage sehr random. Wirkliche Empfindungen gegenüber den Schriftzeichen habe ich gar nicht. Also bin ich mir auch nicht sicher, wie belastbar meine Antworten sind, wenn ich ""gezwungen"" werde, einzustufen, wie ich die Zeichen finde.
In Summe eine sehr komische Umfrage...","0","1","0","null","","","<img src = 'targets/3.png' width = '100%;'>","null","","","","","","","","","",""
"","html-keyboard-response","149","435160","0.0-8.0-3.14","b1exvcf50o","one_one","1","indirect_first","0","rt06rd12","0","23","1","1","3","1","Ich fand die ganze Umfrage sehr random. Wirkliche Empfindungen gegenüber den Schriftzeichen habe ich gar nicht. Also bin ich mir auch nicht sicher, wie belastbar meine Antworten sind, wenn ich ""gezwungen"" werde, einzustufen, wie ich die Zeichen finde.
In Summe eine sehr komische Umfrage...","0","1","0","573","","","<img src = 'targets/mask.png' width = '100%;'>","68","pos","GS","GSold","2","category2/CS3.png","targets/3.png","0","indirect","14",""
"","html-keyboard-response","150","436695","0.0-8.0-0.15","b1exvcf50o","one_one","1","indirect_first","0","rt06rd12","0","23","1","1","3","1","Ich fand die ganze Umfrage sehr random. Wirkliche Empfindungen gegenüber den Schriftzeichen habe ich gar nicht. Also bin ich mir auch nicht sicher, wie belastbar meine Antworten sind, wenn ich ""gezwungen"" werde, einzustufen, wie ich die Zeichen finde.
In Summe eine sehr komische Umfrage...","0","1","0","null","","","<div style=""font-size:60px;"">+</div>","null","","","","","","","","","",""
"","html-keyboard-response","151","436795","0.0-8.0-1.15","b1exvcf50o","one_one","1","indirect_first","0","rt06rd12","0","23","1","1","3","1","Ich fand die ganze Umfrage sehr random. Wirkliche Empfindungen gegenüber den Schriftzeichen habe ich gar nicht. Also bin ich mir auch nicht sicher, wie belastbar meine Antworten sind, wenn ich ""gezwungen"" werde, einzustufen, wie ich die Zeichen finde.
In Summe eine sehr komische Umfrage...","0","1","0","null","","","<img src = 'category3/CS8.png' width = '100%;'>","null","","","","","","","","","",""
"","html-keyboard-response","152","437076","0.0-8.0-2.15","b1exvcf50o","one_one","1","indirect_first","0","rt06rd12","0","23","1","1","3","1","Ich fand die ganze Umfrage sehr random. Wirkliche Empfindungen gegenüber den Schriftzeichen habe ich gar nicht. Also bin ich mir auch nicht sicher, wie belastbar meine Antworten sind, wenn ich ""gezwungen"" werde, einzustufen, wie ich die Zeichen finde.
In Summe eine sehr komische Umfrage...","0","1","0","null","","","<img src = 'targets/34.png' width = '100%;'>","null","","","","","","","","","",""
"","html-keyboard-response","153","437529","0.0-8.0-3.15","b1exvcf50o","one_one","1","indirect_first","0","rt06rd12","0","23","1","1","3","1","Ich fand die ganze Umfrage sehr random. Wirkliche Empfindungen gegenüber den Schriftzeichen habe ich gar nicht. Also bin ich mir auch nicht sicher, wie belastbar meine Antworten sind, wenn ich ""gezwungen"" werde, einzustufen, wie ich die Zeichen finde.
In Summe eine sehr komische Umfrage...","0","1","0","452","","","<img src = 'targets/mask.png' width = '100%;'>","68","neg","GS","GSold","3","category3/CS8.png","targets/34.png","0","indirect","15",""
"","survey-html-form","154","439990","0.0-9.0","b1exvcf50o","one_one","1","indirect_first","0","rt06rd12","0","23","1","1","3","1","Ich fand die ganze Umfrage sehr random. Wirkliche Empfindungen gegenüber den Schriftzeichen habe ich gar nicht. Also bin ich mir auch nicht sicher, wie belastbar meine Antworten sind, wenn ich ""gezwungen"" werde, einzustufen, wie ich die Zeichen finde.
In Summe eine sehr komische Umfrage...","0","1","0","1945","","{}","","","","","","","","","","","",""
"","html-keyboard-response","155","443015","0.0-10.0-0.0","b1exvcf50o","one_one","1","indirect_first","0","rt06rd12","0","23","1","1","3","1","Ich fand die ganze Umfrage sehr random. Wirkliche Empfindungen gegenüber den Schriftzeichen habe ich gar nicht. Also bin ich mir auch nicht sicher, wie belastbar meine Antworten sind, wenn ich ""gezwungen"" werde, einzustufen, wie ich die Zeichen finde.
In Summe eine sehr komische Umfrage...","0","1","0","null","","","<div style=""font-size:60px;"">+</div>","null","","","","","","","","","",""
"","html-keyboard-response","156","443115","0.0-10.0-1.0","b1exvcf50o","one_one","1","indirect_first","0","rt06rd12","0","23","1","1","3","1","Ich fand die ganze Umfrage sehr random. Wirkliche Empfindungen gegenüber den Schriftzeichen habe ich gar nicht. Also bin ich mir auch nicht sicher, wie belastbar meine Antworten sind, wenn ich ""gezwungen"" werde, einzustufen, wie ich die Zeichen finde.
In Summe eine sehr komische Umfrage...","0","1","0","null","","","<img src = 'category2/GS3.png' width = '100%;'>","null","","","","","","","","","",""
