"success","trial_type","trial_index","time_elapsed","internal_node_id","subject","condition","condition_code","measure","measure_code","codeword","gender","age","education","chinese","fach","handedness","comment","hinschauen","ablenkung","gewissenhaft","rt","url","responses","stimulus","key_press","val","type","type_specific","category","cs_selected","response","target","task","indirect","nr_pres"
"true","fullscreen","0","6659","0.0-0.0","sd69585ngp","one_one","1","direct_first","1","HM05ND30","0","33","1","1","3","1","Es war alles einfach zu verstehen.","0","1","0","","","","","","","","","","","","","","",""
"","external-html","1","19972","0.0-1.0","sd69585ngp","one_one","1","direct_first","1","HM05ND30","0","33","1","1","3","1","Es war alles einfach zu verstehen.","0","1","0","13246.069999877363","text/information.html","","","","","","","","","","","","",""
"","external-html","2","45112","0.0-2.0","sd69585ngp","one_one","1","direct_first","1","HM05ND30","0","33","1","1","3","1","Es war alles einfach zu verstehen.","0","1","0","25011.24000013806","text/consent.html","","","","","","","","","","","","",""
"","survey-html-form","3","111239","0.0-3.0","sd69585ngp","one_one","1","direct_first","1","HM05ND30","0","33","1","1","3","1","Es war alles einfach zu verstehen.","0","1","0","66122.28500004858","","{""codeword_enter"":""HM05ND30""}","","","","","","","","","","","",""
"","survey-html-form","4","136473","0.0-4.0","sd69585ngp","one_one","1","direct_first","1","HM05ND30","0","33","1","1","3","1","Es war alles einfach zu verstehen.","0","1","0","25226.534999907017","","{""age"":""33"",""education"":""1"",""subject"":""3"",""gender"":""0"",""handedness"":""1"",""chinese"":""1""}","","","","","","","","","","","",""
"","survey-html-form","5","826999","0.0-5.0","sd69585ngp","one_one","1","direct_first","1","HM05ND30","0","33","1","1","3","1","Es war alles einfach zu verstehen.","0","1","0","690520.0199999381","","{}","","","","","","","","","","","",""
"","html-keyboard-response","6","831020","0.0-6.0-0.0-0.0","sd69585ngp","one_one","1","direct_first","1","HM05ND30","0","33","1","1","3","1","Es war alles einfach zu verstehen.","0","1","0","null","","","<div class = 'row'><div class = 'column'><img src = 'usneg/2750.bmp' width = '100%;'></div><div class = 'column'><img src = 'category1/CS7.png' width = '70%;'></div></div>","null","neg","CS","CS","1","category1/CS7.png","","","","",""
"","html-keyboard-response","7","833537","0.0-6.0-0.0-0.1","sd69585ngp","one_one","1","direct_first","1","HM05ND30","0","33","1","1","3","1","Es war alles einfach zu verstehen.","0","1","0","null","","","<div class = 'row'><div class = 'column'><img src = 'category2/CS10.png' width = '70%;'></div><div class = 'column'><img src = 'uspos/2150.bmp' width = '100%;'></div></div>","null","pos","CS","CS","2","category2/CS10.png","","","","",""
"","html-keyboard-response","8","836048","0.0-6.0-0.0-0.2","sd69585ngp","one_one","1","direct_first","1","HM05ND30","0","33","1","1","3","1","Es war alles einfach zu verstehen.","0","1","0","null","","","<div class = 'row'><div class = 'column'><img src = 'category3/CS5.png' width = '70%;'></div><div class = 'column'><img src = 'usneg/9000.bmp' width = '100%;'></div></div>","null","neg","CS","CS","3","category3/CS5.png","","","","",""
"","html-keyboard-response","9","838575","0.0-6.0-0.0-0.3","sd69585ngp","one_one","1","direct_first","1","HM05ND30","0","33","1","1","3","1","Es war alles einfach zu verstehen.","0","1","0","null","","","<div class = 'row'><div class = 'column'><img src = 'category1/CS7.png' width = '70%;'></div><div class = 'column'><img src = 'usneg/2750.bmp' width = '100%;'></div></div>","null","neg","CS","CS","1","category1/CS7.png","","","","",""
"","html-keyboard-response","10","841095","0.0-6.0-0.0-0.4","sd69585ngp","one_one","1","direct_first","1","HM05ND30","0","33","1","1","3","1","Es war alles einfach zu verstehen.","0","1","0","null","","","<div class = 'row'><div class = 'column'><img src = 'category2/CS10.png' width = '70%;'></div><div class = 'column'><img src = 'uspos/2150.bmp' width = '100%;'></div></div>","null","pos","CS","CS","2","category2/CS10.png","","","","",""
"","html-keyboard-response","11","843613","0.0-6.0-0.0-0.5","sd69585ngp","one_one","1","direct_first","1","HM05ND30","0","33","1","1","3","1","Es war alles einfach zu verstehen.","0","1","0","null","","","<div class = 'row'><div class = 'column'><img src = 'uspos/5600.bmp' width = '100%;'></div><div class = 'column'><img src = 'category4/CS9.png' width = '70%;'></div></div>","null","pos","CS","CS","4","category4/CS9.png","","","","",""
"","html-keyboard-response","12","846131","0.0-6.0-0.0-0.6","sd69585ngp","one_one","1","direct_first","1","HM05ND30","0","33","1","1","3","1","Es war alles einfach zu verstehen.","0","1","0","null","","","<div class = 'row'><div class = 'column'><img src = 'usneg/9000.bmp' width = '100%;'></div><div class = 'column'><img src = 'category3/CS5.png' width = '70%;'></div></div>","null","neg","CS","CS","3","category3/CS5.png","","","","",""
"","html-keyboard-response","13","848648","0.0-6.0-0.0-0.7","sd69585ngp","one_one","1","direct_first","1","HM05ND30","0","33","1","1","3","1","Es war alles einfach zu verstehen.","0","1","0","null","","","<div class = 'row'><div class = 'column'><img src = 'category1/CS7.png' width = '70%;'></div><div class = 'column'><img src = 'usneg/2750.bmp' width = '100%;'></div></div>","null","neg","CS","CS","1","category1/CS7.png","","","","",""
"","html-keyboard-response","14","851167","0.0-6.0-0.0-0.8","sd69585ngp","one_one","1","direct_first","1","HM05ND30","0","33","1","1","3","1","Es war alles einfach zu verstehen.","0","1","0","null","","","<div class = 'row'><div class = 'column'><img src = 'category2/CS10.png' width = '70%;'></div><div class = 'column'><img src = 'uspos/2150.bmp' width = '100%;'></div></div>","null","pos","CS","CS","2","category2/CS10.png","","","","",""
"","html-keyboard-response","15","853683","0.0-6.0-0.0-0.9","sd69585ngp","one_one","1","direct_first","1","HM05ND30","0","33","1","1","3","1","Es war alles einfach zu verstehen.","0","1","0","null","","","<div class = 'row'><div class = 'column'><img src = 'usneg/9000.bmp' width = '100%;'></div><div class = 'column'><img src = 'category3/CS5.png' width = '70%;'></div></div>","null","neg","CS","CS","3","category3/CS5.png","","","","",""
"","html-keyboard-response","16","856201","0.0-6.0-0.0-0.10","sd69585ngp","one_one","1","direct_first","1","HM05ND30","0","33","1","1","3","1","Es war alles einfach zu verstehen.","0","1","0","null","","","<div class = 'row'><div class = 'column'><img src = 'category4/CS9.png' width = '70%;'></div><div class = 'column'><img src = 'uspos/5600.bmp' width = '100%;'></div></div>","null","pos","CS","CS","4","category4/CS9.png","","","","",""
"","html-keyboard-response","17","858713","0.0-6.0-0.0-0.11","sd69585ngp","one_one","1","direct_first","1","HM05ND30","0","33","1","1","3","1","Es war alles einfach zu verstehen.","0","1","0","null","","","<div class = 'row'><div class = 'column'><img src = 'category1/CS7.png' width = '70%;'></div><div class = 'column'><img src = 'usneg/2750.bmp' width = '100%;'></div></div>","null","neg","CS","CS","1","category1/CS7.png","","","","",""
"","html-keyboard-response","18","861230","0.0-6.0-0.0-0.12","sd69585ngp","one_one","1","direct_first","1","HM05ND30","0","33","1","1","3","1","Es war alles einfach zu verstehen.","0","1","0","null","","","<div class = 'row'><div class = 'column'><img src = 'uspos/2150.bmp' width = '100%;'></div><div class = 'column'><img src = 'category2/CS10.png' width = '70%;'></div></div>","null","pos","CS","CS","2","category2/CS10.png","","","","",""
"","html-keyboard-response","19","863746","0.0-6.0-0.0-0.13","sd69585ngp","one_one","1","direct_first","1","HM05ND30","0","33","1","1","3","1","Es war alles einfach zu verstehen.","0","1","0","null","","","<div class = 'row'><div class = 'column'><img src = 'usneg/9000.bmp' width = '100%;'></div><div class = 'column'><img src = 'category3/CS5.png' width = '70%;'></div></div>","null","neg","CS","CS","3","category3/CS5.png","","","","",""
"","html-keyboard-response","20","866278","0.0-6.0-0.0-0.14","sd69585ngp","one_one","1","direct_first","1","HM05ND30","0","33","1","1","3","1","Es war alles einfach zu verstehen.","0","1","0","null","","","<div class = 'row'><div class = 'column'><img src = 'uspos/5600.bmp' width = '100%;'></div><div class = 'column'><img src = 'category4/CS9.png' width = '70%;'></div></div>","null","pos","CS","CS","4","category4/CS9.png","","","","",""
"","html-keyboard-response","21","868795","0.0-6.0-0.0-0.15","sd69585ngp","one_one","1","direct_first","1","HM05ND30","0","33","1","1","3","1","Es war alles einfach zu verstehen.","0","1","0","null","","","<div class = 'row'><div class = 'column'><img src = 'uspos/2150.bmp' width = '100%;'></div><div class = 'column'><img src = 'category2/CS10.png' width = '70%;'></div></div>","null","pos","CS","CS","2","category2/CS10.png","","","","",""
"","html-keyboard-response","22","871309","0.0-6.0-0.0-0.16","sd69585ngp","one_one","1","direct_first","1","HM05ND30","0","33","1","1","3","1","Es war alles einfach zu verstehen.","0","1","0","null","","","<div class = 'row'><div class = 'column'><img src = 'usneg/2750.bmp' width = '100%;'></div><div class = 'column'><img src = 'category1/CS7.png' width = '70%;'></div></div>","null","neg","CS","CS","1","category1/CS7.png","","","","",""
"","html-keyboard-response","23","873830","0.0-6.0-0.0-0.17","sd69585ngp","one_one","1","direct_first","1","HM05ND30","0","33","1","1","3","1","Es war alles einfach zu verstehen.","0","1","0","null","","","<div class = 'row'><div class = 'column'><img src = 'category4/CS9.png' width = '70%;'></div><div class = 'column'><img src = 'uspos/5600.bmp' width = '100%;'></div></div>","null","pos","CS","CS","4","category4/CS9.png","","","","",""
"","html-keyboard-response","24","876353","0.0-6.0-0.0-0.18","sd69585ngp","one_one","1","direct_first","1","HM05ND30","0","33","1","1","3","1","Es war alles einfach zu verstehen.","0","1","0","null","","","<div class = 'row'><div class = 'column'><img src = 'category3/CS5.png' width = '70%;'></div><div class = 'column'><img src = 'usneg/9000.bmp' width = '100%;'></div></div>","null","neg","CS","CS","3","category3/CS5.png","","","","",""
"","html-keyboard-response","25","878867","0.0-6.0-0.0-0.19","sd69585ngp","one_one","1","direct_first","1","HM05ND30","0","33","1","1","3","1","Es war alles einfach zu verstehen.","0","1","0","null","","","<div class = 'row'><div class = 'column'><img src = 'category4/CS9.png' width = '70%;'></div><div class = 'column'><img src = 'uspos/5600.bmp' width = '100%;'></div></div>","null","pos","CS","CS","4","category4/CS9.png","","","","",""
"","survey-html-form","26","884511","0.0-6.0-1.0","sd69585ngp","one_one","1","direct_first","1","HM05ND30","0","33","1","1","3","1","Es war alles einfach zu verstehen.","0","1","0","5140.080000041053","","{}","","","","","","","","","","","",""
"","html-keyboard-response","27","888531","0.0-6.0-2.0-0.0","sd69585ngp","one_one","1","direct_first","1","HM05ND30","0","33","1","1","3","1","Es war alles einfach zu verstehen.","0","1","0","null","","","<div class = 'row'><div class = 'column'><img src = 'category1/CS7.png' width = '70%;'></div><div class = 'column'><img src = 'usneg/2750.bmp' width = '100%;'></div></div>","null","neg","CS","CS","1","category1/CS7.png","","","","",""
"","html-keyboard-response","28","891053","0.0-6.0-2.0-0.1","sd69585ngp","one_one","1","direct_first","1","HM05ND30","0","33","1","1","3","1","Es war alles einfach zu verstehen.","0","1","0","null","","","<div class = 'row'><div class = 'column'><img src = 'category4/CS9.png' width = '70%;'></div><div class = 'column'><img src = 'uspos/5600.bmp' width = '100%;'></div></div>","null","pos","CS","CS","4","category4/CS9.png","","","","",""
"","html-keyboard-response","29","893573","0.0-6.0-2.0-0.2","sd69585ngp","one_one","1","direct_first","1","HM05ND30","0","33","1","1","3","1","Es war alles einfach zu verstehen.","0","1","0","null","","","<div class = 'row'><div class = 'column'><img src = 'category2/CS10.png' width = '70%;'></div><div class = 'column'><img src = 'uspos/2150.bmp' width = '100%;'></div></div>","null","pos","CS","CS","2","category2/CS10.png","","","","",""
"","html-keyboard-response","30","896090","0.0-6.0-2.0-0.3","sd69585ngp","one_one","1","direct_first","1","HM05ND30","0","33","1","1","3","1","Es war alles einfach zu verstehen.","0","1","0","null","","","<div class = 'row'><div class = 'column'><img src = 'usneg/2750.bmp' width = '100%;'></div><div class = 'column'><img src = 'category1/CS7.png' width = '70%;'></div></div>","null","neg","CS","CS","1","category1/CS7.png","","","","",""
"","html-keyboard-response","31","898608","0.0-6.0-2.0-0.4","sd69585ngp","one_one","1","direct_first","1","HM05ND30","0","33","1","1","3","1","Es war alles einfach zu verstehen.","0","1","0","null","","","<div class = 'row'><div class = 'column'><img src = 'category4/CS9.png' width = '70%;'></div><div class = 'column'><img src = 'uspos/5600.bmp' width = '100%;'></div></div>","null","pos","CS","CS","4","category4/CS9.png","","","","",""
"","html-keyboard-response","32","901140","0.0-6.0-2.0-0.5","sd69585ngp","one_one","1","direct_first","1","HM05ND30","0","33","1","1","3","1","Es war alles einfach zu verstehen.","0","1","0","null","","","<div class = 'row'><div class = 'column'><img src = 'category1/CS7.png' width = '70%;'></div><div class = 'column'><img src = 'usneg/2750.bmp' width = '100%;'></div></div>","null","neg","CS","CS","1","category1/CS7.png","","","","",""
"","html-keyboard-response","33","903657","0.0-6.0-2.0-0.6","sd69585ngp","one_one","1","direct_first","1","HM05ND30","0","33","1","1","3","1","Es war alles einfach zu verstehen.","0","1","0","null","","","<div class = 'row'><div class = 'column'><img src = 'category3/CS5.png' width = '70%;'></div><div class = 'column'><img src = 'usneg/9000.bmp' width = '100%;'></div></div>","null","neg","CS","CS","3","category3/CS5.png","","","","",""
"","html-keyboard-response","34","906175","0.0-6.0-2.0-0.7","sd69585ngp","one_one","1","direct_first","1","HM05ND30","0","33","1","1","3","1","Es war alles einfach zu verstehen.","0","1","0","null","","","<div class = 'row'><div class = 'column'><img src = 'category4/CS9.png' width = '70%;'></div><div class = 'column'><img src = 'uspos/5600.bmp' width = '100%;'></div></div>","null","pos","CS","CS","4","category4/CS9.png","","","","",""
"","html-keyboard-response","35","908694","0.0-6.0-2.0-0.8","sd69585ngp","one_one","1","direct_first","1","HM05ND30","0","33","1","1","3","1","Es war alles einfach zu verstehen.","0","1","0","null","","","<div class = 'row'><div class = 'column'><img src = 'usneg/2750.bmp' width = '100%;'></div><div class = 'column'><img src = 'category1/CS7.png' width = '70%;'></div></div>","null","neg","CS","CS","1","category1/CS7.png","","","","",""
"","html-keyboard-response","36","911211","0.0-6.0-2.0-0.9","sd69585ngp","one_one","1","direct_first","1","HM05ND30","0","33","1","1","3","1","Es war alles einfach zu verstehen.","0","1","0","null","","","<div class = 'row'><div class = 'column'><img src = 'category3/CS5.png' width = '70%;'></div><div class = 'column'><img src = 'usneg/9000.bmp' width = '100%;'></div></div>","null","neg","CS","CS","3","category3/CS5.png","","","","",""
"","html-keyboard-response","37","913729","0.0-6.0-2.0-0.10","sd69585ngp","one_one","1","direct_first","1","HM05ND30","0","33","1","1","3","1","Es war alles einfach zu verstehen.","0","1","0","null","","","<div class = 'row'><div class = 'column'><img src = 'category2/CS10.png' width = '70%;'></div><div class = 'column'><img src = 'uspos/2150.bmp' width = '100%;'></div></div>","null","pos","CS","CS","2","category2/CS10.png","","","","",""
"","html-keyboard-response","38","916242","0.0-6.0-2.0-0.11","sd69585ngp","one_one","1","direct_first","1","HM05ND30","0","33","1","1","3","1","Es war alles einfach zu verstehen.","0","1","0","null","","","<div class = 'row'><div class = 'column'><img src = 'category3/CS5.png' width = '70%;'></div><div class = 'column'><img src = 'usneg/9000.bmp' width = '100%;'></div></div>","null","neg","CS","CS","3","category3/CS5.png","","","","",""
"","html-keyboard-response","39","918758","0.0-6.0-2.0-0.12","sd69585ngp","one_one","1","direct_first","1","HM05ND30","0","33","1","1","3","1","Es war alles einfach zu verstehen.","0","1","0","null","","","<div class = 'row'><div class = 'column'><img src = 'uspos/2150.bmp' width = '100%;'></div><div class = 'column'><img src = 'category2/CS10.png' width = '70%;'></div></div>","null","pos","CS","CS","2","category2/CS10.png","","","","",""
"","html-keyboard-response","40","921266","0.0-6.0-2.0-0.13","sd69585ngp","one_one","1","direct_first","1","HM05ND30","0","33","1","1","3","1","Es war alles einfach zu verstehen.","0","1","0","null","","","<div class = 'row'><div class = 'column'><img src = 'uspos/5600.bmp' width = '100%;'></div><div class = 'column'><img src = 'category4/CS9.png' width = '70%;'></div></div>","null","pos","CS","CS","4","category4/CS9.png","","","","",""
"","html-keyboard-response","41","923795","0.0-6.0-2.0-0.14","sd69585ngp","one_one","1","direct_first","1","HM05ND30","0","33","1","1","3","1","Es war alles einfach zu verstehen.","0","1","0","null","","","<div class = 'row'><div class = 'column'><img src = 'category3/CS5.png' width = '70%;'></div><div class = 'column'><img src = 'usneg/9000.bmp' width = '100%;'></div></div>","null","neg","CS","CS","3","category3/CS5.png","","","","",""
"","html-keyboard-response","42","926302","0.0-6.0-2.0-0.15","sd69585ngp","one_one","1","direct_first","1","HM05ND30","0","33","1","1","3","1","Es war alles einfach zu verstehen.","0","1","0","null","","","<div class = 'row'><div class = 'column'><img src = 'uspos/5600.bmp' width = '100%;'></div><div class = 'column'><img src = 'category4/CS9.png' width = '70%;'></div></div>","null","pos","CS","CS","4","category4/CS9.png","","","","",""
"","html-keyboard-response","43","928812","0.0-6.0-2.0-0.16","sd69585ngp","one_one","1","direct_first","1","HM05ND30","0","33","1","1","3","1","Es war alles einfach zu verstehen.","0","1","0","null","","","<div class = 'row'><div class = 'column'><img src = 'uspos/2150.bmp' width = '100%;'></div><div class = 'column'><img src = 'category2/CS10.png' width = '70%;'></div></div>","null","pos","CS","CS","2","category2/CS10.png","","","","",""
"","html-keyboard-response","44","931331","0.0-6.0-2.0-0.17","sd69585ngp","one_one","1","direct_first","1","HM05ND30","0","33","1","1","3","1","Es war alles einfach zu verstehen.","0","1","0","null","","","<div class = 'row'><div class = 'column'><img src = 'category3/CS5.png' width = '70%;'></div><div class = 'column'><img src = 'usneg/9000.bmp' width = '100%;'></div></div>","null","neg","CS","CS","3","category3/CS5.png","","","","",""
"","html-keyboard-response","45","933846","0.0-6.0-2.0-0.18","sd69585ngp","one_one","1","direct_first","1","HM05ND30","0","33","1","1","3","1","Es war alles einfach zu verstehen.","0","1","0","null","","","<div class = 'row'><div class = 'column'><img src = 'category1/CS7.png' width = '70%;'></div><div class = 'column'><img src = 'usneg/2750.bmp' width = '100%;'></div></div>","null","neg","CS","CS","1","category1/CS7.png","","","","",""
"","html-keyboard-response","46","936361","0.0-6.0-2.0-0.19","sd69585ngp","one_one","1","direct_first","1","HM05ND30","0","33","1","1","3","1","Es war alles einfach zu verstehen.","0","1","0","null","","","<div class = 'row'><div class = 'column'><img src = 'category2/CS10.png' width = '70%;'></div><div class = 'column'><img src = 'uspos/2150.bmp' width = '100%;'></div></div>","null","pos","CS","CS","2","category2/CS10.png","","","","",""
"","survey-html-form","47","938908","0.0-6.0-3.0","sd69585ngp","one_one","1","direct_first","1","HM05ND30","0","33","1","1","3","1","Es war alles einfach zu verstehen.","0","1","0","2041.8699998408556","","{}","","","","","","","","","","","",""
"","html-keyboard-response","48","942935","0.0-6.0-4.0-0.0","sd69585ngp","one_one","1","direct_first","1","HM05ND30","0","33","1","1","3","1","Es war alles einfach zu verstehen.","0","1","0","null","","","<div class = 'row'><div class = 'column'><img src = 'category3/CS5.png' width = '70%;'></div><div class = 'column'><img src = 'usneg/9000.bmp' width = '100%;'></div></div>","null","neg","CS","CS","3","category3/CS5.png","","","","",""
"","html-keyboard-response","49","945452","0.0-6.0-4.0-0.1","sd69585ngp","one_one","1","direct_first","1","HM05ND30","0","33","1","1","3","1","Es war alles einfach zu verstehen.","0","1","0","null","","","<div class = 'row'><div class = 'column'><img src = 'uspos/2150.bmp' width = '100%;'></div><div class = 'column'><img src = 'category2/CS10.png' width = '70%;'></div></div>","null","pos","CS","CS","2","category2/CS10.png","","","","",""
"","html-keyboard-response","50","947969","0.0-6.0-4.0-0.2","sd69585ngp","one_one","1","direct_first","1","HM05ND30","0","33","1","1","3","1","Es war alles einfach zu verstehen.","0","1","0","null","","","<div class = 'row'><div class = 'column'><img src = 'category3/CS5.png' width = '70%;'></div><div class = 'column'><img src = 'usneg/9000.bmp' width = '100%;'></div></div>","null","neg","CS","CS","3","category3/CS5.png","","","","",""
"","html-keyboard-response","51","950474","0.0-6.0-4.0-0.3","sd69585ngp","one_one","1","direct_first","1","HM05ND30","0","33","1","1","3","1","Es war alles einfach zu verstehen.","0","1","0","null","","","<div class = 'row'><div class = 'column'><img src = 'uspos/5600.bmp' width = '100%;'></div><div class = 'column'><img src = 'category4/CS9.png' width = '70%;'></div></div>","null","pos","CS","CS","4","category4/CS9.png","","","","",""
"","html-keyboard-response","52","952990","0.0-6.0-4.0-0.4","sd69585ngp","one_one","1","direct_first","1","HM05ND30","0","33","1","1","3","1","Es war alles einfach zu verstehen.","0","1","0","null","","","<div class = 'row'><div class = 'column'><img src = 'uspos/2150.bmp' width = '100%;'></div><div class = 'column'><img src = 'category2/CS10.png' width = '70%;'></div></div>","null","pos","CS","CS","2","category2/CS10.png","","","","",""
"","html-keyboard-response","53","955513","0.0-6.0-4.0-0.5","sd69585ngp","one_one","1","direct_first","1","HM05ND30","0","33","1","1","3","1","Es war alles einfach zu verstehen.","0","1","0","null","","","<div class = 'row'><div class = 'column'><img src = 'category4/CS9.png' width = '70%;'></div><div class = 'column'><img src = 'uspos/5600.bmp' width = '100%;'></div></div>","null","pos","CS","CS","4","category4/CS9.png","","","","",""
"","html-keyboard-response","54","958030","0.0-6.0-4.0-0.6","sd69585ngp","one_one","1","direct_first","1","HM05ND30","0","33","1","1","3","1","Es war alles einfach zu verstehen.","0","1","0","null","","","<div class = 'row'><div class = 'column'><img src = 'category3/CS5.png' width = '70%;'></div><div class = 'column'><img src = 'usneg/9000.bmp' width = '100%;'></div></div>","null","neg","CS","CS","3","category3/CS5.png","","","","",""
"","html-keyboard-response","55","960557","0.0-6.0-4.0-0.7","sd69585ngp","one_one","1","direct_first","1","HM05ND30","0","33","1","1","3","1","Es war alles einfach zu verstehen.","0","1","0","null","","","<div class = 'row'><div class = 'column'><img src = 'usneg/2750.bmp' width = '100%;'></div><div class = 'column'><img src = 'category1/CS7.png' width = '70%;'></div></div>","null","neg","CS","CS","1","category1/CS7.png","","","","",""
"","html-keyboard-response","56","963066","0.0-6.0-4.0-0.8","sd69585ngp","one_one","1","direct_first","1","HM05ND30","0","33","1","1","3","1","Es war alles einfach zu verstehen.","0","1","0","null","","","<div class = 'row'><div class = 'column'><img src = 'uspos/5600.bmp' width = '100%;'></div><div class = 'column'><img src = 'category4/CS9.png' width = '70%;'></div></div>","null","pos","CS","CS","4","category4/CS9.png","","","","",""
"","html-keyboard-response","57","965584","0.0-6.0-4.0-0.9","sd69585ngp","one_one","1","direct_first","1","HM05ND30","0","33","1","1","3","1","Es war alles einfach zu verstehen.","0","1","0","null","","","<div class = 'row'><div class = 'column'><img src = 'uspos/2150.bmp' width = '100%;'></div><div class = 'column'><img src = 'category2/CS10.png' width = '70%;'></div></div>","null","pos","CS","CS","2","category2/CS10.png","","","","",""
"","html-keyboard-response","58","968107","0.0-6.0-4.0-0.10","sd69585ngp","one_one","1","direct_first","1","HM05ND30","0","33","1","1","3","1","Es war alles einfach zu verstehen.","0","1","0","null","","","<div class = 'row'><div class = 'column'><img src = 'usneg/2750.bmp' width = '100%;'></div><div class = 'column'><img src = 'category1/CS7.png' width = '70%;'></div></div>","null","neg","CS","CS","1","category1/CS7.png","","","","",""
"","html-keyboard-response","59","970626","0.0-6.0-4.0-0.11","sd69585ngp","one_one","1","direct_first","1","HM05ND30","0","33","1","1","3","1","Es war alles einfach zu verstehen.","0","1","0","null","","","<div class = 'row'><div class = 'column'><img src = 'uspos/5600.bmp' width = '100%;'></div><div class = 'column'><img src = 'category4/CS9.png' width = '70%;'></div></div>","null","pos","CS","CS","4","category4/CS9.png","","","","",""
"","html-keyboard-response","60","973146","0.0-6.0-4.0-0.12","sd69585ngp","one_one","1","direct_first","1","HM05ND30","0","33","1","1","3","1","Es war alles einfach zu verstehen.","0","1","0","null","","","<div class = 'row'><div class = 'column'><img src = 'category2/CS10.png' width = '70%;'></div><div class = 'column'><img src = 'uspos/2150.bmp' width = '100%;'></div></div>","null","pos","CS","CS","2","category2/CS10.png","","","","",""
"","html-keyboard-response","61","975666","0.0-6.0-4.0-0.13","sd69585ngp","one_one","1","direct_first","1","HM05ND30","0","33","1","1","3","1","Es war alles einfach zu verstehen.","0","1","0","null","","","<div class = 'row'><div class = 'column'><img src = 'usneg/2750.bmp' width = '100%;'></div><div class = 'column'><img src = 'category1/CS7.png' width = '70%;'></div></div>","null","neg","CS","CS","1","category1/CS7.png","","","","",""
"","html-keyboard-response","62","978182","0.0-6.0-4.0-0.14","sd69585ngp","one_one","1","direct_first","1","HM05ND30","0","33","1","1","3","1","Es war alles einfach zu verstehen.","0","1","0","null","","","<div class = 'row'><div class = 'column'><img src = 'category3/CS5.png' width = '70%;'></div><div class = 'column'><img src = 'usneg/9000.bmp' width = '100%;'></div></div>","null","neg","CS","CS","3","category3/CS5.png","","","","",""
"","html-keyboard-response","63","980700","0.0-6.0-4.0-0.15","sd69585ngp","one_one","1","direct_first","1","HM05ND30","0","33","1","1","3","1","Es war alles einfach zu verstehen.","0","1","0","null","","","<div class = 'row'><div class = 'column'><img src = 'usneg/2750.bmp' width = '100%;'></div><div class = 'column'><img src = 'category1/CS7.png' width = '70%;'></div></div>","null","neg","CS","CS","1","category1/CS7.png","","","","",""
"","html-keyboard-response","64","983216","0.0-6.0-4.0-0.16","sd69585ngp","one_one","1","direct_first","1","HM05ND30","0","33","1","1","3","1","Es war alles einfach zu verstehen.","0","1","0","null","","","<div class = 'row'><div class = 'column'><img src = 'usneg/9000.bmp' width = '100%;'></div><div class = 'column'><img src = 'category3/CS5.png' width = '70%;'></div></div>","null","neg","CS","CS","3","category3/CS5.png","","","","",""
"","html-keyboard-response","65","985735","0.0-6.0-4.0-0.17","sd69585ngp","one_one","1","direct_first","1","HM05ND30","0","33","1","1","3","1","Es war alles einfach zu verstehen.","0","1","0","null","","","<div class = 'row'><div class = 'column'><img src = 'category4/CS9.png' width = '70%;'></div><div class = 'column'><img src = 'uspos/5600.bmp' width = '100%;'></div></div>","null","pos","CS","CS","4","category4/CS9.png","","","","",""
"","html-keyboard-response","66","988264","0.0-6.0-4.0-0.18","sd69585ngp","one_one","1","direct_first","1","HM05ND30","0","33","1","1","3","1","Es war alles einfach zu verstehen.","0","1","0","null","","","<div class = 'row'><div class = 'column'><img src = 'category2/CS10.png' width = '70%;'></div><div class = 'column'><img src = 'uspos/2150.bmp' width = '100%;'></div></div>","null","pos","CS","CS","2","category2/CS10.png","","","","",""
"","html-keyboard-response","67","990805","0.0-6.0-4.0-0.19","sd69585ngp","one_one","1","direct_first","1","HM05ND30","0","33","1","1","3","1","Es war alles einfach zu verstehen.","0","1","0","null","","","<div class = 'row'><div class = 'column'><img src = 'usneg/2750.bmp' width = '100%;'></div><div class = 'column'><img src = 'category1/CS7.png' width = '70%;'></div></div>","null","neg","CS","CS","1","category1/CS7.png","","","","",""
"","survey-html-form","68","1004394","0.0-6.0-5.0","sd69585ngp","one_one","1","direct_first","1","HM05ND30","0","33","1","1","3","1","Es war alles einfach zu verstehen.","0","1","0","13084.395000012591","","{}","","","","","","","","","","","",""
"","html-keyboard-response","69","1008412","0.0-6.0-6.0-0.0","sd69585ngp","one_one","1","direct_first","1","HM05ND30","0","33","1","1","3","1","Es war alles einfach zu verstehen.","0","1","0","null","","","<div class = 'row'><div class = 'column'><img src = 'category3/CS5.png' width = '70%;'></div><div class = 'column'><img src = 'usneg/9000.bmp' width = '100%;'></div></div>","null","neg","CS","CS","3","category3/CS5.png","","","","",""
"","html-keyboard-response","70","1010932","0.0-6.0-6.0-0.1","sd69585ngp","one_one","1","direct_first","1","HM05ND30","0","33","1","1","3","1","Es war alles einfach zu verstehen.","0","1","0","null","","","<div class = 'row'><div class = 'column'><img src = 'usneg/2750.bmp' width = '100%;'></div><div class = 'column'><img src = 'category1/CS7.png' width = '70%;'></div></div>","null","neg","CS","CS","1","category1/CS7.png","","","","",""
"","html-keyboard-response","71","1013445","0.0-6.0-6.0-0.2","sd69585ngp","one_one","1","direct_first","1","HM05ND30","0","33","1","1","3","1","Es war alles einfach zu verstehen.","0","1","0","null","","","<div class = 'row'><div class = 'column'><img src = 'category4/CS9.png' width = '70%;'></div><div class = 'column'><img src = 'uspos/5600.bmp' width = '100%;'></div></div>","null","pos","CS","CS","4","category4/CS9.png","","","","",""
"","html-keyboard-response","72","1015964","0.0-6.0-6.0-0.3","sd69585ngp","one_one","1","direct_first","1","HM05ND30","0","33","1","1","3","1","Es war alles einfach zu verstehen.","0","1","0","null","","","<div class = 'row'><div class = 'column'><img src = 'uspos/2150.bmp' width = '100%;'></div><div class = 'column'><img src = 'category2/CS10.png' width = '70%;'></div></div>","null","pos","CS","CS","2","category2/CS10.png","","","","",""
"","html-keyboard-response","73","1018476","0.0-6.0-6.0-0.4","sd69585ngp","one_one","1","direct_first","1","HM05ND30","0","33","1","1","3","1","Es war alles einfach zu verstehen.","0","1","0","null","","","<div class = 'row'><div class = 'column'><img src = 'category4/CS9.png' width = '70%;'></div><div class = 'column'><img src = 'uspos/5600.bmp' width = '100%;'></div></div>","null","pos","CS","CS","4","category4/CS9.png","","","","",""
"","html-keyboard-response","74","1020993","0.0-6.0-6.0-0.5","sd69585ngp","one_one","1","direct_first","1","HM05ND30","0","33","1","1","3","1","Es war alles einfach zu verstehen.","0","1","0","null","","","<div class = 'row'><div class = 'column'><img src = 'category2/CS10.png' width = '70%;'></div><div class = 'column'><img src = 'uspos/2150.bmp' width = '100%;'></div></div>","null","pos","CS","CS","2","category2/CS10.png","","","","",""
"","html-keyboard-response","75","1023503","0.0-6.0-6.0-0.6","sd69585ngp","one_one","1","direct_first","1","HM05ND30","0","33","1","1","3","1","Es war alles einfach zu verstehen.","0","1","0","null","","","<div class = 'row'><div class = 'column'><img src = 'usneg/9000.bmp' width = '100%;'></div><div class = 'column'><img src = 'category3/CS5.png' width = '70%;'></div></div>","null","neg","CS","CS","3","category3/CS5.png","","","","",""
"","html-keyboard-response","76","1026034","0.0-6.0-6.0-0.7","sd69585ngp","one_one","1","direct_first","1","HM05ND30","0","33","1","1","3","1","Es war alles einfach zu verstehen.","0","1","0","null","","","<div class = 'row'><div class = 'column'><img src = 'category1/CS7.png' width = '70%;'></div><div class = 'column'><img src = 'usneg/2750.bmp' width = '100%;'></div></div>","null","neg","CS","CS","1","category1/CS7.png","","","","",""
"","html-keyboard-response","77","1028543","0.0-6.0-6.0-0.8","sd69585ngp","one_one","1","direct_first","1","HM05ND30","0","33","1","1","3","1","Es war alles einfach zu verstehen.","0","1","0","null","","","<div class = 'row'><div class = 'column'><img src = 'category3/CS5.png' width = '70%;'></div><div class = 'column'><img src = 'usneg/9000.bmp' width = '100%;'></div></div>","null","neg","CS","CS","3","category3/CS5.png","","","","",""
"","html-keyboard-response","78","1031077","0.0-6.0-6.0-0.9","sd69585ngp","one_one","1","direct_first","1","HM05ND30","0","33","1","1","3","1","Es war alles einfach zu verstehen.","0","1","0","null","","","<div class = 'row'><div class = 'column'><img src = 'uspos/2150.bmp' width = '100%;'></div><div class = 'column'><img src = 'category2/CS10.png' width = '70%;'></div></div>","null","pos","CS","CS","2","category2/CS10.png","","","","",""
"","html-keyboard-response","79","1033590","0.0-6.0-6.0-0.10","sd69585ngp","one_one","1","direct_first","1","HM05ND30","0","33","1","1","3","1","Es war alles einfach zu verstehen.","0","1","0","null","","","<div class = 'row'><div class = 'column'><img src = 'uspos/5600.bmp' width = '100%;'></div><div class = 'column'><img src = 'category4/CS9.png' width = '70%;'></div></div>","null","pos","CS","CS","4","category4/CS9.png","","","","",""
"","html-keyboard-response","80","1036103","0.0-6.0-6.0-0.11","sd69585ngp","one_one","1","direct_first","1","HM05ND30","0","33","1","1","3","1","Es war alles einfach zu verstehen.","0","1","0","null","","","<div class = 'row'><div class = 'column'><img src = 'category1/CS7.png' width = '70%;'></div><div class = 'column'><img src = 'usneg/2750.bmp' width = '100%;'></div></div>","null","neg","CS","CS","1","category1/CS7.png","","","","",""
"","html-keyboard-response","81","1038618","0.0-6.0-6.0-0.12","sd69585ngp","one_one","1","direct_first","1","HM05ND30","0","33","1","1","3","1","Es war alles einfach zu verstehen.","0","1","0","null","","","<div class = 'row'><div class = 'column'><img src = 'category3/CS5.png' width = '70%;'></div><div class = 'column'><img src = 'usneg/9000.bmp' width = '100%;'></div></div>","null","neg","CS","CS","3","category3/CS5.png","","","","",""
"","html-keyboard-response","82","1041136","0.0-6.0-6.0-0.13","sd69585ngp","one_one","1","direct_first","1","HM05ND30","0","33","1","1","3","1","Es war alles einfach zu verstehen.","0","1","0","null","","","<div class = 'row'><div class = 'column'><img src = 'uspos/5600.bmp' width = '100%;'></div><div class = 'column'><img src = 'category4/CS9.png' width = '70%;'></div></div>","null","pos","CS","CS","4","category4/CS9.png","","","","",""
"","html-keyboard-response","83","1043653","0.0-6.0-6.0-0.14","sd69585ngp","one_one","1","direct_first","1","HM05ND30","0","33","1","1","3","1","Es war alles einfach zu verstehen.","0","1","0","null","","","<div class = 'row'><div class = 'column'><img src = 'uspos/2150.bmp' width = '100%;'></div><div class = 'column'><img src = 'category2/CS10.png' width = '70%;'></div></div>","null","pos","CS","CS","2","category2/CS10.png","","","","",""
"","html-keyboard-response","84","1046180","0.0-6.0-6.0-0.15","sd69585ngp","one_one","1","direct_first","1","HM05ND30","0","33","1","1","3","1","Es war alles einfach zu verstehen.","0","1","0","null","","","<div class = 'row'><div class = 'column'><img src = 'category3/CS5.png' width = '70%;'></div><div class = 'column'><img src = 'usneg/9000.bmp' width = '100%;'></div></div>","null","neg","CS","CS","3","category3/CS5.png","","","","",""
"","html-keyboard-response","85","1048693","0.0-6.0-6.0-0.16","sd69585ngp","one_one","1","direct_first","1","HM05ND30","0","33","1","1","3","1","Es war alles einfach zu verstehen.","0","1","0","null","","","<div class = 'row'><div class = 'column'><img src = 'category1/CS7.png' width = '70%;'></div><div class = 'column'><img src = 'usneg/2750.bmp' width = '100%;'></div></div>","null","neg","CS","CS","1","category1/CS7.png","","","","",""
"","html-keyboard-response","86","1051201","0.0-6.0-6.0-0.17","sd69585ngp","one_one","1","direct_first","1","HM05ND30","0","33","1","1","3","1","Es war alles einfach zu verstehen.","0","1","0","null","","","<div class = 'row'><div class = 'column'><img src = 'uspos/2150.bmp' width = '100%;'></div><div class = 'column'><img src = 'category2/CS10.png' width = '70%;'></div></div>","null","pos","CS","CS","2","category2/CS10.png","","","","",""
"","html-keyboard-response","87","1053718","0.0-6.0-6.0-0.18","sd69585ngp","one_one","1","direct_first","1","HM05ND30","0","33","1","1","3","1","Es war alles einfach zu verstehen.","0","1","0","null","","","<div class = 'row'><div class = 'column'><img src = 'category4/CS9.png' width = '70%;'></div><div class = 'column'><img src = 'uspos/5600.bmp' width = '100%;'></div></div>","null","pos","CS","CS","4","category4/CS9.png","","","","",""
"","html-keyboard-response","88","1056237","0.0-6.0-6.0-0.19","sd69585ngp","one_one","1","direct_first","1","HM05ND30","0","33","1","1","3","1","Es war alles einfach zu verstehen.","0","1","0","null","","","<div class = 'row'><div class = 'column'><img src = 'usneg/2750.bmp' width = '100%;'></div><div class = 'column'><img src = 'category1/CS7.png' width = '70%;'></div></div>","null","neg","CS","CS","1","category1/CS7.png","","","","",""
"","survey-html-form","89","1068083","0.0-7.0","sd69585ngp","one_one","1","direct_first","1","HM05ND30","0","33","1","1","3","1","Es war alles einfach zu verstehen.","0","1","0","11341.320000123233","","{}","","","","","","","","","","","",""
"","image-slider-response","90","1078957","0.0-8.0-0.0","sd69585ngp","one_one","1","direct_first","1","HM05ND30","0","33","1","1","3","1","Es war alles einfach zu verstehen.","0","1","0","8858.735000016168","","","","","neg","GS","GSold","1","category1/CS1.png","-29","targets/21.png","direct","",""
"","image-slider-response","91","1084686","0.0-8.0-0.1","sd69585ngp","one_one","1","direct_first","1","HM05ND30","0","33","1","1","3","1","Es war alles einfach zu verstehen.","0","1","0","5725.004999898374","","","","","neg","GS","abstract","3","category3/wang.png","-18","targets/8.png","direct","",""
"","image-slider-response","92","1087442","0.0-8.0-0.2","sd69585ngp","one_one","1","direct_first","1","HM05ND30","0","33","1","1","3","1","Es war alles einfach zu verstehen.","0","1","0","2752.3199999704957","","","","","pos","CS","CS","2","category2/CS10.png","42","targets/26.png","direct","",""
"","image-slider-response","93","1092836","0.0-8.0-0.3","sd69585ngp","one_one","1","direct_first","1","HM05ND30","0","33","1","1","3","1","Es war alles einfach zu verstehen.","0","1","0","5390.355000039563","","","","","neg","GS","GSold","1","category1/CS10.png","-32","targets/24.png","direct","",""
"","image-slider-response","94","1096348","0.0-8.0-0.4","sd69585ngp","one_one","1","direct_first","1","HM05ND30","0","33","1","1","3","1","Es war alles einfach zu verstehen.","0","1","0","3508.0500000622123","","","","","neg","GS","GSnew","1","category1/GS1.png","-33","targets/46.png","direct","",""
"","image-slider-response","95","1099796","0.0-8.0-0.5","sd69585ngp","one_one","1","direct_first","1","HM05ND30","0","33","1","1","3","1","Es war alles einfach zu verstehen.","0","1","0","3444.3849998060614","","","","","neg","GS","GSnew","1","category1/GS2.png","-27","targets/9.png","direct","",""
"","image-slider-response","96","1102877","0.0-8.0-0.6","sd69585ngp","one_one","1","direct_first","1","HM05ND30","0","33","1","1","3","1","Es war alles einfach zu verstehen.","0","1","0","3077.6149998418987","","","","","pos","GS","GSold","2","category2/CS5.png","28","targets/16.png","direct","",""
"","image-slider-response","97","1105405","0.0-8.0-0.7","sd69585ngp","one_one","1","direct_first","1","HM05ND30","0","33","1","1","3","1","Es war alles einfach zu verstehen.","0","1","0","2524.9299998395145","","","","","pos","GS","GSold","2","category2/CS3.png","33","targets/2.png","direct","",""
"","image-slider-response","98","1111762","0.0-8.0-0.8","sd69585ngp","one_one","1","direct_first","1","HM05ND30","0","33","1","1","3","1","Es war alles einfach zu verstehen.","0","1","0","6354.235000209883","","","","","pos","GS","GSnew","2","category2/GS3.png","10","targets/23.png","direct","",""
"","image-slider-response","99","1116802","0.0-8.0-0.9","sd69585ngp","one_one","1","direct_first","1","HM05ND30","0","33","1","1","3","1","Es war alles einfach zu verstehen.","0","1","0","5035.705000162125","","","","","neg","CS","CS","3","category3/CS5.png","-27","targets/11.png","direct","",""
"","image-slider-response","100","1127195","0.0-8.0-0.10","sd69585ngp","one_one","1","direct_first","1","HM05ND30","0","33","1","1","3","1","Es war alles einfach zu verstehen.","0","1","0","10389.405000023544","","","","","neg","CS","CS","1","category1/CS7.png","-17","targets/31.png","direct","",""
"","image-slider-response","101","1140679","0.0-8.0-0.11","sd69585ngp","one_one","1","direct_first","1","HM05ND30","0","33","1","1","3","1","Es war alles einfach zu verstehen.","0","1","0","13492.390000028536","","","","","neg","GS","GSold","3","category3/CS6.png","11","targets/40.png","direct","",""
"","image-slider-response","102","1143187","0.0-8.0-0.12","sd69585ngp","one_one","1","direct_first","1","HM05ND30","0","33","1","1","3","1","Es war alles einfach zu verstehen.","0","1","0","2505.634999834001","","","","","pos","GS","GSnew","4","category4/GS3.png","17","targets/20.png","direct","",""
"","image-slider-response","103","1145744","0.0-8.0-0.13","sd69585ngp","one_one","1","direct_first","1","HM05ND30","0","33","1","1","3","1","Es war alles einfach zu verstehen.","0","1","0","2555.305000161752","","","","","neg","GS","GSold","1","category1/CS2.png","-21","targets/3.png","direct","",""
"","image-slider-response","104","1148168","0.0-8.0-0.14","sd69585ngp","one_one","1","direct_first","1","HM05ND30","0","33","1","1","3","1","Es war alles einfach zu verstehen.","0","1","0","2420.579999918118","","","","","pos","GS","abstract","4","category4/lin.png","15","targets/36.png","direct","",""
"","image-slider-response","105","1150599","0.0-8.0-0.15","sd69585ngp","one_one","1","direct_first","1","HM05ND30","0","33","1","1","3","1","Es war alles einfach zu verstehen.","0","1","0","2427.879999857396","","","","","neg","GS","GSold","3","category3/CS9.png","28","targets/47.png","direct","",""
"","image-slider-response","106","1153059","0.0-8.0-0.16","sd69585ngp","one_one","1","direct_first","1","HM05ND30","0","33","1","1","3","1","Es war alles einfach zu verstehen.","0","1","0","2456.7200001329184","","","","","neg","GS","abstract","1","category1/ma.png","-16","targets/48.png","direct","",""
"","image-slider-response","107","1155359","0.0-8.0-0.17","sd69585ngp","one_one","1","direct_first","1","HM05ND30","0","33","1","1","3","1","Es war alles einfach zu verstehen.","0","1","0","2296.504999976605","","","","","pos","GS","GSnew","4","category4/GS2.png","-26","targets/44.png","direct","",""
"","image-slider-response","108","1157749","0.0-8.0-0.18","sd69585ngp","one_one","1","direct_first","1","HM05ND30","0","33","1","1","3","1","Es war alles einfach zu verstehen.","0","1","0","2387.1149998158216","","","","","pos","GS","abstract","2","category2/men.png","29","targets/43.png","direct","",""
"","image-slider-response","109","1161279","0.0-8.0-0.19","sd69585ngp","one_one","1","direct_first","1","HM05ND30","0","33","1","1","3","1","Es war alles einfach zu verstehen.","0","1","0","3527.0350000355393","","","","","pos","GS","GSnew","2","category2/GS2.png","18","targets/25.png","direct","",""
"","image-slider-response","110","1163618","0.0-8.0-0.20","sd69585ngp","one_one","1","direct_first","1","HM05ND30","0","33","1","1","3","1","Es war alles einfach zu verstehen.","0","1","0","2335.1300000213087","","","","","pos","GS","GSold","4","category4/CS5.png","14","targets/42.png","direct","",""
"","image-slider-response","111","1166039","0.0-8.0-0.21","sd69585ngp","one_one","1","direct_first","1","HM05ND30","0","33","1","1","3","1","Es war alles einfach zu verstehen.","0","1","0","2417.159999953583","","","","","neg","GS","GSnew","3","category3/GS3.png","20","targets/22.png","direct","",""
"","image-slider-response","112","1168408","0.0-8.0-0.22","sd69585ngp","one_one","1","direct_first","1","HM05ND30","0","33","1","1","3","1","Es war alles einfach zu verstehen.","0","1","0","2366.6449999436736","","","","","neg","GS","GSold","3","category3/CS1.png","15","targets/10.png","direct","",""
"","image-slider-response","113","1172159","0.0-8.0-0.23","sd69585ngp","one_one","1","direct_first","1","HM05ND30","0","33","1","1","3","1","Es war alles einfach zu verstehen.","0","1","0","3747.715000063181","","","","","neg","GS","GSnew","3","category3/GS1.png","25","targets/37.png","direct","",""
"","image-slider-response","114","1174296","0.0-8.0-0.24","sd69585ngp","one_one","1","direct_first","1","HM05ND30","0","33","1","1","3","1","Es war alles einfach zu verstehen.","0","1","0","2133.1750000827014","","","","","neg","GS","GSnew","3","category3/GS2.png","14","targets/15.png","direct","",""
"","image-slider-response","115","1176798","0.0-8.0-0.25","sd69585ngp","one_one","1","direct_first","1","HM05ND30","0","33","1","1","3","1","Es war alles einfach zu verstehen.","0","1","0","2500.400000018999","","","","","pos","GS","GSold","2","category2/CS8.png","20","targets/12.png","direct","",""
"","image-slider-response","116","1179609","0.0-8.0-0.26","sd69585ngp","one_one","1","direct_first","1","HM05ND30","0","33","1","1","3","1","Es war alles einfach zu verstehen.","0","1","0","2806.7449999507517","","","","","neg","GS","GSnew","1","category1/GS3.png","17","targets/1.png","direct","",""
"","image-slider-response","117","1181689","0.0-8.0-0.27","sd69585ngp","one_one","1","direct_first","1","HM05ND30","0","33","1","1","3","1","Es war alles einfach zu verstehen.","0","1","0","2077.2049999795854","","","","","pos","GS","GSnew","4","category4/GS1.png","21","targets/4.png","direct","",""
"","image-slider-response","118","1184569","0.0-8.0-0.28","sd69585ngp","one_one","1","direct_first","1","HM05ND30","0","33","1","1","3","1","Es war alles einfach zu verstehen.","0","1","0","2876.4000001829118","","","","","pos","GS","GSold","4","category4/CS7.png","19","targets/5.png","direct","",""
"","image-slider-response","119","1187329","0.0-8.0-0.29","sd69585ngp","one_one","1","direct_first","1","HM05ND30","0","33","1","1","3","1","Es war alles einfach zu verstehen.","0","1","0","2756.950000068173","","","","","pos","GS","GSold","4","category4/CS6.png","19","targets/17.png","direct","",""
"","image-slider-response","120","1190489","0.0-8.0-0.30","sd69585ngp","one_one","1","direct_first","1","HM05ND30","0","33","1","1","3","1","Es war alles einfach zu verstehen.","0","1","0","3144.940000027418","","","","","pos","CS","CS","4","category4/CS9.png","21","targets/6.png","direct","",""
"","image-slider-response","121","1192719","0.0-8.0-0.31","sd69585ngp","one_one","1","direct_first","1","HM05ND30","0","33","1","1","3","1","Es war alles einfach zu verstehen.","0","1","0","2227.974999928847","","","","","pos","GS","GSnew","2","category2/GS1.png","23","targets/14.png","direct","",""
"","html-keyboard-response","122","1221400","0.0-9.0","sd69585ngp","one_one","1","direct_first","1","HM05ND30","0","33","1","1","3","1","Es war alles einfach zu verstehen.","0","1","0","28679.58500003442","","","<p>Sie sehen nun die chinesischen Zeichen nur ganz kurz. Danach sehen Sie die jeweilige Aussprache der Zeichen als Silbe auf dem Bildschrim. Ihre Aufgabe ist es, für jede Silbe anzugeben, ob diese etwas angenehmes, oder unangenehmes bedeuten könnte. Verlassen Sie sich hier vor allem auf Ihre Intuition.<br><br>Die Zeichen werden nur zur Orientierung dargestellt, beachten Sie sie deshalb nicht. Konzentrieren Sie sich vor allem auf die Silben. <br>Reagieren Sie mit folgenden zwei Tasten: <br><br><b>'D' </b> wenn die Silbe etwas <b>unangenehmes</b> bedeuten könnte. <br><b>'K'</b> wenn die Silbe etwas <b>angenehmes</b> bedeuten könnte. <br><br>Bitte legen Sie nun den Zeigefinger der linken Hand auf die Taste 'D' und den Zeigefinger der rechten Hand auf die Taste 'K'. <br>Reagieren Sie auf jede Silbe so schnell wie möglich. Uns interessiert Ihre spontane Reaktion. <br> <br> <br>Drücken Sie 'D' oder 'K', um die nächste Aufgabe zu starten. </p>","75","","","","","","","","","",""
"","html-keyboard-response","123","1224428","0.0-10.0-0.0","sd69585ngp","one_one","1","direct_first","1","HM05ND30","0","33","1","1","3","1","Es war alles einfach zu verstehen.","0","1","0","null","","","<div style=""font-size:60px;"">+</div>","null","","","","","","","","","",""
"","html-keyboard-response","124","1224538","0.0-10.0-1.0","sd69585ngp","one_one","1","direct_first","1","HM05ND30","0","33","1","1","3","1","Es war alles einfach zu verstehen.","0","1","0","null","","","<img src = 'category1/CS10.png' width = '100%;'>","null","","","","","","","","","",""
"","html-keyboard-response","125","1224798","0.0-10.0-2.0","sd69585ngp","one_one","1","direct_first","1","HM05ND30","0","33","1","1","3","1","Es war alles einfach zu verstehen.","0","1","0","null","","","<img src = 'targets/24.png' width = '100%;'>","null","","","","","","","","","",""
"","html-keyboard-response","126","1229034","0.0-10.0-3.0","sd69585ngp","one_one","1","direct_first","1","HM05ND30","0","33","1","1","3","1","Es war alles einfach zu verstehen.","0","1","0","4233.874999918044","","","<img src = 'targets/mask.png' width = '100%;'>","68","neg","GS","GSold","1","category1/CS10.png","","targets/24.png","indirect","0","0"
"","html-keyboard-response","127","1230548","0.0-10.0-0.1","sd69585ngp","one_one","1","direct_first","1","HM05ND30","0","33","1","1","3","1","Es war alles einfach zu verstehen.","0","1","0","null","","","<div style=""font-size:60px;"">+</div>","null","","","","","","","","","",""
"","html-keyboard-response","128","1230648","0.0-10.0-1.1","sd69585ngp","one_one","1","direct_first","1","HM05ND30","0","33","1","1","3","1","Es war alles einfach zu verstehen.","0","1","0","null","","","<img src = 'category1/CS1.png' width = '100%;'>","null","","","","","","","","","",""
"","html-keyboard-response","129","1230928","0.0-10.0-2.1","sd69585ngp","one_one","1","direct_first","1","HM05ND30","0","33","1","1","3","1","Es war alles einfach zu verstehen.","0","1","0","null","","","<img src = 'targets/21.png' width = '100%;'>","null","","","","","","","","","",""
"","html-keyboard-response","130","1232270","0.0-10.0-3.1","sd69585ngp","one_one","1","direct_first","1","HM05ND30","0","33","1","1","3","1","Es war alles einfach zu verstehen.","0","1","0","1340.4800000134856","","","<img src = 'targets/mask.png' width = '100%;'>","75","neg","GS","GSold","1","category1/CS1.png","","targets/21.png","indirect","1","1"
"","html-keyboard-response","131","1233808","0.0-10.0-0.2","sd69585ngp","one_one","1","direct_first","1","HM05ND30","0","33","1","1","3","1","Es war alles einfach zu verstehen.","0","1","0","null","","","<div style=""font-size:60px;"">+</div>","null","","","","","","","","","",""
"","html-keyboard-response","132","1233908","0.0-10.0-1.2","sd69585ngp","one_one","1","direct_first","1","HM05ND30","0","33","1","1","3","1","Es war alles einfach zu verstehen.","0","1","0","null","","","<img src = 'category1/CS7.png' width = '100%;'>","null","","","","","","","","","",""
"","html-keyboard-response","133","1234187","0.0-10.0-2.2","sd69585ngp","one_one","1","direct_first","1","HM05ND30","0","33","1","1","3","1","Es war alles einfach zu verstehen.","0","1","0","null","","","<img src = 'targets/31.png' width = '100%;'>","null","","","","","","","","","",""
"","html-keyboard-response","134","1235565","0.0-10.0-3.2","sd69585ngp","one_one","1","direct_first","1","HM05ND30","0","33","1","1","3","1","Es war alles einfach zu verstehen.","0","1","0","1375.0799999106675","","","<img src = 'targets/mask.png' width = '100%;'>","75","neg","CS","CS","1","category1/CS7.png","","targets/31.png","indirect","1","2"
"","html-keyboard-response","135","1237087","0.0-10.0-0.3","sd69585ngp","one_one","1","direct_first","1","HM05ND30","0","33","1","1","3","1","Es war alles einfach zu verstehen.","0","1","0","null","","","<div style=""font-size:60px;"">+</div>","null","","","","","","","","","",""
"","html-keyboard-response","136","1237188","0.0-10.0-1.3","sd69585ngp","one_one","1","direct_first","1","HM05ND30","0","33","1","1","3","1","Es war alles einfach zu verstehen.","0","1","0","null","","","<img src = 'category4/CS9.png' width = '100%;'>","null","","","","","","","","","",""
"","html-keyboard-response","137","1237458","0.0-10.0-2.3","sd69585ngp","one_one","1","direct_first","1","HM05ND30","0","33","1","1","3","1","Es war alles einfach zu verstehen.","0","1","0","null","","","<img src = 'targets/6.png' width = '100%;'>","null","","","","","","","","","",""
"","html-keyboard-response","138","1238165","0.0-10.0-3.3","sd69585ngp","one_one","1","direct_first","1","HM05ND30","0","33","1","1","3","1","Es war alles einfach zu verstehen.","0","1","0","705.3900000173599","","","<img src = 'targets/mask.png' width = '100%;'>","75","pos","CS","CS","4","category4/CS9.png","","targets/6.png","indirect","1","3"
"","html-keyboard-response","139","1239688","0.0-10.0-0.4","sd69585ngp","one_one","1","direct_first","1","HM05ND30","0","33","1","1","3","1","Es war alles einfach zu verstehen.","0","1","0","null","","","<div style=""font-size:60px;"">+</div>","null","","","","","","","","","",""
"","html-keyboard-response","140","1239788","0.0-10.0-1.4","sd69585ngp","one_one","1","direct_first","1","HM05ND30","0","33","1","1","3","1","Es war alles einfach zu verstehen.","0","1","0","null","","","<img src = 'category2/CS3.png' width = '100%;'>","null","","","","","","","","","",""
"","html-keyboard-response","141","1240068","0.0-10.0-2.4","sd69585ngp","one_one","1","direct_first","1","HM05ND30","0","33","1","1","3","1","Es war alles einfach zu verstehen.","0","1","0","null","","","<img src = 'targets/2.png' width = '100%;'>","null","","","","","","","","","",""
"","html-keyboard-response","142","1240448","0.0-10.0-3.4","sd69585ngp","one_one","1","direct_first","1","HM05ND30","0","33","1","1","3","1","Es war alles einfach zu verstehen.","0","1","0","377.76999990455806","","","<img src = 'targets/mask.png' width = '100%;'>","75","pos","GS","GSold","2","category2/CS3.png","","targets/2.png","indirect","1","4"
"","html-keyboard-response","143","1241978","0.0-10.0-0.5","sd69585ngp","one_one","1","direct_first","1","HM05ND30","0","33","1","1","3","1","Es war alles einfach zu verstehen.","0","1","0","null","","","<div style=""font-size:60px;"">+</div>","null","","","","","","","","","",""
"","html-keyboard-response","144","1242078","0.0-10.0-1.5","sd69585ngp","one_one","1","direct_first","1","HM05ND30","0","33","1","1","3","1","Es war alles einfach zu verstehen.","0","1","0","null","","","<img src = 'category2/CS5.png' width = '100%;'>","null","","","","","","","","","",""
"","html-keyboard-response","145","1242348","0.0-10.0-2.5","sd69585ngp","one_one","1","direct_first","1","HM05ND30","0","33","1","1","3","1","Es war alles einfach zu verstehen.","0","1","0","null","","","<img src = 'targets/16.png' width = '100%;'>","null","","","","","","","","","",""
"","html-keyboard-response","146","1243229","0.0-10.0-3.5","sd69585ngp","one_one","1","direct_first","1","HM05ND30","0","33","1","1","3","1","Es war alles einfach zu verstehen.","0","1","0","879.5400001108646","","","<img src = 'targets/mask.png' width = '100%;'>","75","pos","GS","GSold","2","category2/CS5.png","","targets/16.png","indirect","1","5"
"","html-keyboard-response","147","1244768","0.0-10.0-0.6","sd69585ngp","one_one","1","direct_first","1","HM05ND30","0","33","1","1","3","1","Es war alles einfach zu verstehen.","0","1","0","null","","","<div style=""font-size:60px;"">+</div>","null","","","","","","","","","",""
"","html-keyboard-response","148","1244868","0.0-10.0-1.6","sd69585ngp","one_one","1","direct_first","1","HM05ND30","0","33","1","1","3","1","Es war alles einfach zu verstehen.","0","1","0","null","","","<img src = 'category3/CS6.png' width = '100%;'>","null","","","","","","","","","",""
"","html-keyboard-response","149","1245138","0.0-10.0-2.6","sd69585ngp","one_one","1","direct_first","1","HM05ND30","0","33","1","1","3","1","Es war alles einfach zu verstehen.","0","1","0","null","","","<img src = 'targets/40.png' width = '100%;'>","null","","","","","","","","","",""
"","html-keyboard-response","150","1245724","0.0-10.0-3.6","sd69585ngp","one_one","1","direct_first","1","HM05ND30","0","33","1","1","3","1","Es war alles einfach zu verstehen.","0","1","0","583.5400000214577","","","<img src = 'targets/mask.png' width = '100%;'>","75","neg","GS","GSold","3","category3/CS6.png","","targets/40.png","indirect","1","6"
"","html-keyboard-response","151","1247248","0.0-10.0-0.7","sd69585ngp","one_one","1","direct_first","1","HM05ND30","0","33","1","1","3","1","Es war alles einfach zu verstehen.","0","1","0","null","","","<div style=""font-size:60px;"">+</div>","null","","","","","","","","","",""
"","html-keyboard-response","152","1247348","0.0-10.0-1.7","sd69585ngp","one_one","1","direct_first","1","HM05ND30","0","33","1","1","3","1","Es war alles einfach zu verstehen.","0","1","0","null","","","<img src = 'category1/CS2.png' width = '100%;'>","null","","","","","","","","","",""
"","html-keyboard-response","153","1247608","0.0-10.0-2.7","sd69585ngp","one_one","1","direct_first","1","HM05ND30","0","33","1","1","3","1","Es war alles einfach zu verstehen.","0","1","0","null","","","<img src = 'targets/3.png' width = '100%;'>","null","","","","","","","","","",""
"","html-keyboard-response","154","1248430","0.0-10.0-3.7","sd69585ngp","one_one","1","direct_first","1","HM05ND30","0","33","1","1","3","1","Es war alles einfach zu verstehen.","0","1","0","819.3650001194328","","","<img src = 'targets/mask.png' width = '100%;'>","75","neg","GS","GSold","1","category1/CS2.png","","targets/3.png","indirect","1","7"
"","html-keyboard-response","155","1249969","0.0-10.0-0.8","sd69585ngp","one_one","1","direct_first","1","HM05ND30","0","33","1","1","3","1","Es war alles einfach zu verstehen.","0","1","0","null","","","<div style=""font-size:60px;"">+</div>","null","","","","","","","","","",""
"","html-keyboard-response","156","1250069","0.0-10.0-1.8","sd69585ngp","one_one","1","direct_first","1","HM05ND30","0","33","1","1","3","1","Es war alles einfach zu verstehen.","0","1","0","null","","","<img src = 'category2/CS10.png' width = '100%;'>","null","","","","","","","","","",""
"","html-keyboard-response","157","1250335","0.0-10.0-2.8","sd69585ngp","one_one","1","direct_first","1","HM05ND30","0","33","1","1","3","1","Es war alles einfach zu verstehen.","0","1","0","null","","","<img src = 'targets/26.png' width = '100%;'>","null","","","","","","","","","",""
"","html-keyboard-response","158","1250767","0.0-10.0-3.8","sd69585ngp","one_one","1","direct_first","1","HM05ND30","0","33","1","1","3","1","Es war alles einfach zu verstehen.","0","1","0","429.55000000074506","","","<img src = 'targets/mask.png' width = '100%;'>","75","pos","CS","CS","2","category2/CS10.png","","targets/26.png","indirect","1","8"
"","html-keyboard-response","159","1252279","0.0-10.0-0.9","sd69585ngp","one_one","1","direct_first","1","HM05ND30","0","33","1","1","3","1","Es war alles einfach zu verstehen.","0","1","0","null","","","<div style=""font-size:60px;"">+</div>","null","","","","","","","","","",""
"","html-keyboard-response","160","1252379","0.0-10.0-1.9","sd69585ngp","one_one","1","direct_first","1","HM05ND30","0","33","1","1","3","1","Es war alles einfach zu verstehen.","0","1","0","null","","","<img src = 'category4/CS5.png' width = '100%;'>","null","","","","","","","","","",""
"","html-keyboard-response","161","1252638","0.0-10.0-2.9","sd69585ngp","one_one","1","direct_first","1","HM05ND30","0","33","1","1","3","1","Es war alles einfach zu verstehen.","0","1","0","null","","","<img src = 'targets/42.png' width = '100%;'>","null","","","","","","","","","",""
"","html-keyboard-response","162","1253186","0.0-10.0-3.9","sd69585ngp","one_one","1","direct_first","1","HM05ND30","0","33","1","1","3","1","Es war alles einfach zu verstehen.","0","1","0","545.6799999810755","","","<img src = 'targets/mask.png' width = '100%;'>","75","pos","GS","GSold","4","category4/CS5.png","","targets/42.png","indirect","1","9"
"","html-keyboard-response","163","1254708","0.0-10.0-0.10","sd69585ngp","one_one","1","direct_first","1","HM05ND30","0","33","1","1","3","1","Es war alles einfach zu verstehen.","0","1","0","null","","","<div style=""font-size:60px;"">+</div>","null","","","","","","","","","",""
"","html-keyboard-response","164","1254808","0.0-10.0-1.10","sd69585ngp","one_one","1","direct_first","1","HM05ND30","0","33","1","1","3","1","Es war alles einfach zu verstehen.","0","1","0","null","","","<img src = 'category3/CS5.png' width = '100%;'>","null","","","","","","","","","",""
"","html-keyboard-response","165","1255079","0.0-10.0-2.10","sd69585ngp","one_one","1","direct_first","1","HM05ND30","0","33","1","1","3","1","Es war alles einfach zu verstehen.","0","1","0","null","","","<img src = 'targets/11.png' width = '100%;'>","null","","","","","","","","","",""
"","html-keyboard-response","166","1255584","0.0-10.0-3.10","sd69585ngp","one_one","1","direct_first","1","HM05ND30","0","33","1","1","3","1","Es war alles einfach zu verstehen.","0","1","0","503.3650000113994","","","<img src = 'targets/mask.png' width = '100%;'>","68","neg","CS","CS","3","category3/CS5.png","","targets/11.png","indirect","0","10"
"","html-keyboard-response","167","1257119","0.0-10.0-0.11","sd69585ngp","one_one","1","direct_first","1","HM05ND30","0","33","1","1","3","1","Es war alles einfach zu verstehen.","0","1","0","null","","","<div style=""font-size:60px;"">+</div>","null","","","","","","","","","",""
"","html-keyboard-response","168","1257229","0.0-10.0-1.11","sd69585ngp","one_one","1","direct_first","1","HM05ND30","0","33","1","1","3","1","Es war alles einfach zu verstehen.","0","1","0","null","","","<img src = 'category4/CS7.png' width = '100%;'>","null","","","","","","","","","",""
"","html-keyboard-response","169","1257488","0.0-10.0-2.11","sd69585ngp","one_one","1","direct_first","1","HM05ND30","0","33","1","1","3","1","Es war alles einfach zu verstehen.","0","1","0","null","","","<img src = 'targets/5.png' width = '100%;'>","null","","","","","","","","","",""
"","html-keyboard-response","170","1258251","0.0-10.0-3.11","sd69585ngp","one_one","1","direct_first","1","HM05ND30","0","33","1","1","3","1","Es war alles einfach zu verstehen.","0","1","0","761.2149999476969","","","<img src = 'targets/mask.png' width = '100%;'>","68","pos","GS","GSold","4","category4/CS7.png","","targets/5.png","indirect","0","11"
"","html-keyboard-response","171","1259769","0.0-10.0-0.12","sd69585ngp","one_one","1","direct_first","1","HM05ND30","0","33","1","1","3","1","Es war alles einfach zu verstehen.","0","1","0","null","","","<div style=""font-size:60px;"">+</div>","null","","","","","","","","","",""
"","html-keyboard-response","172","1259868","0.0-10.0-1.12","sd69585ngp","one_one","1","direct_first","1","HM05ND30","0","33","1","1","3","1","Es war alles einfach zu verstehen.","0","1","0","null","","","<img src = 'category4/CS6.png' width = '100%;'>","null","","","","","","","","","",""
"","html-keyboard-response","173","1260139","0.0-10.0-2.12","sd69585ngp","one_one","1","direct_first","1","HM05ND30","0","33","1","1","3","1","Es war alles einfach zu verstehen.","0","1","0","null","","","<img src = 'targets/17.png' width = '100%;'>","null","","","","","","","","","",""
"","html-keyboard-response","174","1260638","0.0-10.0-3.12","sd69585ngp","one_one","1","direct_first","1","HM05ND30","0","33","1","1","3","1","Es war alles einfach zu verstehen.","0","1","0","496.3849999476224","","","<img src = 'targets/mask.png' width = '100%;'>","75","pos","GS","GSold","4","category4/CS6.png","","targets/17.png","indirect","1","12"
"","html-keyboard-response","175","1262158","0.0-10.0-0.13","sd69585ngp","one_one","1","direct_first","1","HM05ND30","0","33","1","1","3","1","Es war alles einfach zu verstehen.","0","1","0","null","","","<div style=""font-size:60px;"">+</div>","null","","","","","","","","","",""
"","html-keyboard-response","176","1262269","0.0-10.0-1.13","sd69585ngp","one_one","1","direct_first","1","HM05ND30","0","33","1","1","3","1","Es war alles einfach zu verstehen.","0","1","0","null","","","<img src = 'category2/CS8.png' width = '100%;'>","null","","","","","","","","","",""
"","html-keyboard-response","177","1262528","0.0-10.0-2.13","sd69585ngp","one_one","1","direct_first","1","HM05ND30","0","33","1","1","3","1","Es war alles einfach zu verstehen.","0","1","0","null","","","<img src = 'targets/12.png' width = '100%;'>","null","","","","","","","","","",""
"","html-keyboard-response","178","1263006","0.0-10.0-3.13","sd69585ngp","one_one","1","direct_first","1","HM05ND30","0","33","1","1","3","1","Es war alles einfach zu verstehen.","0","1","0","475.8699999656528","","","<img src = 'targets/mask.png' width = '100%;'>","75","pos","GS","GSold","2","category2/CS8.png","","targets/12.png","indirect","1","13"
"","html-keyboard-response","179","1264518","0.0-10.0-0.14","sd69585ngp","one_one","1","direct_first","1","HM05ND30","0","33","1","1","3","1","Es war alles einfach zu verstehen.","0","1","0","null","","","<div style=""font-size:60px;"">+</div>","null","","","","","","","","","",""
"","html-keyboard-response","180","1264618","0.0-10.0-1.14","sd69585ngp","one_one","1","direct_first","1","HM05ND30","0","33","1","1","3","1","Es war alles einfach zu verstehen.","0","1","0","null","","","<img src = 'category3/CS9.png' width = '100%;'>","null","","","","","","","","","",""
"","html-keyboard-response","181","1264899","0.0-10.0-2.14","sd69585ngp","one_one","1","direct_first","1","HM05ND30","0","33","1","1","3","1","Es war alles einfach zu verstehen.","0","1","0","null","","","<img src = 'targets/47.png' width = '100%;'>","null","","","","","","","","","",""
"","html-keyboard-response","182","1265463","0.0-10.0-3.14","sd69585ngp","one_one","1","direct_first","1","HM05ND30","0","33","1","1","3","1","Es war alles einfach zu verstehen.","0","1","0","562.4349999707192","","","<img src = 'targets/mask.png' width = '100%;'>","68","neg","GS","GSold","3","category3/CS9.png","","targets/47.png","indirect","0","14"
"","html-keyboard-response","183","1266999","0.0-10.0-0.15","sd69585ngp","one_one","1","direct_first","1","HM05ND30","0","33","1","1","3","1","Es war alles einfach zu verstehen.","0","1","0","null","","","<div style=""font-size:60px;"">+</div>","null","","","","","","","","","",""
"","html-keyboard-response","184","1267099","0.0-10.0-1.15","sd69585ngp","one_one","1","direct_first","1","HM05ND30","0","33","1","1","3","1","Es war alles einfach zu verstehen.","0","1","0","null","","","<img src = 'category3/CS1.png' width = '100%;'>","null","","","","","","","","","",""
"","html-keyboard-response","185","1267369","0.0-10.0-2.15","sd69585ngp","one_one","1","direct_first","1","HM05ND30","0","33","1","1","3","1","Es war alles einfach zu verstehen.","0","1","0","null","","","<img src = 'targets/10.png' width = '100%;'>","null","","","","","","","","","",""
"","html-keyboard-response","186","1267915","0.0-10.0-3.15","sd69585ngp","one_one","1","direct_first","1","HM05ND30","0","33","1","1","3","1","Es war alles einfach zu verstehen.","0","1","0","544.8150001466274","","","<img src = 'targets/mask.png' width = '100%;'>","68","neg","GS","GSold","3","category3/CS1.png","","targets/10.png","indirect","0","15"
"","survey-html-form","187","1270751","0.0-11.0","sd69585ngp","one_one","1","direct_first","1","HM05ND30","0","33","1","1","3","1","Es war alles einfach zu verstehen.","0","1","0","2331.375000067055","","{}","","","","","","","","","","","",""
"","html-keyboard-response","188","1273788","0.0-12.0-0.0","sd69585ngp","one_one","1","direct_first","1","HM05ND30","0","33","1","1","3","1","Es war alles einfach zu verstehen.","0","1","0","null","","","<div style=""font-size:60px;"">+</div>","null","","","","","","","","","",""
"","html-keyboard-response","189","1273888","0.0-12.0-1.0","sd69585ngp","one_one","1","direct_first","1","HM05ND30","0","33","1","1","3","1","Es war alles einfach zu verstehen.","0","1","0","null","","","<img src = 'category3/GS3.png' width = '100%;'>","null","","","","","","","","","",""
"","html-keyboard-response","190","1274158","0.0-12.0-2.0","sd69585ngp","one_one","1","direct_first","1","HM05ND30","0","33","1","1","3","1","Es war alles einfach zu verstehen.","0","1","0","null","","","<img src = 'targets/22.png' width = '100%;'>","null","","","","","","","","","",""
"","html-keyboard-response","191","1275809","0.0-12.0-3.0","sd69585ngp","one_one","1","direct_first","1","HM05ND30","0","33","1","1","3","1","Es war alles einfach zu verstehen.","0","1","0","1646.8950000125915","","","<img src = 'targets/mask.png' width = '100%;'>","75","neg","GS","GSnew","3","category3/GS3.png","","targets/22.png","indirect","1","16"
"","html-keyboard-response","192","1277336","0.0-12.0-0.1","sd69585ngp","one_one","1","direct_first","1","HM05ND30","0","33","1","1","3","1","Es war alles einfach zu verstehen.","0","1","0","null","","","<div style=""font-size:60px;"">+</div>","null","","","","","","","","","",""
"","html-keyboard-response","193","1277437","0.0-12.0-1.1","sd69585ngp","one_one","1","direct_first","1","HM05ND30","0","33","1","1","3","1","Es war alles einfach zu verstehen.","0","1","0","null","","","<img src = 'category4/lin.png' width = '100%;'>","null","","","","","","","","","",""
"","html-keyboard-response","194","1277708","0.0-12.0-2.1","sd69585ngp","one_one","1","direct_first","1","HM05ND30","0","33","1","1","3","1","Es war alles einfach zu verstehen.","0","1","0","null","","","<img src = 'targets/36.png' width = '100%;'>","null","","","","","","","","","",""
"","html-keyboard-response","195","1278097","0.0-12.0-3.1","sd69585ngp","one_one","1","direct_first","1","HM05ND30","0","33","1","1","3","1","Es war alles einfach zu verstehen.","0","1","0","386.05999993160367","","","<img src = 'targets/mask.png' width = '100%;'>","75","pos","GS","abstract","4","category4/lin.png","","targets/36.png","indirect","1","17"
"","html-keyboard-response","196","1279618","0.0-12.0-0.2","sd69585ngp","one_one","1","direct_first","1","HM05ND30","0","33","1","1","3","1","Es war alles einfach zu verstehen.","0","1","0","null","","","<div style=""font-size:60px;"">+</div>","null","","","","","","","","","",""
"","html-keyboard-response","197","1279718","0.0-12.0-1.2","sd69585ngp","one_one","1","direct_first","1","HM05ND30","0","33","1","1","3","1","Es war alles einfach zu verstehen.","0","1","0","null","","","<img src = 'category4/GS3.png' width = '100%;'>","null","","","","","","","","","",""
"","html-keyboard-response","198","1279988","0.0-12.0-2.2","sd69585ngp","one_one","1","direct_first","1","HM05ND30","0","33","1","1","3","1","Es war alles einfach zu verstehen.","0","1","0","null","","","<img src = 'targets/20.png' width = '100%;'>","null","","","","","","","","","",""
"","html-keyboard-response","199","1280256","0.0-12.0-3.2","sd69585ngp","one_one","1","direct_first","1","HM05ND30","0","33","1","1","3","1","Es war alles einfach zu verstehen.","0","1","0","265.67999995313585","","","<img src = 'targets/mask.png' width = '100%;'>","75","pos","GS","GSnew","4","category4/GS3.png","","targets/20.png","indirect","1","18"
"","html-keyboard-response","200","1281779","0.0-12.0-0.3","sd69585ngp","one_one","1","direct_first","1","HM05ND30","0","33","1","1","3","1","Es war alles einfach zu verstehen.","0","1","0","null","","","<div style=""font-size:60px;"">+</div>","null","","","","","","","","","",""
"","html-keyboard-response","201","1281878","0.0-12.0-1.3","sd69585ngp","one_one","1","direct_first","1","HM05ND30","0","33","1","1","3","1","Es war alles einfach zu verstehen.","0","1","0","null","","","<img src = 'category3/wang.png' width = '100%;'>","null","","","","","","","","","",""
"","html-keyboard-response","202","1282158","0.0-12.0-2.3","sd69585ngp","one_one","1","direct_first","1","HM05ND30","0","33","1","1","3","1","Es war alles einfach zu verstehen.","0","1","0","null","","","<img src = 'targets/8.png' width = '100%;'>","null","","","","","","","","","",""
"","html-keyboard-response","203","1282512","0.0-12.0-3.3","sd69585ngp","one_one","1","direct_first","1","HM05ND30","0","33","1","1","3","1","Es war alles einfach zu verstehen.","0","1","0","352.05999994650483","","","<img src = 'targets/mask.png' width = '100%;'>","68","neg","GS","abstract","3","category3/wang.png","","targets/8.png","indirect","0","19"
"","html-keyboard-response","204","1284029","0.0-12.0-0.4","sd69585ngp","one_one","1","direct_first","1","HM05ND30","0","33","1","1","3","1","Es war alles einfach zu verstehen.","0","1","0","null","","","<div style=""font-size:60px;"">+</div>","null","","","","","","","","","",""
"","html-keyboard-response","205","1284128","0.0-12.0-1.4","sd69585ngp","one_one","1","direct_first","1","HM05ND30","0","33","1","1","3","1","Es war alles einfach zu verstehen.","0","1","0","null","","","<img src = 'category2/GS1.png' width = '100%;'>","null","","","","","","","","","",""
"","html-keyboard-response","206","1284399","0.0-12.0-2.4","sd69585ngp","one_one","1","direct_first","1","HM05ND30","0","33","1","1","3","1","Es war alles einfach zu verstehen.","0","1","0","null","","","<img src = 'targets/14.png' width = '100%;'>","null","","","","","","","","","",""
"","html-keyboard-response","207","1284995","0.0-12.0-3.4","sd69585ngp","one_one","1","direct_first","1","HM05ND30","0","33","1","1","3","1","Es war alles einfach zu verstehen.","0","1","0","594.6800000965595","","","<img src = 'targets/mask.png' width = '100%;'>","75","pos","GS","GSnew","2","category2/GS1.png","","targets/14.png","indirect","1","20"
"","html-keyboard-response","208","1286519","0.0-12.0-0.5","sd69585ngp","one_one","1","direct_first","1","HM05ND30","0","33","1","1","3","1","Es war alles einfach zu verstehen.","0","1","0","null","","","<div style=""font-size:60px;"">+</div>","null","","","","","","","","","",""
"","html-keyboard-response","209","1286618","0.0-12.0-1.5","sd69585ngp","one_one","1","direct_first","1","HM05ND30","0","33","1","1","3","1","Es war alles einfach zu verstehen.","0","1","0","null","","","<img src = 'category1/ma.png' width = '100%;'>","null","","","","","","","","","",""
"","html-keyboard-response","210","1286878","0.0-12.0-2.5","sd69585ngp","one_one","1","direct_first","1","HM05ND30","0","33","1","1","3","1","Es war alles einfach zu verstehen.","0","1","0","null","","","<img src = 'targets/48.png' width = '100%;'>","null","","","","","","","","","",""
"","html-keyboard-response","211","1287239","0.0-12.0-3.5","sd69585ngp","one_one","1","direct_first","1","HM05ND30","0","33","1","1","3","1","Es war alles einfach zu verstehen.","0","1","0","359.15499995462596","","","<img src = 'targets/mask.png' width = '100%;'>","75","neg","GS","abstract","1","category1/ma.png","","targets/48.png","indirect","1","21"
"","html-keyboard-response","212","1288769","0.0-12.0-0.6","sd69585ngp","one_one","1","direct_first","1","HM05ND30","0","33","1","1","3","1","Es war alles einfach zu verstehen.","0","1","0","null","","","<div style=""font-size:60px;"">+</div>","null","","","","","","","","","",""
"","html-keyboard-response","213","1288869","0.0-12.0-1.6","sd69585ngp","one_one","1","direct_first","1","HM05ND30","0","33","1","1","3","1","Es war alles einfach zu verstehen.","0","1","0","null","","","<img src = 'category2/men.png' width = '100%;'>","null","","","","","","","","","",""
"","html-keyboard-response","214","1289139","0.0-12.0-2.6","sd69585ngp","one_one","1","direct_first","1","HM05ND30","0","33","1","1","3","1","Es war alles einfach zu verstehen.","0","1","0","null","","","<img src = 'targets/43.png' width = '100%;'>","null","","","","","","","","","",""
"","html-keyboard-response","215","1289502","0.0-12.0-3.6","sd69585ngp","one_one","1","direct_first","1","HM05ND30","0","33","1","1","3","1","Es war alles einfach zu verstehen.","0","1","0","360.9749998431653","","","<img src = 'targets/mask.png' width = '100%;'>","75","pos","GS","abstract","2","category2/men.png","","targets/43.png","indirect","1","22"
"","html-keyboard-response","216","1291029","0.0-12.0-0.7","sd69585ngp","one_one","1","direct_first","1","HM05ND30","0","33","1","1","3","1","Es war alles einfach zu verstehen.","0","1","0","null","","","<div style=""font-size:60px;"">+</div>","null","","","","","","","","","",""
"","html-keyboard-response","217","1291129","0.0-12.0-1.7","sd69585ngp","one_one","1","direct_first","1","HM05ND30","0","33","1","1","3","1","Es war alles einfach zu verstehen.","0","1","0","null","","","<img src = 'category1/GS3.png' width = '100%;'>","null","","","","","","","","","",""
"","html-keyboard-response","218","1291398","0.0-12.0-2.7","sd69585ngp","one_one","1","direct_first","1","HM05ND30","0","33","1","1","3","1","Es war alles einfach zu verstehen.","0","1","0","null","","","<img src = 'targets/1.png' width = '100%;'>","null","","","","","","","","","",""
"","html-keyboard-response","219","1291618","0.0-12.0-3.7","sd69585ngp","one_one","1","direct_first","1","HM05ND30","0","33","1","1","3","1","Es war alles einfach zu verstehen.","0","1","0","217.50999987125397","","","<img src = 'targets/mask.png' width = '100%;'>","75","neg","GS","GSnew","1","category1/GS3.png","","targets/1.png","indirect","1","23"
"","html-keyboard-response","220","1293159","0.0-12.0-0.8","sd69585ngp","one_one","1","direct_first","1","HM05ND30","0","33","1","1","3","1","Es war alles einfach zu verstehen.","0","1","0","null","","","<div style=""font-size:60px;"">+</div>","null","","","","","","","","","",""
"","html-keyboard-response","221","1293258","0.0-12.0-1.8","sd69585ngp","one_one","1","direct_first","1","HM05ND30","0","33","1","1","3","1","Es war alles einfach zu verstehen.","0","1","0","null","","","<img src = 'category4/GS2.png' width = '100%;'>","null","","","","","","","","","",""
"","html-keyboard-response","222","1293538","0.0-12.0-2.8","sd69585ngp","one_one","1","direct_first","1","HM05ND30","0","33","1","1","3","1","Es war alles einfach zu verstehen.","0","1","0","null","","","<img src = 'targets/44.png' width = '100%;'>","null","","","","","","","","","",""
"","html-keyboard-response","223","1293786","0.0-12.0-3.8","sd69585ngp","one_one","1","direct_first","1","HM05ND30","0","33","1","1","3","1","Es war alles einfach zu verstehen.","0","1","0","246.12999986857176","","","<img src = 'targets/mask.png' width = '100%;'>","75","pos","GS","GSnew","4","category4/GS2.png","","targets/44.png","indirect","1","24"
"","html-keyboard-response","224","1295309","0.0-12.0-0.9","sd69585ngp","one_one","1","direct_first","1","HM05ND30","0","33","1","1","3","1","Es war alles einfach zu verstehen.","0","1","0","null","","","<div style=""font-size:60px;"">+</div>","null","","","","","","","","","",""
"","html-keyboard-response","225","1295408","0.0-12.0-1.9","sd69585ngp","one_one","1","direct_first","1","HM05ND30","0","33","1","1","3","1","Es war alles einfach zu verstehen.","0","1","0","null","","","<img src = 'category4/GS1.png' width = '100%;'>","null","","","","","","","","","",""
"","html-keyboard-response","226","1295674","0.0-12.0-2.9","sd69585ngp","one_one","1","direct_first","1","HM05ND30","0","33","1","1","3","1","Es war alles einfach zu verstehen.","0","1","0","null","","","<img src = 'targets/4.png' width = '100%;'>","null","","","","","","","","","",""
"","html-keyboard-response","227","1296306","0.0-12.0-3.9","sd69585ngp","one_one","1","direct_first","1","HM05ND30","0","33","1","1","3","1","Es war alles einfach zu verstehen.","0","1","0","630.4449997842312","","","<img src = 'targets/mask.png' width = '100%;'>","75","pos","GS","GSnew","4","category4/GS1.png","","targets/4.png","indirect","1","25"
"","html-keyboard-response","228","1297819","0.0-12.0-0.10","sd69585ngp","one_one","1","direct_first","1","HM05ND30","0","33","1","1","3","1","Es war alles einfach zu verstehen.","0","1","0","null","","","<div style=""font-size:60px;"">+</div>","null","","","","","","","","","",""
"","html-keyboard-response","229","1297918","0.0-12.0-1.10","sd69585ngp","one_one","1","direct_first","1","HM05ND30","0","33","1","1","3","1","Es war alles einfach zu verstehen.","0","1","0","null","","","<img src = 'category3/GS1.png' width = '100%;'>","null","","","","","","","","","",""
"","html-keyboard-response","230","1298198","0.0-12.0-2.10","sd69585ngp","one_one","1","direct_first","1","HM05ND30","0","33","1","1","3","1","Es war alles einfach zu verstehen.","0","1","0","null","","","<img src = 'targets/37.png' width = '100%;'>","null","","","","","","","","","",""
"","html-keyboard-response","231","1298631","0.0-12.0-3.10","sd69585ngp","one_one","1","direct_first","1","HM05ND30","0","33","1","1","3","1","Es war alles einfach zu verstehen.","0","1","0","430.0499998498708","","","<img src = 'targets/mask.png' width = '100%;'>","68","neg","GS","GSnew","3","category3/GS1.png","","targets/37.png","indirect","0","26"
"","html-keyboard-response","232","1300159","0.0-12.0-0.11","sd69585ngp","one_one","1","direct_first","1","HM05ND30","0","33","1","1","3","1","Es war alles einfach zu verstehen.","0","1","0","null","","","<div style=""font-size:60px;"">+</div>","null","","","","","","","","","",""
"","html-keyboard-response","233","1300258","0.0-12.0-1.11","sd69585ngp","one_one","1","direct_first","1","HM05ND30","0","33","1","1","3","1","Es war alles einfach zu verstehen.","0","1","0","null","","","<img src = 'category1/GS1.png' width = '100%;'>","null","","","","","","","","","",""
"","html-keyboard-response","234","1300529","0.0-12.0-2.11","sd69585ngp","one_one","1","direct_first","1","HM05ND30","0","33","1","1","3","1","Es war alles einfach zu verstehen.","0","1","0","null","","","<img src = 'targets/46.png' width = '100%;'>","null","","","","","","","","","",""
"","html-keyboard-response","235","1301119","0.0-12.0-3.11","sd69585ngp","one_one","1","direct_first","1","HM05ND30","0","33","1","1","3","1","Es war alles einfach zu verstehen.","0","1","0","588.6850000824779","","","<img src = 'targets/mask.png' width = '100%;'>","68","neg","GS","GSnew","1","category1/GS1.png","","targets/46.png","indirect","0","27"
"","html-keyboard-response","236","1302649","0.0-12.0-0.12","sd69585ngp","one_one","1","direct_first","1","HM05ND30","0","33","1","1","3","1","Es war alles einfach zu verstehen.","0","1","0","null","","","<div style=""font-size:60px;"">+</div>","null","","","","","","","","","",""
"","html-keyboard-response","237","1302740","0.0-12.0-1.12","sd69585ngp","one_one","1","direct_first","1","HM05ND30","0","33","1","1","3","1","Es war alles einfach zu verstehen.","0","1","0","null","","","<img src = 'category2/GS2.png' width = '100%;'>","null","","","","","","","","","",""
"","html-keyboard-response","238","1302995","0.0-12.0-2.12","sd69585ngp","one_one","1","direct_first","1","HM05ND30","0","33","1","1","3","1","Es war alles einfach zu verstehen.","0","1","0","null","","","<img src = 'targets/25.png' width = '100%;'>","null","","","","","","","","","",""
"","html-keyboard-response","239","1303437","0.0-12.0-3.12","sd69585ngp","one_one","1","direct_first","1","HM05ND30","0","33","1","1","3","1","Es war alles einfach zu verstehen.","0","1","0","440.2100001461804","","","<img src = 'targets/mask.png' width = '100%;'>","75","pos","GS","GSnew","2","category2/GS2.png","","targets/25.png","indirect","1","28"
"","html-keyboard-response","240","1304959","0.0-12.0-0.13","sd69585ngp","one_one","1","direct_first","1","HM05ND30","0","33","1","1","3","1","Es war alles einfach zu verstehen.","0","1","0","null","","","<div style=""font-size:60px;"">+</div>","null","","","","","","","","","",""
"","html-keyboard-response","241","1305058","0.0-12.0-1.13","sd69585ngp","one_one","1","direct_first","1","HM05ND30","0","33","1","1","3","1","Es war alles einfach zu verstehen.","0","1","0","null","","","<img src = 'category3/GS2.png' width = '100%;'>","null","","","","","","","","","",""
"","html-keyboard-response","242","1305328","0.0-12.0-2.13","sd69585ngp","one_one","1","direct_first","1","HM05ND30","0","33","1","1","3","1","Es war alles einfach zu verstehen.","0","1","0","null","","","<img src = 'targets/15.png' width = '100%;'>","null","","","","","","","","","",""
"","html-keyboard-response","243","1305896","0.0-12.0-3.13","sd69585ngp","one_one","1","direct_first","1","HM05ND30","0","33","1","1","3","1","Es war alles einfach zu verstehen.","0","1","0","565.279999980703","","","<img src = 'targets/mask.png' width = '100%;'>","75","neg","GS","GSnew","3","category3/GS2.png","","targets/15.png","indirect","1","29"
"","html-keyboard-response","244","1307419","0.0-12.0-0.14","sd69585ngp","one_one","1","direct_first","1","HM05ND30","0","33","1","1","3","1","Es war alles einfach zu verstehen.","0","1","0","null","","","<div style=""font-size:60px;"">+</div>","null","","","","","","","","","",""
"","html-keyboard-response","245","1307518","0.0-12.0-1.14","sd69585ngp","one_one","1","direct_first","1","HM05ND30","0","33","1","1","3","1","Es war alles einfach zu verstehen.","0","1","0","null","","","<img src = 'category2/GS3.png' width = '100%;'>","null","","","","","","","","","",""
"","html-keyboard-response","246","1307799","0.0-12.0-2.14","sd69585ngp","one_one","1","direct_first","1","HM05ND30","0","33","1","1","3","1","Es war alles einfach zu verstehen.","0","1","0","null","","","<img src = 'targets/23.png' width = '100%;'>","null","","","","","","","","","",""
"","html-keyboard-response","247","1308058","0.0-12.0-3.14","sd69585ngp","one_one","1","direct_first","1","HM05ND30","0","33","1","1","3","1","Es war alles einfach zu verstehen.","0","1","0","256.98500010184944","","","<img src = 'targets/mask.png' width = '100%;'>","75","pos","GS","GSnew","2","category2/GS3.png","","targets/23.png","indirect","1","30"
"","html-keyboard-response","248","1309579","0.0-12.0-0.15","sd69585ngp","one_one","1","direct_first","1","HM05ND30","0","33","1","1","3","1","Es war alles einfach zu verstehen.","0","1","0","null","","","<div style=""font-size:60px;"">+</div>","null","","","","","","","","","",""
"","html-keyboard-response","249","1309678","0.0-12.0-1.15","sd69585ngp","one_one","1","direct_first","1","HM05ND30","0","33","1","1","3","1","Es war alles einfach zu verstehen.","0","1","0","null","","","<img src = 'category1/GS2.png' width = '100%;'>","null","","","","","","","","","",""
"","html-keyboard-response","250","1309949","0.0-12.0-2.15","sd69585ngp","one_one","1","direct_first","1","HM05ND30","0","33","1","1","3","1","Es war alles einfach zu verstehen.","0","1","0","null","","","<img src = 'targets/9.png' width = '100%;'>","null","","","","","","","","","",""
"","html-keyboard-response","251","1310379","0.0-12.0-3.15","sd69585ngp","one_one","1","direct_first","1","HM05ND30","0","33","1","1","3","1","Es war alles einfach zu verstehen.","0","1","0","429.31500007398427","","","<img src = 'targets/mask.png' width = '100%;'>","75","neg","GS","GSnew","1","category1/GS2.png","","targets/9.png","indirect","1","31"
"","survey-html-form","252","1316870","0.0-13.0","sd69585ngp","one_one","1","direct_first","1","HM05ND30","0","33","1","1","3","1","Es war alles einfach zu verstehen.","0","1","0","5982.120000058785","","{}","","","","","","","","","","","",""
"","image-slider-response","253","1323090","0.0-14.0-0.0","sd69585ngp","one_one","1","direct_first","1","HM05ND30","0","33","1","1","3","1","Es war alles einfach zu verstehen.","0","1","0","5200.4249999299645","","","","","pos","All","all","2","category2/men_all.png","14","","all","",""
"","image-slider-response","254","1325840","0.0-14.0-0.1","sd69585ngp","one_one","1","direct_first","1","HM05ND30","0","33","1","1","3","1","Es war alles einfach zu verstehen.","0","1","0","2746.1500000208616","","","","","neg","All","all","3","category3/wang_all.png","-14","","all","",""
"","image-slider-response","255","1328364","0.0-14.0-0.2","sd69585ngp","one_one","1","direct_first","1","HM05ND30","0","33","1","1","3","1","Es war alles einfach zu verstehen.","0","1","0","2521.21499995701","","","","","neg","All","all","1","category1/ma_all.png","-22","","all","",""
"","image-slider-response","256","1330870","0.0-14.0-0.3","sd69585ngp","one_one","1","direct_first","1","HM05ND30","0","33","1","1","3","1","Es war alles einfach zu verstehen.","0","1","0","2502.2799998987466","","","","","pos","All","all","4","category4/lin_all.png","14","","all","",""
"","survey-text","257","1352781","0.0-15.0","sd69585ngp","one_one","1","direct_first","1","HM05ND30","0","33","1","1","3","1","Es war alles einfach zu verstehen.","0","1","0","21887.08999985829","","{""comment"":""Es war alles einfach zu verstehen.""}","","","","","","","","","","","",""
"","survey-html-form","258","1368931","0.0-16.0","sd69585ngp","one_one","1","direct_first","1","HM05ND30","0","33","1","1","3","1","Es war alles einfach zu verstehen.","0","1","0","16145.079999929294","","{""hinschauen"":""0"",""ablenkung"":""1"",""gewissenhaft"":""0""}","","","","","","","","","","","",""
