"success","trial_type","trial_index","time_elapsed","internal_node_id","subject","condition","condition_code","measure","measure_code","codeword","gender","age","education","chinese","fach","handedness","comment","hinschauen","ablenkung","gewissenhaft","rt","url","responses","stimulus","key_press","val","type","type_specific","category","cs_selected","response","target","task","indirect","nr_pres"
"true","fullscreen","0","3761","0.0-0.0","9k8axbesz8","one_one","1","direct_first","1","er06ge10","0","27","1","1","3","1","","0","1","0","","","","","","","","","","","","","","",""
"","external-html","1","63898","0.0-1.0","9k8axbesz8","one_one","1","direct_first","1","er06ge10","0","27","1","1","3","1","","0","1","0","60076","text/information.html","","","","","","","","","","","","",""
"","external-html","2","101455","0.0-2.0","9k8axbesz8","one_one","1","direct_first","1","er06ge10","0","27","1","1","3","1","","0","1","0","37442","text/consent.html","","","","","","","","","","","","",""
"","survey-html-form","3","147828","0.0-3.0","9k8axbesz8","one_one","1","direct_first","1","er06ge10","0","27","1","1","3","1","","0","1","0","46364","","{""codeword_enter"":""er06ge10""}","","","","","","","","","","","",""
"","survey-html-form","4","170018","0.0-4.0","9k8axbesz8","one_one","1","direct_first","1","er06ge10","0","27","1","1","3","1","","0","1","0","22182","","{""age"":""27"",""education"":""1"",""subject"":""3"",""gender"":""0"",""handedness"":""1"",""chinese"":""1""}","","","","","","","","","","","",""
"","survey-html-form","5","182296","0.0-5.0","9k8axbesz8","one_one","1","direct_first","1","er06ge10","0","27","1","1","3","1","","0","1","0","12275","","{}","","","","","","","","","","","",""
"","html-keyboard-response","6","186305","0.0-6.0-0.0-0.0","9k8axbesz8","one_one","1","direct_first","1","er06ge10","0","27","1","1","3","1","","0","1","0","null","","","<div class = 'row'><div class = 'column'><img src = 'category3/CS8.png' width = '70%;'></div><div class = 'column'><img src = 'usneg/9342.bmp' width = '100%;'></div></div>","null","neg","CS","CS","3","category3/CS8.png","","","","",""
"","html-keyboard-response","7","188809","0.0-6.0-0.0-0.1","9k8axbesz8","one_one","1","direct_first","1","er06ge10","0","27","1","1","3","1","","0","1","0","null","","","<div class = 'row'><div class = 'column'><img src = 'category4/CS7.png' width = '70%;'></div><div class = 'column'><img src = 'usneg/6020.bmp' width = '100%;'></div></div>","null","neg","CS","CS","4","category4/CS7.png","","","","",""
"","html-keyboard-response","8","191313","0.0-6.0-0.0-0.2","9k8axbesz8","one_one","1","direct_first","1","er06ge10","0","27","1","1","3","1","","0","1","0","null","","","<div class = 'row'><div class = 'column'><img src = 'category2/CS8.png' width = '70%;'></div><div class = 'column'><img src = 'uspos/2165.bmp' width = '100%;'></div></div>","null","pos","CS","CS","2","category2/CS8.png","","","","",""
"","html-keyboard-response","9","193816","0.0-6.0-0.0-0.3","9k8axbesz8","one_one","1","direct_first","1","er06ge10","0","27","1","1","3","1","","0","1","0","null","","","<div class = 'row'><div class = 'column'><img src = 'usneg/9342.bmp' width = '100%;'></div><div class = 'column'><img src = 'category3/CS8.png' width = '70%;'></div></div>","null","neg","CS","CS","3","category3/CS8.png","","","","",""
"","html-keyboard-response","10","196321","0.0-6.0-0.0-0.4","9k8axbesz8","one_one","1","direct_first","1","er06ge10","0","27","1","1","3","1","","0","1","0","null","","","<div class = 'row'><div class = 'column'><img src = 'category1/CS8.png' width = '70%;'></div><div class = 'column'><img src = 'uspos/8461.bmp' width = '100%;'></div></div>","null","pos","CS","CS","1","category1/CS8.png","","","","",""
"","html-keyboard-response","11","198824","0.0-6.0-0.0-0.5","9k8axbesz8","one_one","1","direct_first","1","er06ge10","0","27","1","1","3","1","","0","1","0","null","","","<div class = 'row'><div class = 'column'><img src = 'category2/CS8.png' width = '70%;'></div><div class = 'column'><img src = 'uspos/2165.bmp' width = '100%;'></div></div>","null","pos","CS","CS","2","category2/CS8.png","","","","",""
"","html-keyboard-response","12","201326","0.0-6.0-0.0-0.6","9k8axbesz8","one_one","1","direct_first","1","er06ge10","0","27","1","1","3","1","","0","1","0","null","","","<div class = 'row'><div class = 'column'><img src = 'category3/CS8.png' width = '70%;'></div><div class = 'column'><img src = 'usneg/9342.bmp' width = '100%;'></div></div>","null","neg","CS","CS","3","category3/CS8.png","","","","",""
"","html-keyboard-response","13","203829","0.0-6.0-0.0-0.7","9k8axbesz8","one_one","1","direct_first","1","er06ge10","0","27","1","1","3","1","","0","1","0","null","","","<div class = 'row'><div class = 'column'><img src = 'category4/CS7.png' width = '70%;'></div><div class = 'column'><img src = 'usneg/6020.bmp' width = '100%;'></div></div>","null","neg","CS","CS","4","category4/CS7.png","","","","",""
"","html-keyboard-response","14","206332","0.0-6.0-0.0-0.8","9k8axbesz8","one_one","1","direct_first","1","er06ge10","0","27","1","1","3","1","","0","1","0","null","","","<div class = 'row'><div class = 'column'><img src = 'usneg/9342.bmp' width = '100%;'></div><div class = 'column'><img src = 'category3/CS8.png' width = '70%;'></div></div>","null","neg","CS","CS","3","category3/CS8.png","","","","",""
"","html-keyboard-response","15","208835","0.0-6.0-0.0-0.9","9k8axbesz8","one_one","1","direct_first","1","er06ge10","0","27","1","1","3","1","","0","1","0","null","","","<div class = 'row'><div class = 'column'><img src = 'category1/CS8.png' width = '70%;'></div><div class = 'column'><img src = 'uspos/8461.bmp' width = '100%;'></div></div>","null","pos","CS","CS","1","category1/CS8.png","","","","",""
"","html-keyboard-response","16","211338","0.0-6.0-0.0-0.10","9k8axbesz8","one_one","1","direct_first","1","er06ge10","0","27","1","1","3","1","","0","1","0","null","","","<div class = 'row'><div class = 'column'><img src = 'category4/CS7.png' width = '70%;'></div><div class = 'column'><img src = 'usneg/6020.bmp' width = '100%;'></div></div>","null","neg","CS","CS","4","category4/CS7.png","","","","",""
"","html-keyboard-response","17","213841","0.0-6.0-0.0-0.11","9k8axbesz8","one_one","1","direct_first","1","er06ge10","0","27","1","1","3","1","","0","1","0","null","","","<div class = 'row'><div class = 'column'><img src = 'category2/CS8.png' width = '70%;'></div><div class = 'column'><img src = 'uspos/2165.bmp' width = '100%;'></div></div>","null","pos","CS","CS","2","category2/CS8.png","","","","",""
"","html-keyboard-response","18","216344","0.0-6.0-0.0-0.12","9k8axbesz8","one_one","1","direct_first","1","er06ge10","0","27","1","1","3","1","","0","1","0","null","","","<div class = 'row'><div class = 'column'><img src = 'category1/CS8.png' width = '70%;'></div><div class = 'column'><img src = 'uspos/8461.bmp' width = '100%;'></div></div>","null","pos","CS","CS","1","category1/CS8.png","","","","",""
"","html-keyboard-response","19","218845","0.0-6.0-0.0-0.13","9k8axbesz8","one_one","1","direct_first","1","er06ge10","0","27","1","1","3","1","","0","1","0","null","","","<div class = 'row'><div class = 'column'><img src = 'usneg/6020.bmp' width = '100%;'></div><div class = 'column'><img src = 'category4/CS7.png' width = '70%;'></div></div>","null","neg","CS","CS","4","category4/CS7.png","","","","",""
"","html-keyboard-response","20","221348","0.0-6.0-0.0-0.14","9k8axbesz8","one_one","1","direct_first","1","er06ge10","0","27","1","1","3","1","","0","1","0","null","","","<div class = 'row'><div class = 'column'><img src = 'uspos/8461.bmp' width = '100%;'></div><div class = 'column'><img src = 'category1/CS8.png' width = '70%;'></div></div>","null","pos","CS","CS","1","category1/CS8.png","","","","",""
"","html-keyboard-response","21","223850","0.0-6.0-0.0-0.15","9k8axbesz8","one_one","1","direct_first","1","er06ge10","0","27","1","1","3","1","","0","1","0","null","","","<div class = 'row'><div class = 'column'><img src = 'category3/CS8.png' width = '70%;'></div><div class = 'column'><img src = 'usneg/9342.bmp' width = '100%;'></div></div>","null","neg","CS","CS","3","category3/CS8.png","","","","",""
"","html-keyboard-response","22","226354","0.0-6.0-0.0-0.16","9k8axbesz8","one_one","1","direct_first","1","er06ge10","0","27","1","1","3","1","","0","1","0","null","","","<div class = 'row'><div class = 'column'><img src = 'usneg/6020.bmp' width = '100%;'></div><div class = 'column'><img src = 'category4/CS7.png' width = '70%;'></div></div>","null","neg","CS","CS","4","category4/CS7.png","","","","",""
"","html-keyboard-response","23","228856","0.0-6.0-0.0-0.17","9k8axbesz8","one_one","1","direct_first","1","er06ge10","0","27","1","1","3","1","","0","1","0","null","","","<div class = 'row'><div class = 'column'><img src = 'uspos/2165.bmp' width = '100%;'></div><div class = 'column'><img src = 'category2/CS8.png' width = '70%;'></div></div>","null","pos","CS","CS","2","category2/CS8.png","","","","",""
"","html-keyboard-response","24","231358","0.0-6.0-0.0-0.18","9k8axbesz8","one_one","1","direct_first","1","er06ge10","0","27","1","1","3","1","","0","1","0","null","","","<div class = 'row'><div class = 'column'><img src = 'uspos/8461.bmp' width = '100%;'></div><div class = 'column'><img src = 'category1/CS8.png' width = '70%;'></div></div>","null","pos","CS","CS","1","category1/CS8.png","","","","",""
"","html-keyboard-response","25","233861","0.0-6.0-0.0-0.19","9k8axbesz8","one_one","1","direct_first","1","er06ge10","0","27","1","1","3","1","","0","1","0","null","","","<div class = 'row'><div class = 'column'><img src = 'category2/CS8.png' width = '70%;'></div><div class = 'column'><img src = 'uspos/2165.bmp' width = '100%;'></div></div>","null","pos","CS","CS","2","category2/CS8.png","","","","",""
"","survey-html-form","26","239936","0.0-6.0-1.0","9k8axbesz8","one_one","1","direct_first","1","er06ge10","0","27","1","1","3","1","","0","1","0","5572","","{}","","","","","","","","","","","",""
"","html-keyboard-response","27","243940","0.0-6.0-2.0-0.0","9k8axbesz8","one_one","1","direct_first","1","er06ge10","0","27","1","1","3","1","","0","1","0","null","","","<div class = 'row'><div class = 'column'><img src = 'category4/CS7.png' width = '70%;'></div><div class = 'column'><img src = 'usneg/6020.bmp' width = '100%;'></div></div>","null","neg","CS","CS","4","category4/CS7.png","","","","",""
"","html-keyboard-response","28","246442","0.0-6.0-2.0-0.1","9k8axbesz8","one_one","1","direct_first","1","er06ge10","0","27","1","1","3","1","","0","1","0","null","","","<div class = 'row'><div class = 'column'><img src = 'category2/CS8.png' width = '70%;'></div><div class = 'column'><img src = 'uspos/2165.bmp' width = '100%;'></div></div>","null","pos","CS","CS","2","category2/CS8.png","","","","",""
"","html-keyboard-response","29","248944","0.0-6.0-2.0-0.2","9k8axbesz8","one_one","1","direct_first","1","er06ge10","0","27","1","1","3","1","","0","1","0","null","","","<div class = 'row'><div class = 'column'><img src = 'usneg/6020.bmp' width = '100%;'></div><div class = 'column'><img src = 'category4/CS7.png' width = '70%;'></div></div>","null","neg","CS","CS","4","category4/CS7.png","","","","",""
"","html-keyboard-response","30","251447","0.0-6.0-2.0-0.3","9k8axbesz8","one_one","1","direct_first","1","er06ge10","0","27","1","1","3","1","","0","1","0","null","","","<div class = 'row'><div class = 'column'><img src = 'uspos/2165.bmp' width = '100%;'></div><div class = 'column'><img src = 'category2/CS8.png' width = '70%;'></div></div>","null","pos","CS","CS","2","category2/CS8.png","","","","",""
"","html-keyboard-response","31","253952","0.0-6.0-2.0-0.4","9k8axbesz8","one_one","1","direct_first","1","er06ge10","0","27","1","1","3","1","","0","1","0","null","","","<div class = 'row'><div class = 'column'><img src = 'usneg/6020.bmp' width = '100%;'></div><div class = 'column'><img src = 'category4/CS7.png' width = '70%;'></div></div>","null","neg","CS","CS","4","category4/CS7.png","","","","",""
"","html-keyboard-response","32","256454","0.0-6.0-2.0-0.5","9k8axbesz8","one_one","1","direct_first","1","er06ge10","0","27","1","1","3","1","","0","1","0","null","","","<div class = 'row'><div class = 'column'><img src = 'category1/CS8.png' width = '70%;'></div><div class = 'column'><img src = 'uspos/8461.bmp' width = '100%;'></div></div>","null","pos","CS","CS","1","category1/CS8.png","","","","",""
"","html-keyboard-response","33","258957","0.0-6.0-2.0-0.6","9k8axbesz8","one_one","1","direct_first","1","er06ge10","0","27","1","1","3","1","","0","1","0","null","","","<div class = 'row'><div class = 'column'><img src = 'uspos/2165.bmp' width = '100%;'></div><div class = 'column'><img src = 'category2/CS8.png' width = '70%;'></div></div>","null","pos","CS","CS","2","category2/CS8.png","","","","",""
"","html-keyboard-response","34","261460","0.0-6.0-2.0-0.7","9k8axbesz8","one_one","1","direct_first","1","er06ge10","0","27","1","1","3","1","","0","1","0","null","","","<div class = 'row'><div class = 'column'><img src = 'usneg/9342.bmp' width = '100%;'></div><div class = 'column'><img src = 'category3/CS8.png' width = '70%;'></div></div>","null","neg","CS","CS","3","category3/CS8.png","","","","",""
"","html-keyboard-response","35","263962","0.0-6.0-2.0-0.8","9k8axbesz8","one_one","1","direct_first","1","er06ge10","0","27","1","1","3","1","","0","1","0","null","","","<div class = 'row'><div class = 'column'><img src = 'usneg/6020.bmp' width = '100%;'></div><div class = 'column'><img src = 'category4/CS7.png' width = '70%;'></div></div>","null","neg","CS","CS","4","category4/CS7.png","","","","",""
"","html-keyboard-response","36","266465","0.0-6.0-2.0-0.9","9k8axbesz8","one_one","1","direct_first","1","er06ge10","0","27","1","1","3","1","","0","1","0","null","","","<div class = 'row'><div class = 'column'><img src = 'uspos/8461.bmp' width = '100%;'></div><div class = 'column'><img src = 'category1/CS8.png' width = '70%;'></div></div>","null","pos","CS","CS","1","category1/CS8.png","","","","",""
"","html-keyboard-response","37","268967","0.0-6.0-2.0-0.10","9k8axbesz8","one_one","1","direct_first","1","er06ge10","0","27","1","1","3","1","","0","1","0","null","","","<div class = 'row'><div class = 'column'><img src = 'usneg/6020.bmp' width = '100%;'></div><div class = 'column'><img src = 'category4/CS7.png' width = '70%;'></div></div>","null","neg","CS","CS","4","category4/CS7.png","","","","",""
"","html-keyboard-response","38","271470","0.0-6.0-2.0-0.11","9k8axbesz8","one_one","1","direct_first","1","er06ge10","0","27","1","1","3","1","","0","1","0","null","","","<div class = 'row'><div class = 'column'><img src = 'uspos/8461.bmp' width = '100%;'></div><div class = 'column'><img src = 'category1/CS8.png' width = '70%;'></div></div>","null","pos","CS","CS","1","category1/CS8.png","","","","",""
"","html-keyboard-response","39","273974","0.0-6.0-2.0-0.12","9k8axbesz8","one_one","1","direct_first","1","er06ge10","0","27","1","1","3","1","","0","1","0","null","","","<div class = 'row'><div class = 'column'><img src = 'usneg/9342.bmp' width = '100%;'></div><div class = 'column'><img src = 'category3/CS8.png' width = '70%;'></div></div>","null","neg","CS","CS","3","category3/CS8.png","","","","",""
"","html-keyboard-response","40","276476","0.0-6.0-2.0-0.13","9k8axbesz8","one_one","1","direct_first","1","er06ge10","0","27","1","1","3","1","","0","1","0","null","","","<div class = 'row'><div class = 'column'><img src = 'category1/CS8.png' width = '70%;'></div><div class = 'column'><img src = 'uspos/8461.bmp' width = '100%;'></div></div>","null","pos","CS","CS","1","category1/CS8.png","","","","",""
"","html-keyboard-response","41","278978","0.0-6.0-2.0-0.14","9k8axbesz8","one_one","1","direct_first","1","er06ge10","0","27","1","1","3","1","","0","1","0","null","","","<div class = 'row'><div class = 'column'><img src = 'usneg/9342.bmp' width = '100%;'></div><div class = 'column'><img src = 'category3/CS8.png' width = '70%;'></div></div>","null","neg","CS","CS","3","category3/CS8.png","","","","",""
"","html-keyboard-response","42","281480","0.0-6.0-2.0-0.15","9k8axbesz8","one_one","1","direct_first","1","er06ge10","0","27","1","1","3","1","","0","1","0","null","","","<div class = 'row'><div class = 'column'><img src = 'uspos/8461.bmp' width = '100%;'></div><div class = 'column'><img src = 'category1/CS8.png' width = '70%;'></div></div>","null","pos","CS","CS","1","category1/CS8.png","","","","",""
"","html-keyboard-response","43","283982","0.0-6.0-2.0-0.16","9k8axbesz8","one_one","1","direct_first","1","er06ge10","0","27","1","1","3","1","","0","1","0","null","","","<div class = 'row'><div class = 'column'><img src = 'uspos/2165.bmp' width = '100%;'></div><div class = 'column'><img src = 'category2/CS8.png' width = '70%;'></div></div>","null","pos","CS","CS","2","category2/CS8.png","","","","",""
"","html-keyboard-response","44","286484","0.0-6.0-2.0-0.17","9k8axbesz8","one_one","1","direct_first","1","er06ge10","0","27","1","1","3","1","","0","1","0","null","","","<div class = 'row'><div class = 'column'><img src = 'category3/CS8.png' width = '70%;'></div><div class = 'column'><img src = 'usneg/9342.bmp' width = '100%;'></div></div>","null","neg","CS","CS","3","category3/CS8.png","","","","",""
"","html-keyboard-response","45","288988","0.0-6.0-2.0-0.18","9k8axbesz8","one_one","1","direct_first","1","er06ge10","0","27","1","1","3","1","","0","1","0","null","","","<div class = 'row'><div class = 'column'><img src = 'category2/CS8.png' width = '70%;'></div><div class = 'column'><img src = 'uspos/2165.bmp' width = '100%;'></div></div>","null","pos","CS","CS","2","category2/CS8.png","","","","",""
"","html-keyboard-response","46","291490","0.0-6.0-2.0-0.19","9k8axbesz8","one_one","1","direct_first","1","er06ge10","0","27","1","1","3","1","","0","1","0","null","","","<div class = 'row'><div class = 'column'><img src = 'category3/CS8.png' width = '70%;'></div><div class = 'column'><img src = 'usneg/9342.bmp' width = '100%;'></div></div>","null","neg","CS","CS","3","category3/CS8.png","","","","",""
"","survey-html-form","47","303672","0.0-6.0-3.0","9k8axbesz8","one_one","1","direct_first","1","er06ge10","0","27","1","1","3","1","","0","1","0","11680","","{}","","","","","","","","","","","",""
"","html-keyboard-response","48","307676","0.0-6.0-4.0-0.0","9k8axbesz8","one_one","1","direct_first","1","er06ge10","0","27","1","1","3","1","","0","1","0","null","","","<div class = 'row'><div class = 'column'><img src = 'uspos/8461.bmp' width = '100%;'></div><div class = 'column'><img src = 'category1/CS8.png' width = '70%;'></div></div>","null","pos","CS","CS","1","category1/CS8.png","","","","",""
"","html-keyboard-response","49","310178","0.0-6.0-4.0-0.1","9k8axbesz8","one_one","1","direct_first","1","er06ge10","0","27","1","1","3","1","","0","1","0","null","","","<div class = 'row'><div class = 'column'><img src = 'uspos/2165.bmp' width = '100%;'></div><div class = 'column'><img src = 'category2/CS8.png' width = '70%;'></div></div>","null","pos","CS","CS","2","category2/CS8.png","","","","",""
"","html-keyboard-response","50","312681","0.0-6.0-4.0-0.2","9k8axbesz8","one_one","1","direct_first","1","er06ge10","0","27","1","1","3","1","","0","1","0","null","","","<div class = 'row'><div class = 'column'><img src = 'category4/CS7.png' width = '70%;'></div><div class = 'column'><img src = 'usneg/6020.bmp' width = '100%;'></div></div>","null","neg","CS","CS","4","category4/CS7.png","","","","",""
"","html-keyboard-response","51","315183","0.0-6.0-4.0-0.3","9k8axbesz8","one_one","1","direct_first","1","er06ge10","0","27","1","1","3","1","","0","1","0","null","","","<div class = 'row'><div class = 'column'><img src = 'category3/CS8.png' width = '70%;'></div><div class = 'column'><img src = 'usneg/9342.bmp' width = '100%;'></div></div>","null","neg","CS","CS","3","category3/CS8.png","","","","",""
"","html-keyboard-response","52","317686","0.0-6.0-4.0-0.4","9k8axbesz8","one_one","1","direct_first","1","er06ge10","0","27","1","1","3","1","","0","1","0","null","","","<div class = 'row'><div class = 'column'><img src = 'category2/CS8.png' width = '70%;'></div><div class = 'column'><img src = 'uspos/2165.bmp' width = '100%;'></div></div>","null","pos","CS","CS","2","category2/CS8.png","","","","",""
"","html-keyboard-response","53","320189","0.0-6.0-4.0-0.5","9k8axbesz8","one_one","1","direct_first","1","er06ge10","0","27","1","1","3","1","","0","1","0","null","","","<div class = 'row'><div class = 'column'><img src = 'usneg/6020.bmp' width = '100%;'></div><div class = 'column'><img src = 'category4/CS7.png' width = '70%;'></div></div>","null","neg","CS","CS","4","category4/CS7.png","","","","",""
"","html-keyboard-response","54","322692","0.0-6.0-4.0-0.6","9k8axbesz8","one_one","1","direct_first","1","er06ge10","0","27","1","1","3","1","","0","1","0","null","","","<div class = 'row'><div class = 'column'><img src = 'uspos/8461.bmp' width = '100%;'></div><div class = 'column'><img src = 'category1/CS8.png' width = '70%;'></div></div>","null","pos","CS","CS","1","category1/CS8.png","","","","",""
"","html-keyboard-response","55","325194","0.0-6.0-4.0-0.7","9k8axbesz8","one_one","1","direct_first","1","er06ge10","0","27","1","1","3","1","","0","1","0","null","","","<div class = 'row'><div class = 'column'><img src = 'category2/CS8.png' width = '70%;'></div><div class = 'column'><img src = 'uspos/2165.bmp' width = '100%;'></div></div>","null","pos","CS","CS","2","category2/CS8.png","","","","",""
"","html-keyboard-response","56","327697","0.0-6.0-4.0-0.8","9k8axbesz8","one_one","1","direct_first","1","er06ge10","0","27","1","1","3","1","","0","1","0","null","","","<div class = 'row'><div class = 'column'><img src = 'category4/CS7.png' width = '70%;'></div><div class = 'column'><img src = 'usneg/6020.bmp' width = '100%;'></div></div>","null","neg","CS","CS","4","category4/CS7.png","","","","",""
"","html-keyboard-response","57","330200","0.0-6.0-4.0-0.9","9k8axbesz8","one_one","1","direct_first","1","er06ge10","0","27","1","1","3","1","","0","1","0","null","","","<div class = 'row'><div class = 'column'><img src = 'usneg/9342.bmp' width = '100%;'></div><div class = 'column'><img src = 'category3/CS8.png' width = '70%;'></div></div>","null","neg","CS","CS","3","category3/CS8.png","","","","",""
"","html-keyboard-response","58","332702","0.0-6.0-4.0-0.10","9k8axbesz8","one_one","1","direct_first","1","er06ge10","0","27","1","1","3","1","","0","1","0","null","","","<div class = 'row'><div class = 'column'><img src = 'category1/CS8.png' width = '70%;'></div><div class = 'column'><img src = 'uspos/8461.bmp' width = '100%;'></div></div>","null","pos","CS","CS","1","category1/CS8.png","","","","",""
"","html-keyboard-response","59","335205","0.0-6.0-4.0-0.11","9k8axbesz8","one_one","1","direct_first","1","er06ge10","0","27","1","1","3","1","","0","1","0","null","","","<div class = 'row'><div class = 'column'><img src = 'category3/CS8.png' width = '70%;'></div><div class = 'column'><img src = 'usneg/9342.bmp' width = '100%;'></div></div>","null","neg","CS","CS","3","category3/CS8.png","","","","",""
"","html-keyboard-response","60","337707","0.0-6.0-4.0-0.12","9k8axbesz8","one_one","1","direct_first","1","er06ge10","0","27","1","1","3","1","","0","1","0","null","","","<div class = 'row'><div class = 'column'><img src = 'uspos/8461.bmp' width = '100%;'></div><div class = 'column'><img src = 'category1/CS8.png' width = '70%;'></div></div>","null","pos","CS","CS","1","category1/CS8.png","","","","",""
"","html-keyboard-response","61","340210","0.0-6.0-4.0-0.13","9k8axbesz8","one_one","1","direct_first","1","er06ge10","0","27","1","1","3","1","","0","1","0","null","","","<div class = 'row'><div class = 'column'><img src = 'usneg/9342.bmp' width = '100%;'></div><div class = 'column'><img src = 'category3/CS8.png' width = '70%;'></div></div>","null","neg","CS","CS","3","category3/CS8.png","","","","",""
"","html-keyboard-response","62","342712","0.0-6.0-4.0-0.14","9k8axbesz8","one_one","1","direct_first","1","er06ge10","0","27","1","1","3","1","","0","1","0","null","","","<div class = 'row'><div class = 'column'><img src = 'category1/CS8.png' width = '70%;'></div><div class = 'column'><img src = 'uspos/8461.bmp' width = '100%;'></div></div>","null","pos","CS","CS","1","category1/CS8.png","","","","",""
"","html-keyboard-response","63","345215","0.0-6.0-4.0-0.15","9k8axbesz8","one_one","1","direct_first","1","er06ge10","0","27","1","1","3","1","","0","1","0","null","","","<div class = 'row'><div class = 'column'><img src = 'usneg/6020.bmp' width = '100%;'></div><div class = 'column'><img src = 'category4/CS7.png' width = '70%;'></div></div>","null","neg","CS","CS","4","category4/CS7.png","","","","",""
"","html-keyboard-response","64","347721","0.0-6.0-4.0-0.16","9k8axbesz8","one_one","1","direct_first","1","er06ge10","0","27","1","1","3","1","","0","1","0","null","","","<div class = 'row'><div class = 'column'><img src = 'category2/CS8.png' width = '70%;'></div><div class = 'column'><img src = 'uspos/2165.bmp' width = '100%;'></div></div>","null","pos","CS","CS","2","category2/CS8.png","","","","",""
"","html-keyboard-response","65","350224","0.0-6.0-4.0-0.17","9k8axbesz8","one_one","1","direct_first","1","er06ge10","0","27","1","1","3","1","","0","1","0","null","","","<div class = 'row'><div class = 'column'><img src = 'category4/CS7.png' width = '70%;'></div><div class = 'column'><img src = 'usneg/6020.bmp' width = '100%;'></div></div>","null","neg","CS","CS","4","category4/CS7.png","","","","",""
"","html-keyboard-response","66","352726","0.0-6.0-4.0-0.18","9k8axbesz8","one_one","1","direct_first","1","er06ge10","0","27","1","1","3","1","","0","1","0","null","","","<div class = 'row'><div class = 'column'><img src = 'usneg/9342.bmp' width = '100%;'></div><div class = 'column'><img src = 'category3/CS8.png' width = '70%;'></div></div>","null","neg","CS","CS","3","category3/CS8.png","","","","",""
"","html-keyboard-response","67","355229","0.0-6.0-4.0-0.19","9k8axbesz8","one_one","1","direct_first","1","er06ge10","0","27","1","1","3","1","","0","1","0","null","","","<div class = 'row'><div class = 'column'><img src = 'uspos/2165.bmp' width = '100%;'></div><div class = 'column'><img src = 'category2/CS8.png' width = '70%;'></div></div>","null","pos","CS","CS","2","category2/CS8.png","","","","",""
"","survey-html-form","68","360728","0.0-6.0-5.0","9k8axbesz8","one_one","1","direct_first","1","er06ge10","0","27","1","1","3","1","","0","1","0","4997","","{}","","","","","","","","","","","",""
"","html-keyboard-response","69","364732","0.0-6.0-6.0-0.0","9k8axbesz8","one_one","1","direct_first","1","er06ge10","0","27","1","1","3","1","","0","1","0","null","","","<div class = 'row'><div class = 'column'><img src = 'category4/CS7.png' width = '70%;'></div><div class = 'column'><img src = 'usneg/6020.bmp' width = '100%;'></div></div>","null","neg","CS","CS","4","category4/CS7.png","","","","",""
"","html-keyboard-response","70","367235","0.0-6.0-6.0-0.1","9k8axbesz8","one_one","1","direct_first","1","er06ge10","0","27","1","1","3","1","","0","1","0","null","","","<div class = 'row'><div class = 'column'><img src = 'uspos/8461.bmp' width = '100%;'></div><div class = 'column'><img src = 'category1/CS8.png' width = '70%;'></div></div>","null","pos","CS","CS","1","category1/CS8.png","","","","",""
"","html-keyboard-response","71","369738","0.0-6.0-6.0-0.2","9k8axbesz8","one_one","1","direct_first","1","er06ge10","0","27","1","1","3","1","","0","1","0","null","","","<div class = 'row'><div class = 'column'><img src = 'category2/CS8.png' width = '70%;'></div><div class = 'column'><img src = 'uspos/2165.bmp' width = '100%;'></div></div>","null","pos","CS","CS","2","category2/CS8.png","","","","",""
"","html-keyboard-response","72","372240","0.0-6.0-6.0-0.3","9k8axbesz8","one_one","1","direct_first","1","er06ge10","0","27","1","1","3","1","","0","1","0","null","","","<div class = 'row'><div class = 'column'><img src = 'category4/CS7.png' width = '70%;'></div><div class = 'column'><img src = 'usneg/6020.bmp' width = '100%;'></div></div>","null","neg","CS","CS","4","category4/CS7.png","","","","",""
"","html-keyboard-response","73","374742","0.0-6.0-6.0-0.4","9k8axbesz8","one_one","1","direct_first","1","er06ge10","0","27","1","1","3","1","","0","1","0","null","","","<div class = 'row'><div class = 'column'><img src = 'uspos/8461.bmp' width = '100%;'></div><div class = 'column'><img src = 'category1/CS8.png' width = '70%;'></div></div>","null","pos","CS","CS","1","category1/CS8.png","","","","",""
"","html-keyboard-response","74","377244","0.0-6.0-6.0-0.5","9k8axbesz8","one_one","1","direct_first","1","er06ge10","0","27","1","1","3","1","","0","1","0","null","","","<div class = 'row'><div class = 'column'><img src = 'usneg/9342.bmp' width = '100%;'></div><div class = 'column'><img src = 'category3/CS8.png' width = '70%;'></div></div>","null","neg","CS","CS","3","category3/CS8.png","","","","",""
"","html-keyboard-response","75","379748","0.0-6.0-6.0-0.6","9k8axbesz8","one_one","1","direct_first","1","er06ge10","0","27","1","1","3","1","","0","1","0","null","","","<div class = 'row'><div class = 'column'><img src = 'category1/CS8.png' width = '70%;'></div><div class = 'column'><img src = 'uspos/8461.bmp' width = '100%;'></div></div>","null","pos","CS","CS","1","category1/CS8.png","","","","",""
"","html-keyboard-response","76","382250","0.0-6.0-6.0-0.7","9k8axbesz8","one_one","1","direct_first","1","er06ge10","0","27","1","1","3","1","","0","1","0","null","","","<div class = 'row'><div class = 'column'><img src = 'category4/CS7.png' width = '70%;'></div><div class = 'column'><img src = 'usneg/6020.bmp' width = '100%;'></div></div>","null","neg","CS","CS","4","category4/CS7.png","","","","",""
"","html-keyboard-response","77","384753","0.0-6.0-6.0-0.8","9k8axbesz8","one_one","1","direct_first","1","er06ge10","0","27","1","1","3","1","","0","1","0","null","","","<div class = 'row'><div class = 'column'><img src = 'category3/CS8.png' width = '70%;'></div><div class = 'column'><img src = 'usneg/9342.bmp' width = '100%;'></div></div>","null","neg","CS","CS","3","category3/CS8.png","","","","",""
"","html-keyboard-response","78","387255","0.0-6.0-6.0-0.9","9k8axbesz8","one_one","1","direct_first","1","er06ge10","0","27","1","1","3","1","","0","1","0","null","","","<div class = 'row'><div class = 'column'><img src = 'uspos/2165.bmp' width = '100%;'></div><div class = 'column'><img src = 'category2/CS8.png' width = '70%;'></div></div>","null","pos","CS","CS","2","category2/CS8.png","","","","",""
"","html-keyboard-response","79","389758","0.0-6.0-6.0-0.10","9k8axbesz8","one_one","1","direct_first","1","er06ge10","0","27","1","1","3","1","","0","1","0","null","","","<div class = 'row'><div class = 'column'><img src = 'category3/CS8.png' width = '70%;'></div><div class = 'column'><img src = 'usneg/9342.bmp' width = '100%;'></div></div>","null","neg","CS","CS","3","category3/CS8.png","","","","",""
"","html-keyboard-response","80","392261","0.0-6.0-6.0-0.11","9k8axbesz8","one_one","1","direct_first","1","er06ge10","0","27","1","1","3","1","","0","1","0","null","","","<div class = 'row'><div class = 'column'><img src = 'usneg/6020.bmp' width = '100%;'></div><div class = 'column'><img src = 'category4/CS7.png' width = '70%;'></div></div>","null","neg","CS","CS","4","category4/CS7.png","","","","",""
"","html-keyboard-response","81","394763","0.0-6.0-6.0-0.12","9k8axbesz8","one_one","1","direct_first","1","er06ge10","0","27","1","1","3","1","","0","1","0","null","","","<div class = 'row'><div class = 'column'><img src = 'category2/CS8.png' width = '70%;'></div><div class = 'column'><img src = 'uspos/2165.bmp' width = '100%;'></div></div>","null","pos","CS","CS","2","category2/CS8.png","","","","",""
"","html-keyboard-response","82","397265","0.0-6.0-6.0-0.13","9k8axbesz8","one_one","1","direct_first","1","er06ge10","0","27","1","1","3","1","","0","1","0","null","","","<div class = 'row'><div class = 'column'><img src = 'category1/CS8.png' width = '70%;'></div><div class = 'column'><img src = 'uspos/8461.bmp' width = '100%;'></div></div>","null","pos","CS","CS","1","category1/CS8.png","","","","",""
"","html-keyboard-response","83","399768","0.0-6.0-6.0-0.14","9k8axbesz8","one_one","1","direct_first","1","er06ge10","0","27","1","1","3","1","","0","1","0","null","","","<div class = 'row'><div class = 'column'><img src = 'category3/CS8.png' width = '70%;'></div><div class = 'column'><img src = 'usneg/9342.bmp' width = '100%;'></div></div>","null","neg","CS","CS","3","category3/CS8.png","","","","",""
"","html-keyboard-response","84","402271","0.0-6.0-6.0-0.15","9k8axbesz8","one_one","1","direct_first","1","er06ge10","0","27","1","1","3","1","","0","1","0","null","","","<div class = 'row'><div class = 'column'><img src = 'category2/CS8.png' width = '70%;'></div><div class = 'column'><img src = 'uspos/2165.bmp' width = '100%;'></div></div>","null","pos","CS","CS","2","category2/CS8.png","","","","",""
"","html-keyboard-response","85","404773","0.0-6.0-6.0-0.16","9k8axbesz8","one_one","1","direct_first","1","er06ge10","0","27","1","1","3","1","","0","1","0","null","","","<div class = 'row'><div class = 'column'><img src = 'category3/CS8.png' width = '70%;'></div><div class = 'column'><img src = 'usneg/9342.bmp' width = '100%;'></div></div>","null","neg","CS","CS","3","category3/CS8.png","","","","",""
"","html-keyboard-response","86","407275","0.0-6.0-6.0-0.17","9k8axbesz8","one_one","1","direct_first","1","er06ge10","0","27","1","1","3","1","","0","1","0","null","","","<div class = 'row'><div class = 'column'><img src = 'uspos/2165.bmp' width = '100%;'></div><div class = 'column'><img src = 'category2/CS8.png' width = '70%;'></div></div>","null","pos","CS","CS","2","category2/CS8.png","","","","",""
"","html-keyboard-response","87","409778","0.0-6.0-6.0-0.18","9k8axbesz8","one_one","1","direct_first","1","er06ge10","0","27","1","1","3","1","","0","1","0","null","","","<div class = 'row'><div class = 'column'><img src = 'uspos/8461.bmp' width = '100%;'></div><div class = 'column'><img src = 'category1/CS8.png' width = '70%;'></div></div>","null","pos","CS","CS","1","category1/CS8.png","","","","",""
"","html-keyboard-response","88","412280","0.0-6.0-6.0-0.19","9k8axbesz8","one_one","1","direct_first","1","er06ge10","0","27","1","1","3","1","","0","1","0","null","","","<div class = 'row'><div class = 'column'><img src = 'usneg/6020.bmp' width = '100%;'></div><div class = 'column'><img src = 'category4/CS7.png' width = '70%;'></div></div>","null","neg","CS","CS","4","category4/CS7.png","","","","",""
"","survey-html-form","89","425511","0.0-7.0","9k8axbesz8","one_one","1","direct_first","1","er06ge10","0","27","1","1","3","1","","0","1","0","12730","","{}","","","","","","","","","","","",""
"","image-slider-response","90","436750","0.0-8.0-0.0","9k8axbesz8","one_one","1","direct_first","1","er06ge10","0","27","1","1","3","1","","0","1","0","9225","","","","","neg","GS","GSnew","4","category4/GS2.png","-27","targets/46.png","direct","",""
"","image-slider-response","91","440855","0.0-8.0-0.1","9k8axbesz8","one_one","1","direct_first","1","er06ge10","0","27","1","1","3","1","","0","1","0","4099","","","","","pos","GS","GSnew","2","category2/GS2.png","-21","targets/48.png","direct","",""
"","image-slider-response","92","445399","0.0-8.0-0.2","9k8axbesz8","one_one","1","direct_first","1","er06ge10","0","27","1","1","3","1","","0","1","0","4536","","","","","neg","GS","GSold","4","category4/CS5.png","-13","targets/35.png","direct","",""
"","image-slider-response","93","451094","0.0-8.0-0.3","9k8axbesz8","one_one","1","direct_first","1","er06ge10","0","27","1","1","3","1","","0","1","0","5687","","","","","neg","GS","GSold","3","category3/CS1.png","33","targets/47.png","direct","",""
"","image-slider-response","94","458502","0.0-8.0-0.4","9k8axbesz8","one_one","1","direct_first","1","er06ge10","0","27","1","1","3","1","","0","1","0","7401","","","","","pos","GS","GSnew","1","category1/GS2.png","-38","targets/15.png","direct","",""
"","image-slider-response","95","465463","0.0-8.0-0.5","9k8axbesz8","one_one","1","direct_first","1","er06ge10","0","27","1","1","3","1","","0","1","0","6954","","","","","pos","GS","GSnew","2","category2/GS3.png","-43","targets/8.png","direct","",""
"","image-slider-response","96","469566","0.0-8.0-0.6","9k8axbesz8","one_one","1","direct_first","1","er06ge10","0","27","1","1","3","1","","0","1","0","4094","","","","","pos","GS","GSnew","1","category1/GS1.png","-24","targets/33.png","direct","",""
"","image-slider-response","97","472903","0.0-8.0-0.7","9k8axbesz8","one_one","1","direct_first","1","er06ge10","0","27","1","1","3","1","","0","1","0","3330","","","","","pos","GS","abstract","1","category1/ma.png","16","targets/29.png","direct","",""
"","image-slider-response","98","480670","0.0-8.0-0.8","9k8axbesz8","one_one","1","direct_first","1","er06ge10","0","27","1","1","3","1","","0","1","0","7760","","","","","neg","CS","CS","3","category3/CS8.png","71","targets/23.png","direct","",""
"","image-slider-response","99","485392","0.0-8.0-0.9","9k8axbesz8","one_one","1","direct_first","1","er06ge10","0","27","1","1","3","1","","0","1","0","4715","","","","","pos","GS","GSold","2","category2/CS3.png","70","targets/39.png","direct","",""
"","image-slider-response","100","491567","0.0-8.0-0.10","9k8axbesz8","one_one","1","direct_first","1","er06ge10","0","27","1","1","3","1","","0","1","0","6167","","","","","pos","GS","GSold","1","category1/CS9.png","62","targets/36.png","direct","",""
"","image-slider-response","101","496344","0.0-8.0-0.11","9k8axbesz8","one_one","1","direct_first","1","er06ge10","0","27","1","1","3","1","","0","1","0","4767","","","","","pos","CS","CS","1","category1/CS8.png","1","targets/5.png","direct","",""
"","image-slider-response","102","499119","0.0-8.0-0.12","9k8axbesz8","one_one","1","direct_first","1","er06ge10","0","27","1","1","3","1","","0","1","0","2764","","","","","pos","GS","GSold","2","category2/CS5.png","29","targets/40.png","direct","",""
"","image-slider-response","103","502677","0.0-8.0-0.13","9k8axbesz8","one_one","1","direct_first","1","er06ge10","0","27","1","1","3","1","","0","1","0","3551","","","","","pos","GS","GSold","1","category1/CS6.png","-27","targets/26.png","direct","",""
"","image-slider-response","104","506646","0.0-8.0-0.14","9k8axbesz8","one_one","1","direct_first","1","er06ge10","0","27","1","1","3","1","","0","1","0","3962","","","","","neg","GS","GSnew","3","category3/GS3.png","26","targets/22.png","direct","",""
"","image-slider-response","105","509319","0.0-8.0-0.15","9k8axbesz8","one_one","1","direct_first","1","er06ge10","0","27","1","1","3","1","","0","1","0","2666","","","","","neg","GS","GSnew","4","category4/GS1.png","8","targets/9.png","direct","",""
"","image-slider-response","106","512870","0.0-8.0-0.16","9k8axbesz8","one_one","1","direct_first","1","er06ge10","0","27","1","1","3","1","","0","1","0","3543","","","","","neg","GS","GSnew","4","category4/GS3.png","15","targets/42.png","direct","",""
"","image-slider-response","107","516307","0.0-8.0-0.17","9k8axbesz8","one_one","1","direct_first","1","er06ge10","0","27","1","1","3","1","","0","1","0","3432","","","","","pos","GS","GSnew","1","category1/GS3.png","41","targets/41.png","direct","",""
"","image-slider-response","108","519816","0.0-8.0-0.18","9k8axbesz8","one_one","1","direct_first","1","er06ge10","0","27","1","1","3","1","","0","1","0","3499","","","","","neg","GS","GSold","4","category4/CS8.png","-17","targets/14.png","direct","",""
"","image-slider-response","109","523952","0.0-8.0-0.19","9k8axbesz8","one_one","1","direct_first","1","er06ge10","0","27","1","1","3","1","","0","1","0","4125","","","","","neg","GS","GSnew","3","category3/GS1.png","57","targets/34.png","direct","",""
"","image-slider-response","110","528944","0.0-8.0-0.20","9k8axbesz8","one_one","1","direct_first","1","er06ge10","0","27","1","1","3","1","","0","1","0","4981","","","","","neg","GS","abstract","4","category4/lin.png","13","targets/18.png","direct","",""
"","image-slider-response","111","532303","0.0-8.0-0.21","9k8axbesz8","one_one","1","direct_first","1","er06ge10","0","27","1","1","3","1","","0","1","0","3350","","","","","neg","GS","abstract","3","category3/wang.png","33","targets/31.png","direct","",""
"","image-slider-response","112","534758","0.0-8.0-0.22","9k8axbesz8","one_one","1","direct_first","1","er06ge10","0","27","1","1","3","1","","0","1","0","2445","","","","","pos","GS","abstract","2","category2/men.png","21","targets/6.png","direct","",""
"","image-slider-response","113","539110","0.0-8.0-0.23","9k8axbesz8","one_one","1","direct_first","1","er06ge10","0","27","1","1","3","1","","0","1","0","4344","","","","","pos","CS","CS","2","category2/CS8.png","40","targets/37.png","direct","",""
"","image-slider-response","114","542629","0.0-8.0-0.24","9k8axbesz8","one_one","1","direct_first","1","er06ge10","0","27","1","1","3","1","","0","1","0","3515","","","","","neg","CS","CS","4","category4/CS7.png","-19","targets/24.png","direct","",""
"","image-slider-response","115","547232","0.0-8.0-0.25","9k8axbesz8","one_one","1","direct_first","1","er06ge10","0","27","1","1","3","1","","0","1","0","4596","","","","","neg","GS","GSnew","3","category3/GS2.png","44","targets/16.png","direct","",""
"","image-slider-response","116","551382","0.0-8.0-0.26","9k8axbesz8","one_one","1","direct_first","1","er06ge10","0","27","1","1","3","1","","0","1","0","4138","","","","","pos","GS","GSold","1","category1/CS4.png","3","targets/3.png","direct","",""
"","image-slider-response","117","554054","0.0-8.0-0.27","9k8axbesz8","one_one","1","direct_first","1","er06ge10","0","27","1","1","3","1","","0","1","0","2665","","","","","neg","GS","GSold","3","category3/CS7.png","12","targets/28.png","direct","",""
"","image-slider-response","118","558213","0.0-8.0-0.28","9k8axbesz8","one_one","1","direct_first","1","er06ge10","0","27","1","1","3","1","","0","1","0","4151","","","","","pos","GS","GSold","2","category2/CS9.png","87","targets/12.png","direct","",""
"","image-slider-response","119","561056","0.0-8.0-0.29","9k8axbesz8","one_one","1","direct_first","1","er06ge10","0","27","1","1","3","1","","0","1","0","2836","","","","","pos","GS","GSnew","2","category2/GS1.png","-32","targets/10.png","direct","",""
"","image-slider-response","120","564323","0.0-8.0-0.30","9k8axbesz8","one_one","1","direct_first","1","er06ge10","0","27","1","1","3","1","","0","1","0","3259","","","","","neg","GS","GSold","4","category4/CS3.png","10","targets/7.png","direct","",""
"","image-slider-response","121","567423","0.0-8.0-0.31","9k8axbesz8","one_one","1","direct_first","1","er06ge10","0","27","1","1","3","1","","0","1","0","3090","","","","","neg","GS","GSold","3","category3/CS3.png","37","targets/13.png","direct","",""
"","html-keyboard-response","122","598368","0.0-9.0","9k8axbesz8","one_one","1","direct_first","1","er06ge10","0","27","1","1","3","1","","0","1","0","30939","","","<p>Sie sehen nun die chinesischen Zeichen nur ganz kurz. Danach sehen Sie die jeweilige Aussprache der Zeichen als Silbe auf dem Bildschrim. Ihre Aufgabe ist es, für jede Silbe anzugeben, ob diese etwas angenehmes, oder unangenehmes bedeuten könnte. Verlassen Sie sich hier vor allem auf Ihre Intuition.<br><br>Die Zeichen werden nur zur Orientierung dargestellt, beachten Sie sie deshalb nicht. Konzentrieren Sie sich vor allem auf die Silben. <br>Reagieren Sie mit folgenden zwei Tasten: <br><br><b>'D' </b> wenn die Silbe etwas <b>unangenehmes</b> bedeuten könnte. <br><b>'K'</b> wenn die Silbe etwas <b>angenehmes</b> bedeuten könnte. <br><br>Bitte legen Sie nun den Zeigefinger der linken Hand auf die Taste 'D' und den Zeigefinger der rechten Hand auf die Taste 'K'. <br>Reagieren Sie auf jede Silbe so schnell wie möglich. Uns interessiert Ihre spontane Reaktion. <br> <br> <br>Drücken Sie 'D' oder 'K', um die nächste Aufgabe zu starten. </p>","75","","","","","","","","","",""
"","html-keyboard-response","123","601370","0.0-10.0-0.0","9k8axbesz8","one_one","1","direct_first","1","er06ge10","0","27","1","1","3","1","","0","1","0","null","","","<div style=""font-size:60px;"">+</div>","null","","","","","","","","","",""
"","html-keyboard-response","124","601462","0.0-10.0-1.0","9k8axbesz8","one_one","1","direct_first","1","er06ge10","0","27","1","1","3","1","","0","1","0","null","","","<img src = 'category4/CS8.png' width = '100%;'>","null","","","","","","","","","",""
"","html-keyboard-response","125","601714","0.0-10.0-2.0","9k8axbesz8","one_one","1","direct_first","1","er06ge10","0","27","1","1","3","1","","0","1","0","null","","","<img src = 'targets/14.png' width = '100%;'>","null","","","","","","","","","",""
"","html-keyboard-response","126","603712","0.0-10.0-3.0","9k8axbesz8","one_one","1","direct_first","1","er06ge10","0","27","1","1","3","1","","0","1","0","1995","","","<img src = 'targets/mask.png' width = '100%;'>","75","neg","GS","GSold","4","category4/CS8.png","","targets/14.png","indirect","1","0"
"","html-keyboard-response","127","605216","0.0-10.0-0.1","9k8axbesz8","one_one","1","direct_first","1","er06ge10","0","27","1","1","3","1","","0","1","0","null","","","<div style=""font-size:60px;"">+</div>","null","","","","","","","","","",""
"","html-keyboard-response","128","605309","0.0-10.0-1.1","9k8axbesz8","one_one","1","direct_first","1","er06ge10","0","27","1","1","3","1","","0","1","0","null","","","<img src = 'category4/CS3.png' width = '100%;'>","null","","","","","","","","","",""
"","html-keyboard-response","129","605562","0.0-10.0-2.1","9k8axbesz8","one_one","1","direct_first","1","er06ge10","0","27","1","1","3","1","","0","1","0","null","","","<img src = 'targets/7.png' width = '100%;'>","null","","","","","","","","","",""
"","html-keyboard-response","130","606832","0.0-10.0-3.1","9k8axbesz8","one_one","1","direct_first","1","er06ge10","0","27","1","1","3","1","","0","1","0","1269","","","<img src = 'targets/mask.png' width = '100%;'>","75","neg","GS","GSold","4","category4/CS3.png","","targets/7.png","indirect","1","1"
"","html-keyboard-response","131","608334","0.0-10.0-0.2","9k8axbesz8","one_one","1","direct_first","1","er06ge10","0","27","1","1","3","1","","0","1","0","null","","","<div style=""font-size:60px;"">+</div>","null","","","","","","","","","",""
"","html-keyboard-response","132","608426","0.0-10.0-1.2","9k8axbesz8","one_one","1","direct_first","1","er06ge10","0","27","1","1","3","1","","0","1","0","null","","","<img src = 'category1/CS8.png' width = '100%;'>","null","","","","","","","","","",""
"","html-keyboard-response","133","608678","0.0-10.0-2.2","9k8axbesz8","one_one","1","direct_first","1","er06ge10","0","27","1","1","3","1","","0","1","0","null","","","<img src = 'targets/5.png' width = '100%;'>","null","","","","","","","","","",""
"","html-keyboard-response","134","609532","0.0-10.0-3.2","9k8axbesz8","one_one","1","direct_first","1","er06ge10","0","27","1","1","3","1","","0","1","0","851","","","<img src = 'targets/mask.png' width = '100%;'>","75","pos","CS","CS","1","category1/CS8.png","","targets/5.png","indirect","1","2"
"","html-keyboard-response","135","611033","0.0-10.0-0.3","9k8axbesz8","one_one","1","direct_first","1","er06ge10","0","27","1","1","3","1","","0","1","0","null","","","<div style=""font-size:60px;"">+</div>","null","","","","","","","","","",""
"","html-keyboard-response","136","611125","0.0-10.0-1.3","9k8axbesz8","one_one","1","direct_first","1","er06ge10","0","27","1","1","3","1","","0","1","0","null","","","<img src = 'category3/CS8.png' width = '100%;'>","null","","","","","","","","","",""
"","html-keyboard-response","137","611377","0.0-10.0-2.3","9k8axbesz8","one_one","1","direct_first","1","er06ge10","0","27","1","1","3","1","","0","1","0","null","","","<img src = 'targets/23.png' width = '100%;'>","null","","","","","","","","","",""
"","html-keyboard-response","138","612958","0.0-10.0-3.3","9k8axbesz8","one_one","1","direct_first","1","er06ge10","0","27","1","1","3","1","","0","1","0","1579","","","<img src = 'targets/mask.png' width = '100%;'>","75","neg","CS","CS","3","category3/CS8.png","","targets/23.png","indirect","1","3"
"","html-keyboard-response","139","614460","0.0-10.0-0.4","9k8axbesz8","one_one","1","direct_first","1","er06ge10","0","27","1","1","3","1","","0","1","0","null","","","<div style=""font-size:60px;"">+</div>","null","","","","","","","","","",""
"","html-keyboard-response","140","614552","0.0-10.0-1.4","9k8axbesz8","one_one","1","direct_first","1","er06ge10","0","27","1","1","3","1","","0","1","0","null","","","<img src = 'category1/CS9.png' width = '100%;'>","null","","","","","","","","","",""
"","html-keyboard-response","141","614804","0.0-10.0-2.4","9k8axbesz8","one_one","1","direct_first","1","er06ge10","0","27","1","1","3","1","","0","1","0","null","","","<img src = 'targets/36.png' width = '100%;'>","null","","","","","","","","","",""
"","html-keyboard-response","142","615896","0.0-10.0-3.4","9k8axbesz8","one_one","1","direct_first","1","er06ge10","0","27","1","1","3","1","","0","1","0","1089","","","<img src = 'targets/mask.png' width = '100%;'>","75","pos","GS","GSold","1","category1/CS9.png","","targets/36.png","indirect","1","4"
"","html-keyboard-response","143","617398","0.0-10.0-0.5","9k8axbesz8","one_one","1","direct_first","1","er06ge10","0","27","1","1","3","1","","0","1","0","null","","","<div style=""font-size:60px;"">+</div>","null","","","","","","","","","",""
"","html-keyboard-response","144","617489","0.0-10.0-1.5","9k8axbesz8","one_one","1","direct_first","1","er06ge10","0","27","1","1","3","1","","0","1","0","null","","","<img src = 'category1/CS6.png' width = '100%;'>","null","","","","","","","","","",""
"","html-keyboard-response","145","617742","0.0-10.0-2.5","9k8axbesz8","one_one","1","direct_first","1","er06ge10","0","27","1","1","3","1","","0","1","0","null","","","<img src = 'targets/26.png' width = '100%;'>","null","","","","","","","","","",""
"","html-keyboard-response","146","618942","0.0-10.0-3.5","9k8axbesz8","one_one","1","direct_first","1","er06ge10","0","27","1","1","3","1","","0","1","0","1199","","","<img src = 'targets/mask.png' width = '100%;'>","75","pos","GS","GSold","1","category1/CS6.png","","targets/26.png","indirect","1","5"
"","html-keyboard-response","147","620445","0.0-10.0-0.6","9k8axbesz8","one_one","1","direct_first","1","er06ge10","0","27","1","1","3","1","","0","1","0","null","","","<div style=""font-size:60px;"">+</div>","null","","","","","","","","","",""
"","html-keyboard-response","148","620536","0.0-10.0-1.6","9k8axbesz8","one_one","1","direct_first","1","er06ge10","0","27","1","1","3","1","","0","1","0","null","","","<img src = 'category2/CS3.png' width = '100%;'>","null","","","","","","","","","",""
"","html-keyboard-response","149","620788","0.0-10.0-2.6","9k8axbesz8","one_one","1","direct_first","1","er06ge10","0","27","1","1","3","1","","0","1","0","null","","","<img src = 'targets/39.png' width = '100%;'>","null","","","","","","","","","",""
"","html-keyboard-response","150","621590","0.0-10.0-3.6","9k8axbesz8","one_one","1","direct_first","1","er06ge10","0","27","1","1","3","1","","0","1","0","800","","","<img src = 'targets/mask.png' width = '100%;'>","68","pos","GS","GSold","2","category2/CS3.png","","targets/39.png","indirect","0","6"
"","html-keyboard-response","151","623092","0.0-10.0-0.7","9k8axbesz8","one_one","1","direct_first","1","er06ge10","0","27","1","1","3","1","","0","1","0","null","","","<div style=""font-size:60px;"">+</div>","null","","","","","","","","","",""
"","html-keyboard-response","152","623185","0.0-10.0-1.7","9k8axbesz8","one_one","1","direct_first","1","er06ge10","0","27","1","1","3","1","","0","1","0","null","","","<img src = 'category2/CS8.png' width = '100%;'>","null","","","","","","","","","",""
"","html-keyboard-response","153","623437","0.0-10.0-2.7","9k8axbesz8","one_one","1","direct_first","1","er06ge10","0","27","1","1","3","1","","0","1","0","null","","","<img src = 'targets/37.png' width = '100%;'>","null","","","","","","","","","",""
"","html-keyboard-response","154","624594","0.0-10.0-3.7","9k8axbesz8","one_one","1","direct_first","1","er06ge10","0","27","1","1","3","1","","0","1","0","1156","","","<img src = 'targets/mask.png' width = '100%;'>","68","pos","CS","CS","2","category2/CS8.png","","targets/37.png","indirect","0","7"
"","html-keyboard-response","155","626096","0.0-10.0-0.8","9k8axbesz8","one_one","1","direct_first","1","er06ge10","0","27","1","1","3","1","","0","1","0","null","","","<div style=""font-size:60px;"">+</div>","null","","","","","","","","","",""
"","html-keyboard-response","156","626188","0.0-10.0-1.8","9k8axbesz8","one_one","1","direct_first","1","er06ge10","0","27","1","1","3","1","","0","1","0","null","","","<img src = 'category3/CS3.png' width = '100%;'>","null","","","","","","","","","",""
"","html-keyboard-response","157","626440","0.0-10.0-2.8","9k8axbesz8","one_one","1","direct_first","1","er06ge10","0","27","1","1","3","1","","0","1","0","null","","","<img src = 'targets/13.png' width = '100%;'>","null","","","","","","","","","",""
"","html-keyboard-response","158","627027","0.0-10.0-3.8","9k8axbesz8","one_one","1","direct_first","1","er06ge10","0","27","1","1","3","1","","0","1","0","586","","","<img src = 'targets/mask.png' width = '100%;'>","75","neg","GS","GSold","3","category3/CS3.png","","targets/13.png","indirect","1","8"
"","html-keyboard-response","159","628529","0.0-10.0-0.9","9k8axbesz8","one_one","1","direct_first","1","er06ge10","0","27","1","1","3","1","","0","1","0","null","","","<div style=""font-size:60px;"">+</div>","null","","","","","","","","","",""
"","html-keyboard-response","160","628621","0.0-10.0-1.9","9k8axbesz8","one_one","1","direct_first","1","er06ge10","0","27","1","1","3","1","","0","1","0","null","","","<img src = 'category2/CS9.png' width = '100%;'>","null","","","","","","","","","",""
"","html-keyboard-response","161","628873","0.0-10.0-2.9","9k8axbesz8","one_one","1","direct_first","1","er06ge10","0","27","1","1","3","1","","0","1","0","null","","","<img src = 'targets/12.png' width = '100%;'>","null","","","","","","","","","",""
"","html-keyboard-response","162","629832","0.0-10.0-3.9","9k8axbesz8","one_one","1","direct_first","1","er06ge10","0","27","1","1","3","1","","0","1","0","958","","","<img src = 'targets/mask.png' width = '100%;'>","75","pos","GS","GSold","2","category2/CS9.png","","targets/12.png","indirect","1","9"
"","html-keyboard-response","163","631334","0.0-10.0-0.10","9k8axbesz8","one_one","1","direct_first","1","er06ge10","0","27","1","1","3","1","","0","1","0","null","","","<div style=""font-size:60px;"">+</div>","null","","","","","","","","","",""
"","html-keyboard-response","164","631426","0.0-10.0-1.10","9k8axbesz8","one_one","1","direct_first","1","er06ge10","0","27","1","1","3","1","","0","1","0","null","","","<img src = 'category3/CS1.png' width = '100%;'>","null","","","","","","","","","",""
"","html-keyboard-response","165","631678","0.0-10.0-2.10","9k8axbesz8","one_one","1","direct_first","1","er06ge10","0","27","1","1","3","1","","0","1","0","null","","","<img src = 'targets/47.png' width = '100%;'>","null","","","","","","","","","",""
"","html-keyboard-response","166","632832","0.0-10.0-3.10","9k8axbesz8","one_one","1","direct_first","1","er06ge10","0","27","1","1","3","1","","0","1","0","1152","","","<img src = 'targets/mask.png' width = '100%;'>","68","neg","GS","GSold","3","category3/CS1.png","","targets/47.png","indirect","0","10"
"","html-keyboard-response","167","634334","0.0-10.0-0.11","9k8axbesz8","one_one","1","direct_first","1","er06ge10","0","27","1","1","3","1","","0","1","0","null","","","<div style=""font-size:60px;"">+</div>","null","","","","","","","","","",""
"","html-keyboard-response","168","634425","0.0-10.0-1.11","9k8axbesz8","one_one","1","direct_first","1","er06ge10","0","27","1","1","3","1","","0","1","0","null","","","<img src = 'category3/CS7.png' width = '100%;'>","null","","","","","","","","","",""
"","html-keyboard-response","169","634677","0.0-10.0-2.11","9k8axbesz8","one_one","1","direct_first","1","er06ge10","0","27","1","1","3","1","","0","1","0","null","","","<img src = 'targets/28.png' width = '100%;'>","null","","","","","","","","","",""
"","html-keyboard-response","170","635525","0.0-10.0-3.11","9k8axbesz8","one_one","1","direct_first","1","er06ge10","0","27","1","1","3","1","","0","1","0","846","","","<img src = 'targets/mask.png' width = '100%;'>","68","neg","GS","GSold","3","category3/CS7.png","","targets/28.png","indirect","0","11"
"","html-keyboard-response","171","637027","0.0-10.0-0.12","9k8axbesz8","one_one","1","direct_first","1","er06ge10","0","27","1","1","3","1","","0","1","0","null","","","<div style=""font-size:60px;"">+</div>","null","","","","","","","","","",""
"","html-keyboard-response","172","637119","0.0-10.0-1.12","9k8axbesz8","one_one","1","direct_first","1","er06ge10","0","27","1","1","3","1","","0","1","0","null","","","<img src = 'category4/CS5.png' width = '100%;'>","null","","","","","","","","","",""
"","html-keyboard-response","173","637371","0.0-10.0-2.12","9k8axbesz8","one_one","1","direct_first","1","er06ge10","0","27","1","1","3","1","","0","1","0","null","","","<img src = 'targets/35.png' width = '100%;'>","null","","","","","","","","","",""
"","html-keyboard-response","174","638707","0.0-10.0-3.12","9k8axbesz8","one_one","1","direct_first","1","er06ge10","0","27","1","1","3","1","","0","1","0","1334","","","<img src = 'targets/mask.png' width = '100%;'>","75","neg","GS","GSold","4","category4/CS5.png","","targets/35.png","indirect","1","12"
"","html-keyboard-response","175","640208","0.0-10.0-0.13","9k8axbesz8","one_one","1","direct_first","1","er06ge10","0","27","1","1","3","1","","0","1","0","null","","","<div style=""font-size:60px;"">+</div>","null","","","","","","","","","",""
"","html-keyboard-response","176","640301","0.0-10.0-1.13","9k8axbesz8","one_one","1","direct_first","1","er06ge10","0","27","1","1","3","1","","0","1","0","null","","","<img src = 'category2/CS5.png' width = '100%;'>","null","","","","","","","","","",""
"","html-keyboard-response","177","640552","0.0-10.0-2.13","9k8axbesz8","one_one","1","direct_first","1","er06ge10","0","27","1","1","3","1","","0","1","0","null","","","<img src = 'targets/40.png' width = '100%;'>","null","","","","","","","","","",""
"","html-keyboard-response","178","641671","0.0-10.0-3.13","9k8axbesz8","one_one","1","direct_first","1","er06ge10","0","27","1","1","3","1","","0","1","0","1117","","","<img src = 'targets/mask.png' width = '100%;'>","75","pos","GS","GSold","2","category2/CS5.png","","targets/40.png","indirect","1","13"
"","html-keyboard-response","179","643173","0.0-10.0-0.14","9k8axbesz8","one_one","1","direct_first","1","er06ge10","0","27","1","1","3","1","","0","1","0","null","","","<div style=""font-size:60px;"">+</div>","null","","","","","","","","","",""
"","html-keyboard-response","180","643264","0.0-10.0-1.14","9k8axbesz8","one_one","1","direct_first","1","er06ge10","0","27","1","1","3","1","","0","1","0","null","","","<img src = 'category1/CS4.png' width = '100%;'>","null","","","","","","","","","",""
"","html-keyboard-response","181","643516","0.0-10.0-2.14","9k8axbesz8","one_one","1","direct_first","1","er06ge10","0","27","1","1","3","1","","0","1","0","null","","","<img src = 'targets/3.png' width = '100%;'>","null","","","","","","","","","",""
"","html-keyboard-response","182","644230","0.0-10.0-3.14","9k8axbesz8","one_one","1","direct_first","1","er06ge10","0","27","1","1","3","1","","0","1","0","712","","","<img src = 'targets/mask.png' width = '100%;'>","75","pos","GS","GSold","1","category1/CS4.png","","targets/3.png","indirect","1","14"
"","html-keyboard-response","183","645731","0.0-10.0-0.15","9k8axbesz8","one_one","1","direct_first","1","er06ge10","0","27","1","1","3","1","","0","1","0","null","","","<div style=""font-size:60px;"">+</div>","null","","","","","","","","","",""
"","html-keyboard-response","184","645822","0.0-10.0-1.15","9k8axbesz8","one_one","1","direct_first","1","er06ge10","0","27","1","1","3","1","","0","1","0","null","","","<img src = 'category4/CS7.png' width = '100%;'>","null","","","","","","","","","",""
"","html-keyboard-response","185","646075","0.0-10.0-2.15","9k8axbesz8","one_one","1","direct_first","1","er06ge10","0","27","1","1","3","1","","0","1","0","null","","","<img src = 'targets/24.png' width = '100%;'>","null","","","","","","","","","",""
"","html-keyboard-response","186","646642","0.0-10.0-3.15","9k8axbesz8","one_one","1","direct_first","1","er06ge10","0","27","1","1","3","1","","0","1","0","564","","","<img src = 'targets/mask.png' width = '100%;'>","75","neg","CS","CS","4","category4/CS7.png","","targets/24.png","indirect","1","15"
"","survey-html-form","187","664473","0.0-11.0","9k8axbesz8","one_one","1","direct_first","1","er06ge10","0","27","1","1","3","1","","0","1","0","17328","","{}","","","","","","","","","","","",""
"","html-keyboard-response","188","667476","0.0-12.0-0.0","9k8axbesz8","one_one","1","direct_first","1","er06ge10","0","27","1","1","3","1","","0","1","0","null","","","<div style=""font-size:60px;"">+</div>","null","","","","","","","","","",""
"","html-keyboard-response","189","667567","0.0-12.0-1.0","9k8axbesz8","one_one","1","direct_first","1","er06ge10","0","27","1","1","3","1","","0","1","0","null","","","<img src = 'category4/GS2.png' width = '100%;'>","null","","","","","","","","","",""
"","html-keyboard-response","190","667820","0.0-12.0-2.0","9k8axbesz8","one_one","1","direct_first","1","er06ge10","0","27","1","1","3","1","","0","1","0","null","","","<img src = 'targets/46.png' width = '100%;'>","null","","","","","","","","","",""
"","html-keyboard-response","191","668475","0.0-12.0-3.0","9k8axbesz8","one_one","1","direct_first","1","er06ge10","0","27","1","1","3","1","","0","1","0","653","","","<img src = 'targets/mask.png' width = '100%;'>","75","neg","GS","GSnew","4","category4/GS2.png","","targets/46.png","indirect","1","16"
"","html-keyboard-response","192","669978","0.0-12.0-0.1","9k8axbesz8","one_one","1","direct_first","1","er06ge10","0","27","1","1","3","1","","0","1","0","null","","","<div style=""font-size:60px;"">+</div>","null","","","","","","","","","",""
"","html-keyboard-response","193","670069","0.0-12.0-1.1","9k8axbesz8","one_one","1","direct_first","1","er06ge10","0","27","1","1","3","1","","0","1","0","null","","","<img src = 'category1/ma.png' width = '100%;'>","null","","","","","","","","","",""
"","html-keyboard-response","194","670321","0.0-12.0-2.1","9k8axbesz8","one_one","1","direct_first","1","er06ge10","0","27","1","1","3","1","","0","1","0","null","","","<img src = 'targets/29.png' width = '100%;'>","null","","","","","","","","","",""
"","html-keyboard-response","195","671675","0.0-12.0-3.1","9k8axbesz8","one_one","1","direct_first","1","er06ge10","0","27","1","1","3","1","","0","1","0","1352","","","<img src = 'targets/mask.png' width = '100%;'>","68","pos","GS","abstract","1","category1/ma.png","","targets/29.png","indirect","0","17"
"","html-keyboard-response","196","673177","0.0-12.0-0.2","9k8axbesz8","one_one","1","direct_first","1","er06ge10","0","27","1","1","3","1","","0","1","0","null","","","<div style=""font-size:60px;"">+</div>","null","","","","","","","","","",""
"","html-keyboard-response","197","673269","0.0-12.0-1.2","9k8axbesz8","one_one","1","direct_first","1","er06ge10","0","27","1","1","3","1","","0","1","0","null","","","<img src = 'category4/GS3.png' width = '100%;'>","null","","","","","","","","","",""
"","html-keyboard-response","198","673521","0.0-12.0-2.2","9k8axbesz8","one_one","1","direct_first","1","er06ge10","0","27","1","1","3","1","","0","1","0","null","","","<img src = 'targets/42.png' width = '100%;'>","null","","","","","","","","","",""
"","html-keyboard-response","199","674012","0.0-12.0-3.2","9k8axbesz8","one_one","1","direct_first","1","er06ge10","0","27","1","1","3","1","","0","1","0","490","","","<img src = 'targets/mask.png' width = '100%;'>","75","neg","GS","GSnew","4","category4/GS3.png","","targets/42.png","indirect","1","18"
"","html-keyboard-response","200","675514","0.0-12.0-0.3","9k8axbesz8","one_one","1","direct_first","1","er06ge10","0","27","1","1","3","1","","0","1","0","null","","","<div style=""font-size:60px;"">+</div>","null","","","","","","","","","",""
"","html-keyboard-response","201","675605","0.0-12.0-1.3","9k8axbesz8","one_one","1","direct_first","1","er06ge10","0","27","1","1","3","1","","0","1","0","null","","","<img src = 'category2/men.png' width = '100%;'>","null","","","","","","","","","",""
"","html-keyboard-response","202","675857","0.0-12.0-2.3","9k8axbesz8","one_one","1","direct_first","1","er06ge10","0","27","1","1","3","1","","0","1","0","null","","","<img src = 'targets/6.png' width = '100%;'>","null","","","","","","","","","",""
"","html-keyboard-response","203","677435","0.0-12.0-3.3","9k8axbesz8","one_one","1","direct_first","1","er06ge10","0","27","1","1","3","1","","0","1","0","1576","","","<img src = 'targets/mask.png' width = '100%;'>","68","pos","GS","abstract","2","category2/men.png","","targets/6.png","indirect","0","19"
"","html-keyboard-response","204","678937","0.0-12.0-0.4","9k8axbesz8","one_one","1","direct_first","1","er06ge10","0","27","1","1","3","1","","0","1","0","null","","","<div style=""font-size:60px;"">+</div>","null","","","","","","","","","",""
"","html-keyboard-response","205","679028","0.0-12.0-1.4","9k8axbesz8","one_one","1","direct_first","1","er06ge10","0","27","1","1","3","1","","0","1","0","null","","","<img src = 'category2/GS1.png' width = '100%;'>","null","","","","","","","","","",""
"","html-keyboard-response","206","679281","0.0-12.0-2.4","9k8axbesz8","one_one","1","direct_first","1","er06ge10","0","27","1","1","3","1","","0","1","0","null","","","<img src = 'targets/10.png' width = '100%;'>","null","","","","","","","","","",""
"","html-keyboard-response","207","680473","0.0-12.0-3.4","9k8axbesz8","one_one","1","direct_first","1","er06ge10","0","27","1","1","3","1","","0","1","0","1190","","","<img src = 'targets/mask.png' width = '100%;'>","75","pos","GS","GSnew","2","category2/GS1.png","","targets/10.png","indirect","1","20"
"","html-keyboard-response","208","681975","0.0-12.0-0.5","9k8axbesz8","one_one","1","direct_first","1","er06ge10","0","27","1","1","3","1","","0","1","0","null","","","<div style=""font-size:60px;"">+</div>","null","","","","","","","","","",""
"","html-keyboard-response","209","682066","0.0-12.0-1.5","9k8axbesz8","one_one","1","direct_first","1","er06ge10","0","27","1","1","3","1","","0","1","0","null","","","<img src = 'category3/GS1.png' width = '100%;'>","null","","","","","","","","","",""
"","html-keyboard-response","210","682319","0.0-12.0-2.5","9k8axbesz8","one_one","1","direct_first","1","er06ge10","0","27","1","1","3","1","","0","1","0","null","","","<img src = 'targets/34.png' width = '100%;'>","null","","","","","","","","","",""
"","html-keyboard-response","211","682746","0.0-12.0-3.5","9k8axbesz8","one_one","1","direct_first","1","er06ge10","0","27","1","1","3","1","","0","1","0","425","","","<img src = 'targets/mask.png' width = '100%;'>","75","neg","GS","GSnew","3","category3/GS1.png","","targets/34.png","indirect","1","21"
"","html-keyboard-response","212","684247","0.0-12.0-0.6","9k8axbesz8","one_one","1","direct_first","1","er06ge10","0","27","1","1","3","1","","0","1","0","null","","","<div style=""font-size:60px;"">+</div>","null","","","","","","","","","",""
"","html-keyboard-response","213","684339","0.0-12.0-1.6","9k8axbesz8","one_one","1","direct_first","1","er06ge10","0","27","1","1","3","1","","0","1","0","null","","","<img src = 'category3/wang.png' width = '100%;'>","null","","","","","","","","","",""
"","html-keyboard-response","214","684592","0.0-12.0-2.6","9k8axbesz8","one_one","1","direct_first","1","er06ge10","0","27","1","1","3","1","","0","1","0","null","","","<img src = 'targets/31.png' width = '100%;'>","null","","","","","","","","","",""
"","html-keyboard-response","215","685264","0.0-12.0-3.6","9k8axbesz8","one_one","1","direct_first","1","er06ge10","0","27","1","1","3","1","","0","1","0","671","","","<img src = 'targets/mask.png' width = '100%;'>","75","neg","GS","abstract","3","category3/wang.png","","targets/31.png","indirect","1","22"
"","html-keyboard-response","216","686767","0.0-12.0-0.7","9k8axbesz8","one_one","1","direct_first","1","er06ge10","0","27","1","1","3","1","","0","1","0","null","","","<div style=""font-size:60px;"">+</div>","null","","","","","","","","","",""
"","html-keyboard-response","217","686858","0.0-12.0-1.7","9k8axbesz8","one_one","1","direct_first","1","er06ge10","0","27","1","1","3","1","","0","1","0","null","","","<img src = 'category1/GS3.png' width = '100%;'>","null","","","","","","","","","",""
"","html-keyboard-response","218","687110","0.0-12.0-2.7","9k8axbesz8","one_one","1","direct_first","1","er06ge10","0","27","1","1","3","1","","0","1","0","null","","","<img src = 'targets/41.png' width = '100%;'>","null","","","","","","","","","",""
"","html-keyboard-response","219","688144","0.0-12.0-3.7","9k8axbesz8","one_one","1","direct_first","1","er06ge10","0","27","1","1","3","1","","0","1","0","1033","","","<img src = 'targets/mask.png' width = '100%;'>","68","pos","GS","GSnew","1","category1/GS3.png","","targets/41.png","indirect","0","23"
"","html-keyboard-response","220","689647","0.0-12.0-0.8","9k8axbesz8","one_one","1","direct_first","1","er06ge10","0","27","1","1","3","1","","0","1","0","null","","","<div style=""font-size:60px;"">+</div>","null","","","","","","","","","",""
"","html-keyboard-response","221","689738","0.0-12.0-1.8","9k8axbesz8","one_one","1","direct_first","1","er06ge10","0","27","1","1","3","1","","0","1","0","null","","","<img src = 'category3/GS2.png' width = '100%;'>","null","","","","","","","","","",""
"","html-keyboard-response","222","689990","0.0-12.0-2.8","9k8axbesz8","one_one","1","direct_first","1","er06ge10","0","27","1","1","3","1","","0","1","0","null","","","<img src = 'targets/16.png' width = '100%;'>","null","","","","","","","","","",""
"","html-keyboard-response","223","690618","0.0-12.0-3.8","9k8axbesz8","one_one","1","direct_first","1","er06ge10","0","27","1","1","3","1","","0","1","0","626","","","<img src = 'targets/mask.png' width = '100%;'>","75","neg","GS","GSnew","3","category3/GS2.png","","targets/16.png","indirect","1","24"
"","html-keyboard-response","224","692120","0.0-12.0-0.9","9k8axbesz8","one_one","1","direct_first","1","er06ge10","0","27","1","1","3","1","","0","1","0","null","","","<div style=""font-size:60px;"">+</div>","null","","","","","","","","","",""
"","html-keyboard-response","225","692212","0.0-12.0-1.9","9k8axbesz8","one_one","1","direct_first","1","er06ge10","0","27","1","1","3","1","","0","1","0","null","","","<img src = 'category2/GS3.png' width = '100%;'>","null","","","","","","","","","",""
"","html-keyboard-response","226","692464","0.0-12.0-2.9","9k8axbesz8","one_one","1","direct_first","1","er06ge10","0","27","1","1","3","1","","0","1","0","null","","","<img src = 'targets/8.png' width = '100%;'>","null","","","","","","","","","",""
"","html-keyboard-response","227","692989","0.0-12.0-3.9","9k8axbesz8","one_one","1","direct_first","1","er06ge10","0","27","1","1","3","1","","0","1","0","524","","","<img src = 'targets/mask.png' width = '100%;'>","75","pos","GS","GSnew","2","category2/GS3.png","","targets/8.png","indirect","1","25"
"","html-keyboard-response","228","694491","0.0-12.0-0.10","9k8axbesz8","one_one","1","direct_first","1","er06ge10","0","27","1","1","3","1","","0","1","0","null","","","<div style=""font-size:60px;"">+</div>","null","","","","","","","","","",""
"","html-keyboard-response","229","694583","0.0-12.0-1.10","9k8axbesz8","one_one","1","direct_first","1","er06ge10","0","27","1","1","3","1","","0","1","0","null","","","<img src = 'category1/GS1.png' width = '100%;'>","null","","","","","","","","","",""
"","html-keyboard-response","230","694834","0.0-12.0-2.10","9k8axbesz8","one_one","1","direct_first","1","er06ge10","0","27","1","1","3","1","","0","1","0","null","","","<img src = 'targets/33.png' width = '100%;'>","null","","","","","","","","","",""
"","html-keyboard-response","231","695876","0.0-12.0-3.10","9k8axbesz8","one_one","1","direct_first","1","er06ge10","0","27","1","1","3","1","","0","1","0","1041","","","<img src = 'targets/mask.png' width = '100%;'>","75","pos","GS","GSnew","1","category1/GS1.png","","targets/33.png","indirect","1","26"
"","html-keyboard-response","232","697379","0.0-12.0-0.11","9k8axbesz8","one_one","1","direct_first","1","er06ge10","0","27","1","1","3","1","","0","1","0","null","","","<div style=""font-size:60px;"">+</div>","null","","","","","","","","","",""
"","html-keyboard-response","233","697471","0.0-12.0-1.11","9k8axbesz8","one_one","1","direct_first","1","er06ge10","0","27","1","1","3","1","","0","1","0","null","","","<img src = 'category1/GS2.png' width = '100%;'>","null","","","","","","","","","",""
"","html-keyboard-response","234","697723","0.0-12.0-2.11","9k8axbesz8","one_one","1","direct_first","1","er06ge10","0","27","1","1","3","1","","0","1","0","null","","","<img src = 'targets/15.png' width = '100%;'>","null","","","","","","","","","",""
"","html-keyboard-response","235","698549","0.0-12.0-3.11","9k8axbesz8","one_one","1","direct_first","1","er06ge10","0","27","1","1","3","1","","0","1","0","824","","","<img src = 'targets/mask.png' width = '100%;'>","75","pos","GS","GSnew","1","category1/GS2.png","","targets/15.png","indirect","1","27"
"","html-keyboard-response","236","700051","0.0-12.0-0.12","9k8axbesz8","one_one","1","direct_first","1","er06ge10","0","27","1","1","3","1","","0","1","0","null","","","<div style=""font-size:60px;"">+</div>","null","","","","","","","","","",""
"","html-keyboard-response","237","700142","0.0-12.0-1.12","9k8axbesz8","one_one","1","direct_first","1","er06ge10","0","27","1","1","3","1","","0","1","0","null","","","<img src = 'category4/lin.png' width = '100%;'>","null","","","","","","","","","",""
"","html-keyboard-response","238","700395","0.0-12.0-2.12","9k8axbesz8","one_one","1","direct_first","1","er06ge10","0","27","1","1","3","1","","0","1","0","null","","","<img src = 'targets/18.png' width = '100%;'>","null","","","","","","","","","",""
"","html-keyboard-response","239","701142","0.0-12.0-3.12","9k8axbesz8","one_one","1","direct_first","1","er06ge10","0","27","1","1","3","1","","0","1","0","746","","","<img src = 'targets/mask.png' width = '100%;'>","75","neg","GS","abstract","4","category4/lin.png","","targets/18.png","indirect","1","28"
"","html-keyboard-response","240","702643","0.0-12.0-0.13","9k8axbesz8","one_one","1","direct_first","1","er06ge10","0","27","1","1","3","1","","0","1","0","null","","","<div style=""font-size:60px;"">+</div>","null","","","","","","","","","",""
"","html-keyboard-response","241","702735","0.0-12.0-1.13","9k8axbesz8","one_one","1","direct_first","1","er06ge10","0","27","1","1","3","1","","0","1","0","null","","","<img src = 'category3/GS3.png' width = '100%;'>","null","","","","","","","","","",""
"","html-keyboard-response","242","702987","0.0-12.0-2.13","9k8axbesz8","one_one","1","direct_first","1","er06ge10","0","27","1","1","3","1","","0","1","0","null","","","<img src = 'targets/22.png' width = '100%;'>","null","","","","","","","","","",""
"","html-keyboard-response","243","703867","0.0-12.0-3.13","9k8axbesz8","one_one","1","direct_first","1","er06ge10","0","27","1","1","3","1","","0","1","0","878","","","<img src = 'targets/mask.png' width = '100%;'>","75","neg","GS","GSnew","3","category3/GS3.png","","targets/22.png","indirect","1","29"
"","html-keyboard-response","244","705368","0.0-12.0-0.14","9k8axbesz8","one_one","1","direct_first","1","er06ge10","0","27","1","1","3","1","","0","1","0","null","","","<div style=""font-size:60px;"">+</div>","null","","","","","","","","","",""
"","html-keyboard-response","245","705461","0.0-12.0-1.14","9k8axbesz8","one_one","1","direct_first","1","er06ge10","0","27","1","1","3","1","","0","1","0","null","","","<img src = 'category2/GS2.png' width = '100%;'>","null","","","","","","","","","",""
"","html-keyboard-response","246","705713","0.0-12.0-2.14","9k8axbesz8","one_one","1","direct_first","1","er06ge10","0","27","1","1","3","1","","0","1","0","null","","","<img src = 'targets/48.png' width = '100%;'>","null","","","","","","","","","",""
"","html-keyboard-response","247","707114","0.0-12.0-3.14","9k8axbesz8","one_one","1","direct_first","1","er06ge10","0","27","1","1","3","1","","0","1","0","1400","","","<img src = 'targets/mask.png' width = '100%;'>","68","pos","GS","GSnew","2","category2/GS2.png","","targets/48.png","indirect","0","30"
"","html-keyboard-response","248","708616","0.0-12.0-0.15","9k8axbesz8","one_one","1","direct_first","1","er06ge10","0","27","1","1","3","1","","0","1","0","null","","","<div style=""font-size:60px;"">+</div>","null","","","","","","","","","",""
"","html-keyboard-response","249","708707","0.0-12.0-1.15","9k8axbesz8","one_one","1","direct_first","1","er06ge10","0","27","1","1","3","1","","0","1","0","null","","","<img src = 'category4/GS1.png' width = '100%;'>","null","","","","","","","","","",""
"","html-keyboard-response","250","708961","0.0-12.0-2.15","9k8axbesz8","one_one","1","direct_first","1","er06ge10","0","27","1","1","3","1","","0","1","0","null","","","<img src = 'targets/9.png' width = '100%;'>","null","","","","","","","","","",""
"","html-keyboard-response","251","709458","0.0-12.0-3.15","9k8axbesz8","one_one","1","direct_first","1","er06ge10","0","27","1","1","3","1","","0","1","0","496","","","<img src = 'targets/mask.png' width = '100%;'>","75","neg","GS","GSnew","4","category4/GS1.png","","targets/9.png","indirect","1","31"
"","survey-html-form","252","715945","0.0-13.0","9k8axbesz8","one_one","1","direct_first","1","er06ge10","0","27","1","1","3","1","","0","1","0","5986","","{}","","","","","","","","","","","",""
"","image-slider-response","253","728669","0.0-14.0-0.0","9k8axbesz8","one_one","1","direct_first","1","er06ge10","0","27","1","1","3","1","","0","1","0","11719","","","","","pos","All","all","2","category2/men_all.png","90","","all","",""
"","image-slider-response","254","738422","0.0-14.0-0.1","9k8axbesz8","one_one","1","direct_first","1","er06ge10","0","27","1","1","3","1","","0","1","0","9746","","","","","pos","All","all","1","category1/ma_all.png","55","","all","",""
"","image-slider-response","255","743192","0.0-14.0-0.2","9k8axbesz8","one_one","1","direct_first","1","er06ge10","0","27","1","1","3","1","","0","1","0","4764","","","","","neg","All","all","3","category3/wang_all.png","79","","all","",""
"","image-slider-response","256","747517","0.0-14.0-0.3","9k8axbesz8","one_one","1","direct_first","1","er06ge10","0","27","1","1","3","1","","0","1","0","4314","","","","","neg","All","all","4","category4/lin_all.png","-37","","all","",""
"","survey-text","257","752353","0.0-15.0","9k8axbesz8","one_one","1","direct_first","1","er06ge10","0","27","1","1","3","1","","0","1","0","4806","","{""comment"":""""}","","","","","","","","","","","",""
"","survey-html-form","258","769906","0.0-16.0","9k8axbesz8","one_one","1","direct_first","1","er06ge10","0","27","1","1","3","1","","0","1","0","17546","","{""hinschauen"":""0"",""ablenkung"":""1"",""gewissenhaft"":""0""}","","","","","","","","","","","",""
