"success","trial_type","trial_index","time_elapsed","internal_node_id","subject","condition","condition_code","measure","measure_code","codeword","gender","age","education","chinese","fach","handedness","comment","hinschauen","ablenkung","gewissenhaft","rt","url","responses","stimulus","key_press","val","type","type_specific","category","cs_selected","target","indirect","task","nr_pres","response"
"true","fullscreen","0","4133","0.0-0.0","cmh2f78spa","many_one","0","indirect_first","0","ak04in28","0","20","1","0","3","1","War ziemlich interessant!!","0","1","0","","","","","","","","","","","","","","",""
"","external-html","1","13118","0.0-1.0","cmh2f78spa","many_one","0","indirect_first","0","ak04in28","0","20","1","0","3","1","War ziemlich interessant!!","0","1","0","8774.069999984931","text/information.html","","","","","","","","","","","","",""
"","external-html","2","20942","0.0-2.0","cmh2f78spa","many_one","0","indirect_first","0","ak04in28","0","20","1","0","3","1","War ziemlich interessant!!","0","1","0","7709.575000044424","text/consent.html","","","","","","","","","","","","",""
"","survey-html-form","3","97665","0.0-3.0","cmh2f78spa","many_one","0","indirect_first","0","ak04in28","0","20","1","0","3","1","War ziemlich interessant!!","0","1","0","76721.79999999935","","{""codeword_enter"":""ak04in28""}","","","","","","","","","","","",""
"","survey-html-form","4","121464","0.0-4.0","cmh2f78spa","many_one","0","indirect_first","0","ak04in28","0","20","1","0","3","1","War ziemlich interessant!!","0","1","0","23795.64000002574","","{""age"":""20"",""education"":""1"",""subject"":""3"",""gender"":""0"",""handedness"":""1"",""chinese"":""0""}","","","","","","","","","","","",""
"","survey-html-form","5","136919","0.0-5.0","cmh2f78spa","many_one","0","indirect_first","0","ak04in28","0","20","1","0","3","1","War ziemlich interessant!!","0","1","0","15453.42500001425","","{}","","","","","","","","","","","",""
"","html-keyboard-response","6","140927","0.0-6.0-0.0-0.0","cmh2f78spa","many_one","0","indirect_first","0","ak04in28","0","20","1","0","3","1","War ziemlich interessant!!","0","1","0","null","","","<div class = 'row'><div class = 'column'><img src = 'uspos/8490.bmp' width = '100%;'></div><div class = 'column'><img src = 'category2/CS6.png' width = '70%;'></div></div>","null","pos","CS","CS","2","category2/CS6.png","","","","",""
"","html-keyboard-response","7","143439","0.0-6.0-0.0-0.1","cmh2f78spa","many_one","0","indirect_first","0","ak04in28","0","20","1","0","3","1","War ziemlich interessant!!","0","1","0","null","","","<div class = 'row'><div class = 'column'><img src = 'category4/CS10.png' width = '70%;'></div><div class = 'column'><img src = 'usneg/9415.bmp' width = '100%;'></div></div>","null","neg","CS","CS","4","category4/CS10.png","","","","",""
"","html-keyboard-response","8","145951","0.0-6.0-0.0-0.2","cmh2f78spa","many_one","0","indirect_first","0","ak04in28","0","20","1","0","3","1","War ziemlich interessant!!","0","1","0","null","","","<div class = 'row'><div class = 'column'><img src = 'usneg/9404.bmp' width = '100%;'></div><div class = 'column'><img src = 'category4/CS6.png' width = '70%;'></div></div>","null","neg","CS","CS","4","category4/CS6.png","","","","",""
"","html-keyboard-response","9","148458","0.0-6.0-0.0-0.3","cmh2f78spa","many_one","0","indirect_first","0","ak04in28","0","20","1","0","3","1","War ziemlich interessant!!","0","1","0","null","","","<div class = 'row'><div class = 'column'><img src = 'category1/CS1.png' width = '70%;'></div><div class = 'column'><img src = 'usneg/2205.bmp' width = '100%;'></div></div>","null","neg","CS","CS","1","category1/CS1.png","","","","",""
"","html-keyboard-response","10","150968","0.0-6.0-0.0-0.4","cmh2f78spa","many_one","0","indirect_first","0","ak04in28","0","20","1","0","3","1","War ziemlich interessant!!","0","1","0","null","","","<div class = 'row'><div class = 'column'><img src = 'category3/CS10.png' width = '70%;'></div><div class = 'column'><img src = 'uspos/1460.bmp' width = '100%;'></div></div>","null","pos","CS","CS","3","category3/CS10.png","","","","",""
"","html-keyboard-response","11","153480","0.0-6.0-0.0-0.5","cmh2f78spa","many_one","0","indirect_first","0","ak04in28","0","20","1","0","3","1","War ziemlich interessant!!","0","1","0","null","","","<div class = 'row'><div class = 'column'><img src = 'category1/CS8.png' width = '70%;'></div><div class = 'column'><img src = 'usneg/8485.bmp' width = '100%;'></div></div>","null","neg","CS","CS","1","category1/CS8.png","","","","",""
"","html-keyboard-response","12","155992","0.0-6.0-0.0-0.6","cmh2f78spa","many_one","0","indirect_first","0","ak04in28","0","20","1","0","3","1","War ziemlich interessant!!","0","1","0","null","","","<div class = 'row'><div class = 'column'><img src = 'category3/CS4.png' width = '70%;'></div><div class = 'column'><img src = 'uspos/8190.bmp' width = '100%;'></div></div>","null","pos","CS","CS","3","category3/CS4.png","","","","",""
"","html-keyboard-response","13","158504","0.0-6.0-0.0-0.7","cmh2f78spa","many_one","0","indirect_first","0","ak04in28","0","20","1","0","3","1","War ziemlich interessant!!","0","1","0","null","","","<div class = 'row'><div class = 'column'><img src = 'uspos/5470.bmp' width = '100%;'></div><div class = 'column'><img src = 'category3/CS7.png' width = '70%;'></div></div>","null","pos","CS","CS","3","category3/CS7.png","","","","",""
"","html-keyboard-response","14","161013","0.0-6.0-0.0-0.8","cmh2f78spa","many_one","0","indirect_first","0","ak04in28","0","20","1","0","3","1","War ziemlich interessant!!","0","1","0","null","","","<div class = 'row'><div class = 'column'><img src = 'category3/CS5.png' width = '70%;'></div><div class = 'column'><img src = 'uspos/5831.bmp' width = '100%;'></div></div>","null","pos","CS","CS","3","category3/CS5.png","","","","",""
"","html-keyboard-response","15","163525","0.0-6.0-0.0-0.9","cmh2f78spa","many_one","0","indirect_first","0","ak04in28","0","20","1","0","3","1","War ziemlich interessant!!","0","1","0","null","","","<div class = 'row'><div class = 'column'><img src = 'category1/CS5.png' width = '70%;'></div><div class = 'column'><img src = 'usneg/9421.bmp' width = '100%;'></div></div>","null","neg","CS","CS","1","category1/CS5.png","","","","",""
"","html-keyboard-response","16","166036","0.0-6.0-0.0-0.10","cmh2f78spa","many_one","0","indirect_first","0","ak04in28","0","20","1","0","3","1","War ziemlich interessant!!","0","1","0","null","","","<div class = 'row'><div class = 'column'><img src = 'category1/CS2.png' width = '70%;'></div><div class = 'column'><img src = 'usneg/9561.bmp' width = '100%;'></div></div>","null","neg","CS","CS","1","category1/CS2.png","","","","",""
"","html-keyboard-response","17","168548","0.0-6.0-0.0-0.11","cmh2f78spa","many_one","0","indirect_first","0","ak04in28","0","20","1","0","3","1","War ziemlich interessant!!","0","1","0","null","","","<div class = 'row'><div class = 'column'><img src = 'category2/CS2.png' width = '70%;'></div><div class = 'column'><img src = 'uspos/8350.bmp' width = '100%;'></div></div>","null","pos","CS","CS","2","category2/CS2.png","","","","",""
"","html-keyboard-response","18","171060","0.0-6.0-0.0-0.12","cmh2f78spa","many_one","0","indirect_first","0","ak04in28","0","20","1","0","3","1","War ziemlich interessant!!","0","1","0","null","","","<div class = 'row'><div class = 'column'><img src = 'category1/CS7.png' width = '70%;'></div><div class = 'column'><img src = 'usneg/6838.bmp' width = '100%;'></div></div>","null","neg","CS","CS","1","category1/CS7.png","","","","",""
"","html-keyboard-response","19","173568","0.0-6.0-0.0-0.13","cmh2f78spa","many_one","0","indirect_first","0","ak04in28","0","20","1","0","3","1","War ziemlich interessant!!","0","1","0","null","","","<div class = 'row'><div class = 'column'><img src = 'category2/CS1.png' width = '70%;'></div><div class = 'column'><img src = 'uspos/4625.bmp' width = '100%;'></div></div>","null","pos","CS","CS","2","category2/CS1.png","","","","",""
"","html-keyboard-response","20","176077","0.0-6.0-0.0-0.14","cmh2f78spa","many_one","0","indirect_first","0","ak04in28","0","20","1","0","3","1","War ziemlich interessant!!","0","1","0","null","","","<div class = 'row'><div class = 'column'><img src = 'category2/CS8.png' width = '70%;'></div><div class = 'column'><img src = 'uspos/5629.bmp' width = '100%;'></div></div>","null","pos","CS","CS","2","category2/CS8.png","","","","",""
"","html-keyboard-response","21","178589","0.0-6.0-0.0-0.15","cmh2f78spa","many_one","0","indirect_first","0","ak04in28","0","20","1","0","3","1","War ziemlich interessant!!","0","1","0","null","","","<div class = 'row'><div class = 'column'><img src = 'usneg/3300.bmp' width = '100%;'></div><div class = 'column'><img src = 'category4/CS8.png' width = '70%;'></div></div>","null","neg","CS","CS","4","category4/CS8.png","","","","",""
"","html-keyboard-response","22","181098","0.0-6.0-0.0-0.16","cmh2f78spa","many_one","0","indirect_first","0","ak04in28","0","20","1","0","3","1","War ziemlich interessant!!","0","1","0","null","","","<div class = 'row'><div class = 'column'><img src = 'category3/CS8.png' width = '70%;'></div><div class = 'column'><img src = 'uspos/7580.bmp' width = '100%;'></div></div>","null","pos","CS","CS","3","category3/CS8.png","","","","",""
"","html-keyboard-response","23","183609","0.0-6.0-0.0-0.17","cmh2f78spa","many_one","0","indirect_first","0","ak04in28","0","20","1","0","3","1","War ziemlich interessant!!","0","1","0","null","","","<div class = 'row'><div class = 'column'><img src = 'category4/CS9.png' width = '70%;'></div><div class = 'column'><img src = 'usneg/9340.bmp' width = '100%;'></div></div>","null","neg","CS","CS","4","category4/CS9.png","","","","",""
"","html-keyboard-response","24","186117","0.0-6.0-0.0-0.18","cmh2f78spa","many_one","0","indirect_first","0","ak04in28","0","20","1","0","3","1","War ziemlich interessant!!","0","1","0","null","","","<div class = 'row'><div class = 'column'><img src = 'category2/CS7.png' width = '70%;'></div><div class = 'column'><img src = 'uspos/2150.bmp' width = '100%;'></div></div>","null","pos","CS","CS","2","category2/CS7.png","","","","",""
"","html-keyboard-response","25","188629","0.0-6.0-0.0-0.19","cmh2f78spa","many_one","0","indirect_first","0","ak04in28","0","20","1","0","3","1","War ziemlich interessant!!","0","1","0","null","","","<div class = 'row'><div class = 'column'><img src = 'usneg/6212.bmp' width = '100%;'></div><div class = 'column'><img src = 'category4/CS2.png' width = '70%;'></div></div>","null","neg","CS","CS","4","category4/CS2.png","","","","",""
"","survey-html-form","26","192907","0.0-6.0-1.0","cmh2f78spa","many_one","0","indirect_first","0","ak04in28","0","20","1","0","3","1","War ziemlich interessant!!","0","1","0","3771.6899999650195","","{}","","","","","","","","","","","",""
"","html-keyboard-response","27","196919","0.0-6.0-2.0-0.0","cmh2f78spa","many_one","0","indirect_first","0","ak04in28","0","20","1","0","3","1","War ziemlich interessant!!","0","1","0","null","","","<div class = 'row'><div class = 'column'><img src = 'category2/CS1.png' width = '70%;'></div><div class = 'column'><img src = 'uspos/4625.bmp' width = '100%;'></div></div>","null","pos","CS","CS","2","category2/CS1.png","","","","",""
"","html-keyboard-response","28","199431","0.0-6.0-2.0-0.1","cmh2f78spa","many_one","0","indirect_first","0","ak04in28","0","20","1","0","3","1","War ziemlich interessant!!","0","1","0","null","","","<div class = 'row'><div class = 'column'><img src = 'usneg/9421.bmp' width = '100%;'></div><div class = 'column'><img src = 'category1/CS5.png' width = '70%;'></div></div>","null","neg","CS","CS","1","category1/CS5.png","","","","",""
"","html-keyboard-response","29","201939","0.0-6.0-2.0-0.2","cmh2f78spa","many_one","0","indirect_first","0","ak04in28","0","20","1","0","3","1","War ziemlich interessant!!","0","1","0","null","","","<div class = 'row'><div class = 'column'><img src = 'category3/CS8.png' width = '70%;'></div><div class = 'column'><img src = 'uspos/7580.bmp' width = '100%;'></div></div>","null","pos","CS","CS","3","category3/CS8.png","","","","",""
"","html-keyboard-response","30","204448","0.0-6.0-2.0-0.3","cmh2f78spa","many_one","0","indirect_first","0","ak04in28","0","20","1","0","3","1","War ziemlich interessant!!","0","1","0","null","","","<div class = 'row'><div class = 'column'><img src = 'uspos/2150.bmp' width = '100%;'></div><div class = 'column'><img src = 'category2/CS7.png' width = '70%;'></div></div>","null","pos","CS","CS","2","category2/CS7.png","","","","",""
"","html-keyboard-response","31","206960","0.0-6.0-2.0-0.4","cmh2f78spa","many_one","0","indirect_first","0","ak04in28","0","20","1","0","3","1","War ziemlich interessant!!","0","1","0","null","","","<div class = 'row'><div class = 'column'><img src = 'category4/CS8.png' width = '70%;'></div><div class = 'column'><img src = 'usneg/3300.bmp' width = '100%;'></div></div>","null","neg","CS","CS","4","category4/CS8.png","","","","",""
"","html-keyboard-response","32","209473","0.0-6.0-2.0-0.5","cmh2f78spa","many_one","0","indirect_first","0","ak04in28","0","20","1","0","3","1","War ziemlich interessant!!","0","1","0","null","","","<div class = 'row'><div class = 'column'><img src = 'usneg/9404.bmp' width = '100%;'></div><div class = 'column'><img src = 'category4/CS6.png' width = '70%;'></div></div>","null","neg","CS","CS","4","category4/CS6.png","","","","",""
"","html-keyboard-response","33","211984","0.0-6.0-2.0-0.6","cmh2f78spa","many_one","0","indirect_first","0","ak04in28","0","20","1","0","3","1","War ziemlich interessant!!","0","1","0","null","","","<div class = 'row'><div class = 'column'><img src = 'category3/CS4.png' width = '70%;'></div><div class = 'column'><img src = 'uspos/8190.bmp' width = '100%;'></div></div>","null","pos","CS","CS","3","category3/CS4.png","","","","",""
"","html-keyboard-response","34","214495","0.0-6.0-2.0-0.7","cmh2f78spa","many_one","0","indirect_first","0","ak04in28","0","20","1","0","3","1","War ziemlich interessant!!","0","1","0","null","","","<div class = 'row'><div class = 'column'><img src = 'category4/CS10.png' width = '70%;'></div><div class = 'column'><img src = 'usneg/9415.bmp' width = '100%;'></div></div>","null","neg","CS","CS","4","category4/CS10.png","","","","",""
"","html-keyboard-response","35","217007","0.0-6.0-2.0-0.8","cmh2f78spa","many_one","0","indirect_first","0","ak04in28","0","20","1","0","3","1","War ziemlich interessant!!","0","1","0","null","","","<div class = 'row'><div class = 'column'><img src = 'uspos/5470.bmp' width = '100%;'></div><div class = 'column'><img src = 'category3/CS7.png' width = '70%;'></div></div>","null","pos","CS","CS","3","category3/CS7.png","","","","",""
"","html-keyboard-response","36","219519","0.0-6.0-2.0-0.9","cmh2f78spa","many_one","0","indirect_first","0","ak04in28","0","20","1","0","3","1","War ziemlich interessant!!","0","1","0","null","","","<div class = 'row'><div class = 'column'><img src = 'category1/CS2.png' width = '70%;'></div><div class = 'column'><img src = 'usneg/9561.bmp' width = '100%;'></div></div>","null","neg","CS","CS","1","category1/CS2.png","","","","",""
"","html-keyboard-response","37","222031","0.0-6.0-2.0-0.10","cmh2f78spa","many_one","0","indirect_first","0","ak04in28","0","20","1","0","3","1","War ziemlich interessant!!","0","1","0","null","","","<div class = 'row'><div class = 'column'><img src = 'usneg/6838.bmp' width = '100%;'></div><div class = 'column'><img src = 'category1/CS7.png' width = '70%;'></div></div>","null","neg","CS","CS","1","category1/CS7.png","","","","",""
"","html-keyboard-response","38","224542","0.0-6.0-2.0-0.11","cmh2f78spa","many_one","0","indirect_first","0","ak04in28","0","20","1","0","3","1","War ziemlich interessant!!","0","1","0","null","","","<div class = 'row'><div class = 'column'><img src = 'category2/CS6.png' width = '70%;'></div><div class = 'column'><img src = 'uspos/8490.bmp' width = '100%;'></div></div>","null","pos","CS","CS","2","category2/CS6.png","","","","",""
"","html-keyboard-response","39","227054","0.0-6.0-2.0-0.12","cmh2f78spa","many_one","0","indirect_first","0","ak04in28","0","20","1","0","3","1","War ziemlich interessant!!","0","1","0","null","","","<div class = 'row'><div class = 'column'><img src = 'usneg/6212.bmp' width = '100%;'></div><div class = 'column'><img src = 'category4/CS2.png' width = '70%;'></div></div>","null","neg","CS","CS","4","category4/CS2.png","","","","",""
"","html-keyboard-response","40","229565","0.0-6.0-2.0-0.13","cmh2f78spa","many_one","0","indirect_first","0","ak04in28","0","20","1","0","3","1","War ziemlich interessant!!","0","1","0","null","","","<div class = 'row'><div class = 'column'><img src = 'uspos/5629.bmp' width = '100%;'></div><div class = 'column'><img src = 'category2/CS8.png' width = '70%;'></div></div>","null","pos","CS","CS","2","category2/CS8.png","","","","",""
"","html-keyboard-response","41","232077","0.0-6.0-2.0-0.14","cmh2f78spa","many_one","0","indirect_first","0","ak04in28","0","20","1","0","3","1","War ziemlich interessant!!","0","1","0","null","","","<div class = 'row'><div class = 'column'><img src = 'usneg/9340.bmp' width = '100%;'></div><div class = 'column'><img src = 'category4/CS9.png' width = '70%;'></div></div>","null","neg","CS","CS","4","category4/CS9.png","","","","",""
"","html-keyboard-response","42","234584","0.0-6.0-2.0-0.15","cmh2f78spa","many_one","0","indirect_first","0","ak04in28","0","20","1","0","3","1","War ziemlich interessant!!","0","1","0","null","","","<div class = 'row'><div class = 'column'><img src = 'category1/CS8.png' width = '70%;'></div><div class = 'column'><img src = 'usneg/8485.bmp' width = '100%;'></div></div>","null","neg","CS","CS","1","category1/CS8.png","","","","",""
"","html-keyboard-response","43","237096","0.0-6.0-2.0-0.16","cmh2f78spa","many_one","0","indirect_first","0","ak04in28","0","20","1","0","3","1","War ziemlich interessant!!","0","1","0","null","","","<div class = 'row'><div class = 'column'><img src = 'category3/CS10.png' width = '70%;'></div><div class = 'column'><img src = 'uspos/1460.bmp' width = '100%;'></div></div>","null","pos","CS","CS","3","category3/CS10.png","","","","",""
"","html-keyboard-response","44","239608","0.0-6.0-2.0-0.17","cmh2f78spa","many_one","0","indirect_first","0","ak04in28","0","20","1","0","3","1","War ziemlich interessant!!","0","1","0","null","","","<div class = 'row'><div class = 'column'><img src = 'category2/CS2.png' width = '70%;'></div><div class = 'column'><img src = 'uspos/8350.bmp' width = '100%;'></div></div>","null","pos","CS","CS","2","category2/CS2.png","","","","",""
"","html-keyboard-response","45","242115","0.0-6.0-2.0-0.18","cmh2f78spa","many_one","0","indirect_first","0","ak04in28","0","20","1","0","3","1","War ziemlich interessant!!","0","1","0","null","","","<div class = 'row'><div class = 'column'><img src = 'category1/CS1.png' width = '70%;'></div><div class = 'column'><img src = 'usneg/2205.bmp' width = '100%;'></div></div>","null","neg","CS","CS","1","category1/CS1.png","","","","",""
"","html-keyboard-response","46","244622","0.0-6.0-2.0-0.19","cmh2f78spa","many_one","0","indirect_first","0","ak04in28","0","20","1","0","3","1","War ziemlich interessant!!","0","1","0","null","","","<div class = 'row'><div class = 'column'><img src = 'category3/CS5.png' width = '70%;'></div><div class = 'column'><img src = 'uspos/5831.bmp' width = '100%;'></div></div>","null","pos","CS","CS","3","category3/CS5.png","","","","",""
"","survey-html-form","47","247967","0.0-6.0-3.0","cmh2f78spa","many_one","0","indirect_first","0","ak04in28","0","20","1","0","3","1","War ziemlich interessant!!","0","1","0","2838.864999997895","","{}","","","","","","","","","","","",""
"","html-keyboard-response","48","251980","0.0-6.0-4.0-0.0","cmh2f78spa","many_one","0","indirect_first","0","ak04in28","0","20","1","0","3","1","War ziemlich interessant!!","0","1","0","null","","","<div class = 'row'><div class = 'column'><img src = 'category4/CS2.png' width = '70%;'></div><div class = 'column'><img src = 'usneg/6212.bmp' width = '100%;'></div></div>","null","neg","CS","CS","4","category4/CS2.png","","","","",""
"","html-keyboard-response","49","254487","0.0-6.0-4.0-0.1","cmh2f78spa","many_one","0","indirect_first","0","ak04in28","0","20","1","0","3","1","War ziemlich interessant!!","0","1","0","null","","","<div class = 'row'><div class = 'column'><img src = 'usneg/9561.bmp' width = '100%;'></div><div class = 'column'><img src = 'category1/CS2.png' width = '70%;'></div></div>","null","neg","CS","CS","1","category1/CS2.png","","","","",""
"","html-keyboard-response","50","256994","0.0-6.0-4.0-0.2","cmh2f78spa","many_one","0","indirect_first","0","ak04in28","0","20","1","0","3","1","War ziemlich interessant!!","0","1","0","null","","","<div class = 'row'><div class = 'column'><img src = 'category4/CS9.png' width = '70%;'></div><div class = 'column'><img src = 'usneg/9340.bmp' width = '100%;'></div></div>","null","neg","CS","CS","4","category4/CS9.png","","","","",""
"","html-keyboard-response","51","259507","0.0-6.0-4.0-0.3","cmh2f78spa","many_one","0","indirect_first","0","ak04in28","0","20","1","0","3","1","War ziemlich interessant!!","0","1","0","null","","","<div class = 'row'><div class = 'column'><img src = 'usneg/8485.bmp' width = '100%;'></div><div class = 'column'><img src = 'category1/CS8.png' width = '70%;'></div></div>","null","neg","CS","CS","1","category1/CS8.png","","","","",""
"","html-keyboard-response","52","262019","0.0-6.0-4.0-0.4","cmh2f78spa","many_one","0","indirect_first","0","ak04in28","0","20","1","0","3","1","War ziemlich interessant!!","0","1","0","null","","","<div class = 'row'><div class = 'column'><img src = 'uspos/5470.bmp' width = '100%;'></div><div class = 'column'><img src = 'category3/CS7.png' width = '70%;'></div></div>","null","pos","CS","CS","3","category3/CS7.png","","","","",""
"","html-keyboard-response","53","264531","0.0-6.0-4.0-0.5","cmh2f78spa","many_one","0","indirect_first","0","ak04in28","0","20","1","0","3","1","War ziemlich interessant!!","0","1","0","null","","","<div class = 'row'><div class = 'column'><img src = 'category3/CS10.png' width = '70%;'></div><div class = 'column'><img src = 'uspos/1460.bmp' width = '100%;'></div></div>","null","pos","CS","CS","3","category3/CS10.png","","","","",""
"","html-keyboard-response","54","267042","0.0-6.0-4.0-0.6","cmh2f78spa","many_one","0","indirect_first","0","ak04in28","0","20","1","0","3","1","War ziemlich interessant!!","0","1","0","null","","","<div class = 'row'><div class = 'column'><img src = 'category3/CS5.png' width = '70%;'></div><div class = 'column'><img src = 'uspos/5831.bmp' width = '100%;'></div></div>","null","pos","CS","CS","3","category3/CS5.png","","","","",""
"","html-keyboard-response","55","269555","0.0-6.0-4.0-0.7","cmh2f78spa","many_one","0","indirect_first","0","ak04in28","0","20","1","0","3","1","War ziemlich interessant!!","0","1","0","null","","","<div class = 'row'><div class = 'column'><img src = 'category1/CS5.png' width = '70%;'></div><div class = 'column'><img src = 'usneg/9421.bmp' width = '100%;'></div></div>","null","neg","CS","CS","1","category1/CS5.png","","","","",""
"","html-keyboard-response","56","272062","0.0-6.0-4.0-0.8","cmh2f78spa","many_one","0","indirect_first","0","ak04in28","0","20","1","0","3","1","War ziemlich interessant!!","0","1","0","null","","","<div class = 'row'><div class = 'column'><img src = 'uspos/4625.bmp' width = '100%;'></div><div class = 'column'><img src = 'category2/CS1.png' width = '70%;'></div></div>","null","pos","CS","CS","2","category2/CS1.png","","","","",""
"","html-keyboard-response","57","274574","0.0-6.0-4.0-0.9","cmh2f78spa","many_one","0","indirect_first","0","ak04in28","0","20","1","0","3","1","War ziemlich interessant!!","0","1","0","null","","","<div class = 'row'><div class = 'column'><img src = 'uspos/8350.bmp' width = '100%;'></div><div class = 'column'><img src = 'category2/CS2.png' width = '70%;'></div></div>","null","pos","CS","CS","2","category2/CS2.png","","","","",""
"","html-keyboard-response","58","277086","0.0-6.0-4.0-0.10","cmh2f78spa","many_one","0","indirect_first","0","ak04in28","0","20","1","0","3","1","War ziemlich interessant!!","0","1","0","null","","","<div class = 'row'><div class = 'column'><img src = 'uspos/2150.bmp' width = '100%;'></div><div class = 'column'><img src = 'category2/CS7.png' width = '70%;'></div></div>","null","pos","CS","CS","2","category2/CS7.png","","","","",""
"","html-keyboard-response","59","279594","0.0-6.0-4.0-0.11","cmh2f78spa","many_one","0","indirect_first","0","ak04in28","0","20","1","0","3","1","War ziemlich interessant!!","0","1","0","null","","","<div class = 'row'><div class = 'column'><img src = 'category1/CS1.png' width = '70%;'></div><div class = 'column'><img src = 'usneg/2205.bmp' width = '100%;'></div></div>","null","neg","CS","CS","1","category1/CS1.png","","","","",""
"","html-keyboard-response","60","282101","0.0-6.0-4.0-0.12","cmh2f78spa","many_one","0","indirect_first","0","ak04in28","0","20","1","0","3","1","War ziemlich interessant!!","0","1","0","null","","","<div class = 'row'><div class = 'column'><img src = 'category2/CS8.png' width = '70%;'></div><div class = 'column'><img src = 'uspos/5629.bmp' width = '100%;'></div></div>","null","pos","CS","CS","2","category2/CS8.png","","","","",""
"","html-keyboard-response","61","284609","0.0-6.0-4.0-0.13","cmh2f78spa","many_one","0","indirect_first","0","ak04in28","0","20","1","0","3","1","War ziemlich interessant!!","0","1","0","null","","","<div class = 'row'><div class = 'column'><img src = 'usneg/9404.bmp' width = '100%;'></div><div class = 'column'><img src = 'category4/CS6.png' width = '70%;'></div></div>","null","neg","CS","CS","4","category4/CS6.png","","","","",""
"","html-keyboard-response","62","287118","0.0-6.0-4.0-0.14","cmh2f78spa","many_one","0","indirect_first","0","ak04in28","0","20","1","0","3","1","War ziemlich interessant!!","0","1","0","null","","","<div class = 'row'><div class = 'column'><img src = 'usneg/3300.bmp' width = '100%;'></div><div class = 'column'><img src = 'category4/CS8.png' width = '70%;'></div></div>","null","neg","CS","CS","4","category4/CS8.png","","","","",""
"","html-keyboard-response","63","289626","0.0-6.0-4.0-0.15","cmh2f78spa","many_one","0","indirect_first","0","ak04in28","0","20","1","0","3","1","War ziemlich interessant!!","0","1","0","null","","","<div class = 'row'><div class = 'column'><img src = 'usneg/9415.bmp' width = '100%;'></div><div class = 'column'><img src = 'category4/CS10.png' width = '70%;'></div></div>","null","neg","CS","CS","4","category4/CS10.png","","","","",""
"","html-keyboard-response","64","292131","0.0-6.0-4.0-0.16","cmh2f78spa","many_one","0","indirect_first","0","ak04in28","0","20","1","0","3","1","War ziemlich interessant!!","0","1","0","null","","","<div class = 'row'><div class = 'column'><img src = 'category1/CS7.png' width = '70%;'></div><div class = 'column'><img src = 'usneg/6838.bmp' width = '100%;'></div></div>","null","neg","CS","CS","1","category1/CS7.png","","","","",""
"","html-keyboard-response","65","294641","0.0-6.0-4.0-0.17","cmh2f78spa","many_one","0","indirect_first","0","ak04in28","0","20","1","0","3","1","War ziemlich interessant!!","0","1","0","null","","","<div class = 'row'><div class = 'column'><img src = 'category3/CS4.png' width = '70%;'></div><div class = 'column'><img src = 'uspos/8190.bmp' width = '100%;'></div></div>","null","pos","CS","CS","3","category3/CS4.png","","","","",""
"","html-keyboard-response","66","297151","0.0-6.0-4.0-0.18","cmh2f78spa","many_one","0","indirect_first","0","ak04in28","0","20","1","0","3","1","War ziemlich interessant!!","0","1","0","null","","","<div class = 'row'><div class = 'column'><img src = 'category2/CS6.png' width = '70%;'></div><div class = 'column'><img src = 'uspos/8490.bmp' width = '100%;'></div></div>","null","pos","CS","CS","2","category2/CS6.png","","","","",""
"","html-keyboard-response","67","299658","0.0-6.0-4.0-0.19","cmh2f78spa","many_one","0","indirect_first","0","ak04in28","0","20","1","0","3","1","War ziemlich interessant!!","0","1","0","null","","","<div class = 'row'><div class = 'column'><img src = 'uspos/7580.bmp' width = '100%;'></div><div class = 'column'><img src = 'category3/CS8.png' width = '70%;'></div></div>","null","pos","CS","CS","3","category3/CS8.png","","","","",""
"","survey-html-form","68","302334","0.0-6.0-5.0","cmh2f78spa","many_one","0","indirect_first","0","ak04in28","0","20","1","0","3","1","War ziemlich interessant!!","0","1","0","2175.3650000318885","","{}","","","","","","","","","","","",""
"","html-keyboard-response","69","306344","0.0-6.0-6.0-0.0","cmh2f78spa","many_one","0","indirect_first","0","ak04in28","0","20","1","0","3","1","War ziemlich interessant!!","0","1","0","null","","","<div class = 'row'><div class = 'column'><img src = 'usneg/2205.bmp' width = '100%;'></div><div class = 'column'><img src = 'category1/CS1.png' width = '70%;'></div></div>","null","neg","CS","CS","1","category1/CS1.png","","","","",""
"","html-keyboard-response","70","308854","0.0-6.0-6.0-0.1","cmh2f78spa","many_one","0","indirect_first","0","ak04in28","0","20","1","0","3","1","War ziemlich interessant!!","0","1","0","null","","","<div class = 'row'><div class = 'column'><img src = 'uspos/2150.bmp' width = '100%;'></div><div class = 'column'><img src = 'category2/CS7.png' width = '70%;'></div></div>","null","pos","CS","CS","2","category2/CS7.png","","","","",""
"","html-keyboard-response","71","311361","0.0-6.0-6.0-0.2","cmh2f78spa","many_one","0","indirect_first","0","ak04in28","0","20","1","0","3","1","War ziemlich interessant!!","0","1","0","null","","","<div class = 'row'><div class = 'column'><img src = 'uspos/8490.bmp' width = '100%;'></div><div class = 'column'><img src = 'category2/CS6.png' width = '70%;'></div></div>","null","pos","CS","CS","2","category2/CS6.png","","","","",""
"","html-keyboard-response","72","313873","0.0-6.0-6.0-0.3","cmh2f78spa","many_one","0","indirect_first","0","ak04in28","0","20","1","0","3","1","War ziemlich interessant!!","0","1","0","null","","","<div class = 'row'><div class = 'column'><img src = 'usneg/9561.bmp' width = '100%;'></div><div class = 'column'><img src = 'category1/CS2.png' width = '70%;'></div></div>","null","neg","CS","CS","1","category1/CS2.png","","","","",""
"","html-keyboard-response","73","316384","0.0-6.0-6.0-0.4","cmh2f78spa","many_one","0","indirect_first","0","ak04in28","0","20","1","0","3","1","War ziemlich interessant!!","0","1","0","null","","","<div class = 'row'><div class = 'column'><img src = 'uspos/5470.bmp' width = '100%;'></div><div class = 'column'><img src = 'category3/CS7.png' width = '70%;'></div></div>","null","pos","CS","CS","3","category3/CS7.png","","","","",""
"","html-keyboard-response","74","318893","0.0-6.0-6.0-0.5","cmh2f78spa","many_one","0","indirect_first","0","ak04in28","0","20","1","0","3","1","War ziemlich interessant!!","0","1","0","null","","","<div class = 'row'><div class = 'column'><img src = 'usneg/9404.bmp' width = '100%;'></div><div class = 'column'><img src = 'category4/CS6.png' width = '70%;'></div></div>","null","neg","CS","CS","4","category4/CS6.png","","","","",""
"","html-keyboard-response","75","321405","0.0-6.0-6.0-0.6","cmh2f78spa","many_one","0","indirect_first","0","ak04in28","0","20","1","0","3","1","War ziemlich interessant!!","0","1","0","null","","","<div class = 'row'><div class = 'column'><img src = 'usneg/9415.bmp' width = '100%;'></div><div class = 'column'><img src = 'category4/CS10.png' width = '70%;'></div></div>","null","neg","CS","CS","4","category4/CS10.png","","","","",""
"","html-keyboard-response","76","323917","0.0-6.0-6.0-0.7","cmh2f78spa","many_one","0","indirect_first","0","ak04in28","0","20","1","0","3","1","War ziemlich interessant!!","0","1","0","null","","","<div class = 'row'><div class = 'column'><img src = 'category4/CS2.png' width = '70%;'></div><div class = 'column'><img src = 'usneg/6212.bmp' width = '100%;'></div></div>","null","neg","CS","CS","4","category4/CS2.png","","","","",""
"","html-keyboard-response","77","326428","0.0-6.0-6.0-0.8","cmh2f78spa","many_one","0","indirect_first","0","ak04in28","0","20","1","0","3","1","War ziemlich interessant!!","0","1","0","null","","","<div class = 'row'><div class = 'column'><img src = 'category2/CS1.png' width = '70%;'></div><div class = 'column'><img src = 'uspos/4625.bmp' width = '100%;'></div></div>","null","pos","CS","CS","2","category2/CS1.png","","","","",""
"","html-keyboard-response","78","328940","0.0-6.0-6.0-0.9","cmh2f78spa","many_one","0","indirect_first","0","ak04in28","0","20","1","0","3","1","War ziemlich interessant!!","0","1","0","null","","","<div class = 'row'><div class = 'column'><img src = 'category3/CS8.png' width = '70%;'></div><div class = 'column'><img src = 'uspos/7580.bmp' width = '100%;'></div></div>","null","pos","CS","CS","3","category3/CS8.png","","","","",""
"","html-keyboard-response","79","331452","0.0-6.0-6.0-0.10","cmh2f78spa","many_one","0","indirect_first","0","ak04in28","0","20","1","0","3","1","War ziemlich interessant!!","0","1","0","null","","","<div class = 'row'><div class = 'column'><img src = 'uspos/1460.bmp' width = '100%;'></div><div class = 'column'><img src = 'category3/CS10.png' width = '70%;'></div></div>","null","pos","CS","CS","3","category3/CS10.png","","","","",""
"","html-keyboard-response","80","333964","0.0-6.0-6.0-0.11","cmh2f78spa","many_one","0","indirect_first","0","ak04in28","0","20","1","0","3","1","War ziemlich interessant!!","0","1","0","null","","","<div class = 'row'><div class = 'column'><img src = 'category1/CS7.png' width = '70%;'></div><div class = 'column'><img src = 'usneg/6838.bmp' width = '100%;'></div></div>","null","neg","CS","CS","1","category1/CS7.png","","","","",""
"","html-keyboard-response","81","336476","0.0-6.0-6.0-0.12","cmh2f78spa","many_one","0","indirect_first","0","ak04in28","0","20","1","0","3","1","War ziemlich interessant!!","0","1","0","null","","","<div class = 'row'><div class = 'column'><img src = 'usneg/9340.bmp' width = '100%;'></div><div class = 'column'><img src = 'category4/CS9.png' width = '70%;'></div></div>","null","neg","CS","CS","4","category4/CS9.png","","","","",""
"","html-keyboard-response","82","338988","0.0-6.0-6.0-0.13","cmh2f78spa","many_one","0","indirect_first","0","ak04in28","0","20","1","0","3","1","War ziemlich interessant!!","0","1","0","null","","","<div class = 'row'><div class = 'column'><img src = 'category3/CS4.png' width = '70%;'></div><div class = 'column'><img src = 'uspos/8190.bmp' width = '100%;'></div></div>","null","pos","CS","CS","3","category3/CS4.png","","","","",""
"","html-keyboard-response","83","341500","0.0-6.0-6.0-0.14","cmh2f78spa","many_one","0","indirect_first","0","ak04in28","0","20","1","0","3","1","War ziemlich interessant!!","0","1","0","null","","","<div class = 'row'><div class = 'column'><img src = 'category1/CS8.png' width = '70%;'></div><div class = 'column'><img src = 'usneg/8485.bmp' width = '100%;'></div></div>","null","neg","CS","CS","1","category1/CS8.png","","","","",""
"","html-keyboard-response","84","344012","0.0-6.0-6.0-0.15","cmh2f78spa","many_one","0","indirect_first","0","ak04in28","0","20","1","0","3","1","War ziemlich interessant!!","0","1","0","null","","","<div class = 'row'><div class = 'column'><img src = 'category4/CS8.png' width = '70%;'></div><div class = 'column'><img src = 'usneg/3300.bmp' width = '100%;'></div></div>","null","neg","CS","CS","4","category4/CS8.png","","","","",""
"","html-keyboard-response","85","346523","0.0-6.0-6.0-0.16","cmh2f78spa","many_one","0","indirect_first","0","ak04in28","0","20","1","0","3","1","War ziemlich interessant!!","0","1","0","null","","","<div class = 'row'><div class = 'column'><img src = 'category3/CS5.png' width = '70%;'></div><div class = 'column'><img src = 'uspos/5831.bmp' width = '100%;'></div></div>","null","pos","CS","CS","3","category3/CS5.png","","","","",""
"","html-keyboard-response","86","349035","0.0-6.0-6.0-0.17","cmh2f78spa","many_one","0","indirect_first","0","ak04in28","0","20","1","0","3","1","War ziemlich interessant!!","0","1","0","null","","","<div class = 'row'><div class = 'column'><img src = 'category2/CS2.png' width = '70%;'></div><div class = 'column'><img src = 'uspos/8350.bmp' width = '100%;'></div></div>","null","pos","CS","CS","2","category2/CS2.png","","","","",""
"","html-keyboard-response","87","351547","0.0-6.0-6.0-0.18","cmh2f78spa","many_one","0","indirect_first","0","ak04in28","0","20","1","0","3","1","War ziemlich interessant!!","0","1","0","null","","","<div class = 'row'><div class = 'column'><img src = 'uspos/5629.bmp' width = '100%;'></div><div class = 'column'><img src = 'category2/CS8.png' width = '70%;'></div></div>","null","pos","CS","CS","2","category2/CS8.png","","","","",""
"","html-keyboard-response","88","354059","0.0-6.0-6.0-0.19","cmh2f78spa","many_one","0","indirect_first","0","ak04in28","0","20","1","0","3","1","War ziemlich interessant!!","0","1","0","null","","","<div class = 'row'><div class = 'column'><img src = 'usneg/9421.bmp' width = '100%;'></div><div class = 'column'><img src = 'category1/CS5.png' width = '70%;'></div></div>","null","neg","CS","CS","1","category1/CS5.png","","","","",""
"","html-keyboard-response","89","386124","0.0-7.0","cmh2f78spa","many_one","0","indirect_first","0","ak04in28","0","20","1","0","3","1","War ziemlich interessant!!","0","1","0","31557.69499996677","","","<p>Sie sehen nun die chinesischen Zeichen nur ganz kurz. Danach sehen Sie die jeweilige Aussprache der Zeichen als Silbe auf dem Bildschrim. Ihre Aufgabe ist es, für jede Silbe anzugeben, ob diese etwas angenehmes, oder unangenehmes bedeuten könnte. Verlassen Sie sich hier vor allem auf Ihre Intuition.<br><br>Die Zeichen werden nur zur Orientierung dargestellt, beachten Sie sie deshalb nicht. Konzentrieren Sie sich vor allem auf die Silben. <br>Reagieren Sie mit folgenden zwei Tasten: <br><br><b>'D' </b> wenn die Silbe etwas <b>unangenehmes</b> bedeuten könnte. <br><b>'K'</b> wenn die Silbe etwas <b>angenehmes</b> bedeuten könnte. <br><br>Bitte legen Sie nun den Zeigefinger der linken Hand auf die Taste 'D' und den Zeigefinger der rechten Hand auf die Taste 'K'. <br>Reagieren Sie auf jede Silbe so schnell wie möglich. Uns interessiert Ihre spontane Reaktion. <br> <br> <br>Drücken Sie 'D' oder 'K', um die nächste Aufgabe zu starten. </p>","68","","","","","","","","","",""
"","html-keyboard-response","90","389132","0.0-8.0-0.0","cmh2f78spa","many_one","0","indirect_first","0","ak04in28","0","20","1","0","3","1","War ziemlich interessant!!","0","1","0","null","","","<div style=""font-size:60px;"">+</div>","null","","","","","","","","","",""
"","html-keyboard-response","91","389229","0.0-8.0-1.0","cmh2f78spa","many_one","0","indirect_first","0","ak04in28","0","20","1","0","3","1","War ziemlich interessant!!","0","1","0","null","","","<img src = 'category1/CS2.png' width = '100%;'>","null","","","","","","","","","",""
"","html-keyboard-response","92","389486","0.0-8.0-2.0","cmh2f78spa","many_one","0","indirect_first","0","ak04in28","0","20","1","0","3","1","War ziemlich interessant!!","0","1","0","null","","","<img src = 'targets/19.png' width = '100%;'>","null","","","","","","","","","",""
"","html-keyboard-response","93","403781","0.0-8.0-3.0","cmh2f78spa","many_one","0","indirect_first","0","ak04in28","0","20","1","0","3","1","War ziemlich interessant!!","0","1","0","14294.18500000611","","","<img src = 'targets/mask.png' width = '100%;'>","68","neg","CS","CS","1","category1/CS2.png","targets/19.png","0","indirect","0",""
"","html-keyboard-response","94","405291","0.0-8.0-0.1","cmh2f78spa","many_one","0","indirect_first","0","ak04in28","0","20","1","0","3","1","War ziemlich interessant!!","0","1","0","null","","","<div style=""font-size:60px;"">+</div>","null","","","","","","","","","",""
"","html-keyboard-response","95","405382","0.0-8.0-1.1","cmh2f78spa","many_one","0","indirect_first","0","ak04in28","0","20","1","0","3","1","War ziemlich interessant!!","0","1","0","null","","","<img src = 'category4/CS6.png' width = '100%;'>","null","","","","","","","","","",""
"","html-keyboard-response","96","405637","0.0-8.0-2.1","cmh2f78spa","many_one","0","indirect_first","0","ak04in28","0","20","1","0","3","1","War ziemlich interessant!!","0","1","0","null","","","<img src = 'targets/6.png' width = '100%;'>","null","","","","","","","","","",""
"","html-keyboard-response","97","413047","0.0-8.0-3.1","cmh2f78spa","many_one","0","indirect_first","0","ak04in28","0","20","1","0","3","1","War ziemlich interessant!!","0","1","0","7408.9749999693595","","","<img src = 'targets/mask.png' width = '100%;'>","75","neg","CS","CS","4","category4/CS6.png","targets/6.png","1","indirect","1",""
"","html-keyboard-response","98","414558","0.0-8.0-0.2","cmh2f78spa","many_one","0","indirect_first","0","ak04in28","0","20","1","0","3","1","War ziemlich interessant!!","0","1","0","null","","","<div style=""font-size:60px;"">+</div>","null","","","","","","","","","",""
"","html-keyboard-response","99","414649","0.0-8.0-1.2","cmh2f78spa","many_one","0","indirect_first","0","ak04in28","0","20","1","0","3","1","War ziemlich interessant!!","0","1","0","null","","","<img src = 'category2/CS6.png' width = '100%;'>","null","","","","","","","","","",""
"","html-keyboard-response","100","414908","0.0-8.0-2.2","cmh2f78spa","many_one","0","indirect_first","0","ak04in28","0","20","1","0","3","1","War ziemlich interessant!!","0","1","0","null","","","<img src = 'targets/25.png' width = '100%;'>","null","","","","","","","","","",""
"","html-keyboard-response","101","416921","0.0-8.0-3.2","cmh2f78spa","many_one","0","indirect_first","0","ak04in28","0","20","1","0","3","1","War ziemlich interessant!!","0","1","0","2011.4099999773316","","","<img src = 'targets/mask.png' width = '100%;'>","75","pos","CS","CS","2","category2/CS6.png","targets/25.png","1","indirect","2",""
"","html-keyboard-response","102","418432","0.0-8.0-0.3","cmh2f78spa","many_one","0","indirect_first","0","ak04in28","0","20","1","0","3","1","War ziemlich interessant!!","0","1","0","null","","","<div style=""font-size:60px;"">+</div>","null","","","","","","","","","",""
"","html-keyboard-response","103","418528","0.0-8.0-1.3","cmh2f78spa","many_one","0","indirect_first","0","ak04in28","0","20","1","0","3","1","War ziemlich interessant!!","0","1","0","null","","","<img src = 'category3/CS4.png' width = '100%;'>","null","","","","","","","","","",""
"","html-keyboard-response","104","418787","0.0-8.0-2.3","cmh2f78spa","many_one","0","indirect_first","0","ak04in28","0","20","1","0","3","1","War ziemlich interessant!!","0","1","0","null","","","<img src = 'targets/2.png' width = '100%;'>","null","","","","","","","","","",""
"","html-keyboard-response","105","421026","0.0-8.0-3.3","cmh2f78spa","many_one","0","indirect_first","0","ak04in28","0","20","1","0","3","1","War ziemlich interessant!!","0","1","0","2238.580000004731","","","<img src = 'targets/mask.png' width = '100%;'>","75","pos","CS","CS","3","category3/CS4.png","targets/2.png","1","indirect","3",""
"","html-keyboard-response","106","422533","0.0-8.0-0.4","cmh2f78spa","many_one","0","indirect_first","0","ak04in28","0","20","1","0","3","1","War ziemlich interessant!!","0","1","0","null","","","<div style=""font-size:60px;"">+</div>","null","","","","","","","","","",""
"","html-keyboard-response","107","422629","0.0-8.0-1.4","cmh2f78spa","many_one","0","indirect_first","0","ak04in28","0","20","1","0","3","1","War ziemlich interessant!!","0","1","0","null","","","<img src = 'category3/CS5.png' width = '100%;'>","null","","","","","","","","","",""
"","html-keyboard-response","108","422886","0.0-8.0-2.4","cmh2f78spa","many_one","0","indirect_first","0","ak04in28","0","20","1","0","3","1","War ziemlich interessant!!","0","1","0","null","","","<img src = 'targets/46.png' width = '100%;'>","null","","","","","","","","","",""
"","html-keyboard-response","109","425814","0.0-8.0-3.4","cmh2f78spa","many_one","0","indirect_first","0","ak04in28","0","20","1","0","3","1","War ziemlich interessant!!","0","1","0","2926.800000015646","","","<img src = 'targets/mask.png' width = '100%;'>","68","pos","CS","CS","3","category3/CS5.png","targets/46.png","0","indirect","4",""
"","html-keyboard-response","110","427323","0.0-8.0-0.5","cmh2f78spa","many_one","0","indirect_first","0","ak04in28","0","20","1","0","3","1","War ziemlich interessant!!","0","1","0","null","","","<div style=""font-size:60px;"">+</div>","null","","","","","","","","","",""
"","html-keyboard-response","111","427419","0.0-8.0-1.5","cmh2f78spa","many_one","0","indirect_first","0","ak04in28","0","20","1","0","3","1","War ziemlich interessant!!","0","1","0","null","","","<img src = 'category4/CS10.png' width = '100%;'>","null","","","","","","","","","",""
"","html-keyboard-response","112","427681","0.0-8.0-2.5","cmh2f78spa","many_one","0","indirect_first","0","ak04in28","0","20","1","0","3","1","War ziemlich interessant!!","0","1","0","null","","","<img src = 'targets/7.png' width = '100%;'>","null","","","","","","","","","",""
"","html-keyboard-response","113","429277","0.0-8.0-3.5","cmh2f78spa","many_one","0","indirect_first","0","ak04in28","0","20","1","0","3","1","War ziemlich interessant!!","0","1","0","1595.610000018496","","","<img src = 'targets/mask.png' width = '100%;'>","75","neg","CS","CS","4","category4/CS10.png","targets/7.png","1","indirect","5",""
"","html-keyboard-response","114","430787","0.0-8.0-0.6","cmh2f78spa","many_one","0","indirect_first","0","ak04in28","0","20","1","0","3","1","War ziemlich interessant!!","0","1","0","null","","","<div style=""font-size:60px;"">+</div>","null","","","","","","","","","",""
"","html-keyboard-response","115","430883","0.0-8.0-1.6","cmh2f78spa","many_one","0","indirect_first","0","ak04in28","0","20","1","0","3","1","War ziemlich interessant!!","0","1","0","null","","","<img src = 'category2/CS8.png' width = '100%;'>","null","","","","","","","","","",""
"","html-keyboard-response","116","431144","0.0-8.0-2.6","cmh2f78spa","many_one","0","indirect_first","0","ak04in28","0","20","1","0","3","1","War ziemlich interessant!!","0","1","0","null","","","<img src = 'targets/13.png' width = '100%;'>","null","","","","","","","","","",""
"","html-keyboard-response","117","432422","0.0-8.0-3.6","cmh2f78spa","many_one","0","indirect_first","0","ak04in28","0","20","1","0","3","1","War ziemlich interessant!!","0","1","0","1277.4649999919347","","","<img src = 'targets/mask.png' width = '100%;'>","68","pos","CS","CS","2","category2/CS8.png","targets/13.png","0","indirect","6",""
"","html-keyboard-response","118","433928","0.0-8.0-0.7","cmh2f78spa","many_one","0","indirect_first","0","ak04in28","0","20","1","0","3","1","War ziemlich interessant!!","0","1","0","null","","","<div style=""font-size:60px;"">+</div>","null","","","","","","","","","",""
"","html-keyboard-response","119","434024","0.0-8.0-1.7","cmh2f78spa","many_one","0","indirect_first","0","ak04in28","0","20","1","0","3","1","War ziemlich interessant!!","0","1","0","null","","","<img src = 'category1/CS8.png' width = '100%;'>","null","","","","","","","","","",""
"","html-keyboard-response","120","434286","0.0-8.0-2.7","cmh2f78spa","many_one","0","indirect_first","0","ak04in28","0","20","1","0","3","1","War ziemlich interessant!!","0","1","0","null","","","<img src = 'targets/47.png' width = '100%;'>","null","","","","","","","","","",""
"","html-keyboard-response","121","435254","0.0-8.0-3.7","cmh2f78spa","many_one","0","indirect_first","0","ak04in28","0","20","1","0","3","1","War ziemlich interessant!!","0","1","0","967.8699999931268","","","<img src = 'targets/mask.png' width = '100%;'>","68","neg","CS","CS","1","category1/CS8.png","targets/47.png","0","indirect","7",""
"","html-keyboard-response","122","436763","0.0-8.0-0.8","cmh2f78spa","many_one","0","indirect_first","0","ak04in28","0","20","1","0","3","1","War ziemlich interessant!!","0","1","0","null","","","<div style=""font-size:60px;"">+</div>","null","","","","","","","","","",""
"","html-keyboard-response","123","436859","0.0-8.0-1.8","cmh2f78spa","many_one","0","indirect_first","0","ak04in28","0","20","1","0","3","1","War ziemlich interessant!!","0","1","0","null","","","<img src = 'category3/CS8.png' width = '100%;'>","null","","","","","","","","","",""
"","html-keyboard-response","124","437120","0.0-8.0-2.8","cmh2f78spa","many_one","0","indirect_first","0","ak04in28","0","20","1","0","3","1","War ziemlich interessant!!","0","1","0","null","","","<img src = 'targets/39.png' width = '100%;'>","null","","","","","","","","","",""
"","html-keyboard-response","125","438263","0.0-8.0-3.8","cmh2f78spa","many_one","0","indirect_first","0","ak04in28","0","20","1","0","3","1","War ziemlich interessant!!","0","1","0","1141.3349999929778","","","<img src = 'targets/mask.png' width = '100%;'>","75","pos","CS","CS","3","category3/CS8.png","targets/39.png","1","indirect","8",""
"","html-keyboard-response","126","439773","0.0-8.0-0.9","cmh2f78spa","many_one","0","indirect_first","0","ak04in28","0","20","1","0","3","1","War ziemlich interessant!!","0","1","0","null","","","<div style=""font-size:60px;"">+</div>","null","","","","","","","","","",""
"","html-keyboard-response","127","439867","0.0-8.0-1.9","cmh2f78spa","many_one","0","indirect_first","0","ak04in28","0","20","1","0","3","1","War ziemlich interessant!!","0","1","0","null","","","<img src = 'category4/CS9.png' width = '100%;'>","null","","","","","","","","","",""
"","html-keyboard-response","128","440123","0.0-8.0-2.9","cmh2f78spa","many_one","0","indirect_first","0","ak04in28","0","20","1","0","3","1","War ziemlich interessant!!","0","1","0","null","","","<img src = 'targets/34.png' width = '100%;'>","null","","","","","","","","","",""
"","html-keyboard-response","129","440966","0.0-8.0-3.9","cmh2f78spa","many_one","0","indirect_first","0","ak04in28","0","20","1","0","3","1","War ziemlich interessant!!","0","1","0","842.6849999814294","","","<img src = 'targets/mask.png' width = '100%;'>","75","neg","CS","CS","4","category4/CS9.png","targets/34.png","1","indirect","9",""
"","html-keyboard-response","130","442477","0.0-8.0-0.10","cmh2f78spa","many_one","0","indirect_first","0","ak04in28","0","20","1","0","3","1","War ziemlich interessant!!","0","1","0","null","","","<div style=""font-size:60px;"">+</div>","null","","","","","","","","","",""
"","html-keyboard-response","131","442573","0.0-8.0-1.10","cmh2f78spa","many_one","0","indirect_first","0","ak04in28","0","20","1","0","3","1","War ziemlich interessant!!","0","1","0","null","","","<img src = 'category1/CS1.png' width = '100%;'>","null","","","","","","","","","",""
"","html-keyboard-response","132","442830","0.0-8.0-2.10","cmh2f78spa","many_one","0","indirect_first","0","ak04in28","0","20","1","0","3","1","War ziemlich interessant!!","0","1","0","null","","","<img src = 'targets/16.png' width = '100%;'>","null","","","","","","","","","",""
"","html-keyboard-response","133","444102","0.0-8.0-3.10","cmh2f78spa","many_one","0","indirect_first","0","ak04in28","0","20","1","0","3","1","War ziemlich interessant!!","0","1","0","1271.4500000001863","","","<img src = 'targets/mask.png' width = '100%;'>","68","neg","CS","CS","1","category1/CS1.png","targets/16.png","0","indirect","10",""
"","html-keyboard-response","134","445613","0.0-8.0-0.11","cmh2f78spa","many_one","0","indirect_first","0","ak04in28","0","20","1","0","3","1","War ziemlich interessant!!","0","1","0","null","","","<div style=""font-size:60px;"">+</div>","null","","","","","","","","","",""
"","html-keyboard-response","135","445709","0.0-8.0-1.11","cmh2f78spa","many_one","0","indirect_first","0","ak04in28","0","20","1","0","3","1","War ziemlich interessant!!","0","1","0","null","","","<img src = 'category4/CS2.png' width = '100%;'>","null","","","","","","","","","",""
"","html-keyboard-response","136","445968","0.0-8.0-2.11","cmh2f78spa","many_one","0","indirect_first","0","ak04in28","0","20","1","0","3","1","War ziemlich interessant!!","0","1","0","null","","","<img src = 'targets/10.png' width = '100%;'>","null","","","","","","","","","",""
"","html-keyboard-response","137","448033","0.0-8.0-3.11","cmh2f78spa","many_one","0","indirect_first","0","ak04in28","0","20","1","0","3","1","War ziemlich interessant!!","0","1","0","2062.6049999846146","","","<img src = 'targets/mask.png' width = '100%;'>","75","neg","CS","CS","4","category4/CS2.png","targets/10.png","1","indirect","11",""
"","html-keyboard-response","138","449539","0.0-8.0-0.12","cmh2f78spa","many_one","0","indirect_first","0","ak04in28","0","20","1","0","3","1","War ziemlich interessant!!","0","1","0","null","","","<div style=""font-size:60px;"">+</div>","null","","","","","","","","","",""
"","html-keyboard-response","139","449633","0.0-8.0-1.12","cmh2f78spa","many_one","0","indirect_first","0","ak04in28","0","20","1","0","3","1","War ziemlich interessant!!","0","1","0","null","","","<img src = 'category3/CS7.png' width = '100%;'>","null","","","","","","","","","",""
"","html-keyboard-response","140","449894","0.0-8.0-2.12","cmh2f78spa","many_one","0","indirect_first","0","ak04in28","0","20","1","0","3","1","War ziemlich interessant!!","0","1","0","null","","","<img src = 'targets/21.png' width = '100%;'>","null","","","","","","","","","",""
"","html-keyboard-response","141","450945","0.0-8.0-3.12","cmh2f78spa","many_one","0","indirect_first","0","ak04in28","0","20","1","0","3","1","War ziemlich interessant!!","0","1","0","1050.5949999787845","","","<img src = 'targets/mask.png' width = '100%;'>","75","pos","CS","CS","3","category3/CS7.png","targets/21.png","1","indirect","12",""
"","html-keyboard-response","142","452456","0.0-8.0-0.13","cmh2f78spa","many_one","0","indirect_first","0","ak04in28","0","20","1","0","3","1","War ziemlich interessant!!","0","1","0","null","","","<div style=""font-size:60px;"">+</div>","null","","","","","","","","","",""
"","html-keyboard-response","143","452552","0.0-8.0-1.13","cmh2f78spa","many_one","0","indirect_first","0","ak04in28","0","20","1","0","3","1","War ziemlich interessant!!","0","1","0","null","","","<img src = 'category2/CS2.png' width = '100%;'>","null","","","","","","","","","",""
"","html-keyboard-response","144","452810","0.0-8.0-2.13","cmh2f78spa","many_one","0","indirect_first","0","ak04in28","0","20","1","0","3","1","War ziemlich interessant!!","0","1","0","null","","","<img src = 'targets/12.png' width = '100%;'>","null","","","","","","","","","",""
"","html-keyboard-response","145","453897","0.0-8.0-3.13","cmh2f78spa","many_one","0","indirect_first","0","ak04in28","0","20","1","0","3","1","War ziemlich interessant!!","0","1","0","1086.7149999830872","","","<img src = 'targets/mask.png' width = '100%;'>","68","pos","CS","CS","2","category2/CS2.png","targets/12.png","0","indirect","13",""
"","html-keyboard-response","146","455403","0.0-8.0-0.14","cmh2f78spa","many_one","0","indirect_first","0","ak04in28","0","20","1","0","3","1","War ziemlich interessant!!","0","1","0","null","","","<div style=""font-size:60px;"">+</div>","null","","","","","","","","","",""
"","html-keyboard-response","147","455496","0.0-8.0-1.14","cmh2f78spa","many_one","0","indirect_first","0","ak04in28","0","20","1","0","3","1","War ziemlich interessant!!","0","1","0","null","","","<img src = 'category4/CS7.png' width = '100%;'>","null","","","","","","","","","",""
"","html-keyboard-response","148","455752","0.0-8.0-2.14","cmh2f78spa","many_one","0","indirect_first","0","ak04in28","0","20","1","0","3","1","War ziemlich interessant!!","0","1","0","null","","","<img src = 'targets/22.png' width = '100%;'>","null","","","","","","","","","",""
"","html-keyboard-response","149","457713","0.0-8.0-3.14","cmh2f78spa","many_one","0","indirect_first","0","ak04in28","0","20","1","0","3","1","War ziemlich interessant!!","0","1","0","1960.335000010673","","","<img src = 'targets/mask.png' width = '100%;'>","75","neg","GS","GSold","4","category4/CS7.png","targets/22.png","1","indirect","14",""
"","html-keyboard-response","150","459222","0.0-8.0-0.15","cmh2f78spa","many_one","0","indirect_first","0","ak04in28","0","20","1","0","3","1","War ziemlich interessant!!","0","1","0","null","","","<div style=""font-size:60px;"">+</div>","null","","","","","","","","","",""
"","html-keyboard-response","151","459314","0.0-8.0-1.15","cmh2f78spa","many_one","0","indirect_first","0","ak04in28","0","20","1","0","3","1","War ziemlich interessant!!","0","1","0","null","","","<img src = 'category3/CS10.png' width = '100%;'>","null","","","","","","","","","",""
"","html-keyboard-response","152","459570","0.0-8.0-2.15","cmh2f78spa","many_one","0","indirect_first","0","ak04in28","0","20","1","0","3","1","War ziemlich interessant!!","0","1","0","null","","","<img src = 'targets/44.png' width = '100%;'>","null","","","","","","","","","",""
"","html-keyboard-response","153","461089","0.0-8.0-3.15","cmh2f78spa","many_one","0","indirect_first","0","ak04in28","0","20","1","0","3","1","War ziemlich interessant!!","0","1","0","1518.2550000026822","","","<img src = 'targets/mask.png' width = '100%;'>","68","pos","CS","CS","3","category3/CS10.png","targets/44.png","0","indirect","15",""
"","html-keyboard-response","154","462600","0.0-8.0-0.16","cmh2f78spa","many_one","0","indirect_first","0","ak04in28","0","20","1","0","3","1","War ziemlich interessant!!","0","1","0","null","","","<div style=""font-size:60px;"">+</div>","null","","","","","","","","","",""
"","html-keyboard-response","155","462696","0.0-8.0-1.16","cmh2f78spa","many_one","0","indirect_first","0","ak04in28","0","20","1","0","3","1","War ziemlich interessant!!","0","1","0","null","","","<img src = 'category2/CS7.png' width = '100%;'>","null","","","","","","","","","",""
"","html-keyboard-response","156","462953","0.0-8.0-2.16","cmh2f78spa","many_one","0","indirect_first","0","ak04in28","0","20","1","0","3","1","War ziemlich interessant!!","0","1","0","null","","","<img src = 'targets/38.png' width = '100%;'>","null","","","","","","","","","",""
"","html-keyboard-response","157","464041","0.0-8.0-3.16","cmh2f78spa","many_one","0","indirect_first","0","ak04in28","0","20","1","0","3","1","War ziemlich interessant!!","0","1","0","1087.5599999562837","","","<img src = 'targets/mask.png' width = '100%;'>","75","pos","CS","CS","2","category2/CS7.png","targets/38.png","1","indirect","16",""
"","html-keyboard-response","158","465544","0.0-8.0-0.17","cmh2f78spa","many_one","0","indirect_first","0","ak04in28","0","20","1","0","3","1","War ziemlich interessant!!","0","1","0","null","","","<div style=""font-size:60px;"">+</div>","null","","","","","","","","","",""
"","html-keyboard-response","159","465640","0.0-8.0-1.17","cmh2f78spa","many_one","0","indirect_first","0","ak04in28","0","20","1","0","3","1","War ziemlich interessant!!","0","1","0","null","","","<img src = 'category4/CS8.png' width = '100%;'>","null","","","","","","","","","",""
"","html-keyboard-response","160","465898","0.0-8.0-2.17","cmh2f78spa","many_one","0","indirect_first","0","ak04in28","0","20","1","0","3","1","War ziemlich interessant!!","0","1","0","null","","","<img src = 'targets/32.png' width = '100%;'>","null","","","","","","","","","",""
"","html-keyboard-response","161","467650","0.0-8.0-3.17","cmh2f78spa","many_one","0","indirect_first","0","ak04in28","0","20","1","0","3","1","War ziemlich interessant!!","0","1","0","1750.6699999794364","","","<img src = 'targets/mask.png' width = '100%;'>","68","neg","CS","CS","4","category4/CS8.png","targets/32.png","0","indirect","17",""
"","html-keyboard-response","162","469156","0.0-8.0-0.18","cmh2f78spa","many_one","0","indirect_first","0","ak04in28","0","20","1","0","3","1","War ziemlich interessant!!","0","1","0","null","","","<div style=""font-size:60px;"">+</div>","null","","","","","","","","","",""
"","html-keyboard-response","163","469252","0.0-8.0-1.18","cmh2f78spa","many_one","0","indirect_first","0","ak04in28","0","20","1","0","3","1","War ziemlich interessant!!","0","1","0","null","","","<img src = 'category2/CS1.png' width = '100%;'>","null","","","","","","","","","",""
"","html-keyboard-response","164","469513","0.0-8.0-2.18","cmh2f78spa","many_one","0","indirect_first","0","ak04in28","0","20","1","0","3","1","War ziemlich interessant!!","0","1","0","null","","","<img src = 'targets/4.png' width = '100%;'>","null","","","","","","","","","",""
"","html-keyboard-response","165","470330","0.0-8.0-3.18","cmh2f78spa","many_one","0","indirect_first","0","ak04in28","0","20","1","0","3","1","War ziemlich interessant!!","0","1","0","815.5900000128895","","","<img src = 'targets/mask.png' width = '100%;'>","68","pos","CS","CS","2","category2/CS1.png","targets/4.png","0","indirect","18",""
"","html-keyboard-response","166","471835","0.0-8.0-0.19","cmh2f78spa","many_one","0","indirect_first","0","ak04in28","0","20","1","0","3","1","War ziemlich interessant!!","0","1","0","null","","","<div style=""font-size:60px;"">+</div>","null","","","","","","","","","",""
"","html-keyboard-response","167","471931","0.0-8.0-1.19","cmh2f78spa","many_one","0","indirect_first","0","ak04in28","0","20","1","0","3","1","War ziemlich interessant!!","0","1","0","null","","","<img src = 'category4/CS5.png' width = '100%;'>","null","","","","","","","","","",""
"","html-keyboard-response","168","472187","0.0-8.0-2.19","cmh2f78spa","many_one","0","indirect_first","0","ak04in28","0","20","1","0","3","1","War ziemlich interessant!!","0","1","0","null","","","<img src = 'targets/48.png' width = '100%;'>","null","","","","","","","","","",""
"","html-keyboard-response","169","473546","0.0-8.0-3.19","cmh2f78spa","many_one","0","indirect_first","0","ak04in28","0","20","1","0","3","1","War ziemlich interessant!!","0","1","0","1358.3499999949709","","","<img src = 'targets/mask.png' width = '100%;'>","68","neg","GS","GSold","4","category4/CS5.png","targets/48.png","0","indirect","19",""
"","html-keyboard-response","170","475057","0.0-8.0-0.20","cmh2f78spa","many_one","0","indirect_first","0","ak04in28","0","20","1","0","3","1","War ziemlich interessant!!","0","1","0","null","","","<div style=""font-size:60px;"">+</div>","null","","","","","","","","","",""
"","html-keyboard-response","171","475148","0.0-8.0-1.20","cmh2f78spa","many_one","0","indirect_first","0","ak04in28","0","20","1","0","3","1","War ziemlich interessant!!","0","1","0","null","","","<img src = 'category1/CS7.png' width = '100%;'>","null","","","","","","","","","",""
"","html-keyboard-response","172","475407","0.0-8.0-2.20","cmh2f78spa","many_one","0","indirect_first","0","ak04in28","0","20","1","0","3","1","War ziemlich interessant!!","0","1","0","null","","","<img src = 'targets/30.png' width = '100%;'>","null","","","","","","","","","",""
"","html-keyboard-response","173","476602","0.0-8.0-3.20","cmh2f78spa","many_one","0","indirect_first","0","ak04in28","0","20","1","0","3","1","War ziemlich interessant!!","0","1","0","1193.9649999840185","","","<img src = 'targets/mask.png' width = '100%;'>","68","neg","CS","CS","1","category1/CS7.png","targets/30.png","0","indirect","20",""
"","html-keyboard-response","174","478108","0.0-8.0-0.21","cmh2f78spa","many_one","0","indirect_first","0","ak04in28","0","20","1","0","3","1","War ziemlich interessant!!","0","1","0","null","","","<div style=""font-size:60px;"">+</div>","null","","","","","","","","","",""
"","html-keyboard-response","175","478200","0.0-8.0-1.21","cmh2f78spa","many_one","0","indirect_first","0","ak04in28","0","20","1","0","3","1","War ziemlich interessant!!","0","1","0","null","","","<img src = 'category1/CS5.png' width = '100%;'>","null","","","","","","","","","",""
"","html-keyboard-response","176","478455","0.0-8.0-2.21","cmh2f78spa","many_one","0","indirect_first","0","ak04in28","0","20","1","0","3","1","War ziemlich interessant!!","0","1","0","null","","","<img src = 'targets/24.png' width = '100%;'>","null","","","","","","","","","",""
"","html-keyboard-response","177","479418","0.0-8.0-3.21","cmh2f78spa","many_one","0","indirect_first","0","ak04in28","0","20","1","0","3","1","War ziemlich interessant!!","0","1","0","962.4399999738671","","","<img src = 'targets/mask.png' width = '100%;'>","75","neg","CS","CS","1","category1/CS5.png","targets/24.png","1","indirect","21",""
"","html-keyboard-response","178","480927","0.0-8.0-0.22","cmh2f78spa","many_one","0","indirect_first","0","ak04in28","0","20","1","0","3","1","War ziemlich interessant!!","0","1","0","null","","","<div style=""font-size:60px;"">+</div>","null","","","","","","","","","",""
"","html-keyboard-response","179","481018","0.0-8.0-1.22","cmh2f78spa","many_one","0","indirect_first","0","ak04in28","0","20","1","0","3","1","War ziemlich interessant!!","0","1","0","null","","","<img src = 'category2/CS5.png' width = '100%;'>","null","","","","","","","","","",""
"","html-keyboard-response","180","481274","0.0-8.0-2.22","cmh2f78spa","many_one","0","indirect_first","0","ak04in28","0","20","1","0","3","1","War ziemlich interessant!!","0","1","0","null","","","<img src = 'targets/41.png' width = '100%;'>","null","","","","","","","","","",""
"","html-keyboard-response","181","481921","0.0-8.0-3.22","cmh2f78spa","many_one","0","indirect_first","0","ak04in28","0","20","1","0","3","1","War ziemlich interessant!!","0","1","0","646.4200000045821","","","<img src = 'targets/mask.png' width = '100%;'>","75","pos","GS","GSold","2","category2/CS5.png","targets/41.png","1","indirect","22",""
"","html-keyboard-response","182","483428","0.0-8.0-0.23","cmh2f78spa","many_one","0","indirect_first","0","ak04in28","0","20","1","0","3","1","War ziemlich interessant!!","0","1","0","null","","","<div style=""font-size:60px;"">+</div>","null","","","","","","","","","",""
"","html-keyboard-response","183","483524","0.0-8.0-1.23","cmh2f78spa","many_one","0","indirect_first","0","ak04in28","0","20","1","0","3","1","War ziemlich interessant!!","0","1","0","null","","","<img src = 'category4/CS3.png' width = '100%;'>","null","","","","","","","","","",""
"","html-keyboard-response","184","483781","0.0-8.0-2.23","cmh2f78spa","many_one","0","indirect_first","0","ak04in28","0","20","1","0","3","1","War ziemlich interessant!!","0","1","0","null","","","<img src = 'targets/27.png' width = '100%;'>","null","","","","","","","","","",""
"","html-keyboard-response","185","484336","0.0-8.0-3.23","cmh2f78spa","many_one","0","indirect_first","0","ak04in28","0","20","1","0","3","1","War ziemlich interessant!!","0","1","0","554.9100000062026","","","<img src = 'targets/mask.png' width = '100%;'>","75","neg","GS","GSold","4","category4/CS3.png","targets/27.png","1","indirect","23",""
"","survey-html-form","186","487290","0.0-9.0","cmh2f78spa","many_one","0","indirect_first","0","ak04in28","0","20","1","0","3","1","War ziemlich interessant!!","0","1","0","2448.7650000373833","","{}","","","","","","","","","","","",""
"","html-keyboard-response","187","490298","0.0-10.0-0.0","cmh2f78spa","many_one","0","indirect_first","0","ak04in28","0","20","1","0","3","1","War ziemlich interessant!!","0","1","0","null","","","<div style=""font-size:60px;"">+</div>","null","","","","","","","","","",""
"","html-keyboard-response","188","490394","0.0-10.0-1.0","cmh2f78spa","many_one","0","indirect_first","0","ak04in28","0","20","1","0","3","1","War ziemlich interessant!!","0","1","0","null","","","<img src = 'category1/GS2.png' width = '100%;'>","null","","","","","","","","","",""
"","html-keyboard-response","189","490650","0.0-10.0-2.0","cmh2f78spa","many_one","0","indirect_first","0","ak04in28","0","20","1","0","3","1","War ziemlich interessant!!","0","1","0","null","","","<img src = 'targets/33.png' width = '100%;'>","null","","","","","","","","","",""
"","html-keyboard-response","190","492519","0.0-10.0-3.0","cmh2f78spa","many_one","0","indirect_first","0","ak04in28","0","20","1","0","3","1","War ziemlich interessant!!","0","1","0","1867.484999995213","","","<img src = 'targets/mask.png' width = '100%;'>","75","neg","GS","GSnew","1","category1/GS2.png","targets/33.png","1","indirect","24",""
"","html-keyboard-response","191","494029","0.0-10.0-0.1","cmh2f78spa","many_one","0","indirect_first","0","ak04in28","0","20","1","0","3","1","War ziemlich interessant!!","0","1","0","null","","","<div style=""font-size:60px;"">+</div>","null","","","","","","","","","",""
"","html-keyboard-response","192","494125","0.0-10.0-1.1","cmh2f78spa","many_one","0","indirect_first","0","ak04in28","0","20","1","0","3","1","War ziemlich interessant!!","0","1","0","null","","","<img src = 'category3/CS3.png' width = '100%;'>","null","","","","","","","","","",""
"","html-keyboard-response","193","494385","0.0-10.0-2.1","cmh2f78spa","many_one","0","indirect_first","0","ak04in28","0","20","1","0","3","1","War ziemlich interessant!!","0","1","0","null","","","<img src = 'targets/14.png' width = '100%;'>","null","","","","","","","","","",""
"","html-keyboard-response","194","495678","0.0-10.0-3.1","cmh2f78spa","many_one","0","indirect_first","0","ak04in28","0","20","1","0","3","1","War ziemlich interessant!!","0","1","0","1292.0750000048429","","","<img src = 'targets/mask.png' width = '100%;'>","68","pos","GS","GSold","3","category3/CS3.png","targets/14.png","0","indirect","25",""
"","html-keyboard-response","195","497189","0.0-10.0-0.2","cmh2f78spa","many_one","0","indirect_first","0","ak04in28","0","20","1","0","3","1","War ziemlich interessant!!","0","1","0","null","","","<div style=""font-size:60px;"">+</div>","null","","","","","","","","","",""
"","html-keyboard-response","196","497285","0.0-10.0-1.2","cmh2f78spa","many_one","0","indirect_first","0","ak04in28","0","20","1","0","3","1","War ziemlich interessant!!","0","1","0","null","","","<img src = 'category1/CS9.png' width = '100%;'>","null","","","","","","","","","",""
"","html-keyboard-response","197","497543","0.0-10.0-2.2","cmh2f78spa","many_one","0","indirect_first","0","ak04in28","0","20","1","0","3","1","War ziemlich interessant!!","0","1","0","null","","","<img src = 'targets/11.png' width = '100%;'>","null","","","","","","","","","",""
"","html-keyboard-response","198","498422","0.0-10.0-3.2","cmh2f78spa","many_one","0","indirect_first","0","ak04in28","0","20","1","0","3","1","War ziemlich interessant!!","0","1","0","877.4550000089221","","","<img src = 'targets/mask.png' width = '100%;'>","75","neg","GS","GSold","1","category1/CS9.png","targets/11.png","1","indirect","26",""
"","html-keyboard-response","199","499932","0.0-10.0-0.3","cmh2f78spa","many_one","0","indirect_first","0","ak04in28","0","20","1","0","3","1","War ziemlich interessant!!","0","1","0","null","","","<div style=""font-size:60px;"">+</div>","null","","","","","","","","","",""
"","html-keyboard-response","200","500028","0.0-10.0-1.3","cmh2f78spa","many_one","0","indirect_first","0","ak04in28","0","20","1","0","3","1","War ziemlich interessant!!","0","1","0","null","","","<img src = 'category4/GS1.png' width = '100%;'>","null","","","","","","","","","",""
"","html-keyboard-response","201","500287","0.0-10.0-2.3","cmh2f78spa","many_one","0","indirect_first","0","ak04in28","0","20","1","0","3","1","War ziemlich interessant!!","0","1","0","null","","","<img src = 'targets/36.png' width = '100%;'>","null","","","","","","","","","",""
"","html-keyboard-response","202","501525","0.0-10.0-3.3","cmh2f78spa","many_one","0","indirect_first","0","ak04in28","0","20","1","0","3","1","War ziemlich interessant!!","0","1","0","1238.0799999809824","","","<img src = 'targets/mask.png' width = '100%;'>","75","neg","GS","GSnew","4","category4/GS1.png","targets/36.png","1","indirect","27",""
"","html-keyboard-response","203","503034","0.0-10.0-0.4","cmh2f78spa","many_one","0","indirect_first","0","ak04in28","0","20","1","0","3","1","War ziemlich interessant!!","0","1","0","null","","","<div style=""font-size:60px;"">+</div>","null","","","","","","","","","",""
"","html-keyboard-response","204","503130","0.0-10.0-1.4","cmh2f78spa","many_one","0","indirect_first","0","ak04in28","0","20","1","0","3","1","War ziemlich interessant!!","0","1","0","null","","","<img src = 'category1/CS6.png' width = '100%;'>","null","","","","","","","","","",""
"","html-keyboard-response","205","503388","0.0-10.0-2.4","cmh2f78spa","many_one","0","indirect_first","0","ak04in28","0","20","1","0","3","1","War ziemlich interessant!!","0","1","0","null","","","<img src = 'targets/31.png' width = '100%;'>","null","","","","","","","","","",""
"","html-keyboard-response","206","504389","0.0-10.0-3.4","cmh2f78spa","many_one","0","indirect_first","0","ak04in28","0","20","1","0","3","1","War ziemlich interessant!!","0","1","0","1000.2349999849685","","","<img src = 'targets/mask.png' width = '100%;'>","68","neg","GS","GSold","1","category1/CS6.png","targets/31.png","0","indirect","28",""
"","html-keyboard-response","207","505898","0.0-10.0-0.5","cmh2f78spa","many_one","0","indirect_first","0","ak04in28","0","20","1","0","3","1","War ziemlich interessant!!","0","1","0","null","","","<div style=""font-size:60px;"">+</div>","null","","","","","","","","","",""
"","html-keyboard-response","208","505994","0.0-10.0-1.5","cmh2f78spa","many_one","0","indirect_first","0","ak04in28","0","20","1","0","3","1","War ziemlich interessant!!","0","1","0","null","","","<img src = 'category2/CS3.png' width = '100%;'>","null","","","","","","","","","",""
"","html-keyboard-response","209","506254","0.0-10.0-2.5","cmh2f78spa","many_one","0","indirect_first","0","ak04in28","0","20","1","0","3","1","War ziemlich interessant!!","0","1","0","null","","","<img src = 'targets/9.png' width = '100%;'>","null","","","","","","","","","",""
"","html-keyboard-response","210","507253","0.0-10.0-3.5","cmh2f78spa","many_one","0","indirect_first","0","ak04in28","0","20","1","0","3","1","War ziemlich interessant!!","0","1","0","998.5849999939092","","","<img src = 'targets/mask.png' width = '100%;'>","75","pos","GS","GSold","2","category2/CS3.png","targets/9.png","1","indirect","29",""
"","html-keyboard-response","211","508759","0.0-10.0-0.6","cmh2f78spa","many_one","0","indirect_first","0","ak04in28","0","20","1","0","3","1","War ziemlich interessant!!","0","1","0","null","","","<div style=""font-size:60px;"">+</div>","null","","","","","","","","","",""
"","html-keyboard-response","212","508851","0.0-10.0-1.6","cmh2f78spa","many_one","0","indirect_first","0","ak04in28","0","20","1","0","3","1","War ziemlich interessant!!","0","1","0","null","","","<img src = 'category3/GS1.png' width = '100%;'>","null","","","","","","","","","",""
"","html-keyboard-response","213","509108","0.0-10.0-2.6","cmh2f78spa","many_one","0","indirect_first","0","ak04in28","0","20","1","0","3","1","War ziemlich interessant!!","0","1","0","null","","","<img src = 'targets/20.png' width = '100%;'>","null","","","","","","","","","",""
"","html-keyboard-response","214","509925","0.0-10.0-3.6","cmh2f78spa","many_one","0","indirect_first","0","ak04in28","0","20","1","0","3","1","War ziemlich interessant!!","0","1","0","815.7150000333786","","","<img src = 'targets/mask.png' width = '100%;'>","75","pos","GS","GSnew","3","category3/GS1.png","targets/20.png","1","indirect","30",""
"","html-keyboard-response","215","511427","0.0-10.0-0.7","cmh2f78spa","many_one","0","indirect_first","0","ak04in28","0","20","1","0","3","1","War ziemlich interessant!!","0","1","0","null","","","<div style=""font-size:60px;"">+</div>","null","","","","","","","","","",""
"","html-keyboard-response","216","511523","0.0-10.0-1.7","cmh2f78spa","many_one","0","indirect_first","0","ak04in28","0","20","1","0","3","1","War ziemlich interessant!!","0","1","0","null","","","<img src = 'category2/GS1.png' width = '100%;'>","null","","","","","","","","","",""
"","html-keyboard-response","217","511779","0.0-10.0-2.7","cmh2f78spa","many_one","0","indirect_first","0","ak04in28","0","20","1","0","3","1","War ziemlich interessant!!","0","1","0","null","","","<img src = 'targets/40.png' width = '100%;'>","null","","","","","","","","","",""
"","html-keyboard-response","218","512924","0.0-10.0-3.7","cmh2f78spa","many_one","0","indirect_first","0","ak04in28","0","20","1","0","3","1","War ziemlich interessant!!","0","1","0","1144.4449999835342","","","<img src = 'targets/mask.png' width = '100%;'>","68","pos","GS","GSnew","2","category2/GS1.png","targets/40.png","0","indirect","31",""
"","html-keyboard-response","219","514433","0.0-10.0-0.8","cmh2f78spa","many_one","0","indirect_first","0","ak04in28","0","20","1","0","3","1","War ziemlich interessant!!","0","1","0","null","","","<div style=""font-size:60px;"">+</div>","null","","","","","","","","","",""
"","html-keyboard-response","220","514528","0.0-10.0-1.8","cmh2f78spa","many_one","0","indirect_first","0","ak04in28","0","20","1","0","3","1","War ziemlich interessant!!","0","1","0","null","","","<img src = 'category4/GS3.png' width = '100%;'>","null","","","","","","","","","",""
"","html-keyboard-response","221","514784","0.0-10.0-2.8","cmh2f78spa","many_one","0","indirect_first","0","ak04in28","0","20","1","0","3","1","War ziemlich interessant!!","0","1","0","null","","","<img src = 'targets/18.png' width = '100%;'>","null","","","","","","","","","",""
"","html-keyboard-response","222","515757","0.0-10.0-3.8","cmh2f78spa","many_one","0","indirect_first","0","ak04in28","0","20","1","0","3","1","War ziemlich interessant!!","0","1","0","971.5999999898486","","","<img src = 'targets/mask.png' width = '100%;'>","75","neg","GS","GSnew","4","category4/GS3.png","targets/18.png","1","indirect","32",""
"","html-keyboard-response","223","517267","0.0-10.0-0.9","cmh2f78spa","many_one","0","indirect_first","0","ak04in28","0","20","1","0","3","1","War ziemlich interessant!!","0","1","0","null","","","<div style=""font-size:60px;"">+</div>","null","","","","","","","","","",""
"","html-keyboard-response","224","517363","0.0-10.0-1.9","cmh2f78spa","many_one","0","indirect_first","0","ak04in28","0","20","1","0","3","1","War ziemlich interessant!!","0","1","0","null","","","<img src = 'category3/CS9.png' width = '100%;'>","null","","","","","","","","","",""
"","html-keyboard-response","225","517617","0.0-10.0-2.9","cmh2f78spa","many_one","0","indirect_first","0","ak04in28","0","20","1","0","3","1","War ziemlich interessant!!","0","1","0","null","","","<img src = 'targets/3.png' width = '100%;'>","null","","","","","","","","","",""
"","html-keyboard-response","226","519693","0.0-10.0-3.9","cmh2f78spa","many_one","0","indirect_first","0","ak04in28","0","20","1","0","3","1","War ziemlich interessant!!","0","1","0","2074.1799999959767","","","<img src = 'targets/mask.png' width = '100%;'>","75","pos","GS","GSold","3","category3/CS9.png","targets/3.png","1","indirect","33",""
"","html-keyboard-response","227","521196","0.0-10.0-0.10","cmh2f78spa","many_one","0","indirect_first","0","ak04in28","0","20","1","0","3","1","War ziemlich interessant!!","0","1","0","null","","","<div style=""font-size:60px;"">+</div>","null","","","","","","","","","",""
"","html-keyboard-response","228","521289","0.0-10.0-1.10","cmh2f78spa","many_one","0","indirect_first","0","ak04in28","0","20","1","0","3","1","War ziemlich interessant!!","0","1","0","null","","","<img src = 'category3/CS6.png' width = '100%;'>","null","","","","","","","","","",""
"","html-keyboard-response","229","521546","0.0-10.0-2.10","cmh2f78spa","many_one","0","indirect_first","0","ak04in28","0","20","1","0","3","1","War ziemlich interessant!!","0","1","0","null","","","<img src = 'targets/42.png' width = '100%;'>","null","","","","","","","","","",""
"","html-keyboard-response","230","522420","0.0-10.0-3.10","cmh2f78spa","many_one","0","indirect_first","0","ak04in28","0","20","1","0","3","1","War ziemlich interessant!!","0","1","0","873.0850000283681","","","<img src = 'targets/mask.png' width = '100%;'>","68","pos","GS","GSold","3","category3/CS6.png","targets/42.png","0","indirect","34",""
"","html-keyboard-response","231","523923","0.0-10.0-0.11","cmh2f78spa","many_one","0","indirect_first","0","ak04in28","0","20","1","0","3","1","War ziemlich interessant!!","0","1","0","null","","","<div style=""font-size:60px;"">+</div>","null","","","","","","","","","",""
"","html-keyboard-response","232","524018","0.0-10.0-1.11","cmh2f78spa","many_one","0","indirect_first","0","ak04in28","0","20","1","0","3","1","War ziemlich interessant!!","0","1","0","null","","","<img src = 'category1/ma.png' width = '100%;'>","null","","","","","","","","","",""
"","html-keyboard-response","233","524271","0.0-10.0-2.11","cmh2f78spa","many_one","0","indirect_first","0","ak04in28","0","20","1","0","3","1","War ziemlich interessant!!","0","1","0","null","","","<img src = 'targets/37.png' width = '100%;'>","null","","","","","","","","","",""
"","html-keyboard-response","234","525172","0.0-10.0-3.11","cmh2f78spa","many_one","0","indirect_first","0","ak04in28","0","20","1","0","3","1","War ziemlich interessant!!","0","1","0","900.5600000382401","","","<img src = 'targets/mask.png' width = '100%;'>","68","neg","GS","abstract","1","category1/ma.png","targets/37.png","0","indirect","35",""
"","html-keyboard-response","235","526679","0.0-10.0-0.12","cmh2f78spa","many_one","0","indirect_first","0","ak04in28","0","20","1","0","3","1","War ziemlich interessant!!","0","1","0","null","","","<div style=""font-size:60px;"">+</div>","null","","","","","","","","","",""
"","html-keyboard-response","236","526775","0.0-10.0-1.12","cmh2f78spa","many_one","0","indirect_first","0","ak04in28","0","20","1","0","3","1","War ziemlich interessant!!","0","1","0","null","","","<img src = 'category2/GS3.png' width = '100%;'>","null","","","","","","","","","",""
"","html-keyboard-response","237","527036","0.0-10.0-2.12","cmh2f78spa","many_one","0","indirect_first","0","ak04in28","0","20","1","0","3","1","War ziemlich interessant!!","0","1","0","null","","","<img src = 'targets/43.png' width = '100%;'>","null","","","","","","","","","",""
"","html-keyboard-response","238","528173","0.0-10.0-3.12","cmh2f78spa","many_one","0","indirect_first","0","ak04in28","0","20","1","0","3","1","War ziemlich interessant!!","0","1","0","1135.8100000070408","","","<img src = 'targets/mask.png' width = '100%;'>","75","pos","GS","GSnew","2","category2/GS3.png","targets/43.png","1","indirect","36",""
"","html-keyboard-response","239","529683","0.0-10.0-0.13","cmh2f78spa","many_one","0","indirect_first","0","ak04in28","0","20","1","0","3","1","War ziemlich interessant!!","0","1","0","null","","","<div style=""font-size:60px;"">+</div>","null","","","","","","","","","",""
"","html-keyboard-response","240","529777","0.0-10.0-1.13","cmh2f78spa","many_one","0","indirect_first","0","ak04in28","0","20","1","0","3","1","War ziemlich interessant!!","0","1","0","null","","","<img src = 'category1/GS3.png' width = '100%;'>","null","","","","","","","","","",""
"","html-keyboard-response","241","530037","0.0-10.0-2.13","cmh2f78spa","many_one","0","indirect_first","0","ak04in28","0","20","1","0","3","1","War ziemlich interessant!!","0","1","0","null","","","<img src = 'targets/5.png' width = '100%;'>","null","","","","","","","","","",""
"","html-keyboard-response","242","531173","0.0-10.0-3.13","cmh2f78spa","many_one","0","indirect_first","0","ak04in28","0","20","1","0","3","1","War ziemlich interessant!!","0","1","0","1134.090000006836","","","<img src = 'targets/mask.png' width = '100%;'>","75","neg","GS","GSnew","1","category1/GS3.png","targets/5.png","1","indirect","37",""
"","html-keyboard-response","243","532679","0.0-10.0-0.14","cmh2f78spa","many_one","0","indirect_first","0","ak04in28","0","20","1","0","3","1","War ziemlich interessant!!","0","1","0","null","","","<div style=""font-size:60px;"">+</div>","null","","","","","","","","","",""
"","html-keyboard-response","244","532771","0.0-10.0-1.14","cmh2f78spa","many_one","0","indirect_first","0","ak04in28","0","20","1","0","3","1","War ziemlich interessant!!","0","1","0","null","","","<img src = 'category4/GS2.png' width = '100%;'>","null","","","","","","","","","",""
"","html-keyboard-response","245","533029","0.0-10.0-2.14","cmh2f78spa","many_one","0","indirect_first","0","ak04in28","0","20","1","0","3","1","War ziemlich interessant!!","0","1","0","null","","","<img src = 'targets/29.png' width = '100%;'>","null","","","","","","","","","",""
"","html-keyboard-response","246","534085","0.0-10.0-3.14","cmh2f78spa","many_one","0","indirect_first","0","ak04in28","0","20","1","0","3","1","War ziemlich interessant!!","0","1","0","1054.694999998901","","","<img src = 'targets/mask.png' width = '100%;'>","68","neg","GS","GSnew","4","category4/GS2.png","targets/29.png","0","indirect","38",""
"","html-keyboard-response","247","535595","0.0-10.0-0.15","cmh2f78spa","many_one","0","indirect_first","0","ak04in28","0","20","1","0","3","1","War ziemlich interessant!!","0","1","0","null","","","<div style=""font-size:60px;"">+</div>","null","","","","","","","","","",""
"","html-keyboard-response","248","535691","0.0-10.0-1.15","cmh2f78spa","many_one","0","indirect_first","0","ak04in28","0","20","1","0","3","1","War ziemlich interessant!!","0","1","0","null","","","<img src = 'category2/CS9.png' width = '100%;'>","null","","","","","","","","","",""
"","html-keyboard-response","249","535952","0.0-10.0-2.15","cmh2f78spa","many_one","0","indirect_first","0","ak04in28","0","20","1","0","3","1","War ziemlich interessant!!","0","1","0","null","","","<img src = 'targets/26.png' width = '100%;'>","null","","","","","","","","","",""
"","html-keyboard-response","250","536773","0.0-10.0-3.15","cmh2f78spa","many_one","0","indirect_first","0","ak04in28","0","20","1","0","3","1","War ziemlich interessant!!","0","1","0","819.5349999587052","","","<img src = 'targets/mask.png' width = '100%;'>","68","pos","GS","GSold","2","category2/CS9.png","targets/26.png","0","indirect","39",""
"","html-keyboard-response","251","538282","0.0-10.0-0.16","cmh2f78spa","many_one","0","indirect_first","0","ak04in28","0","20","1","0","3","1","War ziemlich interessant!!","0","1","0","null","","","<div style=""font-size:60px;"">+</div>","null","","","","","","","","","",""
"","html-keyboard-response","252","538378","0.0-10.0-1.16","cmh2f78spa","many_one","0","indirect_first","0","ak04in28","0","20","1","0","3","1","War ziemlich interessant!!","0","1","0","null","","","<img src = 'category2/GS2.png' width = '100%;'>","null","","","","","","","","","",""
"","html-keyboard-response","253","538635","0.0-10.0-2.16","cmh2f78spa","many_one","0","indirect_first","0","ak04in28","0","20","1","0","3","1","War ziemlich interessant!!","0","1","0","null","","","<img src = 'targets/28.png' width = '100%;'>","null","","","","","","","","","",""
"","html-keyboard-response","254","539260","0.0-10.0-3.16","cmh2f78spa","many_one","0","indirect_first","0","ak04in28","0","20","1","0","3","1","War ziemlich interessant!!","0","1","0","624.4099999894388","","","<img src = 'targets/mask.png' width = '100%;'>","68","pos","GS","GSnew","2","category2/GS2.png","targets/28.png","0","indirect","40",""
"","html-keyboard-response","255","540769","0.0-10.0-0.17","cmh2f78spa","many_one","0","indirect_first","0","ak04in28","0","20","1","0","3","1","War ziemlich interessant!!","0","1","0","null","","","<div style=""font-size:60px;"">+</div>","null","","","","","","","","","",""
"","html-keyboard-response","256","540865","0.0-10.0-1.17","cmh2f78spa","many_one","0","indirect_first","0","ak04in28","0","20","1","0","3","1","War ziemlich interessant!!","0","1","0","null","","","<img src = 'category3/GS3.png' width = '100%;'>","null","","","","","","","","","",""
"","html-keyboard-response","257","541123","0.0-10.0-2.17","cmh2f78spa","many_one","0","indirect_first","0","ak04in28","0","20","1","0","3","1","War ziemlich interessant!!","0","1","0","null","","","<img src = 'targets/23.png' width = '100%;'>","null","","","","","","","","","",""
"","html-keyboard-response","258","541877","0.0-10.0-3.17","cmh2f78spa","many_one","0","indirect_first","0","ak04in28","0","20","1","0","3","1","War ziemlich interessant!!","0","1","0","752.4449999909848","","","<img src = 'targets/mask.png' width = '100%;'>","75","pos","GS","GSnew","3","category3/GS3.png","targets/23.png","1","indirect","41",""
"","html-keyboard-response","259","543385","0.0-10.0-0.18","cmh2f78spa","many_one","0","indirect_first","0","ak04in28","0","20","1","0","3","1","War ziemlich interessant!!","0","1","0","null","","","<div style=""font-size:60px;"">+</div>","null","","","","","","","","","",""
"","html-keyboard-response","260","543481","0.0-10.0-1.18","cmh2f78spa","many_one","0","indirect_first","0","ak04in28","0","20","1","0","3","1","War ziemlich interessant!!","0","1","0","null","","","<img src = 'category1/CS4.png' width = '100%;'>","null","","","","","","","","","",""
"","html-keyboard-response","261","543737","0.0-10.0-2.18","cmh2f78spa","many_one","0","indirect_first","0","ak04in28","0","20","1","0","3","1","War ziemlich interessant!!","0","1","0","null","","","<img src = 'targets/15.png' width = '100%;'>","null","","","","","","","","","",""
"","html-keyboard-response","262","544421","0.0-10.0-3.18","cmh2f78spa","many_one","0","indirect_first","0","ak04in28","0","20","1","0","3","1","War ziemlich interessant!!","0","1","0","682.5950000202283","","","<img src = 'targets/mask.png' width = '100%;'>","75","neg","GS","GSold","1","category1/CS4.png","targets/15.png","1","indirect","42",""
"","html-keyboard-response","263","545925","0.0-10.0-0.19","cmh2f78spa","many_one","0","indirect_first","0","ak04in28","0","20","1","0","3","1","War ziemlich interessant!!","0","1","0","null","","","<div style=""font-size:60px;"">+</div>","null","","","","","","","","","",""
"","html-keyboard-response","264","546017","0.0-10.0-1.19","cmh2f78spa","many_one","0","indirect_first","0","ak04in28","0","20","1","0","3","1","War ziemlich interessant!!","0","1","0","null","","","<img src = 'category2/men.png' width = '100%;'>","null","","","","","","","","","",""
"","html-keyboard-response","265","546276","0.0-10.0-2.19","cmh2f78spa","many_one","0","indirect_first","0","ak04in28","0","20","1","0","3","1","War ziemlich interessant!!","0","1","0","null","","","<img src = 'targets/17.png' width = '100%;'>","null","","","","","","","","","",""
"","html-keyboard-response","266","547021","0.0-10.0-3.19","cmh2f78spa","many_one","0","indirect_first","0","ak04in28","0","20","1","0","3","1","War ziemlich interessant!!","0","1","0","744.620000012219","","","<img src = 'targets/mask.png' width = '100%;'>","75","pos","GS","abstract","2","category2/men.png","targets/17.png","1","indirect","43",""
"","html-keyboard-response","267","548528","0.0-10.0-0.20","cmh2f78spa","many_one","0","indirect_first","0","ak04in28","0","20","1","0","3","1","War ziemlich interessant!!","0","1","0","null","","","<div style=""font-size:60px;"">+</div>","null","","","","","","","","","",""
"","html-keyboard-response","268","548621","0.0-10.0-1.20","cmh2f78spa","many_one","0","indirect_first","0","ak04in28","0","20","1","0","3","1","War ziemlich interessant!!","0","1","0","null","","","<img src = 'category3/wang.png' width = '100%;'>","null","","","","","","","","","",""
"","html-keyboard-response","269","548877","0.0-10.0-2.20","cmh2f78spa","many_one","0","indirect_first","0","ak04in28","0","20","1","0","3","1","War ziemlich interessant!!","0","1","0","null","","","<img src = 'targets/35.png' width = '100%;'>","null","","","","","","","","","",""
"","html-keyboard-response","270","549549","0.0-10.0-3.20","cmh2f78spa","many_one","0","indirect_first","0","ak04in28","0","20","1","0","3","1","War ziemlich interessant!!","0","1","0","670.4150000005029","","","<img src = 'targets/mask.png' width = '100%;'>","75","pos","GS","abstract","3","category3/wang.png","targets/35.png","1","indirect","44",""
"","html-keyboard-response","271","551060","0.0-10.0-0.21","cmh2f78spa","many_one","0","indirect_first","0","ak04in28","0","20","1","0","3","1","War ziemlich interessant!!","0","1","0","null","","","<div style=""font-size:60px;"">+</div>","null","","","","","","","","","",""
"","html-keyboard-response","272","551156","0.0-10.0-1.21","cmh2f78spa","many_one","0","indirect_first","0","ak04in28","0","20","1","0","3","1","War ziemlich interessant!!","0","1","0","null","","","<img src = 'category1/GS1.png' width = '100%;'>","null","","","","","","","","","",""
"","html-keyboard-response","273","551411","0.0-10.0-2.21","cmh2f78spa","many_one","0","indirect_first","0","ak04in28","0","20","1","0","3","1","War ziemlich interessant!!","0","1","0","null","","","<img src = 'targets/8.png' width = '100%;'>","null","","","","","","","","","",""
"","html-keyboard-response","274","551877","0.0-10.0-3.21","cmh2f78spa","many_one","0","indirect_first","0","ak04in28","0","20","1","0","3","1","War ziemlich interessant!!","0","1","0","464.35500000370666","","","<img src = 'targets/mask.png' width = '100%;'>","68","neg","GS","GSnew","1","category1/GS1.png","targets/8.png","0","indirect","45",""
"","html-keyboard-response","275","553384","0.0-10.0-0.22","cmh2f78spa","many_one","0","indirect_first","0","ak04in28","0","20","1","0","3","1","War ziemlich interessant!!","0","1","0","null","","","<div style=""font-size:60px;"">+</div>","null","","","","","","","","","",""
"","html-keyboard-response","276","553477","0.0-10.0-1.22","cmh2f78spa","many_one","0","indirect_first","0","ak04in28","0","20","1","0","3","1","War ziemlich interessant!!","0","1","0","null","","","<img src = 'category4/lin.png' width = '100%;'>","null","","","","","","","","","",""
"","html-keyboard-response","277","553736","0.0-10.0-2.22","cmh2f78spa","many_one","0","indirect_first","0","ak04in28","0","20","1","0","3","1","War ziemlich interessant!!","0","1","0","null","","","<img src = 'targets/1.png' width = '100%;'>","null","","","","","","","","","",""
"","html-keyboard-response","278","554341","0.0-10.0-3.22","cmh2f78spa","many_one","0","indirect_first","0","ak04in28","0","20","1","0","3","1","War ziemlich interessant!!","0","1","0","604.8549999832176","","","<img src = 'targets/mask.png' width = '100%;'>","68","neg","GS","abstract","4","category4/lin.png","targets/1.png","0","indirect","46",""
"","html-keyboard-response","279","555850","0.0-10.0-0.23","cmh2f78spa","many_one","0","indirect_first","0","ak04in28","0","20","1","0","3","1","War ziemlich interessant!!","0","1","0","null","","","<div style=""font-size:60px;"">+</div>","null","","","","","","","","","",""
"","html-keyboard-response","280","555946","0.0-10.0-1.23","cmh2f78spa","many_one","0","indirect_first","0","ak04in28","0","20","1","0","3","1","War ziemlich interessant!!","0","1","0","null","","","<img src = 'category3/GS2.png' width = '100%;'>","null","","","","","","","","","",""
"","html-keyboard-response","281","556202","0.0-10.0-2.23","cmh2f78spa","many_one","0","indirect_first","0","ak04in28","0","20","1","0","3","1","War ziemlich interessant!!","0","1","0","null","","","<img src = 'targets/45.png' width = '100%;'>","null","","","","","","","","","",""
"","html-keyboard-response","282","557013","0.0-10.0-3.23","cmh2f78spa","many_one","0","indirect_first","0","ak04in28","0","20","1","0","3","1","War ziemlich interessant!!","0","1","0","810.010000015609","","","<img src = 'targets/mask.png' width = '100%;'>","75","pos","GS","GSnew","3","category3/GS2.png","targets/45.png","1","indirect","47",""
"","survey-html-form","283","569354","0.0-11.0","cmh2f78spa","many_one","0","indirect_first","0","ak04in28","0","20","1","0","3","1","War ziemlich interessant!!","0","1","0","11835.115000023507","","{}","","","","","","","","","","","",""
"","image-slider-response","284","581672","0.0-12.0-0.0","cmh2f78spa","many_one","0","indirect_first","0","ak04in28","0","20","1","0","3","1","War ziemlich interessant!!","0","1","0","10314.910000015516","","","","","neg","GS","GSold","4","category4/CS3.png","targets/27.png","","direct","","100"
"","image-slider-response","285","584996","0.0-12.0-0.1","cmh2f78spa","many_one","0","indirect_first","0","ak04in28","0","20","1","0","3","1","War ziemlich interessant!!","0","1","0","3321.830000029877","","","","","pos","CS","CS","3","category3/CS5.png","targets/46.png","","direct","","55"
"","image-slider-response","286","587820","0.0-12.0-0.2","cmh2f78spa","many_one","0","indirect_first","0","ak04in28","0","20","1","0","3","1","War ziemlich interessant!!","0","1","0","2822.474999993574","","","","","pos","GS","GSold","3","category3/CS6.png","targets/42.png","","direct","","-42"
"","image-slider-response","287","591158","0.0-12.0-0.3","cmh2f78spa","many_one","0","indirect_first","0","ak04in28","0","20","1","0","3","1","War ziemlich interessant!!","0","1","0","3336.025000025984","","","","","neg","CS","CS","1","category1/CS5.png","targets/24.png","","direct","","71"
"","image-slider-response","288","594027","0.0-12.0-0.4","cmh2f78spa","many_one","0","indirect_first","0","ak04in28","0","20","1","0","3","1","War ziemlich interessant!!","0","1","0","2867.2650000080466","","","","","neg","GS","GSold","1","category1/CS9.png","targets/11.png","","direct","","43"
"","image-slider-response","289","597459","0.0-12.0-0.5","cmh2f78spa","many_one","0","indirect_first","0","ak04in28","0","20","1","0","3","1","War ziemlich interessant!!","0","1","0","3429.9749999772757","","","","","pos","CS","CS","3","category3/CS4.png","targets/2.png","","direct","","11"
"","image-slider-response","290","601567","0.0-12.0-0.6","cmh2f78spa","many_one","0","indirect_first","0","ak04in28","0","20","1","0","3","1","War ziemlich interessant!!","0","1","0","4106.610000017099","","","","","neg","GS","GSnew","1","category1/GS1.png","targets/8.png","","direct","","-25"
"","image-slider-response","291","607277","0.0-12.0-0.7","cmh2f78spa","many_one","0","indirect_first","0","ak04in28","0","20","1","0","3","1","War ziemlich interessant!!","0","1","0","5708.584999956656","","","","","neg","CS","CS","4","category4/CS6.png","targets/6.png","","direct","","-23"
"","image-slider-response","292","610219","0.0-12.0-0.8","cmh2f78spa","many_one","0","indirect_first","0","ak04in28","0","20","1","0","3","1","War ziemlich interessant!!","0","1","0","2940.2099999715574","","","","","neg","CS","CS","4","category4/CS9.png","targets/34.png","","direct","","100"
"","image-slider-response","293","613855","0.0-12.0-0.9","cmh2f78spa","many_one","0","indirect_first","0","ak04in28","0","20","1","0","3","1","War ziemlich interessant!!","0","1","0","3634.149999998044","","","","","pos","GS","GSold","2","category2/CS5.png","targets/41.png","","direct","","-82"
"","image-slider-response","294","617403","0.0-12.0-0.10","cmh2f78spa","many_one","0","indirect_first","0","ak04in28","0","20","1","0","3","1","War ziemlich interessant!!","0","1","0","3546.299999987241","","","","","neg","GS","GSnew","4","category4/GS1.png","targets/36.png","","direct","","20"
"","image-slider-response","295","620531","0.0-12.0-0.11","cmh2f78spa","many_one","0","indirect_first","0","ak04in28","0","20","1","0","3","1","War ziemlich interessant!!","0","1","0","3126.3050000416115","","","","","pos","GS","GSold","3","category3/CS9.png","targets/3.png","","direct","","-100"
"","image-slider-response","296","627433","0.0-12.0-0.12","cmh2f78spa","many_one","0","indirect_first","0","ak04in28","0","20","1","0","3","1","War ziemlich interessant!!","0","1","0","6899.409999954514","","","","","pos","GS","GSnew","3","category3/GS1.png","targets/20.png","","direct","","-60"
