"success","trial_type","trial_index","time_elapsed","internal_node_id","subject","condition","condition_code","measure","measure_code","codeword","gender","age","education","chinese","fach","handedness","comment","hinschauen","ablenkung","gewissenhaft","rt","url","responses","stimulus","key_press","val","type","type_specific","category","cs_selected","response","target","task","indirect","nr_pres"
"true","fullscreen","0","4476","0.0-0.0","ch9zvf20wz","many_one","0","direct_first","1","id05us15","0","23","1","1","1","1","Ich fand die Teilnahme schwierig, weil es manchmal so willkürlich war. Ich hatte nie richtig das Gefühl, die Zeichen sind wirklich schlecht oder gut, aber ich musste irgendetwas angeben um weiter machen zu können und habe mich wie ein Betrüger gefühlt etwas anzugeben, wovon ich gerade gar keine Ahnung habe...","0","1","0","","","","","","","","","","","","","","",""
"","external-html","1","21681","0.0-1.0","ch9zvf20wz","many_one","0","direct_first","1","id05us15","0","23","1","1","1","1","Ich fand die Teilnahme schwierig, weil es manchmal so willkürlich war. Ich hatte nie richtig das Gefühl, die Zeichen sind wirklich schlecht oder gut, aber ich musste irgendetwas angeben um weiter machen zu können und habe mich wie ein Betrüger gefühlt etwas anzugeben, wovon ich gerade gar keine Ahnung habe...","0","1","0","17151.649999897927","text/information.html","","","","","","","","","","","","",""
"","external-html","2","31432","0.0-2.0","ch9zvf20wz","many_one","0","direct_first","1","id05us15","0","23","1","1","1","1","Ich fand die Teilnahme schwierig, weil es manchmal so willkürlich war. Ich hatte nie richtig das Gefühl, die Zeichen sind wirklich schlecht oder gut, aber ich musste irgendetwas angeben um weiter machen zu können und habe mich wie ein Betrüger gefühlt etwas anzugeben, wovon ich gerade gar keine Ahnung habe...","0","1","0","9587.370000081137","text/consent.html","","","","","","","","","","","","",""
"","survey-html-form","3","71718","0.0-3.0","ch9zvf20wz","many_one","0","direct_first","1","id05us15","0","23","1","1","1","1","Ich fand die Teilnahme schwierig, weil es manchmal so willkürlich war. Ich hatte nie richtig das Gefühl, die Zeichen sind wirklich schlecht oder gut, aber ich musste irgendetwas angeben um weiter machen zu können und habe mich wie ein Betrüger gefühlt etwas anzugeben, wovon ich gerade gar keine Ahnung habe...","0","1","0","40271.44000004046","","{""codeword_enter"":""id05us15""}","","","","","","","","","","","",""
"","survey-html-form","4","96256","0.0-4.0","ch9zvf20wz","many_one","0","direct_first","1","id05us15","0","23","1","1","1","1","Ich fand die Teilnahme schwierig, weil es manchmal so willkürlich war. Ich hatte nie richtig das Gefühl, die Zeichen sind wirklich schlecht oder gut, aber ich musste irgendetwas angeben um weiter machen zu können und habe mich wie ein Betrüger gefühlt etwas anzugeben, wovon ich gerade gar keine Ahnung habe...","0","1","0","24528.299999888986","","{""age"":""23"",""education"":""1"",""subject"":""1"",""gender"":""0"",""handedness"":""1"",""chinese"":""1""}","","","","","","","","","","","",""
"","survey-html-form","5","117302","0.0-5.0","ch9zvf20wz","many_one","0","direct_first","1","id05us15","0","23","1","1","1","1","Ich fand die Teilnahme schwierig, weil es manchmal so willkürlich war. Ich hatte nie richtig das Gefühl, die Zeichen sind wirklich schlecht oder gut, aber ich musste irgendetwas angeben um weiter machen zu können und habe mich wie ein Betrüger gefühlt etwas anzugeben, wovon ich gerade gar keine Ahnung habe...","0","1","0","21034.454999957234","","{}","","","","","","","","","","","",""
"","html-keyboard-response","6","121335","0.0-6.0-0.0-0.0","ch9zvf20wz","many_one","0","direct_first","1","id05us15","0","23","1","1","1","1","Ich fand die Teilnahme schwierig, weil es manchmal so willkürlich war. Ich hatte nie richtig das Gefühl, die Zeichen sind wirklich schlecht oder gut, aber ich musste irgendetwas angeben um weiter machen zu können und habe mich wie ein Betrüger gefühlt etwas anzugeben, wovon ich gerade gar keine Ahnung habe...","0","1","0","null","","","<div class = 'row'><div class = 'column'><img src = 'category3/CS9.png' width = '70%;'></div><div class = 'column'><img src = 'usneg/9041.bmp' width = '100%;'></div></div>","null","neg","CS","CS","3","category3/CS9.png","","","","",""
"","html-keyboard-response","7","123867","0.0-6.0-0.0-0.1","ch9zvf20wz","many_one","0","direct_first","1","id05us15","0","23","1","1","1","1","Ich fand die Teilnahme schwierig, weil es manchmal so willkürlich war. Ich hatte nie richtig das Gefühl, die Zeichen sind wirklich schlecht oder gut, aber ich musste irgendetwas angeben um weiter machen zu können und habe mich wie ein Betrüger gefühlt etwas anzugeben, wovon ich gerade gar keine Ahnung habe...","0","1","0","null","","","<div class = 'row'><div class = 'column'><img src = 'usneg/9181.bmp' width = '100%;'></div><div class = 'column'><img src = 'category3/CS5.png' width = '70%;'></div></div>","null","neg","CS","CS","3","category3/CS5.png","","","","",""
"","html-keyboard-response","8","126382","0.0-6.0-0.0-0.2","ch9zvf20wz","many_one","0","direct_first","1","id05us15","0","23","1","1","1","1","Ich fand die Teilnahme schwierig, weil es manchmal so willkürlich war. Ich hatte nie richtig das Gefühl, die Zeichen sind wirklich schlecht oder gut, aber ich musste irgendetwas angeben um weiter machen zu können und habe mich wie ein Betrüger gefühlt etwas anzugeben, wovon ich gerade gar keine Ahnung habe...","0","1","0","null","","","<div class = 'row'><div class = 'column'><img src = 'category3/CS10.png' width = '70%;'></div><div class = 'column'><img src = 'usneg/9340.bmp' width = '100%;'></div></div>","null","neg","CS","CS","3","category3/CS10.png","","","","",""
"","html-keyboard-response","9","128900","0.0-6.0-0.0-0.3","ch9zvf20wz","many_one","0","direct_first","1","id05us15","0","23","1","1","1","1","Ich fand die Teilnahme schwierig, weil es manchmal so willkürlich war. Ich hatte nie richtig das Gefühl, die Zeichen sind wirklich schlecht oder gut, aber ich musste irgendetwas angeben um weiter machen zu können und habe mich wie ein Betrüger gefühlt etwas anzugeben, wovon ich gerade gar keine Ahnung habe...","0","1","0","null","","","<div class = 'row'><div class = 'column'><img src = 'category4/CS2.png' width = '70%;'></div><div class = 'column'><img src = 'uspos/8190.bmp' width = '100%;'></div></div>","null","pos","CS","CS","4","category4/CS2.png","","","","",""
"","html-keyboard-response","10","131430","0.0-6.0-0.0-0.4","ch9zvf20wz","many_one","0","direct_first","1","id05us15","0","23","1","1","1","1","Ich fand die Teilnahme schwierig, weil es manchmal so willkürlich war. Ich hatte nie richtig das Gefühl, die Zeichen sind wirklich schlecht oder gut, aber ich musste irgendetwas angeben um weiter machen zu können und habe mich wie ein Betrüger gefühlt etwas anzugeben, wovon ich gerade gar keine Ahnung habe...","0","1","0","null","","","<div class = 'row'><div class = 'column'><img src = 'category2/CS7.png' width = '70%;'></div><div class = 'column'><img src = 'usneg/9415.bmp' width = '100%;'></div></div>","null","neg","CS","CS","2","category2/CS7.png","","","","",""
"","html-keyboard-response","11","133948","0.0-6.0-0.0-0.5","ch9zvf20wz","many_one","0","direct_first","1","id05us15","0","23","1","1","1","1","Ich fand die Teilnahme schwierig, weil es manchmal so willkürlich war. Ich hatte nie richtig das Gefühl, die Zeichen sind wirklich schlecht oder gut, aber ich musste irgendetwas angeben um weiter machen zu können und habe mich wie ein Betrüger gefühlt etwas anzugeben, wovon ich gerade gar keine Ahnung habe...","0","1","0","null","","","<div class = 'row'><div class = 'column'><img src = 'uspos/1340.bmp' width = '100%;'></div><div class = 'column'><img src = 'category1/CS4.png' width = '70%;'></div></div>","null","pos","CS","CS","1","category1/CS4.png","","","","",""
"","html-keyboard-response","12","136462","0.0-6.0-0.0-0.6","ch9zvf20wz","many_one","0","direct_first","1","id05us15","0","23","1","1","1","1","Ich fand die Teilnahme schwierig, weil es manchmal so willkürlich war. Ich hatte nie richtig das Gefühl, die Zeichen sind wirklich schlecht oder gut, aber ich musste irgendetwas angeben um weiter machen zu können und habe mich wie ein Betrüger gefühlt etwas anzugeben, wovon ich gerade gar keine Ahnung habe...","0","1","0","null","","","<div class = 'row'><div class = 'column'><img src = 'category4/CS6.png' width = '70%;'></div><div class = 'column'><img src = 'uspos/5470.bmp' width = '100%;'></div></div>","null","pos","CS","CS","4","category4/CS6.png","","","","",""
"","html-keyboard-response","13","138978","0.0-6.0-0.0-0.7","ch9zvf20wz","many_one","0","direct_first","1","id05us15","0","23","1","1","1","1","Ich fand die Teilnahme schwierig, weil es manchmal so willkürlich war. Ich hatte nie richtig das Gefühl, die Zeichen sind wirklich schlecht oder gut, aber ich musste irgendetwas angeben um weiter machen zu können und habe mich wie ein Betrüger gefühlt etwas anzugeben, wovon ich gerade gar keine Ahnung habe...","0","1","0","null","","","<div class = 'row'><div class = 'column'><img src = 'category1/CS1.png' width = '70%;'></div><div class = 'column'><img src = 'uspos/2208.bmp' width = '100%;'></div></div>","null","pos","CS","CS","1","category1/CS1.png","","","","",""
"","html-keyboard-response","14","141486","0.0-6.0-0.0-0.8","ch9zvf20wz","many_one","0","direct_first","1","id05us15","0","23","1","1","1","1","Ich fand die Teilnahme schwierig, weil es manchmal so willkürlich war. Ich hatte nie richtig das Gefühl, die Zeichen sind wirklich schlecht oder gut, aber ich musste irgendetwas angeben um weiter machen zu können und habe mich wie ein Betrüger gefühlt etwas anzugeben, wovon ich gerade gar keine Ahnung habe...","0","1","0","null","","","<div class = 'row'><div class = 'column'><img src = 'category3/CS4.png' width = '70%;'></div><div class = 'column'><img src = 'usneg/9560.bmp' width = '100%;'></div></div>","null","neg","CS","CS","3","category3/CS4.png","","","","",""
"","html-keyboard-response","15","144014","0.0-6.0-0.0-0.9","ch9zvf20wz","many_one","0","direct_first","1","id05us15","0","23","1","1","1","1","Ich fand die Teilnahme schwierig, weil es manchmal so willkürlich war. Ich hatte nie richtig das Gefühl, die Zeichen sind wirklich schlecht oder gut, aber ich musste irgendetwas angeben um weiter machen zu können und habe mich wie ein Betrüger gefühlt etwas anzugeben, wovon ich gerade gar keine Ahnung habe...","0","1","0","null","","","<div class = 'row'><div class = 'column'><img src = 'category1/CS9.png' width = '70%;'></div><div class = 'column'><img src = 'uspos/5700.bmp' width = '100%;'></div></div>","null","pos","CS","CS","1","category1/CS9.png","","","","",""
"","html-keyboard-response","16","146530","0.0-6.0-0.0-0.10","ch9zvf20wz","many_one","0","direct_first","1","id05us15","0","23","1","1","1","1","Ich fand die Teilnahme schwierig, weil es manchmal so willkürlich war. Ich hatte nie richtig das Gefühl, die Zeichen sind wirklich schlecht oder gut, aber ich musste irgendetwas angeben um weiter machen zu können und habe mich wie ein Betrüger gefühlt etwas anzugeben, wovon ich gerade gar keine Ahnung habe...","0","1","0","null","","","<div class = 'row'><div class = 'column'><img src = 'category4/CS9.png' width = '70%;'></div><div class = 'column'><img src = 'uspos/2340.bmp' width = '100%;'></div></div>","null","pos","CS","CS","4","category4/CS9.png","","","","",""
"","html-keyboard-response","17","149039","0.0-6.0-0.0-0.11","ch9zvf20wz","many_one","0","direct_first","1","id05us15","0","23","1","1","1","1","Ich fand die Teilnahme schwierig, weil es manchmal so willkürlich war. Ich hatte nie richtig das Gefühl, die Zeichen sind wirklich schlecht oder gut, aber ich musste irgendetwas angeben um weiter machen zu können und habe mich wie ein Betrüger gefühlt etwas anzugeben, wovon ich gerade gar keine Ahnung habe...","0","1","0","null","","","<div class = 'row'><div class = 'column'><img src = 'usneg/8485.bmp' width = '100%;'></div><div class = 'column'><img src = 'category2/CS9.png' width = '70%;'></div></div>","null","neg","CS","CS","2","category2/CS9.png","","","","",""
"","html-keyboard-response","18","151550","0.0-6.0-0.0-0.12","ch9zvf20wz","many_one","0","direct_first","1","id05us15","0","23","1","1","1","1","Ich fand die Teilnahme schwierig, weil es manchmal so willkürlich war. Ich hatte nie richtig das Gefühl, die Zeichen sind wirklich schlecht oder gut, aber ich musste irgendetwas angeben um weiter machen zu können und habe mich wie ein Betrüger gefühlt etwas anzugeben, wovon ich gerade gar keine Ahnung habe...","0","1","0","null","","","<div class = 'row'><div class = 'column'><img src = 'category1/CS10.png' width = '70%;'></div><div class = 'column'><img src = 'uspos/2160.bmp' width = '100%;'></div></div>","null","pos","CS","CS","1","category1/CS10.png","","","","",""
"","html-keyboard-response","19","154057","0.0-6.0-0.0-0.13","ch9zvf20wz","many_one","0","direct_first","1","id05us15","0","23","1","1","1","1","Ich fand die Teilnahme schwierig, weil es manchmal so willkürlich war. Ich hatte nie richtig das Gefühl, die Zeichen sind wirklich schlecht oder gut, aber ich musste irgendetwas angeben um weiter machen zu können und habe mich wie ein Betrüger gefühlt etwas anzugeben, wovon ich gerade gar keine Ahnung habe...","0","1","0","null","","","<div class = 'row'><div class = 'column'><img src = 'category4/CS8.png' width = '70%;'></div><div class = 'column'><img src = 'uspos/2530.bmp' width = '100%;'></div></div>","null","pos","CS","CS","4","category4/CS8.png","","","","",""
"","html-keyboard-response","20","156584","0.0-6.0-0.0-0.14","ch9zvf20wz","many_one","0","direct_first","1","id05us15","0","23","1","1","1","1","Ich fand die Teilnahme schwierig, weil es manchmal so willkürlich war. Ich hatte nie richtig das Gefühl, die Zeichen sind wirklich schlecht oder gut, aber ich musste irgendetwas angeben um weiter machen zu können und habe mich wie ein Betrüger gefühlt etwas anzugeben, wovon ich gerade gar keine Ahnung habe...","0","1","0","null","","","<div class = 'row'><div class = 'column'><img src = 'category2/CS5.png' width = '70%;'></div><div class = 'column'><img src = 'usneg/2750.bmp' width = '100%;'></div></div>","null","neg","CS","CS","2","category2/CS5.png","","","","",""
"","html-keyboard-response","21","159091","0.0-6.0-0.0-0.15","ch9zvf20wz","many_one","0","direct_first","1","id05us15","0","23","1","1","1","1","Ich fand die Teilnahme schwierig, weil es manchmal so willkürlich war. Ich hatte nie richtig das Gefühl, die Zeichen sind wirklich schlecht oder gut, aber ich musste irgendetwas angeben um weiter machen zu können und habe mich wie ein Betrüger gefühlt etwas anzugeben, wovon ich gerade gar keine Ahnung habe...","0","1","0","null","","","<div class = 'row'><div class = 'column'><img src = 'uspos/5629.bmp' width = '100%;'></div><div class = 'column'><img src = 'category1/CS2.png' width = '70%;'></div></div>","null","pos","CS","CS","1","category1/CS2.png","","","","",""
"","html-keyboard-response","22","161619","0.0-6.0-0.0-0.16","ch9zvf20wz","many_one","0","direct_first","1","id05us15","0","23","1","1","1","1","Ich fand die Teilnahme schwierig, weil es manchmal so willkürlich war. Ich hatte nie richtig das Gefühl, die Zeichen sind wirklich schlecht oder gut, aber ich musste irgendetwas angeben um weiter machen zu können und habe mich wie ein Betrüger gefühlt etwas anzugeben, wovon ich gerade gar keine Ahnung habe...","0","1","0","null","","","<div class = 'row'><div class = 'column'><img src = 'category2/CS1.png' width = '70%;'></div><div class = 'column'><img src = 'usneg/9180.bmp' width = '100%;'></div></div>","null","neg","CS","CS","2","category2/CS1.png","","","","",""
"","html-keyboard-response","23","164133","0.0-6.0-0.0-0.17","ch9zvf20wz","many_one","0","direct_first","1","id05us15","0","23","1","1","1","1","Ich fand die Teilnahme schwierig, weil es manchmal so willkürlich war. Ich hatte nie richtig das Gefühl, die Zeichen sind wirklich schlecht oder gut, aber ich musste irgendetwas angeben um weiter machen zu können und habe mich wie ein Betrüger gefühlt etwas anzugeben, wovon ich gerade gar keine Ahnung habe...","0","1","0","null","","","<div class = 'row'><div class = 'column'><img src = 'usneg/6212.bmp' width = '100%;'></div><div class = 'column'><img src = 'category3/CS2.png' width = '70%;'></div></div>","null","neg","CS","CS","3","category3/CS2.png","","","","",""
"","html-keyboard-response","24","166654","0.0-6.0-0.0-0.18","ch9zvf20wz","many_one","0","direct_first","1","id05us15","0","23","1","1","1","1","Ich fand die Teilnahme schwierig, weil es manchmal so willkürlich war. Ich hatte nie richtig das Gefühl, die Zeichen sind wirklich schlecht oder gut, aber ich musste irgendetwas angeben um weiter machen zu können und habe mich wie ein Betrüger gefühlt etwas anzugeben, wovon ich gerade gar keine Ahnung habe...","0","1","0","null","","","<div class = 'row'><div class = 'column'><img src = 'category2/CS3.png' width = '70%;'></div><div class = 'column'><img src = 'usneg/9435.bmp' width = '100%;'></div></div>","null","neg","CS","CS","2","category2/CS3.png","","","","",""
"","html-keyboard-response","25","169161","0.0-6.0-0.0-0.19","ch9zvf20wz","many_one","0","direct_first","1","id05us15","0","23","1","1","1","1","Ich fand die Teilnahme schwierig, weil es manchmal so willkürlich war. Ich hatte nie richtig das Gefühl, die Zeichen sind wirklich schlecht oder gut, aber ich musste irgendetwas angeben um weiter machen zu können und habe mich wie ein Betrüger gefühlt etwas anzugeben, wovon ich gerade gar keine Ahnung habe...","0","1","0","null","","","<div class = 'row'><div class = 'column'><img src = 'uspos/2150.bmp' width = '100%;'></div><div class = 'column'><img src = 'category4/CS7.png' width = '70%;'></div></div>","null","pos","CS","CS","4","category4/CS7.png","","","","",""
"","survey-html-form","26","176359","0.0-6.0-1.0","ch9zvf20wz","many_one","0","direct_first","1","id05us15","0","23","1","1","1","1","Ich fand die Teilnahme schwierig, weil es manchmal so willkürlich war. Ich hatte nie richtig das Gefühl, die Zeichen sind wirklich schlecht oder gut, aber ich musste irgendetwas angeben um weiter machen zu können und habe mich wie ein Betrüger gefühlt etwas anzugeben, wovon ich gerade gar keine Ahnung habe...","0","1","0","6688.02999984473","","{}","","","","","","","","","","","",""
"","html-keyboard-response","27","180380","0.0-6.0-2.0-0.0","ch9zvf20wz","many_one","0","direct_first","1","id05us15","0","23","1","1","1","1","Ich fand die Teilnahme schwierig, weil es manchmal so willkürlich war. Ich hatte nie richtig das Gefühl, die Zeichen sind wirklich schlecht oder gut, aber ich musste irgendetwas angeben um weiter machen zu können und habe mich wie ein Betrüger gefühlt etwas anzugeben, wovon ich gerade gar keine Ahnung habe...","0","1","0","null","","","<div class = 'row'><div class = 'column'><img src = 'category1/CS4.png' width = '70%;'></div><div class = 'column'><img src = 'uspos/1340.bmp' width = '100%;'></div></div>","null","pos","CS","CS","1","category1/CS4.png","","","","",""
"","html-keyboard-response","28","182894","0.0-6.0-2.0-0.1","ch9zvf20wz","many_one","0","direct_first","1","id05us15","0","23","1","1","1","1","Ich fand die Teilnahme schwierig, weil es manchmal so willkürlich war. Ich hatte nie richtig das Gefühl, die Zeichen sind wirklich schlecht oder gut, aber ich musste irgendetwas angeben um weiter machen zu können und habe mich wie ein Betrüger gefühlt etwas anzugeben, wovon ich gerade gar keine Ahnung habe...","0","1","0","null","","","<div class = 'row'><div class = 'column'><img src = 'category3/CS9.png' width = '70%;'></div><div class = 'column'><img src = 'usneg/9041.bmp' width = '100%;'></div></div>","null","neg","CS","CS","3","category3/CS9.png","","","","",""
"","html-keyboard-response","29","185408","0.0-6.0-2.0-0.2","ch9zvf20wz","many_one","0","direct_first","1","id05us15","0","23","1","1","1","1","Ich fand die Teilnahme schwierig, weil es manchmal so willkürlich war. Ich hatte nie richtig das Gefühl, die Zeichen sind wirklich schlecht oder gut, aber ich musste irgendetwas angeben um weiter machen zu können und habe mich wie ein Betrüger gefühlt etwas anzugeben, wovon ich gerade gar keine Ahnung habe...","0","1","0","null","","","<div class = 'row'><div class = 'column'><img src = 'category4/CS8.png' width = '70%;'></div><div class = 'column'><img src = 'uspos/2530.bmp' width = '100%;'></div></div>","null","pos","CS","CS","4","category4/CS8.png","","","","",""
"","html-keyboard-response","30","187920","0.0-6.0-2.0-0.3","ch9zvf20wz","many_one","0","direct_first","1","id05us15","0","23","1","1","1","1","Ich fand die Teilnahme schwierig, weil es manchmal so willkürlich war. Ich hatte nie richtig das Gefühl, die Zeichen sind wirklich schlecht oder gut, aber ich musste irgendetwas angeben um weiter machen zu können und habe mich wie ein Betrüger gefühlt etwas anzugeben, wovon ich gerade gar keine Ahnung habe...","0","1","0","null","","","<div class = 'row'><div class = 'column'><img src = 'category2/CS1.png' width = '70%;'></div><div class = 'column'><img src = 'usneg/9180.bmp' width = '100%;'></div></div>","null","neg","CS","CS","2","category2/CS1.png","","","","",""
"","html-keyboard-response","31","190446","0.0-6.0-2.0-0.4","ch9zvf20wz","many_one","0","direct_first","1","id05us15","0","23","1","1","1","1","Ich fand die Teilnahme schwierig, weil es manchmal so willkürlich war. Ich hatte nie richtig das Gefühl, die Zeichen sind wirklich schlecht oder gut, aber ich musste irgendetwas angeben um weiter machen zu können und habe mich wie ein Betrüger gefühlt etwas anzugeben, wovon ich gerade gar keine Ahnung habe...","0","1","0","null","","","<div class = 'row'><div class = 'column'><img src = 'category1/CS1.png' width = '70%;'></div><div class = 'column'><img src = 'uspos/2208.bmp' width = '100%;'></div></div>","null","pos","CS","CS","1","category1/CS1.png","","","","",""
"","html-keyboard-response","32","192965","0.0-6.0-2.0-0.5","ch9zvf20wz","many_one","0","direct_first","1","id05us15","0","23","1","1","1","1","Ich fand die Teilnahme schwierig, weil es manchmal so willkürlich war. Ich hatte nie richtig das Gefühl, die Zeichen sind wirklich schlecht oder gut, aber ich musste irgendetwas angeben um weiter machen zu können und habe mich wie ein Betrüger gefühlt etwas anzugeben, wovon ich gerade gar keine Ahnung habe...","0","1","0","null","","","<div class = 'row'><div class = 'column'><img src = 'usneg/9181.bmp' width = '100%;'></div><div class = 'column'><img src = 'category3/CS5.png' width = '70%;'></div></div>","null","neg","CS","CS","3","category3/CS5.png","","","","",""
"","html-keyboard-response","33","195493","0.0-6.0-2.0-0.6","ch9zvf20wz","many_one","0","direct_first","1","id05us15","0","23","1","1","1","1","Ich fand die Teilnahme schwierig, weil es manchmal so willkürlich war. Ich hatte nie richtig das Gefühl, die Zeichen sind wirklich schlecht oder gut, aber ich musste irgendetwas angeben um weiter machen zu können und habe mich wie ein Betrüger gefühlt etwas anzugeben, wovon ich gerade gar keine Ahnung habe...","0","1","0","null","","","<div class = 'row'><div class = 'column'><img src = 'category2/CS5.png' width = '70%;'></div><div class = 'column'><img src = 'usneg/2750.bmp' width = '100%;'></div></div>","null","neg","CS","CS","2","category2/CS5.png","","","","",""
"","html-keyboard-response","34","198004","0.0-6.0-2.0-0.7","ch9zvf20wz","many_one","0","direct_first","1","id05us15","0","23","1","1","1","1","Ich fand die Teilnahme schwierig, weil es manchmal so willkürlich war. Ich hatte nie richtig das Gefühl, die Zeichen sind wirklich schlecht oder gut, aber ich musste irgendetwas angeben um weiter machen zu können und habe mich wie ein Betrüger gefühlt etwas anzugeben, wovon ich gerade gar keine Ahnung habe...","0","1","0","null","","","<div class = 'row'><div class = 'column'><img src = 'uspos/8190.bmp' width = '100%;'></div><div class = 'column'><img src = 'category4/CS2.png' width = '70%;'></div></div>","null","pos","CS","CS","4","category4/CS2.png","","","","",""
"","html-keyboard-response","35","200532","0.0-6.0-2.0-0.8","ch9zvf20wz","many_one","0","direct_first","1","id05us15","0","23","1","1","1","1","Ich fand die Teilnahme schwierig, weil es manchmal so willkürlich war. Ich hatte nie richtig das Gefühl, die Zeichen sind wirklich schlecht oder gut, aber ich musste irgendetwas angeben um weiter machen zu können und habe mich wie ein Betrüger gefühlt etwas anzugeben, wovon ich gerade gar keine Ahnung habe...","0","1","0","null","","","<div class = 'row'><div class = 'column'><img src = 'category2/CS3.png' width = '70%;'></div><div class = 'column'><img src = 'usneg/9435.bmp' width = '100%;'></div></div>","null","neg","CS","CS","2","category2/CS3.png","","","","",""
"","html-keyboard-response","36","203050","0.0-6.0-2.0-0.9","ch9zvf20wz","many_one","0","direct_first","1","id05us15","0","23","1","1","1","1","Ich fand die Teilnahme schwierig, weil es manchmal so willkürlich war. Ich hatte nie richtig das Gefühl, die Zeichen sind wirklich schlecht oder gut, aber ich musste irgendetwas angeben um weiter machen zu können und habe mich wie ein Betrüger gefühlt etwas anzugeben, wovon ich gerade gar keine Ahnung habe...","0","1","0","null","","","<div class = 'row'><div class = 'column'><img src = 'category2/CS7.png' width = '70%;'></div><div class = 'column'><img src = 'usneg/9415.bmp' width = '100%;'></div></div>","null","neg","CS","CS","2","category2/CS7.png","","","","",""
"","html-keyboard-response","37","205569","0.0-6.0-2.0-0.10","ch9zvf20wz","many_one","0","direct_first","1","id05us15","0","23","1","1","1","1","Ich fand die Teilnahme schwierig, weil es manchmal so willkürlich war. Ich hatte nie richtig das Gefühl, die Zeichen sind wirklich schlecht oder gut, aber ich musste irgendetwas angeben um weiter machen zu können und habe mich wie ein Betrüger gefühlt etwas anzugeben, wovon ich gerade gar keine Ahnung habe...","0","1","0","null","","","<div class = 'row'><div class = 'column'><img src = 'category3/CS10.png' width = '70%;'></div><div class = 'column'><img src = 'usneg/9340.bmp' width = '100%;'></div></div>","null","neg","CS","CS","3","category3/CS10.png","","","","",""
"","html-keyboard-response","38","208088","0.0-6.0-2.0-0.11","ch9zvf20wz","many_one","0","direct_first","1","id05us15","0","23","1","1","1","1","Ich fand die Teilnahme schwierig, weil es manchmal so willkürlich war. Ich hatte nie richtig das Gefühl, die Zeichen sind wirklich schlecht oder gut, aber ich musste irgendetwas angeben um weiter machen zu können und habe mich wie ein Betrüger gefühlt etwas anzugeben, wovon ich gerade gar keine Ahnung habe...","0","1","0","null","","","<div class = 'row'><div class = 'column'><img src = 'usneg/8485.bmp' width = '100%;'></div><div class = 'column'><img src = 'category2/CS9.png' width = '70%;'></div></div>","null","neg","CS","CS","2","category2/CS9.png","","","","",""
"","html-keyboard-response","39","210607","0.0-6.0-2.0-0.12","ch9zvf20wz","many_one","0","direct_first","1","id05us15","0","23","1","1","1","1","Ich fand die Teilnahme schwierig, weil es manchmal so willkürlich war. Ich hatte nie richtig das Gefühl, die Zeichen sind wirklich schlecht oder gut, aber ich musste irgendetwas angeben um weiter machen zu können und habe mich wie ein Betrüger gefühlt etwas anzugeben, wovon ich gerade gar keine Ahnung habe...","0","1","0","null","","","<div class = 'row'><div class = 'column'><img src = 'uspos/5629.bmp' width = '100%;'></div><div class = 'column'><img src = 'category1/CS2.png' width = '70%;'></div></div>","null","pos","CS","CS","1","category1/CS2.png","","","","",""
"","html-keyboard-response","40","213134","0.0-6.0-2.0-0.13","ch9zvf20wz","many_one","0","direct_first","1","id05us15","0","23","1","1","1","1","Ich fand die Teilnahme schwierig, weil es manchmal so willkürlich war. Ich hatte nie richtig das Gefühl, die Zeichen sind wirklich schlecht oder gut, aber ich musste irgendetwas angeben um weiter machen zu können und habe mich wie ein Betrüger gefühlt etwas anzugeben, wovon ich gerade gar keine Ahnung habe...","0","1","0","null","","","<div class = 'row'><div class = 'column'><img src = 'uspos/5470.bmp' width = '100%;'></div><div class = 'column'><img src = 'category4/CS6.png' width = '70%;'></div></div>","null","pos","CS","CS","4","category4/CS6.png","","","","",""
"","html-keyboard-response","41","215652","0.0-6.0-2.0-0.14","ch9zvf20wz","many_one","0","direct_first","1","id05us15","0","23","1","1","1","1","Ich fand die Teilnahme schwierig, weil es manchmal so willkürlich war. Ich hatte nie richtig das Gefühl, die Zeichen sind wirklich schlecht oder gut, aber ich musste irgendetwas angeben um weiter machen zu können und habe mich wie ein Betrüger gefühlt etwas anzugeben, wovon ich gerade gar keine Ahnung habe...","0","1","0","null","","","<div class = 'row'><div class = 'column'><img src = 'uspos/5700.bmp' width = '100%;'></div><div class = 'column'><img src = 'category1/CS9.png' width = '70%;'></div></div>","null","pos","CS","CS","1","category1/CS9.png","","","","",""
"","html-keyboard-response","42","218170","0.0-6.0-2.0-0.15","ch9zvf20wz","many_one","0","direct_first","1","id05us15","0","23","1","1","1","1","Ich fand die Teilnahme schwierig, weil es manchmal so willkürlich war. Ich hatte nie richtig das Gefühl, die Zeichen sind wirklich schlecht oder gut, aber ich musste irgendetwas angeben um weiter machen zu können und habe mich wie ein Betrüger gefühlt etwas anzugeben, wovon ich gerade gar keine Ahnung habe...","0","1","0","null","","","<div class = 'row'><div class = 'column'><img src = 'category4/CS7.png' width = '70%;'></div><div class = 'column'><img src = 'uspos/2150.bmp' width = '100%;'></div></div>","null","pos","CS","CS","4","category4/CS7.png","","","","",""
"","html-keyboard-response","43","220692","0.0-6.0-2.0-0.16","ch9zvf20wz","many_one","0","direct_first","1","id05us15","0","23","1","1","1","1","Ich fand die Teilnahme schwierig, weil es manchmal so willkürlich war. Ich hatte nie richtig das Gefühl, die Zeichen sind wirklich schlecht oder gut, aber ich musste irgendetwas angeben um weiter machen zu können und habe mich wie ein Betrüger gefühlt etwas anzugeben, wovon ich gerade gar keine Ahnung habe...","0","1","0","null","","","<div class = 'row'><div class = 'column'><img src = 'usneg/9560.bmp' width = '100%;'></div><div class = 'column'><img src = 'category3/CS4.png' width = '70%;'></div></div>","null","neg","CS","CS","3","category3/CS4.png","","","","",""
"","html-keyboard-response","44","223217","0.0-6.0-2.0-0.17","ch9zvf20wz","many_one","0","direct_first","1","id05us15","0","23","1","1","1","1","Ich fand die Teilnahme schwierig, weil es manchmal so willkürlich war. Ich hatte nie richtig das Gefühl, die Zeichen sind wirklich schlecht oder gut, aber ich musste irgendetwas angeben um weiter machen zu können und habe mich wie ein Betrüger gefühlt etwas anzugeben, wovon ich gerade gar keine Ahnung habe...","0","1","0","null","","","<div class = 'row'><div class = 'column'><img src = 'usneg/6212.bmp' width = '100%;'></div><div class = 'column'><img src = 'category3/CS2.png' width = '70%;'></div></div>","null","neg","CS","CS","3","category3/CS2.png","","","","",""
"","html-keyboard-response","45","225743","0.0-6.0-2.0-0.18","ch9zvf20wz","many_one","0","direct_first","1","id05us15","0","23","1","1","1","1","Ich fand die Teilnahme schwierig, weil es manchmal so willkürlich war. Ich hatte nie richtig das Gefühl, die Zeichen sind wirklich schlecht oder gut, aber ich musste irgendetwas angeben um weiter machen zu können und habe mich wie ein Betrüger gefühlt etwas anzugeben, wovon ich gerade gar keine Ahnung habe...","0","1","0","null","","","<div class = 'row'><div class = 'column'><img src = 'uspos/2340.bmp' width = '100%;'></div><div class = 'column'><img src = 'category4/CS9.png' width = '70%;'></div></div>","null","pos","CS","CS","4","category4/CS9.png","","","","",""
"","html-keyboard-response","46","228284","0.0-6.0-2.0-0.19","ch9zvf20wz","many_one","0","direct_first","1","id05us15","0","23","1","1","1","1","Ich fand die Teilnahme schwierig, weil es manchmal so willkürlich war. Ich hatte nie richtig das Gefühl, die Zeichen sind wirklich schlecht oder gut, aber ich musste irgendetwas angeben um weiter machen zu können und habe mich wie ein Betrüger gefühlt etwas anzugeben, wovon ich gerade gar keine Ahnung habe...","0","1","0","null","","","<div class = 'row'><div class = 'column'><img src = 'category1/CS10.png' width = '70%;'></div><div class = 'column'><img src = 'uspos/2160.bmp' width = '100%;'></div></div>","null","pos","CS","CS","1","category1/CS10.png","","","","",""
"","survey-html-form","47","231402","0.0-6.0-3.0","ch9zvf20wz","many_one","0","direct_first","1","id05us15","0","23","1","1","1","1","Ich fand die Teilnahme schwierig, weil es manchmal so willkürlich war. Ich hatte nie richtig das Gefühl, die Zeichen sind wirklich schlecht oder gut, aber ich musste irgendetwas angeben um weiter machen zu können und habe mich wie ein Betrüger gefühlt etwas anzugeben, wovon ich gerade gar keine Ahnung habe...","0","1","0","2612.334999954328","","{}","","","","","","","","","","","",""
"","html-keyboard-response","48","235417","0.0-6.0-4.0-0.0","ch9zvf20wz","many_one","0","direct_first","1","id05us15","0","23","1","1","1","1","Ich fand die Teilnahme schwierig, weil es manchmal so willkürlich war. Ich hatte nie richtig das Gefühl, die Zeichen sind wirklich schlecht oder gut, aber ich musste irgendetwas angeben um weiter machen zu können und habe mich wie ein Betrüger gefühlt etwas anzugeben, wovon ich gerade gar keine Ahnung habe...","0","1","0","null","","","<div class = 'row'><div class = 'column'><img src = 'uspos/5700.bmp' width = '100%;'></div><div class = 'column'><img src = 'category1/CS9.png' width = '70%;'></div></div>","null","pos","CS","CS","1","category1/CS9.png","","","","",""
"","html-keyboard-response","49","237944","0.0-6.0-4.0-0.1","ch9zvf20wz","many_one","0","direct_first","1","id05us15","0","23","1","1","1","1","Ich fand die Teilnahme schwierig, weil es manchmal so willkürlich war. Ich hatte nie richtig das Gefühl, die Zeichen sind wirklich schlecht oder gut, aber ich musste irgendetwas angeben um weiter machen zu können und habe mich wie ein Betrüger gefühlt etwas anzugeben, wovon ich gerade gar keine Ahnung habe...","0","1","0","null","","","<div class = 'row'><div class = 'column'><img src = 'category3/CS2.png' width = '70%;'></div><div class = 'column'><img src = 'usneg/6212.bmp' width = '100%;'></div></div>","null","neg","CS","CS","3","category3/CS2.png","","","","",""
"","html-keyboard-response","50","240470","0.0-6.0-4.0-0.2","ch9zvf20wz","many_one","0","direct_first","1","id05us15","0","23","1","1","1","1","Ich fand die Teilnahme schwierig, weil es manchmal so willkürlich war. Ich hatte nie richtig das Gefühl, die Zeichen sind wirklich schlecht oder gut, aber ich musste irgendetwas angeben um weiter machen zu können und habe mich wie ein Betrüger gefühlt etwas anzugeben, wovon ich gerade gar keine Ahnung habe...","0","1","0","null","","","<div class = 'row'><div class = 'column'><img src = 'uspos/2208.bmp' width = '100%;'></div><div class = 'column'><img src = 'category1/CS1.png' width = '70%;'></div></div>","null","pos","CS","CS","1","category1/CS1.png","","","","",""
"","html-keyboard-response","51","242991","0.0-6.0-4.0-0.3","ch9zvf20wz","many_one","0","direct_first","1","id05us15","0","23","1","1","1","1","Ich fand die Teilnahme schwierig, weil es manchmal so willkürlich war. Ich hatte nie richtig das Gefühl, die Zeichen sind wirklich schlecht oder gut, aber ich musste irgendetwas angeben um weiter machen zu können und habe mich wie ein Betrüger gefühlt etwas anzugeben, wovon ich gerade gar keine Ahnung habe...","0","1","0","null","","","<div class = 'row'><div class = 'column'><img src = 'uspos/2160.bmp' width = '100%;'></div><div class = 'column'><img src = 'category1/CS10.png' width = '70%;'></div></div>","null","pos","CS","CS","1","category1/CS10.png","","","","",""
"","html-keyboard-response","52","245508","0.0-6.0-4.0-0.4","ch9zvf20wz","many_one","0","direct_first","1","id05us15","0","23","1","1","1","1","Ich fand die Teilnahme schwierig, weil es manchmal so willkürlich war. Ich hatte nie richtig das Gefühl, die Zeichen sind wirklich schlecht oder gut, aber ich musste irgendetwas angeben um weiter machen zu können und habe mich wie ein Betrüger gefühlt etwas anzugeben, wovon ich gerade gar keine Ahnung habe...","0","1","0","null","","","<div class = 'row'><div class = 'column'><img src = 'usneg/9560.bmp' width = '100%;'></div><div class = 'column'><img src = 'category3/CS4.png' width = '70%;'></div></div>","null","neg","CS","CS","3","category3/CS4.png","","","","",""
"","html-keyboard-response","53","248026","0.0-6.0-4.0-0.5","ch9zvf20wz","many_one","0","direct_first","1","id05us15","0","23","1","1","1","1","Ich fand die Teilnahme schwierig, weil es manchmal so willkürlich war. Ich hatte nie richtig das Gefühl, die Zeichen sind wirklich schlecht oder gut, aber ich musste irgendetwas angeben um weiter machen zu können und habe mich wie ein Betrüger gefühlt etwas anzugeben, wovon ich gerade gar keine Ahnung habe...","0","1","0","null","","","<div class = 'row'><div class = 'column'><img src = 'uspos/2150.bmp' width = '100%;'></div><div class = 'column'><img src = 'category4/CS7.png' width = '70%;'></div></div>","null","pos","CS","CS","4","category4/CS7.png","","","","",""
"","html-keyboard-response","54","250544","0.0-6.0-4.0-0.6","ch9zvf20wz","many_one","0","direct_first","1","id05us15","0","23","1","1","1","1","Ich fand die Teilnahme schwierig, weil es manchmal so willkürlich war. Ich hatte nie richtig das Gefühl, die Zeichen sind wirklich schlecht oder gut, aber ich musste irgendetwas angeben um weiter machen zu können und habe mich wie ein Betrüger gefühlt etwas anzugeben, wovon ich gerade gar keine Ahnung habe...","0","1","0","null","","","<div class = 'row'><div class = 'column'><img src = 'category4/CS2.png' width = '70%;'></div><div class = 'column'><img src = 'uspos/8190.bmp' width = '100%;'></div></div>","null","pos","CS","CS","4","category4/CS2.png","","","","",""
"","html-keyboard-response","55","253067","0.0-6.0-4.0-0.7","ch9zvf20wz","many_one","0","direct_first","1","id05us15","0","23","1","1","1","1","Ich fand die Teilnahme schwierig, weil es manchmal so willkürlich war. Ich hatte nie richtig das Gefühl, die Zeichen sind wirklich schlecht oder gut, aber ich musste irgendetwas angeben um weiter machen zu können und habe mich wie ein Betrüger gefühlt etwas anzugeben, wovon ich gerade gar keine Ahnung habe...","0","1","0","null","","","<div class = 'row'><div class = 'column'><img src = 'usneg/9181.bmp' width = '100%;'></div><div class = 'column'><img src = 'category3/CS5.png' width = '70%;'></div></div>","null","neg","CS","CS","3","category3/CS5.png","","","","",""
"","html-keyboard-response","56","255593","0.0-6.0-4.0-0.8","ch9zvf20wz","many_one","0","direct_first","1","id05us15","0","23","1","1","1","1","Ich fand die Teilnahme schwierig, weil es manchmal so willkürlich war. Ich hatte nie richtig das Gefühl, die Zeichen sind wirklich schlecht oder gut, aber ich musste irgendetwas angeben um weiter machen zu können und habe mich wie ein Betrüger gefühlt etwas anzugeben, wovon ich gerade gar keine Ahnung habe...","0","1","0","null","","","<div class = 'row'><div class = 'column'><img src = 'category2/CS5.png' width = '70%;'></div><div class = 'column'><img src = 'usneg/2750.bmp' width = '100%;'></div></div>","null","neg","CS","CS","2","category2/CS5.png","","","","",""
"","html-keyboard-response","57","258113","0.0-6.0-4.0-0.9","ch9zvf20wz","many_one","0","direct_first","1","id05us15","0","23","1","1","1","1","Ich fand die Teilnahme schwierig, weil es manchmal so willkürlich war. Ich hatte nie richtig das Gefühl, die Zeichen sind wirklich schlecht oder gut, aber ich musste irgendetwas angeben um weiter machen zu können und habe mich wie ein Betrüger gefühlt etwas anzugeben, wovon ich gerade gar keine Ahnung habe...","0","1","0","null","","","<div class = 'row'><div class = 'column'><img src = 'category2/CS3.png' width = '70%;'></div><div class = 'column'><img src = 'usneg/9435.bmp' width = '100%;'></div></div>","null","neg","CS","CS","2","category2/CS3.png","","","","",""
"","html-keyboard-response","58","260636","0.0-6.0-4.0-0.10","ch9zvf20wz","many_one","0","direct_first","1","id05us15","0","23","1","1","1","1","Ich fand die Teilnahme schwierig, weil es manchmal so willkürlich war. Ich hatte nie richtig das Gefühl, die Zeichen sind wirklich schlecht oder gut, aber ich musste irgendetwas angeben um weiter machen zu können und habe mich wie ein Betrüger gefühlt etwas anzugeben, wovon ich gerade gar keine Ahnung habe...","0","1","0","null","","","<div class = 'row'><div class = 'column'><img src = 'category3/CS10.png' width = '70%;'></div><div class = 'column'><img src = 'usneg/9340.bmp' width = '100%;'></div></div>","null","neg","CS","CS","3","category3/CS10.png","","","","",""
"","html-keyboard-response","59","263164","0.0-6.0-4.0-0.11","ch9zvf20wz","many_one","0","direct_first","1","id05us15","0","23","1","1","1","1","Ich fand die Teilnahme schwierig, weil es manchmal so willkürlich war. Ich hatte nie richtig das Gefühl, die Zeichen sind wirklich schlecht oder gut, aber ich musste irgendetwas angeben um weiter machen zu können und habe mich wie ein Betrüger gefühlt etwas anzugeben, wovon ich gerade gar keine Ahnung habe...","0","1","0","null","","","<div class = 'row'><div class = 'column'><img src = 'category3/CS9.png' width = '70%;'></div><div class = 'column'><img src = 'usneg/9041.bmp' width = '100%;'></div></div>","null","neg","CS","CS","3","category3/CS9.png","","","","",""
"","html-keyboard-response","60","265693","0.0-6.0-4.0-0.12","ch9zvf20wz","many_one","0","direct_first","1","id05us15","0","23","1","1","1","1","Ich fand die Teilnahme schwierig, weil es manchmal so willkürlich war. Ich hatte nie richtig das Gefühl, die Zeichen sind wirklich schlecht oder gut, aber ich musste irgendetwas angeben um weiter machen zu können und habe mich wie ein Betrüger gefühlt etwas anzugeben, wovon ich gerade gar keine Ahnung habe...","0","1","0","null","","","<div class = 'row'><div class = 'column'><img src = 'category1/CS2.png' width = '70%;'></div><div class = 'column'><img src = 'uspos/5629.bmp' width = '100%;'></div></div>","null","pos","CS","CS","1","category1/CS2.png","","","","",""
"","html-keyboard-response","61","268214","0.0-6.0-4.0-0.13","ch9zvf20wz","many_one","0","direct_first","1","id05us15","0","23","1","1","1","1","Ich fand die Teilnahme schwierig, weil es manchmal so willkürlich war. Ich hatte nie richtig das Gefühl, die Zeichen sind wirklich schlecht oder gut, aber ich musste irgendetwas angeben um weiter machen zu können und habe mich wie ein Betrüger gefühlt etwas anzugeben, wovon ich gerade gar keine Ahnung habe...","0","1","0","null","","","<div class = 'row'><div class = 'column'><img src = 'category2/CS9.png' width = '70%;'></div><div class = 'column'><img src = 'usneg/8485.bmp' width = '100%;'></div></div>","null","neg","CS","CS","2","category2/CS9.png","","","","",""
"","html-keyboard-response","62","269278","0.0-6.0-4.0-0.14","ch9zvf20wz","many_one","0","direct_first","1","id05us15","0","23","1","1","1","1","Ich fand die Teilnahme schwierig, weil es manchmal so willkürlich war. Ich hatte nie richtig das Gefühl, die Zeichen sind wirklich schlecht oder gut, aber ich musste irgendetwas angeben um weiter machen zu können und habe mich wie ein Betrüger gefühlt etwas anzugeben, wovon ich gerade gar keine Ahnung habe...","0","1","0","null","","","<div class = 'row'><div class = 'column'><img src = 'category2/CS7.png' width = '70%;'></div><div class = 'column'><img src = 'usneg/9415.bmp' width = '100%;'></div></div>","null","neg","CS","CS","2","category2/CS7.png","","","","",""
"","html-keyboard-response","63","271798","0.0-6.0-4.0-0.15","ch9zvf20wz","many_one","0","direct_first","1","id05us15","0","23","1","1","1","1","Ich fand die Teilnahme schwierig, weil es manchmal so willkürlich war. Ich hatte nie richtig das Gefühl, die Zeichen sind wirklich schlecht oder gut, aber ich musste irgendetwas angeben um weiter machen zu können und habe mich wie ein Betrüger gefühlt etwas anzugeben, wovon ich gerade gar keine Ahnung habe...","0","1","0","null","","","<div class = 'row'><div class = 'column'><img src = 'category4/CS9.png' width = '70%;'></div><div class = 'column'><img src = 'uspos/2340.bmp' width = '100%;'></div></div>","null","pos","CS","CS","4","category4/CS9.png","","","","",""
"","html-keyboard-response","64","274328","0.0-6.0-4.0-0.16","ch9zvf20wz","many_one","0","direct_first","1","id05us15","0","23","1","1","1","1","Ich fand die Teilnahme schwierig, weil es manchmal so willkürlich war. Ich hatte nie richtig das Gefühl, die Zeichen sind wirklich schlecht oder gut, aber ich musste irgendetwas angeben um weiter machen zu können und habe mich wie ein Betrüger gefühlt etwas anzugeben, wovon ich gerade gar keine Ahnung habe...","0","1","0","null","","","<div class = 'row'><div class = 'column'><img src = 'category4/CS6.png' width = '70%;'></div><div class = 'column'><img src = 'uspos/5470.bmp' width = '100%;'></div></div>","null","pos","CS","CS","4","category4/CS6.png","","","","",""
"","html-keyboard-response","65","276859","0.0-6.0-4.0-0.17","ch9zvf20wz","many_one","0","direct_first","1","id05us15","0","23","1","1","1","1","Ich fand die Teilnahme schwierig, weil es manchmal so willkürlich war. Ich hatte nie richtig das Gefühl, die Zeichen sind wirklich schlecht oder gut, aber ich musste irgendetwas angeben um weiter machen zu können und habe mich wie ein Betrüger gefühlt etwas anzugeben, wovon ich gerade gar keine Ahnung habe...","0","1","0","null","","","<div class = 'row'><div class = 'column'><img src = 'uspos/1340.bmp' width = '100%;'></div><div class = 'column'><img src = 'category1/CS4.png' width = '70%;'></div></div>","null","pos","CS","CS","1","category1/CS4.png","","","","",""
"","html-keyboard-response","66","279379","0.0-6.0-4.0-0.18","ch9zvf20wz","many_one","0","direct_first","1","id05us15","0","23","1","1","1","1","Ich fand die Teilnahme schwierig, weil es manchmal so willkürlich war. Ich hatte nie richtig das Gefühl, die Zeichen sind wirklich schlecht oder gut, aber ich musste irgendetwas angeben um weiter machen zu können und habe mich wie ein Betrüger gefühlt etwas anzugeben, wovon ich gerade gar keine Ahnung habe...","0","1","0","null","","","<div class = 'row'><div class = 'column'><img src = 'uspos/2530.bmp' width = '100%;'></div><div class = 'column'><img src = 'category4/CS8.png' width = '70%;'></div></div>","null","pos","CS","CS","4","category4/CS8.png","","","","",""
"","html-keyboard-response","67","281902","0.0-6.0-4.0-0.19","ch9zvf20wz","many_one","0","direct_first","1","id05us15","0","23","1","1","1","1","Ich fand die Teilnahme schwierig, weil es manchmal so willkürlich war. Ich hatte nie richtig das Gefühl, die Zeichen sind wirklich schlecht oder gut, aber ich musste irgendetwas angeben um weiter machen zu können und habe mich wie ein Betrüger gefühlt etwas anzugeben, wovon ich gerade gar keine Ahnung habe...","0","1","0","null","","","<div class = 'row'><div class = 'column'><img src = 'category2/CS1.png' width = '70%;'></div><div class = 'column'><img src = 'usneg/9180.bmp' width = '100%;'></div></div>","null","neg","CS","CS","2","category2/CS1.png","","","","",""
"","survey-html-form","68","284091","0.0-6.0-5.0","ch9zvf20wz","many_one","0","direct_first","1","id05us15","0","23","1","1","1","1","Ich fand die Teilnahme schwierig, weil es manchmal so willkürlich war. Ich hatte nie richtig das Gefühl, die Zeichen sind wirklich schlecht oder gut, aber ich musste irgendetwas angeben um weiter machen zu können und habe mich wie ein Betrüger gefühlt etwas anzugeben, wovon ich gerade gar keine Ahnung habe...","0","1","0","1668.7650000676513","","{}","","","","","","","","","","","",""
"","html-keyboard-response","69","288118","0.0-6.0-6.0-0.0","ch9zvf20wz","many_one","0","direct_first","1","id05us15","0","23","1","1","1","1","Ich fand die Teilnahme schwierig, weil es manchmal so willkürlich war. Ich hatte nie richtig das Gefühl, die Zeichen sind wirklich schlecht oder gut, aber ich musste irgendetwas angeben um weiter machen zu können und habe mich wie ein Betrüger gefühlt etwas anzugeben, wovon ich gerade gar keine Ahnung habe...","0","1","0","null","","","<div class = 'row'><div class = 'column'><img src = 'uspos/5629.bmp' width = '100%;'></div><div class = 'column'><img src = 'category1/CS2.png' width = '70%;'></div></div>","null","pos","CS","CS","1","category1/CS2.png","","","","",""
"","html-keyboard-response","70","290646","0.0-6.0-6.0-0.1","ch9zvf20wz","many_one","0","direct_first","1","id05us15","0","23","1","1","1","1","Ich fand die Teilnahme schwierig, weil es manchmal so willkürlich war. Ich hatte nie richtig das Gefühl, die Zeichen sind wirklich schlecht oder gut, aber ich musste irgendetwas angeben um weiter machen zu können und habe mich wie ein Betrüger gefühlt etwas anzugeben, wovon ich gerade gar keine Ahnung habe...","0","1","0","null","","","<div class = 'row'><div class = 'column'><img src = 'category1/CS10.png' width = '70%;'></div><div class = 'column'><img src = 'uspos/2160.bmp' width = '100%;'></div></div>","null","pos","CS","CS","1","category1/CS10.png","","","","",""
"","html-keyboard-response","71","293155","0.0-6.0-6.0-0.2","ch9zvf20wz","many_one","0","direct_first","1","id05us15","0","23","1","1","1","1","Ich fand die Teilnahme schwierig, weil es manchmal so willkürlich war. Ich hatte nie richtig das Gefühl, die Zeichen sind wirklich schlecht oder gut, aber ich musste irgendetwas angeben um weiter machen zu können und habe mich wie ein Betrüger gefühlt etwas anzugeben, wovon ich gerade gar keine Ahnung habe...","0","1","0","null","","","<div class = 'row'><div class = 'column'><img src = 'category2/CS1.png' width = '70%;'></div><div class = 'column'><img src = 'usneg/9180.bmp' width = '100%;'></div></div>","null","neg","CS","CS","2","category2/CS1.png","","","","",""
"","html-keyboard-response","72","295672","0.0-6.0-6.0-0.3","ch9zvf20wz","many_one","0","direct_first","1","id05us15","0","23","1","1","1","1","Ich fand die Teilnahme schwierig, weil es manchmal so willkürlich war. Ich hatte nie richtig das Gefühl, die Zeichen sind wirklich schlecht oder gut, aber ich musste irgendetwas angeben um weiter machen zu können und habe mich wie ein Betrüger gefühlt etwas anzugeben, wovon ich gerade gar keine Ahnung habe...","0","1","0","null","","","<div class = 'row'><div class = 'column'><img src = 'category2/CS7.png' width = '70%;'></div><div class = 'column'><img src = 'usneg/9415.bmp' width = '100%;'></div></div>","null","neg","CS","CS","2","category2/CS7.png","","","","",""
"","html-keyboard-response","73","298190","0.0-6.0-6.0-0.4","ch9zvf20wz","many_one","0","direct_first","1","id05us15","0","23","1","1","1","1","Ich fand die Teilnahme schwierig, weil es manchmal so willkürlich war. Ich hatte nie richtig das Gefühl, die Zeichen sind wirklich schlecht oder gut, aber ich musste irgendetwas angeben um weiter machen zu können und habe mich wie ein Betrüger gefühlt etwas anzugeben, wovon ich gerade gar keine Ahnung habe...","0","1","0","null","","","<div class = 'row'><div class = 'column'><img src = 'usneg/6212.bmp' width = '100%;'></div><div class = 'column'><img src = 'category3/CS2.png' width = '70%;'></div></div>","null","neg","CS","CS","3","category3/CS2.png","","","","",""
"","html-keyboard-response","74","300715","0.0-6.0-6.0-0.5","ch9zvf20wz","many_one","0","direct_first","1","id05us15","0","23","1","1","1","1","Ich fand die Teilnahme schwierig, weil es manchmal so willkürlich war. Ich hatte nie richtig das Gefühl, die Zeichen sind wirklich schlecht oder gut, aber ich musste irgendetwas angeben um weiter machen zu können und habe mich wie ein Betrüger gefühlt etwas anzugeben, wovon ich gerade gar keine Ahnung habe...","0","1","0","null","","","<div class = 'row'><div class = 'column'><img src = 'category4/CS7.png' width = '70%;'></div><div class = 'column'><img src = 'uspos/2150.bmp' width = '100%;'></div></div>","null","pos","CS","CS","4","category4/CS7.png","","","","",""
"","html-keyboard-response","75","303232","0.0-6.0-6.0-0.6","ch9zvf20wz","many_one","0","direct_first","1","id05us15","0","23","1","1","1","1","Ich fand die Teilnahme schwierig, weil es manchmal so willkürlich war. Ich hatte nie richtig das Gefühl, die Zeichen sind wirklich schlecht oder gut, aber ich musste irgendetwas angeben um weiter machen zu können und habe mich wie ein Betrüger gefühlt etwas anzugeben, wovon ich gerade gar keine Ahnung habe...","0","1","0","null","","","<div class = 'row'><div class = 'column'><img src = 'uspos/2530.bmp' width = '100%;'></div><div class = 'column'><img src = 'category4/CS8.png' width = '70%;'></div></div>","null","pos","CS","CS","4","category4/CS8.png","","","","",""
"","html-keyboard-response","76","305753","0.0-6.0-6.0-0.7","ch9zvf20wz","many_one","0","direct_first","1","id05us15","0","23","1","1","1","1","Ich fand die Teilnahme schwierig, weil es manchmal so willkürlich war. Ich hatte nie richtig das Gefühl, die Zeichen sind wirklich schlecht oder gut, aber ich musste irgendetwas angeben um weiter machen zu können und habe mich wie ein Betrüger gefühlt etwas anzugeben, wovon ich gerade gar keine Ahnung habe...","0","1","0","null","","","<div class = 'row'><div class = 'column'><img src = 'uspos/1340.bmp' width = '100%;'></div><div class = 'column'><img src = 'category1/CS4.png' width = '70%;'></div></div>","null","pos","CS","CS","1","category1/CS4.png","","","","",""
"","html-keyboard-response","77","308268","0.0-6.0-6.0-0.8","ch9zvf20wz","many_one","0","direct_first","1","id05us15","0","23","1","1","1","1","Ich fand die Teilnahme schwierig, weil es manchmal so willkürlich war. Ich hatte nie richtig das Gefühl, die Zeichen sind wirklich schlecht oder gut, aber ich musste irgendetwas angeben um weiter machen zu können und habe mich wie ein Betrüger gefühlt etwas anzugeben, wovon ich gerade gar keine Ahnung habe...","0","1","0","null","","","<div class = 'row'><div class = 'column'><img src = 'uspos/5700.bmp' width = '100%;'></div><div class = 'column'><img src = 'category1/CS9.png' width = '70%;'></div></div>","null","pos","CS","CS","1","category1/CS9.png","","","","",""
"","html-keyboard-response","78","310787","0.0-6.0-6.0-0.9","ch9zvf20wz","many_one","0","direct_first","1","id05us15","0","23","1","1","1","1","Ich fand die Teilnahme schwierig, weil es manchmal so willkürlich war. Ich hatte nie richtig das Gefühl, die Zeichen sind wirklich schlecht oder gut, aber ich musste irgendetwas angeben um weiter machen zu können und habe mich wie ein Betrüger gefühlt etwas anzugeben, wovon ich gerade gar keine Ahnung habe...","0","1","0","null","","","<div class = 'row'><div class = 'column'><img src = 'category3/CS4.png' width = '70%;'></div><div class = 'column'><img src = 'usneg/9560.bmp' width = '100%;'></div></div>","null","neg","CS","CS","3","category3/CS4.png","","","","",""
"","html-keyboard-response","79","313310","0.0-6.0-6.0-0.10","ch9zvf20wz","many_one","0","direct_first","1","id05us15","0","23","1","1","1","1","Ich fand die Teilnahme schwierig, weil es manchmal so willkürlich war. Ich hatte nie richtig das Gefühl, die Zeichen sind wirklich schlecht oder gut, aber ich musste irgendetwas angeben um weiter machen zu können und habe mich wie ein Betrüger gefühlt etwas anzugeben, wovon ich gerade gar keine Ahnung habe...","0","1","0","null","","","<div class = 'row'><div class = 'column'><img src = 'uspos/5470.bmp' width = '100%;'></div><div class = 'column'><img src = 'category4/CS6.png' width = '70%;'></div></div>","null","pos","CS","CS","4","category4/CS6.png","","","","",""
"","html-keyboard-response","80","315837","0.0-6.0-6.0-0.11","ch9zvf20wz","many_one","0","direct_first","1","id05us15","0","23","1","1","1","1","Ich fand die Teilnahme schwierig, weil es manchmal so willkürlich war. Ich hatte nie richtig das Gefühl, die Zeichen sind wirklich schlecht oder gut, aber ich musste irgendetwas angeben um weiter machen zu können und habe mich wie ein Betrüger gefühlt etwas anzugeben, wovon ich gerade gar keine Ahnung habe...","0","1","0","null","","","<div class = 'row'><div class = 'column'><img src = 'uspos/2340.bmp' width = '100%;'></div><div class = 'column'><img src = 'category4/CS9.png' width = '70%;'></div></div>","null","pos","CS","CS","4","category4/CS9.png","","","","",""
"","html-keyboard-response","81","318356","0.0-6.0-6.0-0.12","ch9zvf20wz","many_one","0","direct_first","1","id05us15","0","23","1","1","1","1","Ich fand die Teilnahme schwierig, weil es manchmal so willkürlich war. Ich hatte nie richtig das Gefühl, die Zeichen sind wirklich schlecht oder gut, aber ich musste irgendetwas angeben um weiter machen zu können und habe mich wie ein Betrüger gefühlt etwas anzugeben, wovon ich gerade gar keine Ahnung habe...","0","1","0","null","","","<div class = 'row'><div class = 'column'><img src = 'category2/CS5.png' width = '70%;'></div><div class = 'column'><img src = 'usneg/2750.bmp' width = '100%;'></div></div>","null","neg","CS","CS","2","category2/CS5.png","","","","",""
"","html-keyboard-response","82","320876","0.0-6.0-6.0-0.13","ch9zvf20wz","many_one","0","direct_first","1","id05us15","0","23","1","1","1","1","Ich fand die Teilnahme schwierig, weil es manchmal so willkürlich war. Ich hatte nie richtig das Gefühl, die Zeichen sind wirklich schlecht oder gut, aber ich musste irgendetwas angeben um weiter machen zu können und habe mich wie ein Betrüger gefühlt etwas anzugeben, wovon ich gerade gar keine Ahnung habe...","0","1","0","null","","","<div class = 'row'><div class = 'column'><img src = 'usneg/8485.bmp' width = '100%;'></div><div class = 'column'><img src = 'category2/CS9.png' width = '70%;'></div></div>","null","neg","CS","CS","2","category2/CS9.png","","","","",""
"","html-keyboard-response","83","323396","0.0-6.0-6.0-0.14","ch9zvf20wz","many_one","0","direct_first","1","id05us15","0","23","1","1","1","1","Ich fand die Teilnahme schwierig, weil es manchmal so willkürlich war. Ich hatte nie richtig das Gefühl, die Zeichen sind wirklich schlecht oder gut, aber ich musste irgendetwas angeben um weiter machen zu können und habe mich wie ein Betrüger gefühlt etwas anzugeben, wovon ich gerade gar keine Ahnung habe...","0","1","0","null","","","<div class = 'row'><div class = 'column'><img src = 'usneg/9181.bmp' width = '100%;'></div><div class = 'column'><img src = 'category3/CS5.png' width = '70%;'></div></div>","null","neg","CS","CS","3","category3/CS5.png","","","","",""
"","html-keyboard-response","84","325924","0.0-6.0-6.0-0.15","ch9zvf20wz","many_one","0","direct_first","1","id05us15","0","23","1","1","1","1","Ich fand die Teilnahme schwierig, weil es manchmal so willkürlich war. Ich hatte nie richtig das Gefühl, die Zeichen sind wirklich schlecht oder gut, aber ich musste irgendetwas angeben um weiter machen zu können und habe mich wie ein Betrüger gefühlt etwas anzugeben, wovon ich gerade gar keine Ahnung habe...","0","1","0","null","","","<div class = 'row'><div class = 'column'><img src = 'usneg/9435.bmp' width = '100%;'></div><div class = 'column'><img src = 'category2/CS3.png' width = '70%;'></div></div>","null","neg","CS","CS","2","category2/CS3.png","","","","",""
"","html-keyboard-response","85","328443","0.0-6.0-6.0-0.16","ch9zvf20wz","many_one","0","direct_first","1","id05us15","0","23","1","1","1","1","Ich fand die Teilnahme schwierig, weil es manchmal so willkürlich war. Ich hatte nie richtig das Gefühl, die Zeichen sind wirklich schlecht oder gut, aber ich musste irgendetwas angeben um weiter machen zu können und habe mich wie ein Betrüger gefühlt etwas anzugeben, wovon ich gerade gar keine Ahnung habe...","0","1","0","null","","","<div class = 'row'><div class = 'column'><img src = 'usneg/9340.bmp' width = '100%;'></div><div class = 'column'><img src = 'category3/CS10.png' width = '70%;'></div></div>","null","neg","CS","CS","3","category3/CS10.png","","","","",""
"","html-keyboard-response","86","330956","0.0-6.0-6.0-0.17","ch9zvf20wz","many_one","0","direct_first","1","id05us15","0","23","1","1","1","1","Ich fand die Teilnahme schwierig, weil es manchmal so willkürlich war. Ich hatte nie richtig das Gefühl, die Zeichen sind wirklich schlecht oder gut, aber ich musste irgendetwas angeben um weiter machen zu können und habe mich wie ein Betrüger gefühlt etwas anzugeben, wovon ich gerade gar keine Ahnung habe...","0","1","0","null","","","<div class = 'row'><div class = 'column'><img src = 'category3/CS9.png' width = '70%;'></div><div class = 'column'><img src = 'usneg/9041.bmp' width = '100%;'></div></div>","null","neg","CS","CS","3","category3/CS9.png","","","","",""
"","html-keyboard-response","87","333475","0.0-6.0-6.0-0.18","ch9zvf20wz","many_one","0","direct_first","1","id05us15","0","23","1","1","1","1","Ich fand die Teilnahme schwierig, weil es manchmal so willkürlich war. Ich hatte nie richtig das Gefühl, die Zeichen sind wirklich schlecht oder gut, aber ich musste irgendetwas angeben um weiter machen zu können und habe mich wie ein Betrüger gefühlt etwas anzugeben, wovon ich gerade gar keine Ahnung habe...","0","1","0","null","","","<div class = 'row'><div class = 'column'><img src = 'category1/CS1.png' width = '70%;'></div><div class = 'column'><img src = 'uspos/2208.bmp' width = '100%;'></div></div>","null","pos","CS","CS","1","category1/CS1.png","","","","",""
"","html-keyboard-response","88","335998","0.0-6.0-6.0-0.19","ch9zvf20wz","many_one","0","direct_first","1","id05us15","0","23","1","1","1","1","Ich fand die Teilnahme schwierig, weil es manchmal so willkürlich war. Ich hatte nie richtig das Gefühl, die Zeichen sind wirklich schlecht oder gut, aber ich musste irgendetwas angeben um weiter machen zu können und habe mich wie ein Betrüger gefühlt etwas anzugeben, wovon ich gerade gar keine Ahnung habe...","0","1","0","null","","","<div class = 'row'><div class = 'column'><img src = 'uspos/8190.bmp' width = '100%;'></div><div class = 'column'><img src = 'category4/CS2.png' width = '70%;'></div></div>","null","pos","CS","CS","4","category4/CS2.png","","","","",""
"","survey-html-form","89","346914","0.0-7.0","ch9zvf20wz","many_one","0","direct_first","1","id05us15","0","23","1","1","1","1","Ich fand die Teilnahme schwierig, weil es manchmal so willkürlich war. Ich hatte nie richtig das Gefühl, die Zeichen sind wirklich schlecht oder gut, aber ich musste irgendetwas angeben um weiter machen zu können und habe mich wie ein Betrüger gefühlt etwas anzugeben, wovon ich gerade gar keine Ahnung habe...","0","1","0","10402.839999878779","","{}","","","","","","","","","","","",""
"","image-slider-response","90","357019","0.0-8.0-0.0","ch9zvf20wz","many_one","0","direct_first","1","id05us15","0","23","1","1","1","1","Ich fand die Teilnahme schwierig, weil es manchmal so willkürlich war. Ich hatte nie richtig das Gefühl, die Zeichen sind wirklich schlecht oder gut, aber ich musste irgendetwas angeben um weiter machen zu können und habe mich wie ein Betrüger gefühlt etwas anzugeben, wovon ich gerade gar keine Ahnung habe...","0","1","0","8083.444999996573","","","","","pos","CS","CS","1","category1/CS10.png","-16","targets/47.png","direct","",""
"","image-slider-response","91","361684","0.0-8.0-0.1","ch9zvf20wz","many_one","0","direct_first","1","id05us15","0","23","1","1","1","1","Ich fand die Teilnahme schwierig, weil es manchmal so willkürlich war. Ich hatte nie richtig das Gefühl, die Zeichen sind wirklich schlecht oder gut, aber ich musste irgendetwas angeben um weiter machen zu können und habe mich wie ein Betrüger gefühlt etwas anzugeben, wovon ich gerade gar keine Ahnung habe...","0","1","0","4661.820000037551","","","","","neg","GS","GSnew","2","category2/GS2.png","15","targets/9.png","direct","",""
"","image-slider-response","92","364616","0.0-8.0-0.2","ch9zvf20wz","many_one","0","direct_first","1","id05us15","0","23","1","1","1","1","Ich fand die Teilnahme schwierig, weil es manchmal so willkürlich war. Ich hatte nie richtig das Gefühl, die Zeichen sind wirklich schlecht oder gut, aber ich musste irgendetwas angeben um weiter machen zu können und habe mich wie ein Betrüger gefühlt etwas anzugeben, wovon ich gerade gar keine Ahnung habe...","0","1","0","2928.285000147298","","","","","neg","CS","CS","3","category3/CS5.png","40","targets/34.png","direct","",""
"","image-slider-response","93","368075","0.0-8.0-0.3","ch9zvf20wz","many_one","0","direct_first","1","id05us15","0","23","1","1","1","1","Ich fand die Teilnahme schwierig, weil es manchmal so willkürlich war. Ich hatte nie richtig das Gefühl, die Zeichen sind wirklich schlecht oder gut, aber ich musste irgendetwas angeben um weiter machen zu können und habe mich wie ein Betrüger gefühlt etwas anzugeben, wovon ich gerade gar keine Ahnung habe...","0","1","0","3455.799999879673","","","","","neg","CS","CS","2","category2/CS9.png","-41","targets/38.png","direct","",""
"","image-slider-response","94","371266","0.0-8.0-0.4","ch9zvf20wz","many_one","0","direct_first","1","id05us15","0","23","1","1","1","1","Ich fand die Teilnahme schwierig, weil es manchmal so willkürlich war. Ich hatte nie richtig das Gefühl, die Zeichen sind wirklich schlecht oder gut, aber ich musste irgendetwas angeben um weiter machen zu können und habe mich wie ein Betrüger gefühlt etwas anzugeben, wovon ich gerade gar keine Ahnung habe...","0","1","0","3186.9049998931587","","","","","neg","GS","GSnew","2","category2/GS1.png","-15","targets/44.png","direct","",""
"","image-slider-response","95","375081","0.0-8.0-0.5","ch9zvf20wz","many_one","0","direct_first","1","id05us15","0","23","1","1","1","1","Ich fand die Teilnahme schwierig, weil es manchmal so willkürlich war. Ich hatte nie richtig das Gefühl, die Zeichen sind wirklich schlecht oder gut, aber ich musste irgendetwas angeben um weiter machen zu können und habe mich wie ein Betrüger gefühlt etwas anzugeben, wovon ich gerade gar keine Ahnung habe...","0","1","0","3810.6849999167025","","","","","pos","GS","GSnew","1","category1/GS1.png","52","targets/13.png","direct","",""
"","image-slider-response","96","379256","0.0-8.0-0.6","ch9zvf20wz","many_one","0","direct_first","1","id05us15","0","23","1","1","1","1","Ich fand die Teilnahme schwierig, weil es manchmal so willkürlich war. Ich hatte nie richtig das Gefühl, die Zeichen sind wirklich schlecht oder gut, aber ich musste irgendetwas angeben um weiter machen zu können und habe mich wie ein Betrüger gefühlt etwas anzugeben, wovon ich gerade gar keine Ahnung habe...","0","1","0","4170.454999897629","","","","","pos","CS","CS","4","category4/CS8.png","54","targets/18.png","direct","",""
"","image-slider-response","97","383638","0.0-8.0-0.7","ch9zvf20wz","many_one","0","direct_first","1","id05us15","0","23","1","1","1","1","Ich fand die Teilnahme schwierig, weil es manchmal so willkürlich war. Ich hatte nie richtig das Gefühl, die Zeichen sind wirklich schlecht oder gut, aber ich musste irgendetwas angeben um weiter machen zu können und habe mich wie ein Betrüger gefühlt etwas anzugeben, wovon ich gerade gar keine Ahnung habe...","0","1","0","4378.3100000582635","","","","","pos","GS","GSold","1","category1/CS6.png","-58","targets/28.png","direct","",""
"","image-slider-response","98","386766","0.0-8.0-0.8","ch9zvf20wz","many_one","0","direct_first","1","id05us15","0","23","1","1","1","1","Ich fand die Teilnahme schwierig, weil es manchmal so willkürlich war. Ich hatte nie richtig das Gefühl, die Zeichen sind wirklich schlecht oder gut, aber ich musste irgendetwas angeben um weiter machen zu können und habe mich wie ein Betrüger gefühlt etwas anzugeben, wovon ich gerade gar keine Ahnung habe...","0","1","0","3125.0799999106675","","","","","neg","CS","CS","2","category2/CS3.png","42","targets/15.png","direct","",""
"","image-slider-response","99","390338","0.0-8.0-0.9","ch9zvf20wz","many_one","0","direct_first","1","id05us15","0","23","1","1","1","1","Ich fand die Teilnahme schwierig, weil es manchmal so willkürlich war. Ich hatte nie richtig das Gefühl, die Zeichen sind wirklich schlecht oder gut, aber ich musste irgendetwas angeben um weiter machen zu können und habe mich wie ein Betrüger gefühlt etwas anzugeben, wovon ich gerade gar keine Ahnung habe...","0","1","0","3568.2400001678616","","","","","pos","GS","GSnew","1","category1/GS3.png","16","targets/1.png","direct","",""
"","image-slider-response","100","394141","0.0-8.0-0.10","ch9zvf20wz","many_one","0","direct_first","1","id05us15","0","23","1","1","1","1","Ich fand die Teilnahme schwierig, weil es manchmal so willkürlich war. Ich hatte nie richtig das Gefühl, die Zeichen sind wirklich schlecht oder gut, aber ich musste irgendetwas angeben um weiter machen zu können und habe mich wie ein Betrüger gefühlt etwas anzugeben, wovon ich gerade gar keine Ahnung habe...","0","1","0","3803.2500001136214","","","","","pos","GS","GSold","1","category1/CS8.png","59","targets/30.png","direct","",""
"","image-slider-response","101","396984","0.0-8.0-0.11","ch9zvf20wz","many_one","0","direct_first","1","id05us15","0","23","1","1","1","1","Ich fand die Teilnahme schwierig, weil es manchmal so willkürlich war. Ich hatte nie richtig das Gefühl, die Zeichen sind wirklich schlecht oder gut, aber ich musste irgendetwas angeben um weiter machen zu können und habe mich wie ein Betrüger gefühlt etwas anzugeben, wovon ich gerade gar keine Ahnung habe...","0","1","0","2838.9550000429153","","","","","neg","CS","CS","2","category2/CS1.png","30","targets/3.png","direct","",""
"","image-slider-response","102","400110","0.0-8.0-0.12","ch9zvf20wz","many_one","0","direct_first","1","id05us15","0","23","1","1","1","1","Ich fand die Teilnahme schwierig, weil es manchmal so willkürlich war. Ich hatte nie richtig das Gefühl, die Zeichen sind wirklich schlecht oder gut, aber ich musste irgendetwas angeben um weiter machen zu können und habe mich wie ein Betrüger gefühlt etwas anzugeben, wovon ich gerade gar keine Ahnung habe...","0","1","0","3121.3100000750273","","","","","neg","GS","GSold","3","category3/CS7.png","18","targets/8.png","direct","",""
"","image-slider-response","103","403201","0.0-8.0-0.13","ch9zvf20wz","many_one","0","direct_first","1","id05us15","0","23","1","1","1","1","Ich fand die Teilnahme schwierig, weil es manchmal so willkürlich war. Ich hatte nie richtig das Gefühl, die Zeichen sind wirklich schlecht oder gut, aber ich musste irgendetwas angeben um weiter machen zu können und habe mich wie ein Betrüger gefühlt etwas anzugeben, wovon ich gerade gar keine Ahnung habe...","0","1","0","3087.7649998292327","","","","","neg","GS","abstract","3","category3/wang.png","81","targets/42.png","direct","",""
"","image-slider-response","104","406331","0.0-8.0-0.14","ch9zvf20wz","many_one","0","direct_first","1","id05us15","0","23","1","1","1","1","Ich fand die Teilnahme schwierig, weil es manchmal so willkürlich war. Ich hatte nie richtig das Gefühl, die Zeichen sind wirklich schlecht oder gut, aber ich musste irgendetwas angeben um weiter machen zu können und habe mich wie ein Betrüger gefühlt etwas anzugeben, wovon ich gerade gar keine Ahnung habe...","0","1","0","3125.675000017509","","","","","pos","GS","GSnew","4","category4/GS2.png","50","targets/36.png","direct","",""
"","image-slider-response","105","411814","0.0-8.0-0.15","ch9zvf20wz","many_one","0","direct_first","1","id05us15","0","23","1","1","1","1","Ich fand die Teilnahme schwierig, weil es manchmal so willkürlich war. Ich hatte nie richtig das Gefühl, die Zeichen sind wirklich schlecht oder gut, aber ich musste irgendetwas angeben um weiter machen zu können und habe mich wie ein Betrüger gefühlt etwas anzugeben, wovon ich gerade gar keine Ahnung habe...","0","1","0","5479.469999903813","","","","","neg","CS","CS","3","category3/CS10.png","16","targets/16.png","direct","",""
"","image-slider-response","106","415126","0.0-8.0-0.16","ch9zvf20wz","many_one","0","direct_first","1","id05us15","0","23","1","1","1","1","Ich fand die Teilnahme schwierig, weil es manchmal so willkürlich war. Ich hatte nie richtig das Gefühl, die Zeichen sind wirklich schlecht oder gut, aber ich musste irgendetwas angeben um weiter machen zu können und habe mich wie ein Betrüger gefühlt etwas anzugeben, wovon ich gerade gar keine Ahnung habe...","0","1","0","3308.0549999140203","","","","","neg","CS","CS","2","category2/CS5.png","-38","targets/48.png","direct","",""
"","image-slider-response","107","417714","0.0-8.0-0.17","ch9zvf20wz","many_one","0","direct_first","1","id05us15","0","23","1","1","1","1","Ich fand die Teilnahme schwierig, weil es manchmal so willkürlich war. Ich hatte nie richtig das Gefühl, die Zeichen sind wirklich schlecht oder gut, aber ich musste irgendetwas angeben um weiter machen zu können und habe mich wie ein Betrüger gefühlt etwas anzugeben, wovon ich gerade gar keine Ahnung habe...","0","1","0","2584.0600000228733","","","","","neg","GS","GSold","3","category3/CS1.png","50","targets/10.png","direct","",""
"","image-slider-response","108","420742","0.0-8.0-0.18","ch9zvf20wz","many_one","0","direct_first","1","id05us15","0","23","1","1","1","1","Ich fand die Teilnahme schwierig, weil es manchmal so willkürlich war. Ich hatte nie richtig das Gefühl, die Zeichen sind wirklich schlecht oder gut, aber ich musste irgendetwas angeben um weiter machen zu können und habe mich wie ein Betrüger gefühlt etwas anzugeben, wovon ich gerade gar keine Ahnung habe...","0","1","0","3023.4249997884035","","","","","neg","GS","GSold","3","category3/CS8.png","32","targets/40.png","direct","",""
"","image-slider-response","109","423759","0.0-8.0-0.19","ch9zvf20wz","many_one","0","direct_first","1","id05us15","0","23","1","1","1","1","Ich fand die Teilnahme schwierig, weil es manchmal so willkürlich war. Ich hatte nie richtig das Gefühl, die Zeichen sind wirklich schlecht oder gut, aber ich musste irgendetwas angeben um weiter machen zu können und habe mich wie ein Betrüger gefühlt etwas anzugeben, wovon ich gerade gar keine Ahnung habe...","0","1","0","3014.414999866858","","","","","pos","CS","CS","1","category1/CS9.png","-26","targets/33.png","direct","",""
"","image-slider-response","110","426456","0.0-8.0-0.20","ch9zvf20wz","many_one","0","direct_first","1","id05us15","0","23","1","1","1","1","Ich fand die Teilnahme schwierig, weil es manchmal so willkürlich war. Ich hatte nie richtig das Gefühl, die Zeichen sind wirklich schlecht oder gut, aber ich musste irgendetwas angeben um weiter machen zu können und habe mich wie ein Betrüger gefühlt etwas anzugeben, wovon ich gerade gar keine Ahnung habe...","0","1","0","2693.7599999364465","","","","","neg","GS","GSnew","2","category2/GS3.png","-13","targets/43.png","direct","",""
"","image-slider-response","111","429253","0.0-8.0-0.21","ch9zvf20wz","many_one","0","direct_first","1","id05us15","0","23","1","1","1","1","Ich fand die Teilnahme schwierig, weil es manchmal so willkürlich war. Ich hatte nie richtig das Gefühl, die Zeichen sind wirklich schlecht oder gut, aber ich musste irgendetwas angeben um weiter machen zu können und habe mich wie ein Betrüger gefühlt etwas anzugeben, wovon ich gerade gar keine Ahnung habe...","0","1","0","2793.7199999578297","","","","","pos","CS","CS","4","category4/CS7.png","25","targets/19.png","direct","",""
"","image-slider-response","112","432171","0.0-8.0-0.22","ch9zvf20wz","many_one","0","direct_first","1","id05us15","0","23","1","1","1","1","Ich fand die Teilnahme schwierig, weil es manchmal so willkürlich war. Ich hatte nie richtig das Gefühl, die Zeichen sind wirklich schlecht oder gut, aber ich musste irgendetwas angeben um weiter machen zu können und habe mich wie ein Betrüger gefühlt etwas anzugeben, wovon ich gerade gar keine Ahnung habe...","0","1","0","2915.155000053346","","","","","pos","GS","GSold","4","category4/CS5.png","17","targets/4.png","direct","",""
"","image-slider-response","113","436013","0.0-8.0-0.23","ch9zvf20wz","many_one","0","direct_first","1","id05us15","0","23","1","1","1","1","Ich fand die Teilnahme schwierig, weil es manchmal so willkürlich war. Ich hatte nie richtig das Gefühl, die Zeichen sind wirklich schlecht oder gut, aber ich musste irgendetwas angeben um weiter machen zu können und habe mich wie ein Betrüger gefühlt etwas anzugeben, wovon ich gerade gar keine Ahnung habe...","0","1","0","3838.505000108853","","","","","pos","CS","CS","1","category1/CS1.png","-27","targets/27.png","direct","",""
"","image-slider-response","114","438944","0.0-8.0-0.24","ch9zvf20wz","many_one","0","direct_first","1","id05us15","0","23","1","1","1","1","Ich fand die Teilnahme schwierig, weil es manchmal so willkürlich war. Ich hatte nie richtig das Gefühl, die Zeichen sind wirklich schlecht oder gut, aber ich musste irgendetwas angeben um weiter machen zu können und habe mich wie ein Betrüger gefühlt etwas anzugeben, wovon ich gerade gar keine Ahnung habe...","0","1","0","2927.584999939427","","","","","pos","GS","GSold","4","category4/CS10.png","-13","targets/5.png","direct","",""
"","image-slider-response","115","446742","0.0-8.0-0.25","ch9zvf20wz","many_one","0","direct_first","1","id05us15","0","23","1","1","1","1","Ich fand die Teilnahme schwierig, weil es manchmal so willkürlich war. Ich hatte nie richtig das Gefühl, die Zeichen sind wirklich schlecht oder gut, aber ich musste irgendetwas angeben um weiter machen zu können und habe mich wie ein Betrüger gefühlt etwas anzugeben, wovon ich gerade gar keine Ahnung habe...","0","1","0","7794.955000048503","","","","","neg","GS","GSnew","3","category3/GS3.png","3","targets/29.png","direct","",""
"","image-slider-response","116","449795","0.0-8.0-0.26","ch9zvf20wz","many_one","0","direct_first","1","id05us15","0","23","1","1","1","1","Ich fand die Teilnahme schwierig, weil es manchmal so willkürlich war. Ich hatte nie richtig das Gefühl, die Zeichen sind wirklich schlecht oder gut, aber ich musste irgendetwas angeben um weiter machen zu können und habe mich wie ein Betrüger gefühlt etwas anzugeben, wovon ich gerade gar keine Ahnung habe...","0","1","0","3048.899999819696","","","","","neg","GS","GSold","2","category2/CS4.png","-20","targets/24.png","direct","",""
"","image-slider-response","117","452822","0.0-8.0-0.27","ch9zvf20wz","many_one","0","direct_first","1","id05us15","0","23","1","1","1","1","Ich fand die Teilnahme schwierig, weil es manchmal so willkürlich war. Ich hatte nie richtig das Gefühl, die Zeichen sind wirklich schlecht oder gut, aber ich musste irgendetwas angeben um weiter machen zu können und habe mich wie ein Betrüger gefühlt etwas anzugeben, wovon ich gerade gar keine Ahnung habe...","0","1","0","3026.645000092685","","","","","pos","CS","CS","4","category4/CS2.png","-3","targets/6.png","direct","",""
"","image-slider-response","118","458314","0.0-8.0-0.28","ch9zvf20wz","many_one","0","direct_first","1","id05us15","0","23","1","1","1","1","Ich fand die Teilnahme schwierig, weil es manchmal so willkürlich war. Ich hatte nie richtig das Gefühl, die Zeichen sind wirklich schlecht oder gut, aber ich musste irgendetwas angeben um weiter machen zu können und habe mich wie ein Betrüger gefühlt etwas anzugeben, wovon ich gerade gar keine Ahnung habe...","0","1","0","5489.419999998063","","","","","neg","GS","GSnew","3","category3/GS1.png","-86","targets/31.png","direct","",""
"","image-slider-response","119","461751","0.0-8.0-0.29","ch9zvf20wz","many_one","0","direct_first","1","id05us15","0","23","1","1","1","1","Ich fand die Teilnahme schwierig, weil es manchmal so willkürlich war. Ich hatte nie richtig das Gefühl, die Zeichen sind wirklich schlecht oder gut, aber ich musste irgendetwas angeben um weiter machen zu können und habe mich wie ein Betrüger gefühlt etwas anzugeben, wovon ich gerade gar keine Ahnung habe...","0","1","0","3432.8349998686463","","","","","neg","CS","CS","2","category2/CS7.png","12","targets/14.png","direct","",""
"","image-slider-response","120","464558","0.0-8.0-0.30","ch9zvf20wz","many_one","0","direct_first","1","id05us15","0","23","1","1","1","1","Ich fand die Teilnahme schwierig, weil es manchmal so willkürlich war. Ich hatte nie richtig das Gefühl, die Zeichen sind wirklich schlecht oder gut, aber ich musste irgendetwas angeben um weiter machen zu können und habe mich wie ein Betrüger gefühlt etwas anzugeben, wovon ich gerade gar keine Ahnung habe...","0","1","0","2803.0399999115616","","","","","neg","CS","CS","3","category3/CS2.png","-15","targets/17.png","direct","",""
"","image-slider-response","121","471155","0.0-8.0-0.31","ch9zvf20wz","many_one","0","direct_first","1","id05us15","0","23","1","1","1","1","Ich fand die Teilnahme schwierig, weil es manchmal so willkürlich war. Ich hatte nie richtig das Gefühl, die Zeichen sind wirklich schlecht oder gut, aber ich musste irgendetwas angeben um weiter machen zu können und habe mich wie ein Betrüger gefühlt etwas anzugeben, wovon ich gerade gar keine Ahnung habe...","0","1","0","6594.3750001024455","","","","","neg","GS","abstract","2","category2/men.png","-2","targets/41.png","direct","",""
"","image-slider-response","122","476338","0.0-8.0-0.32","ch9zvf20wz","many_one","0","direct_first","1","id05us15","0","23","1","1","1","1","Ich fand die Teilnahme schwierig, weil es manchmal so willkürlich war. Ich hatte nie richtig das Gefühl, die Zeichen sind wirklich schlecht oder gut, aber ich musste irgendetwas angeben um weiter machen zu können und habe mich wie ein Betrüger gefühlt etwas anzugeben, wovon ich gerade gar keine Ahnung habe...","0","1","0","5179.089999990538","","","","","pos","CS","CS","1","category1/CS4.png","5","targets/21.png","direct","",""
"","image-slider-response","123","479233","0.0-8.0-0.33","ch9zvf20wz","many_one","0","direct_first","1","id05us15","0","23","1","1","1","1","Ich fand die Teilnahme schwierig, weil es manchmal so willkürlich war. Ich hatte nie richtig das Gefühl, die Zeichen sind wirklich schlecht oder gut, aber ich musste irgendetwas angeben um weiter machen zu können und habe mich wie ein Betrüger gefühlt etwas anzugeben, wovon ich gerade gar keine Ahnung habe...","0","1","0","2890.9450001083314","","","","","neg","CS","CS","3","category3/CS4.png","15","targets/37.png","direct","",""
"","image-slider-response","124","482029","0.0-8.0-0.34","ch9zvf20wz","many_one","0","direct_first","1","id05us15","0","23","1","1","1","1","Ich fand die Teilnahme schwierig, weil es manchmal so willkürlich war. Ich hatte nie richtig das Gefühl, die Zeichen sind wirklich schlecht oder gut, aber ich musste irgendetwas angeben um weiter machen zu können und habe mich wie ein Betrüger gefühlt etwas anzugeben, wovon ich gerade gar keine Ahnung habe...","0","1","0","2793.030000058934","","","","","pos","GS","GSold","4","category4/CS1.png","13","targets/32.png","direct","",""
"","image-slider-response","125","484677","0.0-8.0-0.35","ch9zvf20wz","many_one","0","direct_first","1","id05us15","0","23","1","1","1","1","Ich fand die Teilnahme schwierig, weil es manchmal so willkürlich war. Ich hatte nie richtig das Gefühl, die Zeichen sind wirklich schlecht oder gut, aber ich musste irgendetwas angeben um weiter machen zu können und habe mich wie ein Betrüger gefühlt etwas anzugeben, wovon ich gerade gar keine Ahnung habe...","0","1","0","2643.2099998928607","","","","","pos","GS","GSnew","1","category1/GS2.png","-10","targets/26.png","direct","",""
"","image-slider-response","126","487264","0.0-8.0-0.36","ch9zvf20wz","many_one","0","direct_first","1","id05us15","0","23","1","1","1","1","Ich fand die Teilnahme schwierig, weil es manchmal so willkürlich war. Ich hatte nie richtig das Gefühl, die Zeichen sind wirklich schlecht oder gut, aber ich musste irgendetwas angeben um weiter machen zu können und habe mich wie ein Betrüger gefühlt etwas anzugeben, wovon ich gerade gar keine Ahnung habe...","0","1","0","2583.919999888167","","","","","pos","GS","abstract","1","category1/ma.png","-5","targets/46.png","direct","",""
"","image-slider-response","127","489910","0.0-8.0-0.37","ch9zvf20wz","many_one","0","direct_first","1","id05us15","0","23","1","1","1","1","Ich fand die Teilnahme schwierig, weil es manchmal so willkürlich war. Ich hatte nie richtig das Gefühl, die Zeichen sind wirklich schlecht oder gut, aber ich musste irgendetwas angeben um weiter machen zu können und habe mich wie ein Betrüger gefühlt etwas anzugeben, wovon ich gerade gar keine Ahnung habe...","0","1","0","2642.549999989569","","","","","pos","GS","GSold","1","category1/CS3.png","-6","targets/12.png","direct","",""
"","image-slider-response","128","493113","0.0-8.0-0.38","ch9zvf20wz","many_one","0","direct_first","1","id05us15","0","23","1","1","1","1","Ich fand die Teilnahme schwierig, weil es manchmal so willkürlich war. Ich hatte nie richtig das Gefühl, die Zeichen sind wirklich schlecht oder gut, aber ich musste irgendetwas angeben um weiter machen zu können und habe mich wie ein Betrüger gefühlt etwas anzugeben, wovon ich gerade gar keine Ahnung habe...","0","1","0","3198.934999993071","","","","","pos","GS","GSnew","4","category4/GS1.png","16","targets/45.png","direct","",""
"","image-slider-response","129","496957","0.0-8.0-0.39","ch9zvf20wz","many_one","0","direct_first","1","id05us15","0","23","1","1","1","1","Ich fand die Teilnahme schwierig, weil es manchmal so willkürlich war. Ich hatte nie richtig das Gefühl, die Zeichen sind wirklich schlecht oder gut, aber ich musste irgendetwas angeben um weiter machen zu können und habe mich wie ein Betrüger gefühlt etwas anzugeben, wovon ich gerade gar keine Ahnung habe...","0","1","0","3841.200000140816","","","","","pos","CS","CS","4","category4/CS6.png","-13","targets/7.png","direct","",""
"","image-slider-response","130","500359","0.0-8.0-0.40","ch9zvf20wz","many_one","0","direct_first","1","id05us15","0","23","1","1","1","1","Ich fand die Teilnahme schwierig, weil es manchmal so willkürlich war. Ich hatte nie richtig das Gefühl, die Zeichen sind wirklich schlecht oder gut, aber ich musste irgendetwas angeben um weiter machen zu können und habe mich wie ein Betrüger gefühlt etwas anzugeben, wovon ich gerade gar keine Ahnung habe...","0","1","0","3397.540000034496","","","","","pos","GS","abstract","4","category4/lin.png","-28","targets/25.png","direct","",""
"","image-slider-response","131","506997","0.0-8.0-0.41","ch9zvf20wz","many_one","0","direct_first","1","id05us15","0","23","1","1","1","1","Ich fand die Teilnahme schwierig, weil es manchmal so willkürlich war. Ich hatte nie richtig das Gefühl, die Zeichen sind wirklich schlecht oder gut, aber ich musste irgendetwas angeben um weiter machen zu können und habe mich wie ein Betrüger gefühlt etwas anzugeben, wovon ich gerade gar keine Ahnung habe...","0","1","0","6634.240000043064","","","","","neg","GS","GSold","2","category2/CS10.png","100","targets/35.png","direct","",""
"","image-slider-response","132","509806","0.0-8.0-0.42","ch9zvf20wz","many_one","0","direct_first","1","id05us15","0","23","1","1","1","1","Ich fand die Teilnahme schwierig, weil es manchmal so willkürlich war. Ich hatte nie richtig das Gefühl, die Zeichen sind wirklich schlecht oder gut, aber ich musste irgendetwas angeben um weiter machen zu können und habe mich wie ein Betrüger gefühlt etwas anzugeben, wovon ich gerade gar keine Ahnung habe...","0","1","0","2804.6299999114126","","","","","pos","CS","CS","1","category1/CS2.png","-26","targets/20.png","direct","",""
"","image-slider-response","133","512397","0.0-8.0-0.43","ch9zvf20wz","many_one","0","direct_first","1","id05us15","0","23","1","1","1","1","Ich fand die Teilnahme schwierig, weil es manchmal so willkürlich war. Ich hatte nie richtig das Gefühl, die Zeichen sind wirklich schlecht oder gut, aber ich musste irgendetwas angeben um weiter machen zu können und habe mich wie ein Betrüger gefühlt etwas anzugeben, wovon ich gerade gar keine Ahnung habe...","0","1","0","2582.9100001137704","","","","","pos","GS","GSnew","4","category4/GS3.png","25","targets/39.png","direct","",""
"","image-slider-response","134","515601","0.0-8.0-0.44","ch9zvf20wz","many_one","0","direct_first","1","id05us15","0","23","1","1","1","1","Ich fand die Teilnahme schwierig, weil es manchmal so willkürlich war. Ich hatte nie richtig das Gefühl, die Zeichen sind wirklich schlecht oder gut, aber ich musste irgendetwas angeben um weiter machen zu können und habe mich wie ein Betrüger gefühlt etwas anzugeben, wovon ich gerade gar keine Ahnung habe...","0","1","0","3201.2950000353158","","","","","neg","GS","GSold","2","category2/CS2.png","7","targets/11.png","direct","",""
"","image-slider-response","135","518681","0.0-8.0-0.45","ch9zvf20wz","many_one","0","direct_first","1","id05us15","0","23","1","1","1","1","Ich fand die Teilnahme schwierig, weil es manchmal so willkürlich war. Ich hatte nie richtig das Gefühl, die Zeichen sind wirklich schlecht oder gut, aber ich musste irgendetwas angeben um weiter machen zu können und habe mich wie ein Betrüger gefühlt etwas anzugeben, wovon ich gerade gar keine Ahnung habe...","0","1","0","3076.9200001377612","","","","","neg","GS","GSnew","3","category3/GS2.png","-9","targets/23.png","direct","",""
"","image-slider-response","136","521810","0.0-8.0-0.46","ch9zvf20wz","many_one","0","direct_first","1","id05us15","0","23","1","1","1","1","Ich fand die Teilnahme schwierig, weil es manchmal so willkürlich war. Ich hatte nie richtig das Gefühl, die Zeichen sind wirklich schlecht oder gut, aber ich musste irgendetwas angeben um weiter machen zu können und habe mich wie ein Betrüger gefühlt etwas anzugeben, wovon ich gerade gar keine Ahnung habe...","0","1","0","3125.0499999150634","","","","","pos","CS","CS","4","category4/CS9.png","-10","targets/2.png","direct","",""
"","image-slider-response","137","524213","0.0-8.0-0.47","ch9zvf20wz","many_one","0","direct_first","1","id05us15","0","23","1","1","1","1","Ich fand die Teilnahme schwierig, weil es manchmal so willkürlich war. Ich hatte nie richtig das Gefühl, die Zeichen sind wirklich schlecht oder gut, aber ich musste irgendetwas angeben um weiter machen zu können und habe mich wie ein Betrüger gefühlt etwas anzugeben, wovon ich gerade gar keine Ahnung habe...","0","1","0","2399.8349998146296","","","","","neg","CS","CS","3","category3/CS9.png","-12","targets/22.png","direct","",""
"","html-keyboard-response","138","564312","0.0-9.0","ch9zvf20wz","many_one","0","direct_first","1","id05us15","0","23","1","1","1","1","Ich fand die Teilnahme schwierig, weil es manchmal so willkürlich war. Ich hatte nie richtig das Gefühl, die Zeichen sind wirklich schlecht oder gut, aber ich musste irgendetwas angeben um weiter machen zu können und habe mich wie ein Betrüger gefühlt etwas anzugeben, wovon ich gerade gar keine Ahnung habe...","0","1","0","40095.72500013746","","","<p>Sie sehen nun die chinesischen Zeichen nur ganz kurz. Danach sehen Sie die jeweilige Aussprache der Zeichen als Silbe auf dem Bildschrim. Ihre Aufgabe ist es, für jede Silbe anzugeben, ob diese etwas angenehmes, oder unangenehmes bedeuten könnte. Verlassen Sie sich hier vor allem auf Ihre Intuition.<br><br>Die Zeichen werden nur zur Orientierung dargestellt, beachten Sie sie deshalb nicht. Konzentrieren Sie sich vor allem auf die Silben. <br>Reagieren Sie mit folgenden zwei Tasten: <br><br><b>'D' </b> wenn die Silbe etwas <b>unangenehmes</b> bedeuten könnte. <br><b>'K'</b> wenn die Silbe etwas <b>angenehmes</b> bedeuten könnte. <br><br>Bitte legen Sie nun den Zeigefinger der linken Hand auf die Taste 'D' und den Zeigefinger der rechten Hand auf die Taste 'K'. <br>Reagieren Sie auf jede Silbe so schnell wie möglich. Uns interessiert Ihre spontane Reaktion. <br> <br> <br>Drücken Sie 'D' oder 'K', um die nächste Aufgabe zu starten. </p>","75","","","","","","","","","",""
"","html-keyboard-response","139","567340","0.0-10.0-0.0","ch9zvf20wz","many_one","0","direct_first","1","id05us15","0","23","1","1","1","1","Ich fand die Teilnahme schwierig, weil es manchmal so willkürlich war. Ich hatte nie richtig das Gefühl, die Zeichen sind wirklich schlecht oder gut, aber ich musste irgendetwas angeben um weiter machen zu können und habe mich wie ein Betrüger gefühlt etwas anzugeben, wovon ich gerade gar keine Ahnung habe...","0","1","0","null","","","<div style=""font-size:60px;"">+</div>","null","","","","","","","","","",""
"","html-keyboard-response","140","567436","0.0-10.0-1.0","ch9zvf20wz","many_one","0","direct_first","1","id05us15","0","23","1","1","1","1","Ich fand die Teilnahme schwierig, weil es manchmal so willkürlich war. Ich hatte nie richtig das Gefühl, die Zeichen sind wirklich schlecht oder gut, aber ich musste irgendetwas angeben um weiter machen zu können und habe mich wie ein Betrüger gefühlt etwas anzugeben, wovon ich gerade gar keine Ahnung habe...","0","1","0","null","","","<img src = 'category3/CS4.png' width = '100%;'>","null","","","","","","","","","",""
"","html-keyboard-response","141","567697","0.0-10.0-2.0","ch9zvf20wz","many_one","0","direct_first","1","id05us15","0","23","1","1","1","1","Ich fand die Teilnahme schwierig, weil es manchmal so willkürlich war. Ich hatte nie richtig das Gefühl, die Zeichen sind wirklich schlecht oder gut, aber ich musste irgendetwas angeben um weiter machen zu können und habe mich wie ein Betrüger gefühlt etwas anzugeben, wovon ich gerade gar keine Ahnung habe...","0","1","0","null","","","<img src = 'targets/37.png' width = '100%;'>","null","","","","","","","","","",""
"","html-keyboard-response","142","572967","0.0-10.0-3.0","ch9zvf20wz","many_one","0","direct_first","1","id05us15","0","23","1","1","1","1","Ich fand die Teilnahme schwierig, weil es manchmal so willkürlich war. Ich hatte nie richtig das Gefühl, die Zeichen sind wirklich schlecht oder gut, aber ich musste irgendetwas angeben um weiter machen zu können und habe mich wie ein Betrüger gefühlt etwas anzugeben, wovon ich gerade gar keine Ahnung habe...","0","1","0","5263.4199999738485","","","<img src = 'targets/mask.png' width = '100%;'>","68","neg","CS","CS","3","category3/CS4.png","","targets/37.png","indirect","0","0"
"","html-keyboard-response","143","574483","0.0-10.0-0.1","ch9zvf20wz","many_one","0","direct_first","1","id05us15","0","23","1","1","1","1","Ich fand die Teilnahme schwierig, weil es manchmal so willkürlich war. Ich hatte nie richtig das Gefühl, die Zeichen sind wirklich schlecht oder gut, aber ich musste irgendetwas angeben um weiter machen zu können und habe mich wie ein Betrüger gefühlt etwas anzugeben, wovon ich gerade gar keine Ahnung habe...","0","1","0","null","","","<div style=""font-size:60px;"">+</div>","null","","","","","","","","","",""
"","html-keyboard-response","144","574588","0.0-10.0-1.1","ch9zvf20wz","many_one","0","direct_first","1","id05us15","0","23","1","1","1","1","Ich fand die Teilnahme schwierig, weil es manchmal so willkürlich war. Ich hatte nie richtig das Gefühl, die Zeichen sind wirklich schlecht oder gut, aber ich musste irgendetwas angeben um weiter machen zu können und habe mich wie ein Betrüger gefühlt etwas anzugeben, wovon ich gerade gar keine Ahnung habe...","0","1","0","null","","","<img src = 'category3/CS10.png' width = '100%;'>","null","","","","","","","","","",""
"","html-keyboard-response","145","574853","0.0-10.0-2.1","ch9zvf20wz","many_one","0","direct_first","1","id05us15","0","23","1","1","1","1","Ich fand die Teilnahme schwierig, weil es manchmal so willkürlich war. Ich hatte nie richtig das Gefühl, die Zeichen sind wirklich schlecht oder gut, aber ich musste irgendetwas angeben um weiter machen zu können und habe mich wie ein Betrüger gefühlt etwas anzugeben, wovon ich gerade gar keine Ahnung habe...","0","1","0","null","","","<img src = 'targets/16.png' width = '100%;'>","null","","","","","","","","","",""
"","html-keyboard-response","146","576336","0.0-10.0-3.1","ch9zvf20wz","many_one","0","direct_first","1","id05us15","0","23","1","1","1","1","Ich fand die Teilnahme schwierig, weil es manchmal so willkürlich war. Ich hatte nie richtig das Gefühl, die Zeichen sind wirklich schlecht oder gut, aber ich musste irgendetwas angeben um weiter machen zu können und habe mich wie ein Betrüger gefühlt etwas anzugeben, wovon ich gerade gar keine Ahnung habe...","0","1","0","1478.1349999830127","","","<img src = 'targets/mask.png' width = '100%;'>","75","neg","CS","CS","3","category3/CS10.png","","targets/16.png","indirect","1","1"
"","html-keyboard-response","147","577851","0.0-10.0-0.2","ch9zvf20wz","many_one","0","direct_first","1","id05us15","0","23","1","1","1","1","Ich fand die Teilnahme schwierig, weil es manchmal so willkürlich war. Ich hatte nie richtig das Gefühl, die Zeichen sind wirklich schlecht oder gut, aber ich musste irgendetwas angeben um weiter machen zu können und habe mich wie ein Betrüger gefühlt etwas anzugeben, wovon ich gerade gar keine Ahnung habe...","0","1","0","null","","","<div style=""font-size:60px;"">+</div>","null","","","","","","","","","",""
"","html-keyboard-response","148","577956","0.0-10.0-1.2","ch9zvf20wz","many_one","0","direct_first","1","id05us15","0","23","1","1","1","1","Ich fand die Teilnahme schwierig, weil es manchmal so willkürlich war. Ich hatte nie richtig das Gefühl, die Zeichen sind wirklich schlecht oder gut, aber ich musste irgendetwas angeben um weiter machen zu können und habe mich wie ein Betrüger gefühlt etwas anzugeben, wovon ich gerade gar keine Ahnung habe...","0","1","0","null","","","<img src = 'category4/CS6.png' width = '100%;'>","null","","","","","","","","","",""
"","html-keyboard-response","149","578233","0.0-10.0-2.2","ch9zvf20wz","many_one","0","direct_first","1","id05us15","0","23","1","1","1","1","Ich fand die Teilnahme schwierig, weil es manchmal so willkürlich war. Ich hatte nie richtig das Gefühl, die Zeichen sind wirklich schlecht oder gut, aber ich musste irgendetwas angeben um weiter machen zu können und habe mich wie ein Betrüger gefühlt etwas anzugeben, wovon ich gerade gar keine Ahnung habe...","0","1","0","null","","","<img src = 'targets/7.png' width = '100%;'>","null","","","","","","","","","",""
"","html-keyboard-response","150","579713","0.0-10.0-3.2","ch9zvf20wz","many_one","0","direct_first","1","id05us15","0","23","1","1","1","1","Ich fand die Teilnahme schwierig, weil es manchmal so willkürlich war. Ich hatte nie richtig das Gefühl, die Zeichen sind wirklich schlecht oder gut, aber ich musste irgendetwas angeben um weiter machen zu können und habe mich wie ein Betrüger gefühlt etwas anzugeben, wovon ich gerade gar keine Ahnung habe...","0","1","0","1475.6050000432879","","","<img src = 'targets/mask.png' width = '100%;'>","75","pos","CS","CS","4","category4/CS6.png","","targets/7.png","indirect","1","2"
"","html-keyboard-response","151","581243","0.0-10.0-0.3","ch9zvf20wz","many_one","0","direct_first","1","id05us15","0","23","1","1","1","1","Ich fand die Teilnahme schwierig, weil es manchmal so willkürlich war. Ich hatte nie richtig das Gefühl, die Zeichen sind wirklich schlecht oder gut, aber ich musste irgendetwas angeben um weiter machen zu können und habe mich wie ein Betrüger gefühlt etwas anzugeben, wovon ich gerade gar keine Ahnung habe...","0","1","0","null","","","<div style=""font-size:60px;"">+</div>","null","","","","","","","","","",""
