"success","trial_type","trial_index","time_elapsed","internal_node_id","subject","condition","condition_code","measure","measure_code","codeword","gender","age","education","chinese","fach","handedness","comment","hinschauen","ablenkung","gewissenhaft","rt","url","responses","stimulus","key_press","val","type","type_specific","category","cs_selected","target","indirect","task","nr_pres","response"
"true","fullscreen","0","20987","0.0-0.0","xkqsx2orfx","one_one","1","indirect_first","0","ni05al18","1","21","1","1","3","1","","0","1","0","","","","","","","","","","","","","","",""
"","external-html","1","25251","0.0-1.0","xkqsx2orfx","one_one","1","indirect_first","0","ni05al18","1","21","1","1","3","1","","0","1","0","4208.765000000312","text/information.html","","","","","","","","","","","","",""
"","external-html","2","35688","0.0-2.0","xkqsx2orfx","one_one","1","indirect_first","0","ni05al18","1","21","1","1","3","1","","0","1","0","10337.249999999585","text/consent.html","","","","","","","","","","","","",""
"","survey-html-form","3","85671","0.0-3.0","xkqsx2orfx","one_one","1","indirect_first","0","ni05al18","1","21","1","1","3","1","","0","1","0","49975.55000000011","","{""codeword_enter"":""ni05al18""}","","","","","","","","","","","",""
"","survey-html-form","4","100296","0.0-4.0","xkqsx2orfx","one_one","1","indirect_first","0","ni05al18","1","21","1","1","3","1","","0","1","0","14619.015000000218","","{""age"":""21"",""education"":""1"",""subject"":""3"",""gender"":""1"",""handedness"":""1"",""chinese"":""1""}","","","","","","","","","","","",""
"","survey-html-form","5","111757","0.0-5.0","xkqsx2orfx","one_one","1","indirect_first","0","ni05al18","1","21","1","1","3","1","","0","1","0","11454.795000000566","","{}","","","","","","","","","","","",""
"","html-keyboard-response","6","115784","0.0-6.0-0.0-0.0","xkqsx2orfx","one_one","1","indirect_first","0","ni05al18","1","21","1","1","3","1","","0","1","0","null","","","<div class = 'row'><div class = 'column'><img src = 'usneg/9560.bmp' width = '100%;'></div><div class = 'column'><img src = 'category2/CS6.png' width = '70%;'></div></div>","null","neg","CS","CS","2","category2/CS6.png","","","","",""
"","html-keyboard-response","7","118307","0.0-6.0-0.0-0.1","xkqsx2orfx","one_one","1","indirect_first","0","ni05al18","1","21","1","1","3","1","","0","1","0","null","","","<div class = 'row'><div class = 'column'><img src = 'uspos/4625.bmp' width = '100%;'></div><div class = 'column'><img src = 'category1/CS7.png' width = '70%;'></div></div>","null","pos","CS","CS","1","category1/CS7.png","","","","",""
"","html-keyboard-response","8","120823","0.0-6.0-0.0-0.2","xkqsx2orfx","one_one","1","indirect_first","0","ni05al18","1","21","1","1","3","1","","0","1","0","null","","","<div class = 'row'><div class = 'column'><img src = 'usneg/9520.bmp' width = '100%;'></div><div class = 'column'><img src = 'category3/CS5.png' width = '70%;'></div></div>","null","neg","CS","CS","3","category3/CS5.png","","","","",""
"","html-keyboard-response","9","123348","0.0-6.0-0.0-0.3","xkqsx2orfx","one_one","1","indirect_first","0","ni05al18","1","21","1","1","3","1","","0","1","0","null","","","<div class = 'row'><div class = 'column'><img src = 'uspos/2360.bmp' width = '100%;'></div><div class = 'column'><img src = 'category4/CS5.png' width = '70%;'></div></div>","null","pos","CS","CS","4","category4/CS5.png","","","","",""
"","html-keyboard-response","10","125859","0.0-6.0-0.0-0.4","xkqsx2orfx","one_one","1","indirect_first","0","ni05al18","1","21","1","1","3","1","","0","1","0","null","","","<div class = 'row'><div class = 'column'><img src = 'category3/CS5.png' width = '70%;'></div><div class = 'column'><img src = 'usneg/9520.bmp' width = '100%;'></div></div>","null","neg","CS","CS","3","category3/CS5.png","","","","",""
"","html-keyboard-response","11","128396","0.0-6.0-0.0-0.5","xkqsx2orfx","one_one","1","indirect_first","0","ni05al18","1","21","1","1","3","1","","0","1","0","null","","","<div class = 'row'><div class = 'column'><img src = 'uspos/4625.bmp' width = '100%;'></div><div class = 'column'><img src = 'category1/CS7.png' width = '70%;'></div></div>","null","pos","CS","CS","1","category1/CS7.png","","","","",""
"","html-keyboard-response","12","130909","0.0-6.0-0.0-0.6","xkqsx2orfx","one_one","1","indirect_first","0","ni05al18","1","21","1","1","3","1","","0","1","0","null","","","<div class = 'row'><div class = 'column'><img src = 'category3/CS5.png' width = '70%;'></div><div class = 'column'><img src = 'usneg/9520.bmp' width = '100%;'></div></div>","null","neg","CS","CS","3","category3/CS5.png","","","","",""
"","html-keyboard-response","13","133426","0.0-6.0-0.0-0.7","xkqsx2orfx","one_one","1","indirect_first","0","ni05al18","1","21","1","1","3","1","","0","1","0","null","","","<div class = 'row'><div class = 'column'><img src = 'usneg/9560.bmp' width = '100%;'></div><div class = 'column'><img src = 'category2/CS6.png' width = '70%;'></div></div>","null","neg","CS","CS","2","category2/CS6.png","","","","",""
"","html-keyboard-response","14","135954","0.0-6.0-0.0-0.8","xkqsx2orfx","one_one","1","indirect_first","0","ni05al18","1","21","1","1","3","1","","0","1","0","null","","","<div class = 'row'><div class = 'column'><img src = 'category3/CS5.png' width = '70%;'></div><div class = 'column'><img src = 'usneg/9520.bmp' width = '100%;'></div></div>","null","neg","CS","CS","3","category3/CS5.png","","","","",""
"","html-keyboard-response","15","138463","0.0-6.0-0.0-0.9","xkqsx2orfx","one_one","1","indirect_first","0","ni05al18","1","21","1","1","3","1","","0","1","0","null","","","<div class = 'row'><div class = 'column'><img src = 'usneg/9560.bmp' width = '100%;'></div><div class = 'column'><img src = 'category2/CS6.png' width = '70%;'></div></div>","null","neg","CS","CS","2","category2/CS6.png","","","","",""
"","html-keyboard-response","16","140985","0.0-6.0-0.0-0.10","xkqsx2orfx","one_one","1","indirect_first","0","ni05al18","1","21","1","1","3","1","","0","1","0","null","","","<div class = 'row'><div class = 'column'><img src = 'category4/CS5.png' width = '70%;'></div><div class = 'column'><img src = 'uspos/2360.bmp' width = '100%;'></div></div>","null","pos","CS","CS","4","category4/CS5.png","","","","",""
"","html-keyboard-response","17","143502","0.0-6.0-0.0-0.11","xkqsx2orfx","one_one","1","indirect_first","0","ni05al18","1","21","1","1","3","1","","0","1","0","null","","","<div class = 'row'><div class = 'column'><img src = 'category1/CS7.png' width = '70%;'></div><div class = 'column'><img src = 'uspos/4625.bmp' width = '100%;'></div></div>","null","pos","CS","CS","1","category1/CS7.png","","","","",""
"","html-keyboard-response","18","146029","0.0-6.0-0.0-0.12","xkqsx2orfx","one_one","1","indirect_first","0","ni05al18","1","21","1","1","3","1","","0","1","0","null","","","<div class = 'row'><div class = 'column'><img src = 'uspos/2360.bmp' width = '100%;'></div><div class = 'column'><img src = 'category4/CS5.png' width = '70%;'></div></div>","null","pos","CS","CS","4","category4/CS5.png","","","","",""
"","html-keyboard-response","19","148558","0.0-6.0-0.0-0.13","xkqsx2orfx","one_one","1","indirect_first","0","ni05al18","1","21","1","1","3","1","","0","1","0","null","","","<div class = 'row'><div class = 'column'><img src = 'category1/CS7.png' width = '70%;'></div><div class = 'column'><img src = 'uspos/4625.bmp' width = '100%;'></div></div>","null","pos","CS","CS","1","category1/CS7.png","","","","",""
"","html-keyboard-response","20","151087","0.0-6.0-0.0-0.14","xkqsx2orfx","one_one","1","indirect_first","0","ni05al18","1","21","1","1","3","1","","0","1","0","null","","","<div class = 'row'><div class = 'column'><img src = 'category4/CS5.png' width = '70%;'></div><div class = 'column'><img src = 'uspos/2360.bmp' width = '100%;'></div></div>","null","pos","CS","CS","4","category4/CS5.png","","","","",""
"","html-keyboard-response","21","153610","0.0-6.0-0.0-0.15","xkqsx2orfx","one_one","1","indirect_first","0","ni05al18","1","21","1","1","3","1","","0","1","0","null","","","<div class = 'row'><div class = 'column'><img src = 'uspos/4625.bmp' width = '100%;'></div><div class = 'column'><img src = 'category1/CS7.png' width = '70%;'></div></div>","null","pos","CS","CS","1","category1/CS7.png","","","","",""
"","html-keyboard-response","22","156125","0.0-6.0-0.0-0.16","xkqsx2orfx","one_one","1","indirect_first","0","ni05al18","1","21","1","1","3","1","","0","1","0","null","","","<div class = 'row'><div class = 'column'><img src = 'category2/CS6.png' width = '70%;'></div><div class = 'column'><img src = 'usneg/9560.bmp' width = '100%;'></div></div>","null","neg","CS","CS","2","category2/CS6.png","","","","",""
"","html-keyboard-response","23","158653","0.0-6.0-0.0-0.17","xkqsx2orfx","one_one","1","indirect_first","0","ni05al18","1","21","1","1","3","1","","0","1","0","null","","","<div class = 'row'><div class = 'column'><img src = 'category4/CS5.png' width = '70%;'></div><div class = 'column'><img src = 'uspos/2360.bmp' width = '100%;'></div></div>","null","pos","CS","CS","4","category4/CS5.png","","","","",""
"","html-keyboard-response","24","161170","0.0-6.0-0.0-0.18","xkqsx2orfx","one_one","1","indirect_first","0","ni05al18","1","21","1","1","3","1","","0","1","0","null","","","<div class = 'row'><div class = 'column'><img src = 'usneg/9520.bmp' width = '100%;'></div><div class = 'column'><img src = 'category3/CS5.png' width = '70%;'></div></div>","null","neg","CS","CS","3","category3/CS5.png","","","","",""
"","html-keyboard-response","25","163683","0.0-6.0-0.0-0.19","xkqsx2orfx","one_one","1","indirect_first","0","ni05al18","1","21","1","1","3","1","","0","1","0","null","","","<div class = 'row'><div class = 'column'><img src = 'usneg/9560.bmp' width = '100%;'></div><div class = 'column'><img src = 'category2/CS6.png' width = '70%;'></div></div>","null","neg","CS","CS","2","category2/CS6.png","","","","",""
"","survey-html-form","26","167726","0.0-6.0-1.0","xkqsx2orfx","one_one","1","indirect_first","0","ni05al18","1","21","1","1","3","1","","0","1","0","3538.6749999997846","","{}","","","","","","","","","","","",""
"","html-keyboard-response","27","171752","0.0-6.0-2.0-0.0","xkqsx2orfx","one_one","1","indirect_first","0","ni05al18","1","21","1","1","3","1","","0","1","0","null","","","<div class = 'row'><div class = 'column'><img src = 'category3/CS5.png' width = '70%;'></div><div class = 'column'><img src = 'usneg/9520.bmp' width = '100%;'></div></div>","null","neg","CS","CS","3","category3/CS5.png","","","","",""
"","html-keyboard-response","28","174274","0.0-6.0-2.0-0.1","xkqsx2orfx","one_one","1","indirect_first","0","ni05al18","1","21","1","1","3","1","","0","1","0","null","","","<div class = 'row'><div class = 'column'><img src = 'category1/CS7.png' width = '70%;'></div><div class = 'column'><img src = 'uspos/4625.bmp' width = '100%;'></div></div>","null","pos","CS","CS","1","category1/CS7.png","","","","",""
"","html-keyboard-response","29","176793","0.0-6.0-2.0-0.2","xkqsx2orfx","one_one","1","indirect_first","0","ni05al18","1","21","1","1","3","1","","0","1","0","null","","","<div class = 'row'><div class = 'column'><img src = 'category4/CS5.png' width = '70%;'></div><div class = 'column'><img src = 'uspos/2360.bmp' width = '100%;'></div></div>","null","pos","CS","CS","4","category4/CS5.png","","","","",""
"","html-keyboard-response","30","179319","0.0-6.0-2.0-0.3","xkqsx2orfx","one_one","1","indirect_first","0","ni05al18","1","21","1","1","3","1","","0","1","0","null","","","<div class = 'row'><div class = 'column'><img src = 'usneg/9560.bmp' width = '100%;'></div><div class = 'column'><img src = 'category2/CS6.png' width = '70%;'></div></div>","null","neg","CS","CS","2","category2/CS6.png","","","","",""
"","html-keyboard-response","31","181837","0.0-6.0-2.0-0.4","xkqsx2orfx","one_one","1","indirect_first","0","ni05al18","1","21","1","1","3","1","","0","1","0","null","","","<div class = 'row'><div class = 'column'><img src = 'usneg/9520.bmp' width = '100%;'></div><div class = 'column'><img src = 'category3/CS5.png' width = '70%;'></div></div>","null","neg","CS","CS","3","category3/CS5.png","","","","",""
"","html-keyboard-response","32","184361","0.0-6.0-2.0-0.5","xkqsx2orfx","one_one","1","indirect_first","0","ni05al18","1","21","1","1","3","1","","0","1","0","null","","","<div class = 'row'><div class = 'column'><img src = 'category4/CS5.png' width = '70%;'></div><div class = 'column'><img src = 'uspos/2360.bmp' width = '100%;'></div></div>","null","pos","CS","CS","4","category4/CS5.png","","","","",""
"","html-keyboard-response","33","186875","0.0-6.0-2.0-0.6","xkqsx2orfx","one_one","1","indirect_first","0","ni05al18","1","21","1","1","3","1","","0","1","0","null","","","<div class = 'row'><div class = 'column'><img src = 'usneg/9560.bmp' width = '100%;'></div><div class = 'column'><img src = 'category2/CS6.png' width = '70%;'></div></div>","null","neg","CS","CS","2","category2/CS6.png","","","","",""
"","html-keyboard-response","34","189408","0.0-6.0-2.0-0.7","xkqsx2orfx","one_one","1","indirect_first","0","ni05al18","1","21","1","1","3","1","","0","1","0","null","","","<div class = 'row'><div class = 'column'><img src = 'category1/CS7.png' width = '70%;'></div><div class = 'column'><img src = 'uspos/4625.bmp' width = '100%;'></div></div>","null","pos","CS","CS","1","category1/CS7.png","","","","",""
"","html-keyboard-response","35","191940","0.0-6.0-2.0-0.8","xkqsx2orfx","one_one","1","indirect_first","0","ni05al18","1","21","1","1","3","1","","0","1","0","null","","","<div class = 'row'><div class = 'column'><img src = 'usneg/9560.bmp' width = '100%;'></div><div class = 'column'><img src = 'category2/CS6.png' width = '70%;'></div></div>","null","neg","CS","CS","2","category2/CS6.png","","","","",""
"","html-keyboard-response","36","194465","0.0-6.0-2.0-0.9","xkqsx2orfx","one_one","1","indirect_first","0","ni05al18","1","21","1","1","3","1","","0","1","0","null","","","<div class = 'row'><div class = 'column'><img src = 'category4/CS5.png' width = '70%;'></div><div class = 'column'><img src = 'uspos/2360.bmp' width = '100%;'></div></div>","null","pos","CS","CS","4","category4/CS5.png","","","","",""
"","html-keyboard-response","37","196978","0.0-6.0-2.0-0.10","xkqsx2orfx","one_one","1","indirect_first","0","ni05al18","1","21","1","1","3","1","","0","1","0","null","","","<div class = 'row'><div class = 'column'><img src = 'usneg/9520.bmp' width = '100%;'></div><div class = 'column'><img src = 'category3/CS5.png' width = '70%;'></div></div>","null","neg","CS","CS","3","category3/CS5.png","","","","",""
"","html-keyboard-response","38","199489","0.0-6.0-2.0-0.11","xkqsx2orfx","one_one","1","indirect_first","0","ni05al18","1","21","1","1","3","1","","0","1","0","null","","","<div class = 'row'><div class = 'column'><img src = 'category2/CS6.png' width = '70%;'></div><div class = 'column'><img src = 'usneg/9560.bmp' width = '100%;'></div></div>","null","neg","CS","CS","2","category2/CS6.png","","","","",""
"","html-keyboard-response","39","202006","0.0-6.0-2.0-0.12","xkqsx2orfx","one_one","1","indirect_first","0","ni05al18","1","21","1","1","3","1","","0","1","0","null","","","<div class = 'row'><div class = 'column'><img src = 'uspos/4625.bmp' width = '100%;'></div><div class = 'column'><img src = 'category1/CS7.png' width = '70%;'></div></div>","null","pos","CS","CS","1","category1/CS7.png","","","","",""
"","html-keyboard-response","40","204521","0.0-6.0-2.0-0.13","xkqsx2orfx","one_one","1","indirect_first","0","ni05al18","1","21","1","1","3","1","","0","1","0","null","","","<div class = 'row'><div class = 'column'><img src = 'uspos/2360.bmp' width = '100%;'></div><div class = 'column'><img src = 'category4/CS5.png' width = '70%;'></div></div>","null","pos","CS","CS","4","category4/CS5.png","","","","",""
"","html-keyboard-response","41","207037","0.0-6.0-2.0-0.14","xkqsx2orfx","one_one","1","indirect_first","0","ni05al18","1","21","1","1","3","1","","0","1","0","null","","","<div class = 'row'><div class = 'column'><img src = 'uspos/4625.bmp' width = '100%;'></div><div class = 'column'><img src = 'category1/CS7.png' width = '70%;'></div></div>","null","pos","CS","CS","1","category1/CS7.png","","","","",""
"","html-keyboard-response","42","209552","0.0-6.0-2.0-0.15","xkqsx2orfx","one_one","1","indirect_first","0","ni05al18","1","21","1","1","3","1","","0","1","0","null","","","<div class = 'row'><div class = 'column'><img src = 'uspos/2360.bmp' width = '100%;'></div><div class = 'column'><img src = 'category4/CS5.png' width = '70%;'></div></div>","null","pos","CS","CS","4","category4/CS5.png","","","","",""
"","html-keyboard-response","43","212082","0.0-6.0-2.0-0.16","xkqsx2orfx","one_one","1","indirect_first","0","ni05al18","1","21","1","1","3","1","","0","1","0","null","","","<div class = 'row'><div class = 'column'><img src = 'category3/CS5.png' width = '70%;'></div><div class = 'column'><img src = 'usneg/9520.bmp' width = '100%;'></div></div>","null","neg","CS","CS","3","category3/CS5.png","","","","",""
"","html-keyboard-response","44","214603","0.0-6.0-2.0-0.17","xkqsx2orfx","one_one","1","indirect_first","0","ni05al18","1","21","1","1","3","1","","0","1","0","null","","","<div class = 'row'><div class = 'column'><img src = 'category2/CS6.png' width = '70%;'></div><div class = 'column'><img src = 'usneg/9560.bmp' width = '100%;'></div></div>","null","neg","CS","CS","2","category2/CS6.png","","","","",""
"","html-keyboard-response","45","217123","0.0-6.0-2.0-0.18","xkqsx2orfx","one_one","1","indirect_first","0","ni05al18","1","21","1","1","3","1","","0","1","0","null","","","<div class = 'row'><div class = 'column'><img src = 'usneg/9520.bmp' width = '100%;'></div><div class = 'column'><img src = 'category3/CS5.png' width = '70%;'></div></div>","null","neg","CS","CS","3","category3/CS5.png","","","","",""
"","html-keyboard-response","46","219632","0.0-6.0-2.0-0.19","xkqsx2orfx","one_one","1","indirect_first","0","ni05al18","1","21","1","1","3","1","","0","1","0","null","","","<div class = 'row'><div class = 'column'><img src = 'uspos/4625.bmp' width = '100%;'></div><div class = 'column'><img src = 'category1/CS7.png' width = '70%;'></div></div>","null","pos","CS","CS","1","category1/CS7.png","","","","",""
"","survey-html-form","47","221574","0.0-6.0-3.0","xkqsx2orfx","one_one","1","indirect_first","0","ni05al18","1","21","1","1","3","1","","0","1","0","1425.2700000006298","","{}","","","","","","","","","","","",""
"","html-keyboard-response","48","225597","0.0-6.0-4.0-0.0","xkqsx2orfx","one_one","1","indirect_first","0","ni05al18","1","21","1","1","3","1","","0","1","0","null","","","<div class = 'row'><div class = 'column'><img src = 'usneg/9520.bmp' width = '100%;'></div><div class = 'column'><img src = 'category3/CS5.png' width = '70%;'></div></div>","null","neg","CS","CS","3","category3/CS5.png","","","","",""
"","html-keyboard-response","49","228109","0.0-6.0-4.0-0.1","xkqsx2orfx","one_one","1","indirect_first","0","ni05al18","1","21","1","1","3","1","","0","1","0","null","","","<div class = 'row'><div class = 'column'><img src = 'uspos/4625.bmp' width = '100%;'></div><div class = 'column'><img src = 'category1/CS7.png' width = '70%;'></div></div>","null","pos","CS","CS","1","category1/CS7.png","","","","",""
"","html-keyboard-response","50","230623","0.0-6.0-4.0-0.2","xkqsx2orfx","one_one","1","indirect_first","0","ni05al18","1","21","1","1","3","1","","0","1","0","null","","","<div class = 'row'><div class = 'column'><img src = 'category4/CS5.png' width = '70%;'></div><div class = 'column'><img src = 'uspos/2360.bmp' width = '100%;'></div></div>","null","pos","CS","CS","4","category4/CS5.png","","","","",""
"","html-keyboard-response","51","233136","0.0-6.0-4.0-0.3","xkqsx2orfx","one_one","1","indirect_first","0","ni05al18","1","21","1","1","3","1","","0","1","0","null","","","<div class = 'row'><div class = 'column'><img src = 'uspos/4625.bmp' width = '100%;'></div><div class = 'column'><img src = 'category1/CS7.png' width = '70%;'></div></div>","null","pos","CS","CS","1","category1/CS7.png","","","","",""
"","html-keyboard-response","52","235648","0.0-6.0-4.0-0.4","xkqsx2orfx","one_one","1","indirect_first","0","ni05al18","1","21","1","1","3","1","","0","1","0","null","","","<div class = 'row'><div class = 'column'><img src = 'usneg/9520.bmp' width = '100%;'></div><div class = 'column'><img src = 'category3/CS5.png' width = '70%;'></div></div>","null","neg","CS","CS","3","category3/CS5.png","","","","",""
"","html-keyboard-response","53","238160","0.0-6.0-4.0-0.5","xkqsx2orfx","one_one","1","indirect_first","0","ni05al18","1","21","1","1","3","1","","0","1","0","null","","","<div class = 'row'><div class = 'column'><img src = 'uspos/2360.bmp' width = '100%;'></div><div class = 'column'><img src = 'category4/CS5.png' width = '70%;'></div></div>","null","pos","CS","CS","4","category4/CS5.png","","","","",""
"","html-keyboard-response","54","240673","0.0-6.0-4.0-0.6","xkqsx2orfx","one_one","1","indirect_first","0","ni05al18","1","21","1","1","3","1","","0","1","0","null","","","<div class = 'row'><div class = 'column'><img src = 'category1/CS7.png' width = '70%;'></div><div class = 'column'><img src = 'uspos/4625.bmp' width = '100%;'></div></div>","null","pos","CS","CS","1","category1/CS7.png","","","","",""
"","html-keyboard-response","55","243185","0.0-6.0-4.0-0.7","xkqsx2orfx","one_one","1","indirect_first","0","ni05al18","1","21","1","1","3","1","","0","1","0","null","","","<div class = 'row'><div class = 'column'><img src = 'category2/CS6.png' width = '70%;'></div><div class = 'column'><img src = 'usneg/9560.bmp' width = '100%;'></div></div>","null","neg","CS","CS","2","category2/CS6.png","","","","",""
"","html-keyboard-response","56","245696","0.0-6.0-4.0-0.8","xkqsx2orfx","one_one","1","indirect_first","0","ni05al18","1","21","1","1","3","1","","0","1","0","null","","","<div class = 'row'><div class = 'column'><img src = 'uspos/2360.bmp' width = '100%;'></div><div class = 'column'><img src = 'category4/CS5.png' width = '70%;'></div></div>","null","pos","CS","CS","4","category4/CS5.png","","","","",""
"","html-keyboard-response","57","248207","0.0-6.0-4.0-0.9","xkqsx2orfx","one_one","1","indirect_first","0","ni05al18","1","21","1","1","3","1","","0","1","0","null","","","<div class = 'row'><div class = 'column'><img src = 'usneg/9560.bmp' width = '100%;'></div><div class = 'column'><img src = 'category2/CS6.png' width = '70%;'></div></div>","null","neg","CS","CS","2","category2/CS6.png","","","","",""
"","html-keyboard-response","58","250721","0.0-6.0-4.0-0.10","xkqsx2orfx","one_one","1","indirect_first","0","ni05al18","1","21","1","1","3","1","","0","1","0","null","","","<div class = 'row'><div class = 'column'><img src = 'category3/CS5.png' width = '70%;'></div><div class = 'column'><img src = 'usneg/9520.bmp' width = '100%;'></div></div>","null","neg","CS","CS","3","category3/CS5.png","","","","",""
"","html-keyboard-response","59","253231","0.0-6.0-4.0-0.11","xkqsx2orfx","one_one","1","indirect_first","0","ni05al18","1","21","1","1","3","1","","0","1","0","null","","","<div class = 'row'><div class = 'column'><img src = 'usneg/9560.bmp' width = '100%;'></div><div class = 'column'><img src = 'category2/CS6.png' width = '70%;'></div></div>","null","neg","CS","CS","2","category2/CS6.png","","","","",""
"","html-keyboard-response","60","255741","0.0-6.0-4.0-0.12","xkqsx2orfx","one_one","1","indirect_first","0","ni05al18","1","21","1","1","3","1","","0","1","0","null","","","<div class = 'row'><div class = 'column'><img src = 'category1/CS7.png' width = '70%;'></div><div class = 'column'><img src = 'uspos/4625.bmp' width = '100%;'></div></div>","null","pos","CS","CS","1","category1/CS7.png","","","","",""
"","html-keyboard-response","61","258265","0.0-6.0-4.0-0.13","xkqsx2orfx","one_one","1","indirect_first","0","ni05al18","1","21","1","1","3","1","","0","1","0","null","","","<div class = 'row'><div class = 'column'><img src = 'usneg/9520.bmp' width = '100%;'></div><div class = 'column'><img src = 'category3/CS5.png' width = '70%;'></div></div>","null","neg","CS","CS","3","category3/CS5.png","","","","",""
"","html-keyboard-response","62","260797","0.0-6.0-4.0-0.14","xkqsx2orfx","one_one","1","indirect_first","0","ni05al18","1","21","1","1","3","1","","0","1","0","null","","","<div class = 'row'><div class = 'column'><img src = 'usneg/9560.bmp' width = '100%;'></div><div class = 'column'><img src = 'category2/CS6.png' width = '70%;'></div></div>","null","neg","CS","CS","2","category2/CS6.png","","","","",""
"","html-keyboard-response","63","263309","0.0-6.0-4.0-0.15","xkqsx2orfx","one_one","1","indirect_first","0","ni05al18","1","21","1","1","3","1","","0","1","0","null","","","<div class = 'row'><div class = 'column'><img src = 'uspos/4625.bmp' width = '100%;'></div><div class = 'column'><img src = 'category1/CS7.png' width = '70%;'></div></div>","null","pos","CS","CS","1","category1/CS7.png","","","","",""
"","html-keyboard-response","64","265823","0.0-6.0-4.0-0.16","xkqsx2orfx","one_one","1","indirect_first","0","ni05al18","1","21","1","1","3","1","","0","1","0","null","","","<div class = 'row'><div class = 'column'><img src = 'category3/CS5.png' width = '70%;'></div><div class = 'column'><img src = 'usneg/9520.bmp' width = '100%;'></div></div>","null","neg","CS","CS","3","category3/CS5.png","","","","",""
"","html-keyboard-response","65","268334","0.0-6.0-4.0-0.17","xkqsx2orfx","one_one","1","indirect_first","0","ni05al18","1","21","1","1","3","1","","0","1","0","null","","","<div class = 'row'><div class = 'column'><img src = 'uspos/2360.bmp' width = '100%;'></div><div class = 'column'><img src = 'category4/CS5.png' width = '70%;'></div></div>","null","pos","CS","CS","4","category4/CS5.png","","","","",""
"","html-keyboard-response","66","270846","0.0-6.0-4.0-0.18","xkqsx2orfx","one_one","1","indirect_first","0","ni05al18","1","21","1","1","3","1","","0","1","0","null","","","<div class = 'row'><div class = 'column'><img src = 'usneg/9560.bmp' width = '100%;'></div><div class = 'column'><img src = 'category2/CS6.png' width = '70%;'></div></div>","null","neg","CS","CS","2","category2/CS6.png","","","","",""
"","html-keyboard-response","67","273362","0.0-6.0-4.0-0.19","xkqsx2orfx","one_one","1","indirect_first","0","ni05al18","1","21","1","1","3","1","","0","1","0","null","","","<div class = 'row'><div class = 'column'><img src = 'uspos/2360.bmp' width = '100%;'></div><div class = 'column'><img src = 'category4/CS5.png' width = '70%;'></div></div>","null","pos","CS","CS","4","category4/CS5.png","","","","",""
"","survey-html-form","68","275778","0.0-6.0-5.0","xkqsx2orfx","one_one","1","indirect_first","0","ni05al18","1","21","1","1","3","1","","0","1","0","1914.2149999997346","","{}","","","","","","","","","","","",""
"","html-keyboard-response","69","279794","0.0-6.0-6.0-0.0","xkqsx2orfx","one_one","1","indirect_first","0","ni05al18","1","21","1","1","3","1","","0","1","0","null","","","<div class = 'row'><div class = 'column'><img src = 'category2/CS6.png' width = '70%;'></div><div class = 'column'><img src = 'usneg/9560.bmp' width = '100%;'></div></div>","null","neg","CS","CS","2","category2/CS6.png","","","","",""
"","html-keyboard-response","70","282305","0.0-6.0-6.0-0.1","xkqsx2orfx","one_one","1","indirect_first","0","ni05al18","1","21","1","1","3","1","","0","1","0","null","","","<div class = 'row'><div class = 'column'><img src = 'uspos/4625.bmp' width = '100%;'></div><div class = 'column'><img src = 'category1/CS7.png' width = '70%;'></div></div>","null","pos","CS","CS","1","category1/CS7.png","","","","",""
"","html-keyboard-response","71","284817","0.0-6.0-6.0-0.2","xkqsx2orfx","one_one","1","indirect_first","0","ni05al18","1","21","1","1","3","1","","0","1","0","null","","","<div class = 'row'><div class = 'column'><img src = 'usneg/9520.bmp' width = '100%;'></div><div class = 'column'><img src = 'category3/CS5.png' width = '70%;'></div></div>","null","neg","CS","CS","3","category3/CS5.png","","","","",""
"","html-keyboard-response","72","287330","0.0-6.0-6.0-0.3","xkqsx2orfx","one_one","1","indirect_first","0","ni05al18","1","21","1","1","3","1","","0","1","0","null","","","<div class = 'row'><div class = 'column'><img src = 'uspos/4625.bmp' width = '100%;'></div><div class = 'column'><img src = 'category1/CS7.png' width = '70%;'></div></div>","null","pos","CS","CS","1","category1/CS7.png","","","","",""
"","html-keyboard-response","73","289837","0.0-6.0-6.0-0.4","xkqsx2orfx","one_one","1","indirect_first","0","ni05al18","1","21","1","1","3","1","","0","1","0","null","","","<div class = 'row'><div class = 'column'><img src = 'category3/CS5.png' width = '70%;'></div><div class = 'column'><img src = 'usneg/9520.bmp' width = '100%;'></div></div>","null","neg","CS","CS","3","category3/CS5.png","","","","",""
"","html-keyboard-response","74","292345","0.0-6.0-6.0-0.5","xkqsx2orfx","one_one","1","indirect_first","0","ni05al18","1","21","1","1","3","1","","0","1","0","null","","","<div class = 'row'><div class = 'column'><img src = 'category4/CS5.png' width = '70%;'></div><div class = 'column'><img src = 'uspos/2360.bmp' width = '100%;'></div></div>","null","pos","CS","CS","4","category4/CS5.png","","","","",""
"","html-keyboard-response","75","294859","0.0-6.0-6.0-0.6","xkqsx2orfx","one_one","1","indirect_first","0","ni05al18","1","21","1","1","3","1","","0","1","0","null","","","<div class = 'row'><div class = 'column'><img src = 'category3/CS5.png' width = '70%;'></div><div class = 'column'><img src = 'usneg/9520.bmp' width = '100%;'></div></div>","null","neg","CS","CS","3","category3/CS5.png","","","","",""
"","html-keyboard-response","76","297388","0.0-6.0-6.0-0.7","xkqsx2orfx","one_one","1","indirect_first","0","ni05al18","1","21","1","1","3","1","","0","1","0","null","","","<div class = 'row'><div class = 'column'><img src = 'category4/CS5.png' width = '70%;'></div><div class = 'column'><img src = 'uspos/2360.bmp' width = '100%;'></div></div>","null","pos","CS","CS","4","category4/CS5.png","","","","",""
"","html-keyboard-response","77","299903","0.0-6.0-6.0-0.8","xkqsx2orfx","one_one","1","indirect_first","0","ni05al18","1","21","1","1","3","1","","0","1","0","null","","","<div class = 'row'><div class = 'column'><img src = 'category2/CS6.png' width = '70%;'></div><div class = 'column'><img src = 'usneg/9560.bmp' width = '100%;'></div></div>","null","neg","CS","CS","2","category2/CS6.png","","","","",""
"","html-keyboard-response","78","302416","0.0-6.0-6.0-0.9","xkqsx2orfx","one_one","1","indirect_first","0","ni05al18","1","21","1","1","3","1","","0","1","0","null","","","<div class = 'row'><div class = 'column'><img src = 'category4/CS5.png' width = '70%;'></div><div class = 'column'><img src = 'uspos/2360.bmp' width = '100%;'></div></div>","null","pos","CS","CS","4","category4/CS5.png","","","","",""
"","html-keyboard-response","79","304929","0.0-6.0-6.0-0.10","xkqsx2orfx","one_one","1","indirect_first","0","ni05al18","1","21","1","1","3","1","","0","1","0","null","","","<div class = 'row'><div class = 'column'><img src = 'uspos/4625.bmp' width = '100%;'></div><div class = 'column'><img src = 'category1/CS7.png' width = '70%;'></div></div>","null","pos","CS","CS","1","category1/CS7.png","","","","",""
"","html-keyboard-response","80","307442","0.0-6.0-6.0-0.11","xkqsx2orfx","one_one","1","indirect_first","0","ni05al18","1","21","1","1","3","1","","0","1","0","null","","","<div class = 'row'><div class = 'column'><img src = 'category2/CS6.png' width = '70%;'></div><div class = 'column'><img src = 'usneg/9560.bmp' width = '100%;'></div></div>","null","neg","CS","CS","2","category2/CS6.png","","","","",""
"","html-keyboard-response","81","309956","0.0-6.0-6.0-0.12","xkqsx2orfx","one_one","1","indirect_first","0","ni05al18","1","21","1","1","3","1","","0","1","0","null","","","<div class = 'row'><div class = 'column'><img src = 'category1/CS7.png' width = '70%;'></div><div class = 'column'><img src = 'uspos/4625.bmp' width = '100%;'></div></div>","null","pos","CS","CS","1","category1/CS7.png","","","","",""
"","html-keyboard-response","82","312470","0.0-6.0-6.0-0.13","xkqsx2orfx","one_one","1","indirect_first","0","ni05al18","1","21","1","1","3","1","","0","1","0","null","","","<div class = 'row'><div class = 'column'><img src = 'category2/CS6.png' width = '70%;'></div><div class = 'column'><img src = 'usneg/9560.bmp' width = '100%;'></div></div>","null","neg","CS","CS","2","category2/CS6.png","","","","",""
"","html-keyboard-response","83","314982","0.0-6.0-6.0-0.14","xkqsx2orfx","one_one","1","indirect_first","0","ni05al18","1","21","1","1","3","1","","0","1","0","null","","","<div class = 'row'><div class = 'column'><img src = 'category3/CS5.png' width = '70%;'></div><div class = 'column'><img src = 'usneg/9520.bmp' width = '100%;'></div></div>","null","neg","CS","CS","3","category3/CS5.png","","","","",""
"","html-keyboard-response","84","317493","0.0-6.0-6.0-0.15","xkqsx2orfx","one_one","1","indirect_first","0","ni05al18","1","21","1","1","3","1","","0","1","0","null","","","<div class = 'row'><div class = 'column'><img src = 'category4/CS5.png' width = '70%;'></div><div class = 'column'><img src = 'uspos/2360.bmp' width = '100%;'></div></div>","null","pos","CS","CS","4","category4/CS5.png","","","","",""
"","html-keyboard-response","85","320007","0.0-6.0-6.0-0.16","xkqsx2orfx","one_one","1","indirect_first","0","ni05al18","1","21","1","1","3","1","","0","1","0","null","","","<div class = 'row'><div class = 'column'><img src = 'category2/CS6.png' width = '70%;'></div><div class = 'column'><img src = 'usneg/9560.bmp' width = '100%;'></div></div>","null","neg","CS","CS","2","category2/CS6.png","","","","",""
"","html-keyboard-response","86","322533","0.0-6.0-6.0-0.17","xkqsx2orfx","one_one","1","indirect_first","0","ni05al18","1","21","1","1","3","1","","0","1","0","null","","","<div class = 'row'><div class = 'column'><img src = 'uspos/4625.bmp' width = '100%;'></div><div class = 'column'><img src = 'category1/CS7.png' width = '70%;'></div></div>","null","pos","CS","CS","1","category1/CS7.png","","","","",""
"","html-keyboard-response","87","325045","0.0-6.0-6.0-0.18","xkqsx2orfx","one_one","1","indirect_first","0","ni05al18","1","21","1","1","3","1","","0","1","0","null","","","<div class = 'row'><div class = 'column'><img src = 'uspos/2360.bmp' width = '100%;'></div><div class = 'column'><img src = 'category4/CS5.png' width = '70%;'></div></div>","null","pos","CS","CS","4","category4/CS5.png","","","","",""
"","html-keyboard-response","88","327560","0.0-6.0-6.0-0.19","xkqsx2orfx","one_one","1","indirect_first","0","ni05al18","1","21","1","1","3","1","","0","1","0","null","","","<div class = 'row'><div class = 'column'><img src = 'category3/CS5.png' width = '70%;'></div><div class = 'column'><img src = 'usneg/9520.bmp' width = '100%;'></div></div>","null","neg","CS","CS","3","category3/CS5.png","","","","",""
"","html-keyboard-response","89","357740","0.0-7.0","xkqsx2orfx","one_one","1","indirect_first","0","ni05al18","1","21","1","1","3","1","","0","1","0","29675.30999999965","","","<p>Sie sehen nun die chinesischen Zeichen nur ganz kurz. Danach sehen Sie die jeweilige Aussprache der Zeichen als Silbe auf dem Bildschrim. Ihre Aufgabe ist es, für jede Silbe anzugeben, ob diese etwas angenehmes, oder unangenehmes bedeuten könnte. Verlassen Sie sich hier vor allem auf Ihre Intuition.<br><br>Die Zeichen werden nur zur Orientierung dargestellt, beachten Sie sie deshalb nicht. Konzentrieren Sie sich vor allem auf die Silben. <br>Reagieren Sie mit folgenden zwei Tasten: <br><br><b>'D' </b> wenn die Silbe etwas <b>unangenehmes</b> bedeuten könnte. <br><b>'K'</b> wenn die Silbe etwas <b>angenehmes</b> bedeuten könnte. <br><br>Bitte legen Sie nun den Zeigefinger der linken Hand auf die Taste 'D' und den Zeigefinger der rechten Hand auf die Taste 'K'. <br>Reagieren Sie auf jede Silbe so schnell wie möglich. Uns interessiert Ihre spontane Reaktion. <br> <br> <br>Drücken Sie 'D' oder 'K', um die nächste Aufgabe zu starten. </p>","75","","","","","","","","","",""
"","html-keyboard-response","90","360755","0.0-8.0-0.0","xkqsx2orfx","one_one","1","indirect_first","0","ni05al18","1","21","1","1","3","1","","0","1","0","null","","","<div style=""font-size:60px;"">+</div>","null","","","","","","","","","",""
"","html-keyboard-response","91","360853","0.0-8.0-1.0","xkqsx2orfx","one_one","1","indirect_first","0","ni05al18","1","21","1","1","3","1","","0","1","0","null","","","<img src = 'category2/CS8.png' width = '100%;'>","null","","","","","","","","","",""
"","html-keyboard-response","92","361119","0.0-8.0-2.0","xkqsx2orfx","one_one","1","indirect_first","0","ni05al18","1","21","1","1","3","1","","0","1","0","null","","","<img src = 'targets/1.png' width = '100%;'>","null","","","","","","","","","",""
"","html-keyboard-response","93","366698","0.0-8.0-3.0","xkqsx2orfx","one_one","1","indirect_first","0","ni05al18","1","21","1","1","3","1","","0","1","0","5576.930000000168","","","<img src = 'targets/mask.png' width = '100%;'>","75","neg","GS","GSold","2","category2/CS8.png","targets/1.png","1","indirect","0",""
"","html-keyboard-response","94","368212","0.0-8.0-0.1","xkqsx2orfx","one_one","1","indirect_first","0","ni05al18","1","21","1","1","3","1","","0","1","0","null","","","<div style=""font-size:60px;"">+</div>","null","","","","","","","","","",""
"","html-keyboard-response","95","368314","0.0-8.0-1.1","xkqsx2orfx","one_one","1","indirect_first","0","ni05al18","1","21","1","1","3","1","","0","1","0","null","","","<img src = 'category3/CS10.png' width = '100%;'>","null","","","","","","","","","",""
"","html-keyboard-response","96","368589","0.0-8.0-2.1","xkqsx2orfx","one_one","1","indirect_first","0","ni05al18","1","21","1","1","3","1","","0","1","0","null","","","<img src = 'targets/10.png' width = '100%;'>","null","","","","","","","","","",""
"","html-keyboard-response","97","369919","0.0-8.0-3.1","xkqsx2orfx","one_one","1","indirect_first","0","ni05al18","1","21","1","1","3","1","","0","1","0","1328.2650000000722","","","<img src = 'targets/mask.png' width = '100%;'>","75","neg","GS","GSold","3","category3/CS10.png","targets/10.png","1","indirect","1",""
"","html-keyboard-response","98","371436","0.0-8.0-0.2","xkqsx2orfx","one_one","1","indirect_first","0","ni05al18","1","21","1","1","3","1","","0","1","0","null","","","<div style=""font-size:60px;"">+</div>","null","","","","","","","","","",""
"","html-keyboard-response","99","371529","0.0-8.0-1.2","xkqsx2orfx","one_one","1","indirect_first","0","ni05al18","1","21","1","1","3","1","","0","1","0","null","","","<img src = 'category2/CS10.png' width = '100%;'>","null","","","","","","","","","",""
"","html-keyboard-response","100","371787","0.0-8.0-2.2","xkqsx2orfx","one_one","1","indirect_first","0","ni05al18","1","21","1","1","3","1","","0","1","0","null","","","<img src = 'targets/40.png' width = '100%;'>","null","","","","","","","","","",""
"","html-keyboard-response","101","372983","0.0-8.0-3.2","xkqsx2orfx","one_one","1","indirect_first","0","ni05al18","1","21","1","1","3","1","","0","1","0","1193.6450000002515","","","<img src = 'targets/mask.png' width = '100%;'>","68","neg","GS","GSold","2","category2/CS10.png","targets/40.png","0","indirect","2",""
"","html-keyboard-response","102","374505","0.0-8.0-0.3","xkqsx2orfx","one_one","1","indirect_first","0","ni05al18","1","21","1","1","3","1","","0","1","0","null","","","<div style=""font-size:60px;"">+</div>","null","","","","","","","","","",""
"","html-keyboard-response","103","374603","0.0-8.0-1.3","xkqsx2orfx","one_one","1","indirect_first","0","ni05al18","1","21","1","1","3","1","","0","1","0","null","","","<img src = 'category4/CS5.png' width = '100%;'>","null","","","","","","","","","",""
"","html-keyboard-response","104","374888","0.0-8.0-2.3","xkqsx2orfx","one_one","1","indirect_first","0","ni05al18","1","21","1","1","3","1","","0","1","0","null","","","<img src = 'targets/33.png' width = '100%;'>","null","","","","","","","","","",""
"","html-keyboard-response","105","375610","0.0-8.0-3.3","xkqsx2orfx","one_one","1","indirect_first","0","ni05al18","1","21","1","1","3","1","","0","1","0","719.7200000000885","","","<img src = 'targets/mask.png' width = '100%;'>","75","pos","CS","CS","4","category4/CS5.png","targets/33.png","1","indirect","3",""
"","html-keyboard-response","106","377133","0.0-8.0-0.4","xkqsx2orfx","one_one","1","indirect_first","0","ni05al18","1","21","1","1","3","1","","0","1","0","null","","","<div style=""font-size:60px;"">+</div>","null","","","","","","","","","",""
"","html-keyboard-response","107","377238","0.0-8.0-1.4","xkqsx2orfx","one_one","1","indirect_first","0","ni05al18","1","21","1","1","3","1","","0","1","0","null","","","<img src = 'category3/CS5.png' width = '100%;'>","null","","","","","","","","","",""
"","html-keyboard-response","108","377521","0.0-8.0-2.4","xkqsx2orfx","one_one","1","indirect_first","0","ni05al18","1","21","1","1","3","1","","0","1","0","null","","","<img src = 'targets/31.png' width = '100%;'>","null","","","","","","","","","",""
"","html-keyboard-response","109","379636","0.0-8.0-3.4","xkqsx2orfx","one_one","1","indirect_first","0","ni05al18","1","21","1","1","3","1","","0","1","0","2113.825000000361","","","<img src = 'targets/mask.png' width = '100%;'>","75","neg","CS","CS","3","category3/CS5.png","targets/31.png","1","indirect","4",""
"","html-keyboard-response","110","381157","0.0-8.0-0.5","xkqsx2orfx","one_one","1","indirect_first","0","ni05al18","1","21","1","1","3","1","","0","1","0","null","","","<div style=""font-size:60px;"">+</div>","null","","","","","","","","","",""
"","html-keyboard-response","111","381263","0.0-8.0-1.5","xkqsx2orfx","one_one","1","indirect_first","0","ni05al18","1","21","1","1","3","1","","0","1","0","null","","","<img src = 'category1/CS3.png' width = '100%;'>","null","","","","","","","","","",""
"","html-keyboard-response","112","381525","0.0-8.0-2.5","xkqsx2orfx","one_one","1","indirect_first","0","ni05al18","1","21","1","1","3","1","","0","1","0","null","","","<img src = 'targets/46.png' width = '100%;'>","null","","","","","","","","","",""
"","html-keyboard-response","113","382935","0.0-8.0-3.5","xkqsx2orfx","one_one","1","indirect_first","0","ni05al18","1","21","1","1","3","1","","0","1","0","1406.6450000000186","","","<img src = 'targets/mask.png' width = '100%;'>","75","pos","GS","GSold","1","category1/CS3.png","targets/46.png","1","indirect","5",""
"","html-keyboard-response","114","384440","0.0-8.0-0.6","xkqsx2orfx","one_one","1","indirect_first","0","ni05al18","1","21","1","1","3","1","","0","1","0","null","","","<div style=""font-size:60px;"">+</div>","null","","","","","","","","","",""
"","html-keyboard-response","115","384542","0.0-8.0-1.6","xkqsx2orfx","one_one","1","indirect_first","0","ni05al18","1","21","1","1","3","1","","0","1","0","null","","","<img src = 'category4/CS9.png' width = '100%;'>","null","","","","","","","","","",""
"","html-keyboard-response","116","384805","0.0-8.0-2.6","xkqsx2orfx","one_one","1","indirect_first","0","ni05al18","1","21","1","1","3","1","","0","1","0","null","","","<img src = 'targets/3.png' width = '100%;'>","null","","","","","","","","","",""
"","html-keyboard-response","117","385769","0.0-8.0-3.6","xkqsx2orfx","one_one","1","indirect_first","0","ni05al18","1","21","1","1","3","1","","0","1","0","961.2250000000349","","","<img src = 'targets/mask.png' width = '100%;'>","75","pos","GS","GSold","4","category4/CS9.png","targets/3.png","1","indirect","6",""
"","html-keyboard-response","118","387291","0.0-8.0-0.7","xkqsx2orfx","one_one","1","indirect_first","0","ni05al18","1","21","1","1","3","1","","0","1","0","null","","","<div style=""font-size:60px;"">+</div>","null","","","","","","","","","",""
"","html-keyboard-response","119","387391","0.0-8.0-1.7","xkqsx2orfx","one_one","1","indirect_first","0","ni05al18","1","21","1","1","3","1","","0","1","0","null","","","<img src = 'category4/CS1.png' width = '100%;'>","null","","","","","","","","","",""
"","html-keyboard-response","120","387656","0.0-8.0-2.7","xkqsx2orfx","one_one","1","indirect_first","0","ni05al18","1","21","1","1","3","1","","0","1","0","null","","","<img src = 'targets/9.png' width = '100%;'>","null","","","","","","","","","",""
"","html-keyboard-response","121","389405","0.0-8.0-3.7","xkqsx2orfx","one_one","1","indirect_first","0","ni05al18","1","21","1","1","3","1","","0","1","0","1747.159999999858","","","<img src = 'targets/mask.png' width = '100%;'>","75","pos","GS","GSold","4","category4/CS1.png","targets/9.png","1","indirect","7",""
"","html-keyboard-response","122","390912","0.0-8.0-0.8","xkqsx2orfx","one_one","1","indirect_first","0","ni05al18","1","21","1","1","3","1","","0","1","0","null","","","<div style=""font-size:60px;"">+</div>","null","","","","","","","","","",""
"","html-keyboard-response","123","391010","0.0-8.0-1.8","xkqsx2orfx","one_one","1","indirect_first","0","ni05al18","1","21","1","1","3","1","","0","1","0","null","","","<img src = 'category2/CS7.png' width = '100%;'>","null","","","","","","","","","",""
"","html-keyboard-response","124","391279","0.0-8.0-2.8","xkqsx2orfx","one_one","1","indirect_first","0","ni05al18","1","21","1","1","3","1","","0","1","0","null","","","<img src = 'targets/23.png' width = '100%;'>","null","","","","","","","","","",""
"","html-keyboard-response","125","391852","0.0-8.0-3.8","xkqsx2orfx","one_one","1","indirect_first","0","ni05al18","1","21","1","1","3","1","","0","1","0","569.8949999996112","","","<img src = 'targets/mask.png' width = '100%;'>","68","neg","GS","GSold","2","category2/CS7.png","targets/23.png","0","indirect","8",""
"","html-keyboard-response","126","393371","0.0-8.0-0.9","xkqsx2orfx","one_one","1","indirect_first","0","ni05al18","1","21","1","1","3","1","","0","1","0","null","","","<div style=""font-size:60px;"">+</div>","null","","","","","","","","","",""
"","html-keyboard-response","127","393472","0.0-8.0-1.9","xkqsx2orfx","one_one","1","indirect_first","0","ni05al18","1","21","1","1","3","1","","0","1","0","null","","","<img src = 'category1/CS1.png' width = '100%;'>","null","","","","","","","","","",""
"","html-keyboard-response","128","393735","0.0-8.0-2.9","xkqsx2orfx","one_one","1","indirect_first","0","ni05al18","1","21","1","1","3","1","","0","1","0","null","","","<img src = 'targets/32.png' width = '100%;'>","null","","","","","","","","","",""
"","html-keyboard-response","129","394849","0.0-8.0-3.9","xkqsx2orfx","one_one","1","indirect_first","0","ni05al18","1","21","1","1","3","1","","0","1","0","1111.3949999999022","","","<img src = 'targets/mask.png' width = '100%;'>","75","pos","GS","GSold","1","category1/CS1.png","targets/32.png","1","indirect","9",""
"","html-keyboard-response","130","396366","0.0-8.0-0.10","xkqsx2orfx","one_one","1","indirect_first","0","ni05al18","1","21","1","1","3","1","","0","1","0","null","","","<div style=""font-size:60px;"">+</div>","null","","","","","","","","","",""
"","html-keyboard-response","131","396486","0.0-8.0-1.10","xkqsx2orfx","one_one","1","indirect_first","0","ni05al18","1","21","1","1","3","1","","0","1","0","null","","","<img src = 'category4/CS6.png' width = '100%;'>","null","","","","","","","","","",""
"","html-keyboard-response","132","396762","0.0-8.0-2.10","xkqsx2orfx","one_one","1","indirect_first","0","ni05al18","1","21","1","1","3","1","","0","1","0","null","","","<img src = 'targets/24.png' width = '100%;'>","null","","","","","","","","","",""
"","html-keyboard-response","133","397577","0.0-8.0-3.10","xkqsx2orfx","one_one","1","indirect_first","0","ni05al18","1","21","1","1","3","1","","0","1","0","812.0550000003423","","","<img src = 'targets/mask.png' width = '100%;'>","68","pos","GS","GSold","4","category4/CS6.png","targets/24.png","0","indirect","10",""
"","html-keyboard-response","134","399096","0.0-8.0-0.11","xkqsx2orfx","one_one","1","indirect_first","0","ni05al18","1","21","1","1","3","1","","0","1","0","null","","","<div style=""font-size:60px;"">+</div>","null","","","","","","","","","",""
"","html-keyboard-response","135","399199","0.0-8.0-1.11","xkqsx2orfx","one_one","1","indirect_first","0","ni05al18","1","21","1","1","3","1","","0","1","0","null","","","<img src = 'category3/CS9.png' width = '100%;'>","null","","","","","","","","","",""
"","html-keyboard-response","136","399465","0.0-8.0-2.11","xkqsx2orfx","one_one","1","indirect_first","0","ni05al18","1","21","1","1","3","1","","0","1","0","null","","","<img src = 'targets/45.png' width = '100%;'>","null","","","","","","","","","",""
"","html-keyboard-response","137","400891","0.0-8.0-3.11","xkqsx2orfx","one_one","1","indirect_first","0","ni05al18","1","21","1","1","3","1","","0","1","0","1424.2850000000326","","","<img src = 'targets/mask.png' width = '100%;'>","68","neg","GS","GSold","3","category3/CS9.png","targets/45.png","0","indirect","11",""
"","html-keyboard-response","138","402414","0.0-8.0-0.12","xkqsx2orfx","one_one","1","indirect_first","0","ni05al18","1","21","1","1","3","1","","0","1","0","null","","","<div style=""font-size:60px;"">+</div>","null","","","","","","","","","",""
"","html-keyboard-response","139","402515","0.0-8.0-1.12","xkqsx2orfx","one_one","1","indirect_first","0","ni05al18","1","21","1","1","3","1","","0","1","0","null","","","<img src = 'category3/CS7.png' width = '100%;'>","null","","","","","","","","","",""
"","html-keyboard-response","140","402781","0.0-8.0-2.12","xkqsx2orfx","one_one","1","indirect_first","0","ni05al18","1","21","1","1","3","1","","0","1","0","null","","","<img src = 'targets/41.png' width = '100%;'>","null","","","","","","","","","",""
"","html-keyboard-response","141","403859","0.0-8.0-3.12","xkqsx2orfx","one_one","1","indirect_first","0","ni05al18","1","21","1","1","3","1","","0","1","0","1075.5850000004866","","","<img src = 'targets/mask.png' width = '100%;'>","68","neg","GS","GSold","3","category3/CS7.png","targets/41.png","0","indirect","12",""
"","html-keyboard-response","142","405384","0.0-8.0-0.13","xkqsx2orfx","one_one","1","indirect_first","0","ni05al18","1","21","1","1","3","1","","0","1","0","null","","","<div style=""font-size:60px;"">+</div>","null","","","","","","","","","",""
"","html-keyboard-response","143","405487","0.0-8.0-1.13","xkqsx2orfx","one_one","1","indirect_first","0","ni05al18","1","21","1","1","3","1","","0","1","0","null","","","<img src = 'category1/CS7.png' width = '100%;'>","null","","","","","","","","","",""
"","html-keyboard-response","144","405751","0.0-8.0-2.13","xkqsx2orfx","one_one","1","indirect_first","0","ni05al18","1","21","1","1","3","1","","0","1","0","null","","","<img src = 'targets/43.png' width = '100%;'>","null","","","","","","","","","",""
"","html-keyboard-response","145","407091","0.0-8.0-3.13","xkqsx2orfx","one_one","1","indirect_first","0","ni05al18","1","21","1","1","3","1","","0","1","0","1337.634999999893","","","<img src = 'targets/mask.png' width = '100%;'>","68","pos","CS","CS","1","category1/CS7.png","targets/43.png","0","indirect","13",""
"","html-keyboard-response","146","408599","0.0-8.0-0.14","xkqsx2orfx","one_one","1","indirect_first","0","ni05al18","1","21","1","1","3","1","","0","1","0","null","","","<div style=""font-size:60px;"">+</div>","null","","","","","","","","","",""
"","html-keyboard-response","147","408699","0.0-8.0-1.14","xkqsx2orfx","one_one","1","indirect_first","0","ni05al18","1","21","1","1","3","1","","0","1","0","null","","","<img src = 'category1/CS2.png' width = '100%;'>","null","","","","","","","","","",""
"","html-keyboard-response","148","408958","0.0-8.0-2.14","xkqsx2orfx","one_one","1","indirect_first","0","ni05al18","1","21","1","1","3","1","","0","1","0","null","","","<img src = 'targets/27.png' width = '100%;'>","null","","","","","","","","","",""
"","html-keyboard-response","149","409721","0.0-8.0-3.14","xkqsx2orfx","one_one","1","indirect_first","0","ni05al18","1","21","1","1","3","1","","0","1","0","760.3250000001863","","","<img src = 'targets/mask.png' width = '100%;'>","75","pos","GS","GSold","1","category1/CS2.png","targets/27.png","1","indirect","14",""
"","html-keyboard-response","150","411239","0.0-8.0-0.15","xkqsx2orfx","one_one","1","indirect_first","0","ni05al18","1","21","1","1","3","1","","0","1","0","null","","","<div style=""font-size:60px;"">+</div>","null","","","","","","","","","",""
"","html-keyboard-response","151","411335","0.0-8.0-1.15","xkqsx2orfx","one_one","1","indirect_first","0","ni05al18","1","21","1","1","3","1","","0","1","0","null","","","<img src = 'category2/CS6.png' width = '100%;'>","null","","","","","","","","","",""
"","html-keyboard-response","152","411594","0.0-8.0-2.15","xkqsx2orfx","one_one","1","indirect_first","0","ni05al18","1","21","1","1","3","1","","0","1","0","null","","","<img src = 'targets/30.png' width = '100%;'>","null","","","","","","","","","",""
"","html-keyboard-response","153","412150","0.0-8.0-3.15","xkqsx2orfx","one_one","1","indirect_first","0","ni05al18","1","21","1","1","3","1","","0","1","0","554.820000000298","","","<img src = 'targets/mask.png' width = '100%;'>","75","neg","CS","CS","2","category2/CS6.png","targets/30.png","1","indirect","15",""
"","survey-html-form","154","415658","0.0-9.0","xkqsx2orfx","one_one","1","indirect_first","0","ni05al18","1","21","1","1","3","1","","0","1","0","3005.350000000326","","{}","","","","","","","","","","","",""
"","html-keyboard-response","155","418680","0.0-10.0-0.0","xkqsx2orfx","one_one","1","indirect_first","0","ni05al18","1","21","1","1","3","1","","0","1","0","null","","","<div style=""font-size:60px;"">+</div>","null","","","","","","","","","",""
"","html-keyboard-response","156","418800","0.0-10.0-1.0","xkqsx2orfx","one_one","1","indirect_first","0","ni05al18","1","21","1","1","3","1","","0","1","0","null","","","<img src = 'category1/GS1.png' width = '100%;'>","null","","","","","","","","","",""
"","html-keyboard-response","157","419074","0.0-10.0-2.0","xkqsx2orfx","one_one","1","indirect_first","0","ni05al18","1","21","1","1","3","1","","0","1","0","null","","","<img src = 'targets/7.png' width = '100%;'>","null","","","","","","","","","",""
"","html-keyboard-response","158","419649","0.0-10.0-3.0","xkqsx2orfx","one_one","1","indirect_first","0","ni05al18","1","21","1","1","3","1","","0","1","0","572.5599999995902","","","<img src = 'targets/mask.png' width = '100%;'>","75","pos","GS","GSnew","1","category1/GS1.png","targets/7.png","1","indirect","16",""
"","html-keyboard-response","159","421159","0.0-10.0-0.1","xkqsx2orfx","one_one","1","indirect_first","0","ni05al18","1","21","1","1","3","1","","0","1","0","null","","","<div style=""font-size:60px;"">+</div>","null","","","","","","","","","",""
"","html-keyboard-response","160","421267","0.0-10.0-1.1","xkqsx2orfx","one_one","1","indirect_first","0","ni05al18","1","21","1","1","3","1","","0","1","0","null","","","<img src = 'category3/GS3.png' width = '100%;'>","null","","","","","","","","","",""
"","html-keyboard-response","161","421548","0.0-10.0-2.1","xkqsx2orfx","one_one","1","indirect_first","0","ni05al18","1","21","1","1","3","1","","0","1","0","null","","","<img src = 'targets/6.png' width = '100%;'>","null","","","","","","","","","",""
"","html-keyboard-response","162","423762","0.0-10.0-3.1","xkqsx2orfx","one_one","1","indirect_first","0","ni05al18","1","21","1","1","3","1","","0","1","0","2212.054999999935","","","<img src = 'targets/mask.png' width = '100%;'>","75","neg","GS","GSnew","3","category3/GS3.png","targets/6.png","1","indirect","17",""
"","html-keyboard-response","163","425284","0.0-10.0-0.2","xkqsx2orfx","one_one","1","indirect_first","0","ni05al18","1","21","1","1","3","1","","0","1","0","null","","","<div style=""font-size:60px;"">+</div>","null","","","","","","","","","",""
"","html-keyboard-response","164","425385","0.0-10.0-1.2","xkqsx2orfx","one_one","1","indirect_first","0","ni05al18","1","21","1","1","3","1","","0","1","0","null","","","<img src = 'category2/GS3.png' width = '100%;'>","null","","","","","","","","","",""
"","html-keyboard-response","165","425670","0.0-10.0-2.2","xkqsx2orfx","one_one","1","indirect_first","0","ni05al18","1","21","1","1","3","1","","0","1","0","null","","","<img src = 'targets/28.png' width = '100%;'>","null","","","","","","","","","",""
"","html-keyboard-response","166","426591","0.0-10.0-3.2","xkqsx2orfx","one_one","1","indirect_first","0","ni05al18","1","21","1","1","3","1","","0","1","0","917.980000000156","","","<img src = 'targets/mask.png' width = '100%;'>","75","neg","GS","GSnew","2","category2/GS3.png","targets/28.png","1","indirect","18",""
"","html-keyboard-response","167","428095","0.0-10.0-0.3","xkqsx2orfx","one_one","1","indirect_first","0","ni05al18","1","21","1","1","3","1","","0","1","0","null","","","<div style=""font-size:60px;"">+</div>","null","","","","","","","","","",""
"","html-keyboard-response","168","428194","0.0-10.0-1.3","xkqsx2orfx","one_one","1","indirect_first","0","ni05al18","1","21","1","1","3","1","","0","1","0","null","","","<img src = 'category2/men.png' width = '100%;'>","null","","","","","","","","","",""
"","html-keyboard-response","169","428465","0.0-10.0-2.3","xkqsx2orfx","one_one","1","indirect_first","0","ni05al18","1","21","1","1","3","1","","0","1","0","null","","","<img src = 'targets/5.png' width = '100%;'>","null","","","","","","","","","",""
"","html-keyboard-response","170","429321","0.0-10.0-3.3","xkqsx2orfx","one_one","1","indirect_first","0","ni05al18","1","21","1","1","3","1","","0","1","0","853.7050000004238","","","<img src = 'targets/mask.png' width = '100%;'>","68","neg","GS","abstract","2","category2/men.png","targets/5.png","0","indirect","19",""
"","html-keyboard-response","171","430847","0.0-10.0-0.4","xkqsx2orfx","one_one","1","indirect_first","0","ni05al18","1","21","1","1","3","1","","0","1","0","null","","","<div style=""font-size:60px;"">+</div>","null","","","","","","","","","",""
"","html-keyboard-response","172","430943","0.0-10.0-1.4","xkqsx2orfx","one_one","1","indirect_first","0","ni05al18","1","21","1","1","3","1","","0","1","0","null","","","<img src = 'category4/GS1.png' width = '100%;'>","null","","","","","","","","","",""
"","html-keyboard-response","173","431220","0.0-10.0-2.4","xkqsx2orfx","one_one","1","indirect_first","0","ni05al18","1","21","1","1","3","1","","0","1","0","null","","","<img src = 'targets/21.png' width = '100%;'>","null","","","","","","","","","",""
"","html-keyboard-response","174","432227","0.0-10.0-3.4","xkqsx2orfx","one_one","1","indirect_first","0","ni05al18","1","21","1","1","3","1","","0","1","0","1005.3049999996438","","","<img src = 'targets/mask.png' width = '100%;'>","75","pos","GS","GSnew","4","category4/GS1.png","targets/21.png","1","indirect","20",""
"","html-keyboard-response","175","433749","0.0-10.0-0.5","xkqsx2orfx","one_one","1","indirect_first","0","ni05al18","1","21","1","1","3","1","","0","1","0","null","","","<div style=""font-size:60px;"">+</div>","null","","","","","","","","","",""
"","html-keyboard-response","176","433858","0.0-10.0-1.5","xkqsx2orfx","one_one","1","indirect_first","0","ni05al18","1","21","1","1","3","1","","0","1","0","null","","","<img src = 'category1/GS3.png' width = '100%;'>","null","","","","","","","","","",""
"","html-keyboard-response","177","434122","0.0-10.0-2.5","xkqsx2orfx","one_one","1","indirect_first","0","ni05al18","1","21","1","1","3","1","","0","1","0","null","","","<img src = 'targets/12.png' width = '100%;'>","null","","","","","","","","","",""
"","html-keyboard-response","178","434712","0.0-10.0-3.5","xkqsx2orfx","one_one","1","indirect_first","0","ni05al18","1","21","1","1","3","1","","0","1","0","587.8050000001676","","","<img src = 'targets/mask.png' width = '100%;'>","75","pos","GS","GSnew","1","category1/GS3.png","targets/12.png","1","indirect","21",""
"","html-keyboard-response","179","436228","0.0-10.0-0.6","xkqsx2orfx","one_one","1","indirect_first","0","ni05al18","1","21","1","1","3","1","","0","1","0","null","","","<div style=""font-size:60px;"">+</div>","null","","","","","","","","","",""
"","html-keyboard-response","180","436333","0.0-10.0-1.6","xkqsx2orfx","one_one","1","indirect_first","0","ni05al18","1","21","1","1","3","1","","0","1","0","null","","","<img src = 'category1/GS2.png' width = '100%;'>","null","","","","","","","","","",""
"","html-keyboard-response","181","436604","0.0-10.0-2.6","xkqsx2orfx","one_one","1","indirect_first","0","ni05al18","1","21","1","1","3","1","","0","1","0","null","","","<img src = 'targets/38.png' width = '100%;'>","null","","","","","","","","","",""
"","html-keyboard-response","182","438610","0.0-10.0-3.6","xkqsx2orfx","one_one","1","indirect_first","0","ni05al18","1","21","1","1","3","1","","0","1","0","2003.939999999653","","","<img src = 'targets/mask.png' width = '100%;'>","68","pos","GS","GSnew","1","category1/GS2.png","targets/38.png","0","indirect","22",""
"","html-keyboard-response","183","440126","0.0-10.0-0.7","xkqsx2orfx","one_one","1","indirect_first","0","ni05al18","1","21","1","1","3","1","","0","1","0","null","","","<div style=""font-size:60px;"">+</div>","null","","","","","","","","","",""
"","html-keyboard-response","184","440225","0.0-10.0-1.7","xkqsx2orfx","one_one","1","indirect_first","0","ni05al18","1","21","1","1","3","1","","0","1","0","null","","","<img src = 'category2/GS1.png' width = '100%;'>","null","","","","","","","","","",""
"","html-keyboard-response","185","440488","0.0-10.0-2.7","xkqsx2orfx","one_one","1","indirect_first","0","ni05al18","1","21","1","1","3","1","","0","1","0","null","","","<img src = 'targets/47.png' width = '100%;'>","null","","","","","","","","","",""
"","html-keyboard-response","186","441454","0.0-10.0-3.7","xkqsx2orfx","one_one","1","indirect_first","0","ni05al18","1","21","1","1","3","1","","0","1","0","963.6600000003818","","","<img src = 'targets/mask.png' width = '100%;'>","68","neg","GS","GSnew","2","category2/GS1.png","targets/47.png","0","indirect","23",""
"","html-keyboard-response","187","442974","0.0-10.0-0.8","xkqsx2orfx","one_one","1","indirect_first","0","ni05al18","1","21","1","1","3","1","","0","1","0","null","","","<div style=""font-size:60px;"">+</div>","null","","","","","","","","","",""
"","html-keyboard-response","188","443077","0.0-10.0-1.8","xkqsx2orfx","one_one","1","indirect_first","0","ni05al18","1","21","1","1","3","1","","0","1","0","null","","","<img src = 'category4/GS3.png' width = '100%;'>","null","","","","","","","","","",""
"","html-keyboard-response","189","443346","0.0-10.0-2.8","xkqsx2orfx","one_one","1","indirect_first","0","ni05al18","1","21","1","1","3","1","","0","1","0","null","","","<img src = 'targets/26.png' width = '100%;'>","null","","","","","","","","","",""
"","html-keyboard-response","190","443690","0.0-10.0-3.8","xkqsx2orfx","one_one","1","indirect_first","0","ni05al18","1","21","1","1","3","1","","0","1","0","342.5299999999115","","","<img src = 'targets/mask.png' width = '100%;'>","68","pos","GS","GSnew","4","category4/GS3.png","targets/26.png","0","indirect","24",""
"","html-keyboard-response","191","445217","0.0-10.0-0.9","xkqsx2orfx","one_one","1","indirect_first","0","ni05al18","1","21","1","1","3","1","","0","1","0","null","","","<div style=""font-size:60px;"">+</div>","null","","","","","","","","","",""
"","html-keyboard-response","192","445326","0.0-10.0-1.9","xkqsx2orfx","one_one","1","indirect_first","0","ni05al18","1","21","1","1","3","1","","0","1","0","null","","","<img src = 'category4/GS2.png' width = '100%;'>","null","","","","","","","","","",""
"","html-keyboard-response","193","445590","0.0-10.0-2.9","xkqsx2orfx","one_one","1","indirect_first","0","ni05al18","1","21","1","1","3","1","","0","1","0","null","","","<img src = 'targets/44.png' width = '100%;'>","null","","","","","","","","","",""
"","html-keyboard-response","194","445920","0.0-10.0-3.9","xkqsx2orfx","one_one","1","indirect_first","0","ni05al18","1","21","1","1","3","1","","0","1","0","326.780000000319","","","<img src = 'targets/mask.png' width = '100%;'>","75","pos","GS","GSnew","4","category4/GS2.png","targets/44.png","1","indirect","25",""
"","html-keyboard-response","195","447433","0.0-10.0-0.10","xkqsx2orfx","one_one","1","indirect_first","0","ni05al18","1","21","1","1","3","1","","0","1","0","null","","","<div style=""font-size:60px;"">+</div>","null","","","","","","","","","",""
"","html-keyboard-response","196","447533","0.0-10.0-1.10","xkqsx2orfx","one_one","1","indirect_first","0","ni05al18","1","21","1","1","3","1","","0","1","0","null","","","<img src = 'category1/ma.png' width = '100%;'>","null","","","","","","","","","",""
"","html-keyboard-response","197","447800","0.0-10.0-2.10","xkqsx2orfx","one_one","1","indirect_first","0","ni05al18","1","21","1","1","3","1","","0","1","0","null","","","<img src = 'targets/35.png' width = '100%;'>","null","","","","","","","","","",""
"","html-keyboard-response","198","448665","0.0-10.0-3.10","xkqsx2orfx","one_one","1","indirect_first","0","ni05al18","1","21","1","1","3","1","","0","1","0","863.1950000008219","","","<img src = 'targets/mask.png' width = '100%;'>","68","pos","GS","abstract","1","category1/ma.png","targets/35.png","0","indirect","26",""
"","html-keyboard-response","199","450200","0.0-10.0-0.11","xkqsx2orfx","one_one","1","indirect_first","0","ni05al18","1","21","1","1","3","1","","0","1","0","null","","","<div style=""font-size:60px;"">+</div>","null","","","","","","","","","",""
"","html-keyboard-response","200","450302","0.0-10.0-1.11","xkqsx2orfx","one_one","1","indirect_first","0","ni05al18","1","21","1","1","3","1","","0","1","0","null","","","<img src = 'category2/GS2.png' width = '100%;'>","null","","","","","","","","","",""
"","html-keyboard-response","201","450586","0.0-10.0-2.11","xkqsx2orfx","one_one","1","indirect_first","0","ni05al18","1","21","1","1","3","1","","0","1","0","null","","","<img src = 'targets/4.png' width = '100%;'>","null","","","","","","","","","",""
"","html-keyboard-response","202","451197","0.0-10.0-3.11","xkqsx2orfx","one_one","1","indirect_first","0","ni05al18","1","21","1","1","3","1","","0","1","0","608.1050000002724","","","<img src = 'targets/mask.png' width = '100%;'>","68","neg","GS","GSnew","2","category2/GS2.png","targets/4.png","0","indirect","27",""
"","html-keyboard-response","203","452727","0.0-10.0-0.12","xkqsx2orfx","one_one","1","indirect_first","0","ni05al18","1","21","1","1","3","1","","0","1","0","null","","","<div style=""font-size:60px;"">+</div>","null","","","","","","","","","",""
"","html-keyboard-response","204","452828","0.0-10.0-1.12","xkqsx2orfx","one_one","1","indirect_first","0","ni05al18","1","21","1","1","3","1","","0","1","0","null","","","<img src = 'category3/GS2.png' width = '100%;'>","null","","","","","","","","","",""
"","html-keyboard-response","205","453095","0.0-10.0-2.12","xkqsx2orfx","one_one","1","indirect_first","0","ni05al18","1","21","1","1","3","1","","0","1","0","null","","","<img src = 'targets/34.png' width = '100%;'>","null","","","","","","","","","",""
"","html-keyboard-response","206","454294","0.0-10.0-3.12","xkqsx2orfx","one_one","1","indirect_first","0","ni05al18","1","21","1","1","3","1","","0","1","0","1197.2000000005355","","","<img src = 'targets/mask.png' width = '100%;'>","75","neg","GS","GSnew","3","category3/GS2.png","targets/34.png","1","indirect","28",""
"","html-keyboard-response","207","455806","0.0-10.0-0.13","xkqsx2orfx","one_one","1","indirect_first","0","ni05al18","1","21","1","1","3","1","","0","1","0","null","","","<div style=""font-size:60px;"">+</div>","null","","","","","","","","","",""
"","html-keyboard-response","208","455907","0.0-10.0-1.13","xkqsx2orfx","one_one","1","indirect_first","0","ni05al18","1","21","1","1","3","1","","0","1","0","null","","","<img src = 'category3/GS1.png' width = '100%;'>","null","","","","","","","","","",""
"","html-keyboard-response","209","456175","0.0-10.0-2.13","xkqsx2orfx","one_one","1","indirect_first","0","ni05al18","1","21","1","1","3","1","","0","1","0","null","","","<img src = 'targets/19.png' width = '100%;'>","null","","","","","","","","","",""
"","html-keyboard-response","210","456856","0.0-10.0-3.13","xkqsx2orfx","one_one","1","indirect_first","0","ni05al18","1","21","1","1","3","1","","0","1","0","679.5350000002072","","","<img src = 'targets/mask.png' width = '100%;'>","75","neg","GS","GSnew","3","category3/GS1.png","targets/19.png","1","indirect","29",""
"","html-keyboard-response","211","458367","0.0-10.0-0.14","xkqsx2orfx","one_one","1","indirect_first","0","ni05al18","1","21","1","1","3","1","","0","1","0","null","","","<div style=""font-size:60px;"">+</div>","null","","","","","","","","","",""
"","html-keyboard-response","212","458460","0.0-10.0-1.14","xkqsx2orfx","one_one","1","indirect_first","0","ni05al18","1","21","1","1","3","1","","0","1","0","null","","","<img src = 'category3/wang.png' width = '100%;'>","null","","","","","","","","","",""
"","html-keyboard-response","213","458726","0.0-10.0-2.14","xkqsx2orfx","one_one","1","indirect_first","0","ni05al18","1","21","1","1","3","1","","0","1","0","null","","","<img src = 'targets/15.png' width = '100%;'>","null","","","","","","","","","",""
"","html-keyboard-response","214","459426","0.0-10.0-3.14","xkqsx2orfx","one_one","1","indirect_first","0","ni05al18","1","21","1","1","3","1","","0","1","0","695.9499999993131","","","<img src = 'targets/mask.png' width = '100%;'>","68","neg","GS","abstract","3","category3/wang.png","targets/15.png","0","indirect","30",""
"","html-keyboard-response","215","460938","0.0-10.0-0.15","xkqsx2orfx","one_one","1","indirect_first","0","ni05al18","1","21","1","1","3","1","","0","1","0","null","","","<div style=""font-size:60px;"">+</div>","null","","","","","","","","","",""
"","html-keyboard-response","216","461044","0.0-10.0-1.15","xkqsx2orfx","one_one","1","indirect_first","0","ni05al18","1","21","1","1","3","1","","0","1","0","null","","","<img src = 'category4/lin.png' width = '100%;'>","null","","","","","","","","","",""
"","html-keyboard-response","217","461323","0.0-10.0-2.15","xkqsx2orfx","one_one","1","indirect_first","0","ni05al18","1","21","1","1","3","1","","0","1","0","null","","","<img src = 'targets/37.png' width = '100%;'>","null","","","","","","","","","",""
"","html-keyboard-response","218","462374","0.0-10.0-3.15","xkqsx2orfx","one_one","1","indirect_first","0","ni05al18","1","21","1","1","3","1","","0","1","0","1049.3950000000186","","","<img src = 'targets/mask.png' width = '100%;'>","75","pos","GS","abstract","4","category4/lin.png","targets/37.png","1","indirect","31",""
"","survey-html-form","219","467978","0.0-11.0","xkqsx2orfx","one_one","1","indirect_first","0","ni05al18","1","21","1","1","3","1","","0","1","0","5093.974999999802","","{}","","","","","","","","","","","",""
"","image-slider-response","220","476174","0.0-12.0-0.0","xkqsx2orfx","one_one","1","indirect_first","0","ni05al18","1","21","1","1","3","1","","0","1","0","6187.10999999987","","","","","neg","CS","CS","3","category3/CS5.png","targets/31.png","","direct","","20"
"","image-slider-response","221","479224","0.0-12.0-0.1","xkqsx2orfx","one_one","1","indirect_first","0","ni05al18","1","21","1","1","3","1","","0","1","0","3046.945000000007","","","","","neg","GS","GSold","3","category3/CS10.png","targets/10.png","","direct","","48"
"","image-slider-response","222","482976","0.0-12.0-0.2","xkqsx2orfx","one_one","1","indirect_first","0","ni05al18","1","21","1","1","3","1","","0","1","0","3749.955000000191","","","","","pos","CS","CS","4","category4/CS5.png","targets/33.png","","direct","","24"
"","image-slider-response","223","485848","0.0-12.0-0.3","xkqsx2orfx","one_one","1","indirect_first","0","ni05al18","1","21","1","1","3","1","","0","1","0","2870.6199999997043","","","","","pos","GS","GSold","1","category1/CS2.png","targets/27.png","","direct","","-13"
"","image-slider-response","224","492032","0.0-12.0-0.4","xkqsx2orfx","one_one","1","indirect_first","0","ni05al18","1","21","1","1","3","1","","0","1","0","6181.619999999413","","","","","neg","CS","CS","2","category2/CS6.png","targets/30.png","","direct","","-6"
"","image-slider-response","225","495475","0.0-12.0-0.5","xkqsx2orfx","one_one","1","indirect_first","0","ni05al18","1","21","1","1","3","1","","0","1","0","3441.8500000001513","","","","","pos","GS","abstract","1","category1/ma.png","targets/35.png","","direct","","-18"
"","image-slider-response","226","497481","0.0-12.0-0.6","xkqsx2orfx","one_one","1","indirect_first","0","ni05al18","1","21","1","1","3","1","","0","1","0","2003.8699999995297","","","","","neg","GS","GSnew","2","category2/GS3.png","targets/28.png","","direct","","-46"
"","image-slider-response","227","499438","0.0-12.0-0.7","xkqsx2orfx","one_one","1","indirect_first","0","ni05al18","1","21","1","1","3","1","","0","1","0","1955.0850000005448","","","","","pos","GS","GSold","4","category4/CS9.png","targets/3.png","","direct","","77"
"","image-slider-response","228","501820","0.0-12.0-0.8","xkqsx2orfx","one_one","1","indirect_first","0","ni05al18","1","21","1","1","3","1","","0","1","0","2380.784999999334","","","","","neg","GS","GSold","2","category2/CS8.png","targets/1.png","","direct","","-52"
"","image-slider-response","229","505011","0.0-12.0-0.9","xkqsx2orfx","one_one","1","indirect_first","0","ni05al18","1","21","1","1","3","1","","0","1","0","3189.380000000703","","","","","pos","GS","GSnew","4","category4/GS3.png","targets/26.png","","direct","","-27"
"","image-slider-response","230","507629","0.0-12.0-0.10","xkqsx2orfx","one_one","1","indirect_first","0","ni05al18","1","21","1","1","3","1","","0","1","0","2616.5200000004843","","","","","pos","GS","GSnew","1","category1/GS2.png","targets/38.png","","direct","","-36"
"","image-slider-response","231","511102","0.0-12.0-0.11","xkqsx2orfx","one_one","1","indirect_first","0","ni05al18","1","21","1","1","3","1","","0","1","0","3471.1299999998882","","","","","neg","GS","GSnew","3","category3/GS1.png","targets/19.png","","direct","","-75"
"","image-slider-response","232","513795","0.0-12.0-0.12","xkqsx2orfx","one_one","1","indirect_first","0","ni05al18","1","21","1","1","3","1","","0","1","0","2691.0049999996554","","","","","neg","GS","GSold","3","category3/CS9.png","targets/45.png","","direct","","55"
"","image-slider-response","233","516019","0.0-12.0-0.13","xkqsx2orfx","one_one","1","indirect_first","0","ni05al18","1","21","1","1","3","1","","0","1","0","2222.740000000107","","","","","neg","GS","GSnew","3","category3/GS2.png","targets/34.png","","direct","","-83"
"","image-slider-response","234","518738","0.0-12.0-0.14","xkqsx2orfx","one_one","1","indirect_first","0","ni05al18","1","21","1","1","3","1","","0","1","0","2716.4649999995017","","","","","pos","GS","GSold","1","category1/CS3.png","targets/46.png","","direct","","37"
"","image-slider-response","235","521431","0.0-12.0-0.15","xkqsx2orfx","one_one","1","indirect_first","0","ni05al18","1","21","1","1","3","1","","0","1","0","2691.249999999767","","","","","neg","GS","GSnew","2","category2/GS1.png","targets/47.png","","direct","","-64"
"","image-slider-response","236","525440","0.0-12.0-0.16","xkqsx2orfx","one_one","1","indirect_first","0","ni05al18","1","21","1","1","3","1","","0","1","0","4007.4000000003725","","","","","neg","GS","GSold","2","category2/CS10.png","targets/40.png","","direct","","28"
"","image-slider-response","237","528800","0.0-12.0-0.17","xkqsx2orfx","one_one","1","indirect_first","0","ni05al18","1","21","1","1","3","1","","0","1","0","3357.7900000000373","","","","","neg","GS","GSold","3","category3/CS7.png","targets/41.png","","direct","","77"
"","image-slider-response","238","531033","0.0-12.0-0.18","xkqsx2orfx","one_one","1","indirect_first","0","ni05al18","1","21","1","1","3","1","","0","1","0","2231.609999999753","","","","","neg","GS","abstract","2","category2/men.png","targets/5.png","","direct","","-94"
"","image-slider-response","239","533321","0.0-12.0-0.19","xkqsx2orfx","one_one","1","indirect_first","0","ni05al18","1","21","1","1","3","1","","0","1","0","2286.9700000000885","","","","","pos","CS","CS","1","category1/CS7.png","targets/43.png","","direct","","65"
"","image-slider-response","240","535606","0.0-12.0-0.20","xkqsx2orfx","one_one","1","indirect_first","0","ni05al18","1","21","1","1","3","1","","0","1","0","2282.599999999511","","","","","pos","GS","GSnew","1","category1/GS3.png","targets/12.png","","direct","","68"
"","image-slider-response","241","537628","0.0-12.0-0.21","xkqsx2orfx","one_one","1","indirect_first","0","ni05al18","1","21","1","1","3","1","","0","1","0","2020.800000000163","","","","","pos","GS","GSold","4","category4/CS6.png","targets/24.png","","direct","","73"
"","image-slider-response","242","540350","0.0-12.0-0.22","xkqsx2orfx","one_one","1","indirect_first","0","ni05al18","1","21","1","1","3","1","","0","1","0","2720.5450000001583","","","","","neg","GS","GSold","2","category2/CS7.png","targets/23.png","","direct","","-35"
"","image-slider-response","243","543798","0.0-12.0-0.23","xkqsx2orfx","one_one","1","indirect_first","0","ni05al18","1","21","1","1","3","1","","0","1","0","3447.0149999996647","","","","","pos","GS","GSold","4","category4/CS1.png","targets/9.png","","direct","","6"
"","image-slider-response","244","545582","0.0-12.0-0.24","xkqsx2orfx","one_one","1","indirect_first","0","ni05al18","1","21","1","1","3","1","","0","1","0","1780.8199999999488","","","","","neg","GS","GSnew","2","category2/GS2.png","targets/4.png","","direct","","-19"
"","image-slider-response","245","548767","0.0-12.0-0.25","xkqsx2orfx","one_one","1","indirect_first","0","ni05al18","1","21","1","1","3","1","","0","1","0","3184.6500000001397","","","","","pos","GS","abstract","4","category4/lin.png","targets/37.png","","direct","","-54"
"","image-slider-response","246","550903","0.0-12.0-0.26","xkqsx2orfx","one_one","1","indirect_first","0","ni05al18","1","21","1","1","3","1","","0","1","0","2133.4499999993714","","","","","pos","GS","GSold","1","category1/CS1.png","targets/32.png","","direct","","73"
"","image-slider-response","247","556201","0.0-12.0-0.27","xkqsx2orfx","one_one","1","indirect_first","0","ni05al18","1","21","1","1","3","1","","0","1","0","5297.185000000405","","","","","neg","GS","abstract","3","category3/wang.png","targets/15.png","","direct","","-34"
"","image-slider-response","248","558426","0.0-12.0-0.28","xkqsx2orfx","one_one","1","indirect_first","0","ni05al18","1","21","1","1","3","1","","0","1","0","2222.19000000041","","","","","neg","GS","GSnew","3","category3/GS3.png","targets/6.png","","direct","","46"
"","image-slider-response","249","560255","0.0-12.0-0.29","xkqsx2orfx","one_one","1","indirect_first","0","ni05al18","1","21","1","1","3","1","","0","1","0","1827.545000000042","","","","","pos","GS","GSnew","4","category4/GS2.png","targets/44.png","","direct","","65"
"","image-slider-response","250","562371","0.0-12.0-0.30","xkqsx2orfx","one_one","1","indirect_first","0","ni05al18","1","21","1","1","3","1","","0","1","0","2114.9849999992875","","","","","pos","GS","GSnew","1","category1/GS1.png","targets/7.png","","direct","","66"
"","image-slider-response","251","564300","0.0-12.0-0.31","xkqsx2orfx","one_one","1","indirect_first","0","ni05al18","1","21","1","1","3","1","","0","1","0","1927.4100000002654","","","","","pos","GS","GSnew","4","category4/GS1.png","targets/21.png","","direct","","-43"
"","survey-html-form","252","568691","0.0-13.0","xkqsx2orfx","one_one","1","indirect_first","0","ni05al18","1","21","1","1","3","1","","0","1","0","4389.694999999832","","{}","","","","","","","","","","","",""
"","image-slider-response","253","573322","0.0-14.0-0.0","xkqsx2orfx","one_one","1","indirect_first","0","ni05al18","1","21","1","1","3","1","","0","1","0","3625.509999999893","","","","","neg","All","all","3","category3/wang_all.png","","","all","","-28"
"","image-slider-response","254","575954","0.0-14.0-0.1","xkqsx2orfx","one_one","1","indirect_first","0","ni05al18","1","21","1","1","3","1","","0","1","0","2629.895000000135","","","","","pos","All","all","4","category4/lin_all.png","","","all","","-46"
"","image-slider-response","255","578129","0.0-14.0-0.2","xkqsx2orfx","one_one","1","indirect_first","0","ni05al18","1","21","1","1","3","1","","0","1","0","2173.9950000001118","","","","","neg","All","all","2","category2/men_all.png","","","all","","-23"
"","image-slider-response","256","580526","0.0-14.0-0.3","xkqsx2orfx","one_one","1","indirect_first","0","ni05al18","1","21","1","1","3","1","","0","1","0","2395.2749999997905","","","","","pos","All","all","1","category1/ma_all.png","","","all","","68"
"","survey-text","257","582096","0.0-15.0","xkqsx2orfx","one_one","1","indirect_first","0","ni05al18","1","21","1","1","3","1","","0","1","0","1557.7599999997765","","{""comment"":""""}","","","","","","","","","","","",""
"","survey-html-form","258","590358","0.0-16.0","xkqsx2orfx","one_one","1","indirect_first","0","ni05al18","1","21","1","1","3","1","","0","1","0","8259.715000000084","","{""hinschauen"":""0"",""ablenkung"":""1"",""gewissenhaft"":""0""}","","","","","","","","","","","",""
