"success","trial_type","trial_index","time_elapsed","internal_node_id","subject","condition","condition_code","measure","measure_code","codeword","gender","age","education","chinese","fach","handedness","comment","hinschauen","ablenkung","gewissenhaft","rt","url","responses","stimulus","key_press","val","type","type_specific","category","cs_selected","target","indirect","task","nr_pres","response"
"true","fullscreen","0","16017","0.0-0.0","gog79rk46k","one_one","1","indirect_first","0","er06es22","1","24","1","1","3","1","","0","1","0","","","","","","","","","","","","","","",""
"","external-html","1","60291","0.0-1.0","gog79rk46k","one_one","1","indirect_first","0","er06es22","1","24","1","1","3","1","","0","1","0","44244","text/information.html","","","","","","","","","","","","",""
"","external-html","2","91867","0.0-2.0","gog79rk46k","one_one","1","indirect_first","0","er06es22","1","24","1","1","3","1","","0","1","0","31515","text/consent.html","","","","","","","","","","","","",""
"","survey-html-form","3","142730","0.0-3.0","gog79rk46k","one_one","1","indirect_first","0","er06es22","1","24","1","1","3","1","","0","1","0","50857","","{""codeword_enter"":""er06es22""}","","","","","","","","","","","",""
"","survey-html-form","4","159881","0.0-4.0","gog79rk46k","one_one","1","indirect_first","0","er06es22","1","24","1","1","3","1","","0","1","0","17118","","{""age"":""24"",""education"":""1"",""subject"":""3"",""gender"":""1"",""handedness"":""1"",""chinese"":""1""}","","","","","","","","","","","",""
"","survey-html-form","5","175283","0.0-5.0","gog79rk46k","one_one","1","indirect_first","0","er06es22","1","24","1","1","3","1","","0","1","0","15397","","{}","","","","","","","","","","","",""
"","html-keyboard-response","6","179308","0.0-6.0-0.0-0.0","gog79rk46k","one_one","1","indirect_first","0","er06es22","1","24","1","1","3","1","","0","1","0","null","","","<div class = 'row'><div class = 'column'><img src = 'usneg/3160.bmp' width = '100%;'></div><div class = 'column'><img src = 'category1/CS7.png' width = '70%;'></div></div>","null","neg","CS","CS","1","category1/CS7.png","","","","",""
"","html-keyboard-response","7","181814","0.0-6.0-0.0-0.1","gog79rk46k","one_one","1","indirect_first","0","er06es22","1","24","1","1","3","1","","0","1","0","null","","","<div class = 'row'><div class = 'column'><img src = 'usneg/9280.bmp' width = '100%;'></div><div class = 'column'><img src = 'category3/CS6.png' width = '70%;'></div></div>","null","neg","CS","CS","3","category3/CS6.png","","","","",""
"","html-keyboard-response","8","184324","0.0-6.0-0.0-0.2","gog79rk46k","one_one","1","indirect_first","0","er06es22","1","24","1","1","3","1","","0","1","0","null","","","<div class = 'row'><div class = 'column'><img src = 'category4/CS1.png' width = '70%;'></div><div class = 'column'><img src = 'uspos/5470.bmp' width = '100%;'></div></div>","null","pos","CS","CS","4","category4/CS1.png","","","","",""
"","html-keyboard-response","9","186831","0.0-6.0-0.0-0.3","gog79rk46k","one_one","1","indirect_first","0","er06es22","1","24","1","1","3","1","","0","1","0","null","","","<div class = 'row'><div class = 'column'><img src = 'usneg/9280.bmp' width = '100%;'></div><div class = 'column'><img src = 'category3/CS6.png' width = '70%;'></div></div>","null","neg","CS","CS","3","category3/CS6.png","","","","",""
"","html-keyboard-response","10","189337","0.0-6.0-0.0-0.4","gog79rk46k","one_one","1","indirect_first","0","er06es22","1","24","1","1","3","1","","0","1","0","null","","","<div class = 'row'><div class = 'column'><img src = 'usneg/3160.bmp' width = '100%;'></div><div class = 'column'><img src = 'category1/CS7.png' width = '70%;'></div></div>","null","neg","CS","CS","1","category1/CS7.png","","","","",""
"","html-keyboard-response","11","191844","0.0-6.0-0.0-0.5","gog79rk46k","one_one","1","indirect_first","0","er06es22","1","24","1","1","3","1","","0","1","0","null","","","<div class = 'row'><div class = 'column'><img src = 'category2/CS3.png' width = '70%;'></div><div class = 'column'><img src = 'uspos/2341.bmp' width = '100%;'></div></div>","null","pos","CS","CS","2","category2/CS3.png","","","","",""
"","html-keyboard-response","12","194351","0.0-6.0-0.0-0.6","gog79rk46k","one_one","1","indirect_first","0","er06es22","1","24","1","1","3","1","","0","1","0","null","","","<div class = 'row'><div class = 'column'><img src = 'category4/CS1.png' width = '70%;'></div><div class = 'column'><img src = 'uspos/5470.bmp' width = '100%;'></div></div>","null","pos","CS","CS","4","category4/CS1.png","","","","",""
"","html-keyboard-response","13","196858","0.0-6.0-0.0-0.7","gog79rk46k","one_one","1","indirect_first","0","er06es22","1","24","1","1","3","1","","0","1","0","null","","","<div class = 'row'><div class = 'column'><img src = 'category2/CS3.png' width = '70%;'></div><div class = 'column'><img src = 'uspos/2341.bmp' width = '100%;'></div></div>","null","pos","CS","CS","2","category2/CS3.png","","","","",""
"","html-keyboard-response","14","199388","0.0-6.0-0.0-0.8","gog79rk46k","one_one","1","indirect_first","0","er06es22","1","24","1","1","3","1","","0","1","0","null","","","<div class = 'row'><div class = 'column'><img src = 'category1/CS7.png' width = '70%;'></div><div class = 'column'><img src = 'usneg/3160.bmp' width = '100%;'></div></div>","null","neg","CS","CS","1","category1/CS7.png","","","","",""
"","html-keyboard-response","15","201895","0.0-6.0-0.0-0.9","gog79rk46k","one_one","1","indirect_first","0","er06es22","1","24","1","1","3","1","","0","1","0","null","","","<div class = 'row'><div class = 'column'><img src = 'uspos/2341.bmp' width = '100%;'></div><div class = 'column'><img src = 'category2/CS3.png' width = '70%;'></div></div>","null","pos","CS","CS","2","category2/CS3.png","","","","",""
"","html-keyboard-response","16","204401","0.0-6.0-0.0-0.10","gog79rk46k","one_one","1","indirect_first","0","er06es22","1","24","1","1","3","1","","0","1","0","null","","","<div class = 'row'><div class = 'column'><img src = 'uspos/5470.bmp' width = '100%;'></div><div class = 'column'><img src = 'category4/CS1.png' width = '70%;'></div></div>","null","pos","CS","CS","4","category4/CS1.png","","","","",""
"","html-keyboard-response","17","206908","0.0-6.0-0.0-0.11","gog79rk46k","one_one","1","indirect_first","0","er06es22","1","24","1","1","3","1","","0","1","0","null","","","<div class = 'row'><div class = 'column'><img src = 'category3/CS6.png' width = '70%;'></div><div class = 'column'><img src = 'usneg/9280.bmp' width = '100%;'></div></div>","null","neg","CS","CS","3","category3/CS6.png","","","","",""
"","html-keyboard-response","18","209416","0.0-6.0-0.0-0.12","gog79rk46k","one_one","1","indirect_first","0","er06es22","1","24","1","1","3","1","","0","1","0","null","","","<div class = 'row'><div class = 'column'><img src = 'category2/CS3.png' width = '70%;'></div><div class = 'column'><img src = 'uspos/2341.bmp' width = '100%;'></div></div>","null","pos","CS","CS","2","category2/CS3.png","","","","",""
"","html-keyboard-response","19","211923","0.0-6.0-0.0-0.13","gog79rk46k","one_one","1","indirect_first","0","er06es22","1","24","1","1","3","1","","0","1","0","null","","","<div class = 'row'><div class = 'column'><img src = 'category3/CS6.png' width = '70%;'></div><div class = 'column'><img src = 'usneg/9280.bmp' width = '100%;'></div></div>","null","neg","CS","CS","3","category3/CS6.png","","","","",""
"","html-keyboard-response","20","214431","0.0-6.0-0.0-0.14","gog79rk46k","one_one","1","indirect_first","0","er06es22","1","24","1","1","3","1","","0","1","0","null","","","<div class = 'row'><div class = 'column'><img src = 'uspos/2341.bmp' width = '100%;'></div><div class = 'column'><img src = 'category2/CS3.png' width = '70%;'></div></div>","null","pos","CS","CS","2","category2/CS3.png","","","","",""
"","html-keyboard-response","21","216959","0.0-6.0-0.0-0.15","gog79rk46k","one_one","1","indirect_first","0","er06es22","1","24","1","1","3","1","","0","1","0","null","","","<div class = 'row'><div class = 'column'><img src = 'uspos/5470.bmp' width = '100%;'></div><div class = 'column'><img src = 'category4/CS1.png' width = '70%;'></div></div>","null","pos","CS","CS","4","category4/CS1.png","","","","",""
"","html-keyboard-response","22","219466","0.0-6.0-0.0-0.16","gog79rk46k","one_one","1","indirect_first","0","er06es22","1","24","1","1","3","1","","0","1","0","null","","","<div class = 'row'><div class = 'column'><img src = 'usneg/3160.bmp' width = '100%;'></div><div class = 'column'><img src = 'category1/CS7.png' width = '70%;'></div></div>","null","neg","CS","CS","1","category1/CS7.png","","","","",""
"","html-keyboard-response","23","221973","0.0-6.0-0.0-0.17","gog79rk46k","one_one","1","indirect_first","0","er06es22","1","24","1","1","3","1","","0","1","0","null","","","<div class = 'row'><div class = 'column'><img src = 'usneg/9280.bmp' width = '100%;'></div><div class = 'column'><img src = 'category3/CS6.png' width = '70%;'></div></div>","null","neg","CS","CS","3","category3/CS6.png","","","","",""
"","html-keyboard-response","24","224480","0.0-6.0-0.0-0.18","gog79rk46k","one_one","1","indirect_first","0","er06es22","1","24","1","1","3","1","","0","1","0","null","","","<div class = 'row'><div class = 'column'><img src = 'usneg/3160.bmp' width = '100%;'></div><div class = 'column'><img src = 'category1/CS7.png' width = '70%;'></div></div>","null","neg","CS","CS","1","category1/CS7.png","","","","",""
"","html-keyboard-response","25","226987","0.0-6.0-0.0-0.19","gog79rk46k","one_one","1","indirect_first","0","er06es22","1","24","1","1","3","1","","0","1","0","null","","","<div class = 'row'><div class = 'column'><img src = 'category4/CS1.png' width = '70%;'></div><div class = 'column'><img src = 'uspos/5470.bmp' width = '100%;'></div></div>","null","pos","CS","CS","4","category4/CS1.png","","","","",""
"","survey-html-form","26","231804","0.0-6.0-1.0","gog79rk46k","one_one","1","indirect_first","0","er06es22","1","24","1","1","3","1","","0","1","0","4314","","{}","","","","","","","","","","","",""
"","html-keyboard-response","27","235813","0.0-6.0-2.0-0.0","gog79rk46k","one_one","1","indirect_first","0","er06es22","1","24","1","1","3","1","","0","1","0","null","","","<div class = 'row'><div class = 'column'><img src = 'category3/CS6.png' width = '70%;'></div><div class = 'column'><img src = 'usneg/9280.bmp' width = '100%;'></div></div>","null","neg","CS","CS","3","category3/CS6.png","","","","",""
"","html-keyboard-response","28","238319","0.0-6.0-2.0-0.1","gog79rk46k","one_one","1","indirect_first","0","er06es22","1","24","1","1","3","1","","0","1","0","null","","","<div class = 'row'><div class = 'column'><img src = 'uspos/2341.bmp' width = '100%;'></div><div class = 'column'><img src = 'category2/CS3.png' width = '70%;'></div></div>","null","pos","CS","CS","2","category2/CS3.png","","","","",""
"","html-keyboard-response","29","240851","0.0-6.0-2.0-0.2","gog79rk46k","one_one","1","indirect_first","0","er06es22","1","24","1","1","3","1","","0","1","0","null","","","<div class = 'row'><div class = 'column'><img src = 'category3/CS6.png' width = '70%;'></div><div class = 'column'><img src = 'usneg/9280.bmp' width = '100%;'></div></div>","null","neg","CS","CS","3","category3/CS6.png","","","","",""
"","html-keyboard-response","30","243371","0.0-6.0-2.0-0.3","gog79rk46k","one_one","1","indirect_first","0","er06es22","1","24","1","1","3","1","","0","1","0","null","","","<div class = 'row'><div class = 'column'><img src = 'category1/CS7.png' width = '70%;'></div><div class = 'column'><img src = 'usneg/3160.bmp' width = '100%;'></div></div>","null","neg","CS","CS","1","category1/CS7.png","","","","",""
"","html-keyboard-response","31","245878","0.0-6.0-2.0-0.4","gog79rk46k","one_one","1","indirect_first","0","er06es22","1","24","1","1","3","1","","0","1","0","null","","","<div class = 'row'><div class = 'column'><img src = 'category3/CS6.png' width = '70%;'></div><div class = 'column'><img src = 'usneg/9280.bmp' width = '100%;'></div></div>","null","neg","CS","CS","3","category3/CS6.png","","","","",""
"","html-keyboard-response","32","248384","0.0-6.0-2.0-0.5","gog79rk46k","one_one","1","indirect_first","0","er06es22","1","24","1","1","3","1","","0","1","0","null","","","<div class = 'row'><div class = 'column'><img src = 'uspos/2341.bmp' width = '100%;'></div><div class = 'column'><img src = 'category2/CS3.png' width = '70%;'></div></div>","null","pos","CS","CS","2","category2/CS3.png","","","","",""
"","html-keyboard-response","33","250892","0.0-6.0-2.0-0.6","gog79rk46k","one_one","1","indirect_first","0","er06es22","1","24","1","1","3","1","","0","1","0","null","","","<div class = 'row'><div class = 'column'><img src = 'usneg/9280.bmp' width = '100%;'></div><div class = 'column'><img src = 'category3/CS6.png' width = '70%;'></div></div>","null","neg","CS","CS","3","category3/CS6.png","","","","",""
"","html-keyboard-response","34","253399","0.0-6.0-2.0-0.7","gog79rk46k","one_one","1","indirect_first","0","er06es22","1","24","1","1","3","1","","0","1","0","null","","","<div class = 'row'><div class = 'column'><img src = 'category4/CS1.png' width = '70%;'></div><div class = 'column'><img src = 'uspos/5470.bmp' width = '100%;'></div></div>","null","pos","CS","CS","4","category4/CS1.png","","","","",""
"","html-keyboard-response","35","255906","0.0-6.0-2.0-0.8","gog79rk46k","one_one","1","indirect_first","0","er06es22","1","24","1","1","3","1","","0","1","0","null","","","<div class = 'row'><div class = 'column'><img src = 'category1/CS7.png' width = '70%;'></div><div class = 'column'><img src = 'usneg/3160.bmp' width = '100%;'></div></div>","null","neg","CS","CS","1","category1/CS7.png","","","","",""
"","html-keyboard-response","36","258413","0.0-6.0-2.0-0.9","gog79rk46k","one_one","1","indirect_first","0","er06es22","1","24","1","1","3","1","","0","1","0","null","","","<div class = 'row'><div class = 'column'><img src = 'uspos/5470.bmp' width = '100%;'></div><div class = 'column'><img src = 'category4/CS1.png' width = '70%;'></div></div>","null","pos","CS","CS","4","category4/CS1.png","","","","",""
"","html-keyboard-response","37","260920","0.0-6.0-2.0-0.10","gog79rk46k","one_one","1","indirect_first","0","er06es22","1","24","1","1","3","1","","0","1","0","null","","","<div class = 'row'><div class = 'column'><img src = 'category1/CS7.png' width = '70%;'></div><div class = 'column'><img src = 'usneg/3160.bmp' width = '100%;'></div></div>","null","neg","CS","CS","1","category1/CS7.png","","","","",""
"","html-keyboard-response","38","263429","0.0-6.0-2.0-0.11","gog79rk46k","one_one","1","indirect_first","0","er06es22","1","24","1","1","3","1","","0","1","0","null","","","<div class = 'row'><div class = 'column'><img src = 'uspos/2341.bmp' width = '100%;'></div><div class = 'column'><img src = 'category2/CS3.png' width = '70%;'></div></div>","null","pos","CS","CS","2","category2/CS3.png","","","","",""
"","html-keyboard-response","39","265937","0.0-6.0-2.0-0.12","gog79rk46k","one_one","1","indirect_first","0","er06es22","1","24","1","1","3","1","","0","1","0","null","","","<div class = 'row'><div class = 'column'><img src = 'uspos/5470.bmp' width = '100%;'></div><div class = 'column'><img src = 'category4/CS1.png' width = '70%;'></div></div>","null","pos","CS","CS","4","category4/CS1.png","","","","",""
"","html-keyboard-response","40","268443","0.0-6.0-2.0-0.13","gog79rk46k","one_one","1","indirect_first","0","er06es22","1","24","1","1","3","1","","0","1","0","null","","","<div class = 'row'><div class = 'column'><img src = 'uspos/2341.bmp' width = '100%;'></div><div class = 'column'><img src = 'category2/CS3.png' width = '70%;'></div></div>","null","pos","CS","CS","2","category2/CS3.png","","","","",""
"","html-keyboard-response","41","270946","0.0-6.0-2.0-0.14","gog79rk46k","one_one","1","indirect_first","0","er06es22","1","24","1","1","3","1","","0","1","0","null","","","<div class = 'row'><div class = 'column'><img src = 'category1/CS7.png' width = '70%;'></div><div class = 'column'><img src = 'usneg/3160.bmp' width = '100%;'></div></div>","null","neg","CS","CS","1","category1/CS7.png","","","","",""
"","html-keyboard-response","42","273452","0.0-6.0-2.0-0.15","gog79rk46k","one_one","1","indirect_first","0","er06es22","1","24","1","1","3","1","","0","1","0","null","","","<div class = 'row'><div class = 'column'><img src = 'uspos/5470.bmp' width = '100%;'></div><div class = 'column'><img src = 'category4/CS1.png' width = '70%;'></div></div>","null","pos","CS","CS","4","category4/CS1.png","","","","",""
"","html-keyboard-response","43","275962","0.0-6.0-2.0-0.16","gog79rk46k","one_one","1","indirect_first","0","er06es22","1","24","1","1","3","1","","0","1","0","null","","","<div class = 'row'><div class = 'column'><img src = 'category3/CS6.png' width = '70%;'></div><div class = 'column'><img src = 'usneg/9280.bmp' width = '100%;'></div></div>","null","neg","CS","CS","3","category3/CS6.png","","","","",""
"","html-keyboard-response","44","278471","0.0-6.0-2.0-0.17","gog79rk46k","one_one","1","indirect_first","0","er06es22","1","24","1","1","3","1","","0","1","0","null","","","<div class = 'row'><div class = 'column'><img src = 'uspos/2341.bmp' width = '100%;'></div><div class = 'column'><img src = 'category2/CS3.png' width = '70%;'></div></div>","null","pos","CS","CS","2","category2/CS3.png","","","","",""
"","html-keyboard-response","45","280978","0.0-6.0-2.0-0.18","gog79rk46k","one_one","1","indirect_first","0","er06es22","1","24","1","1","3","1","","0","1","0","null","","","<div class = 'row'><div class = 'column'><img src = 'category1/CS7.png' width = '70%;'></div><div class = 'column'><img src = 'usneg/3160.bmp' width = '100%;'></div></div>","null","neg","CS","CS","1","category1/CS7.png","","","","",""
"","html-keyboard-response","46","283483","0.0-6.0-2.0-0.19","gog79rk46k","one_one","1","indirect_first","0","er06es22","1","24","1","1","3","1","","0","1","0","null","","","<div class = 'row'><div class = 'column'><img src = 'category4/CS1.png' width = '70%;'></div><div class = 'column'><img src = 'uspos/5470.bmp' width = '100%;'></div></div>","null","pos","CS","CS","4","category4/CS1.png","","","","",""
"","survey-html-form","47","289162","0.0-6.0-3.0","gog79rk46k","one_one","1","indirect_first","0","er06es22","1","24","1","1","3","1","","0","1","0","5176","","{}","","","","","","","","","","","",""
"","html-keyboard-response","48","293175","0.0-6.0-4.0-0.0","gog79rk46k","one_one","1","indirect_first","0","er06es22","1","24","1","1","3","1","","0","1","0","null","","","<div class = 'row'><div class = 'column'><img src = 'category2/CS3.png' width = '70%;'></div><div class = 'column'><img src = 'uspos/2341.bmp' width = '100%;'></div></div>","null","pos","CS","CS","2","category2/CS3.png","","","","",""
"","html-keyboard-response","49","295682","0.0-6.0-4.0-0.1","gog79rk46k","one_one","1","indirect_first","0","er06es22","1","24","1","1","3","1","","0","1","0","null","","","<div class = 'row'><div class = 'column'><img src = 'category1/CS7.png' width = '70%;'></div><div class = 'column'><img src = 'usneg/3160.bmp' width = '100%;'></div></div>","null","neg","CS","CS","1","category1/CS7.png","","","","",""
"","html-keyboard-response","50","298188","0.0-6.0-4.0-0.2","gog79rk46k","one_one","1","indirect_first","0","er06es22","1","24","1","1","3","1","","0","1","0","null","","","<div class = 'row'><div class = 'column'><img src = 'category4/CS1.png' width = '70%;'></div><div class = 'column'><img src = 'uspos/5470.bmp' width = '100%;'></div></div>","null","pos","CS","CS","4","category4/CS1.png","","","","",""
"","html-keyboard-response","51","300696","0.0-6.0-4.0-0.3","gog79rk46k","one_one","1","indirect_first","0","er06es22","1","24","1","1","3","1","","0","1","0","null","","","<div class = 'row'><div class = 'column'><img src = 'usneg/3160.bmp' width = '100%;'></div><div class = 'column'><img src = 'category1/CS7.png' width = '70%;'></div></div>","null","neg","CS","CS","1","category1/CS7.png","","","","",""
"","html-keyboard-response","52","303202","0.0-6.0-4.0-0.4","gog79rk46k","one_one","1","indirect_first","0","er06es22","1","24","1","1","3","1","","0","1","0","null","","","<div class = 'row'><div class = 'column'><img src = 'uspos/5470.bmp' width = '100%;'></div><div class = 'column'><img src = 'category4/CS1.png' width = '70%;'></div></div>","null","pos","CS","CS","4","category4/CS1.png","","","","",""
"","html-keyboard-response","53","305709","0.0-6.0-4.0-0.5","gog79rk46k","one_one","1","indirect_first","0","er06es22","1","24","1","1","3","1","","0","1","0","null","","","<div class = 'row'><div class = 'column'><img src = 'category3/CS6.png' width = '70%;'></div><div class = 'column'><img src = 'usneg/9280.bmp' width = '100%;'></div></div>","null","neg","CS","CS","3","category3/CS6.png","","","","",""
"","html-keyboard-response","54","308216","0.0-6.0-4.0-0.6","gog79rk46k","one_one","1","indirect_first","0","er06es22","1","24","1","1","3","1","","0","1","0","null","","","<div class = 'row'><div class = 'column'><img src = 'usneg/3160.bmp' width = '100%;'></div><div class = 'column'><img src = 'category1/CS7.png' width = '70%;'></div></div>","null","neg","CS","CS","1","category1/CS7.png","","","","",""
"","html-keyboard-response","55","310723","0.0-6.0-4.0-0.7","gog79rk46k","one_one","1","indirect_first","0","er06es22","1","24","1","1","3","1","","0","1","0","null","","","<div class = 'row'><div class = 'column'><img src = 'category2/CS3.png' width = '70%;'></div><div class = 'column'><img src = 'uspos/2341.bmp' width = '100%;'></div></div>","null","pos","CS","CS","2","category2/CS3.png","","","","",""
"","html-keyboard-response","56","313231","0.0-6.0-4.0-0.8","gog79rk46k","one_one","1","indirect_first","0","er06es22","1","24","1","1","3","1","","0","1","0","null","","","<div class = 'row'><div class = 'column'><img src = 'category4/CS1.png' width = '70%;'></div><div class = 'column'><img src = 'uspos/5470.bmp' width = '100%;'></div></div>","null","pos","CS","CS","4","category4/CS1.png","","","","",""
"","html-keyboard-response","57","315738","0.0-6.0-4.0-0.9","gog79rk46k","one_one","1","indirect_first","0","er06es22","1","24","1","1","3","1","","0","1","0","null","","","<div class = 'row'><div class = 'column'><img src = 'usneg/9280.bmp' width = '100%;'></div><div class = 'column'><img src = 'category3/CS6.png' width = '70%;'></div></div>","null","neg","CS","CS","3","category3/CS6.png","","","","",""
"","html-keyboard-response","58","318244","0.0-6.0-4.0-0.10","gog79rk46k","one_one","1","indirect_first","0","er06es22","1","24","1","1","3","1","","0","1","0","null","","","<div class = 'row'><div class = 'column'><img src = 'uspos/2341.bmp' width = '100%;'></div><div class = 'column'><img src = 'category2/CS3.png' width = '70%;'></div></div>","null","pos","CS","CS","2","category2/CS3.png","","","","",""
"","html-keyboard-response","59","320751","0.0-6.0-4.0-0.11","gog79rk46k","one_one","1","indirect_first","0","er06es22","1","24","1","1","3","1","","0","1","0","null","","","<div class = 'row'><div class = 'column'><img src = 'category3/CS6.png' width = '70%;'></div><div class = 'column'><img src = 'usneg/9280.bmp' width = '100%;'></div></div>","null","neg","CS","CS","3","category3/CS6.png","","","","",""
"","html-keyboard-response","60","323258","0.0-6.0-4.0-0.12","gog79rk46k","one_one","1","indirect_first","0","er06es22","1","24","1","1","3","1","","0","1","0","null","","","<div class = 'row'><div class = 'column'><img src = 'category2/CS3.png' width = '70%;'></div><div class = 'column'><img src = 'uspos/2341.bmp' width = '100%;'></div></div>","null","pos","CS","CS","2","category2/CS3.png","","","","",""
"","html-keyboard-response","61","325765","0.0-6.0-4.0-0.13","gog79rk46k","one_one","1","indirect_first","0","er06es22","1","24","1","1","3","1","","0","1","0","null","","","<div class = 'row'><div class = 'column'><img src = 'category1/CS7.png' width = '70%;'></div><div class = 'column'><img src = 'usneg/3160.bmp' width = '100%;'></div></div>","null","neg","CS","CS","1","category1/CS7.png","","","","",""
"","html-keyboard-response","62","328272","0.0-6.0-4.0-0.14","gog79rk46k","one_one","1","indirect_first","0","er06es22","1","24","1","1","3","1","","0","1","0","null","","","<div class = 'row'><div class = 'column'><img src = 'usneg/9280.bmp' width = '100%;'></div><div class = 'column'><img src = 'category3/CS6.png' width = '70%;'></div></div>","null","neg","CS","CS","3","category3/CS6.png","","","","",""
"","html-keyboard-response","63","330780","0.0-6.0-4.0-0.15","gog79rk46k","one_one","1","indirect_first","0","er06es22","1","24","1","1","3","1","","0","1","0","null","","","<div class = 'row'><div class = 'column'><img src = 'category4/CS1.png' width = '70%;'></div><div class = 'column'><img src = 'uspos/5470.bmp' width = '100%;'></div></div>","null","pos","CS","CS","4","category4/CS1.png","","","","",""
"","html-keyboard-response","64","333287","0.0-6.0-4.0-0.16","gog79rk46k","one_one","1","indirect_first","0","er06es22","1","24","1","1","3","1","","0","1","0","null","","","<div class = 'row'><div class = 'column'><img src = 'category3/CS6.png' width = '70%;'></div><div class = 'column'><img src = 'usneg/9280.bmp' width = '100%;'></div></div>","null","neg","CS","CS","3","category3/CS6.png","","","","",""
"","html-keyboard-response","65","335795","0.0-6.0-4.0-0.17","gog79rk46k","one_one","1","indirect_first","0","er06es22","1","24","1","1","3","1","","0","1","0","null","","","<div class = 'row'><div class = 'column'><img src = 'category1/CS7.png' width = '70%;'></div><div class = 'column'><img src = 'usneg/3160.bmp' width = '100%;'></div></div>","null","neg","CS","CS","1","category1/CS7.png","","","","",""
"","html-keyboard-response","66","338323","0.0-6.0-4.0-0.18","gog79rk46k","one_one","1","indirect_first","0","er06es22","1","24","1","1","3","1","","0","1","0","null","","","<div class = 'row'><div class = 'column'><img src = 'category2/CS3.png' width = '70%;'></div><div class = 'column'><img src = 'uspos/2341.bmp' width = '100%;'></div></div>","null","pos","CS","CS","2","category2/CS3.png","","","","",""
"","html-keyboard-response","67","340830","0.0-6.0-4.0-0.19","gog79rk46k","one_one","1","indirect_first","0","er06es22","1","24","1","1","3","1","","0","1","0","null","","","<div class = 'row'><div class = 'column'><img src = 'uspos/5470.bmp' width = '100%;'></div><div class = 'column'><img src = 'category4/CS1.png' width = '70%;'></div></div>","null","pos","CS","CS","4","category4/CS1.png","","","","",""
"","survey-html-form","68","343116","0.0-6.0-5.0","gog79rk46k","one_one","1","indirect_first","0","er06es22","1","24","1","1","3","1","","0","1","0","1781","","{}","","","","","","","","","","","",""
"","html-keyboard-response","69","347126","0.0-6.0-6.0-0.0","gog79rk46k","one_one","1","indirect_first","0","er06es22","1","24","1","1","3","1","","0","1","0","null","","","<div class = 'row'><div class = 'column'><img src = 'category1/CS7.png' width = '70%;'></div><div class = 'column'><img src = 'usneg/3160.bmp' width = '100%;'></div></div>","null","neg","CS","CS","1","category1/CS7.png","","","","",""
"","html-keyboard-response","70","349632","0.0-6.0-6.0-0.1","gog79rk46k","one_one","1","indirect_first","0","er06es22","1","24","1","1","3","1","","0","1","0","null","","","<div class = 'row'><div class = 'column'><img src = 'category4/CS1.png' width = '70%;'></div><div class = 'column'><img src = 'uspos/5470.bmp' width = '100%;'></div></div>","null","pos","CS","CS","4","category4/CS1.png","","","","",""
"","html-keyboard-response","71","352139","0.0-6.0-6.0-0.2","gog79rk46k","one_one","1","indirect_first","0","er06es22","1","24","1","1","3","1","","0","1","0","null","","","<div class = 'row'><div class = 'column'><img src = 'uspos/2341.bmp' width = '100%;'></div><div class = 'column'><img src = 'category2/CS3.png' width = '70%;'></div></div>","null","pos","CS","CS","2","category2/CS3.png","","","","",""
"","html-keyboard-response","72","354646","0.0-6.0-6.0-0.3","gog79rk46k","one_one","1","indirect_first","0","er06es22","1","24","1","1","3","1","","0","1","0","null","","","<div class = 'row'><div class = 'column'><img src = 'category3/CS6.png' width = '70%;'></div><div class = 'column'><img src = 'usneg/9280.bmp' width = '100%;'></div></div>","null","neg","CS","CS","3","category3/CS6.png","","","","",""
"","html-keyboard-response","73","357153","0.0-6.0-6.0-0.4","gog79rk46k","one_one","1","indirect_first","0","er06es22","1","24","1","1","3","1","","0","1","0","null","","","<div class = 'row'><div class = 'column'><img src = 'uspos/5470.bmp' width = '100%;'></div><div class = 'column'><img src = 'category4/CS1.png' width = '70%;'></div></div>","null","pos","CS","CS","4","category4/CS1.png","","","","",""
"","html-keyboard-response","74","359660","0.0-6.0-6.0-0.5","gog79rk46k","one_one","1","indirect_first","0","er06es22","1","24","1","1","3","1","","0","1","0","null","","","<div class = 'row'><div class = 'column'><img src = 'uspos/2341.bmp' width = '100%;'></div><div class = 'column'><img src = 'category2/CS3.png' width = '70%;'></div></div>","null","pos","CS","CS","2","category2/CS3.png","","","","",""
"","html-keyboard-response","75","362167","0.0-6.0-6.0-0.6","gog79rk46k","one_one","1","indirect_first","0","er06es22","1","24","1","1","3","1","","0","1","0","null","","","<div class = 'row'><div class = 'column'><img src = 'category1/CS7.png' width = '70%;'></div><div class = 'column'><img src = 'usneg/3160.bmp' width = '100%;'></div></div>","null","neg","CS","CS","1","category1/CS7.png","","","","",""
"","html-keyboard-response","76","364674","0.0-6.0-6.0-0.7","gog79rk46k","one_one","1","indirect_first","0","er06es22","1","24","1","1","3","1","","0","1","0","null","","","<div class = 'row'><div class = 'column'><img src = 'category2/CS3.png' width = '70%;'></div><div class = 'column'><img src = 'uspos/2341.bmp' width = '100%;'></div></div>","null","pos","CS","CS","2","category2/CS3.png","","","","",""
"","html-keyboard-response","77","367179","0.0-6.0-6.0-0.8","gog79rk46k","one_one","1","indirect_first","0","er06es22","1","24","1","1","3","1","","0","1","0","null","","","<div class = 'row'><div class = 'column'><img src = 'category3/CS6.png' width = '70%;'></div><div class = 'column'><img src = 'usneg/9280.bmp' width = '100%;'></div></div>","null","neg","CS","CS","3","category3/CS6.png","","","","",""
"","html-keyboard-response","78","369686","0.0-6.0-6.0-0.9","gog79rk46k","one_one","1","indirect_first","0","er06es22","1","24","1","1","3","1","","0","1","0","null","","","<div class = 'row'><div class = 'column'><img src = 'uspos/2341.bmp' width = '100%;'></div><div class = 'column'><img src = 'category2/CS3.png' width = '70%;'></div></div>","null","pos","CS","CS","2","category2/CS3.png","","","","",""
"","html-keyboard-response","79","372195","0.0-6.0-6.0-0.10","gog79rk46k","one_one","1","indirect_first","0","er06es22","1","24","1","1","3","1","","0","1","0","null","","","<div class = 'row'><div class = 'column'><img src = 'category1/CS7.png' width = '70%;'></div><div class = 'column'><img src = 'usneg/3160.bmp' width = '100%;'></div></div>","null","neg","CS","CS","1","category1/CS7.png","","","","",""
"","html-keyboard-response","80","374709","0.0-6.0-6.0-0.11","gog79rk46k","one_one","1","indirect_first","0","er06es22","1","24","1","1","3","1","","0","1","0","null","","","<div class = 'row'><div class = 'column'><img src = 'category4/CS1.png' width = '70%;'></div><div class = 'column'><img src = 'uspos/5470.bmp' width = '100%;'></div></div>","null","pos","CS","CS","4","category4/CS1.png","","","","",""
"","html-keyboard-response","81","377231","0.0-6.0-6.0-0.12","gog79rk46k","one_one","1","indirect_first","0","er06es22","1","24","1","1","3","1","","0","1","0","null","","","<div class = 'row'><div class = 'column'><img src = 'category1/CS7.png' width = '70%;'></div><div class = 'column'><img src = 'usneg/3160.bmp' width = '100%;'></div></div>","null","neg","CS","CS","1","category1/CS7.png","","","","",""
"","html-keyboard-response","82","379738","0.0-6.0-6.0-0.13","gog79rk46k","one_one","1","indirect_first","0","er06es22","1","24","1","1","3","1","","0","1","0","null","","","<div class = 'row'><div class = 'column'><img src = 'uspos/5470.bmp' width = '100%;'></div><div class = 'column'><img src = 'category4/CS1.png' width = '70%;'></div></div>","null","pos","CS","CS","4","category4/CS1.png","","","","",""
"","html-keyboard-response","83","382245","0.0-6.0-6.0-0.14","gog79rk46k","one_one","1","indirect_first","0","er06es22","1","24","1","1","3","1","","0","1","0","null","","","<div class = 'row'><div class = 'column'><img src = 'usneg/3160.bmp' width = '100%;'></div><div class = 'column'><img src = 'category1/CS7.png' width = '70%;'></div></div>","null","neg","CS","CS","1","category1/CS7.png","","","","",""
"","html-keyboard-response","84","384754","0.0-6.0-6.0-0.15","gog79rk46k","one_one","1","indirect_first","0","er06es22","1","24","1","1","3","1","","0","1","0","null","","","<div class = 'row'><div class = 'column'><img src = 'usneg/9280.bmp' width = '100%;'></div><div class = 'column'><img src = 'category3/CS6.png' width = '70%;'></div></div>","null","neg","CS","CS","3","category3/CS6.png","","","","",""
"","html-keyboard-response","85","387274","0.0-6.0-6.0-0.16","gog79rk46k","one_one","1","indirect_first","0","er06es22","1","24","1","1","3","1","","0","1","0","null","","","<div class = 'row'><div class = 'column'><img src = 'category4/CS1.png' width = '70%;'></div><div class = 'column'><img src = 'uspos/5470.bmp' width = '100%;'></div></div>","null","pos","CS","CS","4","category4/CS1.png","","","","",""
"","html-keyboard-response","86","389781","0.0-6.0-6.0-0.17","gog79rk46k","one_one","1","indirect_first","0","er06es22","1","24","1","1","3","1","","0","1","0","null","","","<div class = 'row'><div class = 'column'><img src = 'category3/CS6.png' width = '70%;'></div><div class = 'column'><img src = 'usneg/9280.bmp' width = '100%;'></div></div>","null","neg","CS","CS","3","category3/CS6.png","","","","",""
"","html-keyboard-response","87","392288","0.0-6.0-6.0-0.18","gog79rk46k","one_one","1","indirect_first","0","er06es22","1","24","1","1","3","1","","0","1","0","null","","","<div class = 'row'><div class = 'column'><img src = 'category2/CS3.png' width = '70%;'></div><div class = 'column'><img src = 'uspos/2341.bmp' width = '100%;'></div></div>","null","pos","CS","CS","2","category2/CS3.png","","","","",""
"","html-keyboard-response","88","394797","0.0-6.0-6.0-0.19","gog79rk46k","one_one","1","indirect_first","0","er06es22","1","24","1","1","3","1","","0","1","0","null","","","<div class = 'row'><div class = 'column'><img src = 'usneg/9280.bmp' width = '100%;'></div><div class = 'column'><img src = 'category3/CS6.png' width = '70%;'></div></div>","null","neg","CS","CS","3","category3/CS6.png","","","","",""
"","html-keyboard-response","89","435633","0.0-7.0","gog79rk46k","one_one","1","indirect_first","0","er06es22","1","24","1","1","3","1","","0","1","0","40330","","","<p>Sie sehen nun die chinesischen Zeichen nur ganz kurz. Danach sehen Sie die jeweilige Aussprache der Zeichen als Silbe auf dem Bildschrim. Ihre Aufgabe ist es, für jede Silbe anzugeben, ob diese etwas angenehmes, oder unangenehmes bedeuten könnte. Verlassen Sie sich hier vor allem auf Ihre Intuition.<br><br>Die Zeichen werden nur zur Orientierung dargestellt, beachten Sie sie deshalb nicht. Konzentrieren Sie sich vor allem auf die Silben. <br>Reagieren Sie mit folgenden zwei Tasten: <br><br><b>'D' </b> wenn die Silbe etwas <b>unangenehmes</b> bedeuten könnte. <br><b>'K'</b> wenn die Silbe etwas <b>angenehmes</b> bedeuten könnte. <br><br>Bitte legen Sie nun den Zeigefinger der linken Hand auf die Taste 'D' und den Zeigefinger der rechten Hand auf die Taste 'K'. <br>Reagieren Sie auf jede Silbe so schnell wie möglich. Uns interessiert Ihre spontane Reaktion. <br> <br> <br>Drücken Sie 'D' oder 'K', um die nächste Aufgabe zu starten. </p>","75","","","","","","","","","",""
"","html-keyboard-response","90","438640","0.0-8.0-0.0","gog79rk46k","one_one","1","indirect_first","0","er06es22","1","24","1","1","3","1","","0","1","0","null","","","<div style=""font-size:60px;"">+</div>","null","","","","","","","","","",""
"","html-keyboard-response","91","438741","0.0-8.0-1.0","gog79rk46k","one_one","1","indirect_first","0","er06es22","1","24","1","1","3","1","","0","1","0","null","","","<img src = 'category1/CS7.png' width = '100%;'>","null","","","","","","","","","",""
"","html-keyboard-response","92","439029","0.0-8.0-2.0","gog79rk46k","one_one","1","indirect_first","0","er06es22","1","24","1","1","3","1","","0","1","0","null","","","<img src = 'targets/6.png' width = '100%;'>","null","","","","","","","","","",""
"","html-keyboard-response","93","443903","0.0-8.0-3.0","gog79rk46k","one_one","1","indirect_first","0","er06es22","1","24","1","1","3","1","","0","1","0","4869","","","<img src = 'targets/mask.png' width = '100%;'>","75","neg","CS","CS","1","category1/CS7.png","targets/6.png","1","indirect","0",""
"","html-keyboard-response","94","445412","0.0-8.0-0.1","gog79rk46k","one_one","1","indirect_first","0","er06es22","1","24","1","1","3","1","","0","1","0","null","","","<div style=""font-size:60px;"">+</div>","null","","","","","","","","","",""
"","html-keyboard-response","95","445512","0.0-8.0-1.1","gog79rk46k","one_one","1","indirect_first","0","er06es22","1","24","1","1","3","1","","0","1","0","null","","","<img src = 'category3/CS2.png' width = '100%;'>","null","","","","","","","","","",""
"","html-keyboard-response","96","445776","0.0-8.0-2.1","gog79rk46k","one_one","1","indirect_first","0","er06es22","1","24","1","1","3","1","","0","1","0","null","","","<img src = 'targets/27.png' width = '100%;'>","null","","","","","","","","","",""
"","html-keyboard-response","97","447039","0.0-8.0-3.1","gog79rk46k","one_one","1","indirect_first","0","er06es22","1","24","1","1","3","1","","0","1","0","1261","","","<img src = 'targets/mask.png' width = '100%;'>","68","neg","GS","GSold","3","category3/CS2.png","targets/27.png","0","indirect","1",""
"","html-keyboard-response","98","448552","0.0-8.0-0.2","gog79rk46k","one_one","1","indirect_first","0","er06es22","1","24","1","1","3","1","","0","1","0","null","","","<div style=""font-size:60px;"">+</div>","null","","","","","","","","","",""
"","html-keyboard-response","99","448653","0.0-8.0-1.2","gog79rk46k","one_one","1","indirect_first","0","er06es22","1","24","1","1","3","1","","0","1","0","null","","","<img src = 'category2/CS3.png' width = '100%;'>","null","","","","","","","","","",""
"","html-keyboard-response","100","448922","0.0-8.0-2.2","gog79rk46k","one_one","1","indirect_first","0","er06es22","1","24","1","1","3","1","","0","1","0","null","","","<img src = 'targets/1.png' width = '100%;'>","null","","","","","","","","","",""
"","html-keyboard-response","101","449983","0.0-8.0-3.2","gog79rk46k","one_one","1","indirect_first","0","er06es22","1","24","1","1","3","1","","0","1","0","1059","","","<img src = 'targets/mask.png' width = '100%;'>","68","pos","CS","CS","2","category2/CS3.png","targets/1.png","0","indirect","2",""
"","html-keyboard-response","102","451492","0.0-8.0-0.3","gog79rk46k","one_one","1","indirect_first","0","er06es22","1","24","1","1","3","1","","0","1","0","null","","","<div style=""font-size:60px;"">+</div>","null","","","","","","","","","",""
"","html-keyboard-response","103","451592","0.0-8.0-1.3","gog79rk46k","one_one","1","indirect_first","0","er06es22","1","24","1","1","3","1","","0","1","0","null","","","<img src = 'category1/CS4.png' width = '100%;'>","null","","","","","","","","","",""
"","html-keyboard-response","104","451861","0.0-8.0-2.3","gog79rk46k","one_one","1","indirect_first","0","er06es22","1","24","1","1","3","1","","0","1","0","null","","","<img src = 'targets/19.png' width = '100%;'>","null","","","","","","","","","",""
"","html-keyboard-response","105","452415","0.0-8.0-3.3","gog79rk46k","one_one","1","indirect_first","0","er06es22","1","24","1","1","3","1","","0","1","0","552","","","<img src = 'targets/mask.png' width = '100%;'>","68","neg","GS","GSold","1","category1/CS4.png","targets/19.png","0","indirect","3",""
"","html-keyboard-response","106","453936","0.0-8.0-0.4","gog79rk46k","one_one","1","indirect_first","0","er06es22","1","24","1","1","3","1","","0","1","0","null","","","<div style=""font-size:60px;"">+</div>","null","","","","","","","","","",""
"","html-keyboard-response","107","454037","0.0-8.0-1.4","gog79rk46k","one_one","1","indirect_first","0","er06es22","1","24","1","1","3","1","","0","1","0","null","","","<img src = 'category4/CS2.png' width = '100%;'>","null","","","","","","","","","",""
"","html-keyboard-response","108","454300","0.0-8.0-2.4","gog79rk46k","one_one","1","indirect_first","0","er06es22","1","24","1","1","3","1","","0","1","0","null","","","<img src = 'targets/13.png' width = '100%;'>","null","","","","","","","","","",""
"","html-keyboard-response","109","454463","0.0-8.0-3.4","gog79rk46k","one_one","1","indirect_first","0","er06es22","1","24","1","1","3","1","","0","1","0","161","","","<img src = 'targets/mask.png' width = '100%;'>","75","pos","GS","GSold","4","category4/CS2.png","targets/13.png","1","indirect","4",""
"","html-keyboard-response","110","455973","0.0-8.0-0.5","gog79rk46k","one_one","1","indirect_first","0","er06es22","1","24","1","1","3","1","","0","1","0","null","","","<div style=""font-size:60px;"">+</div>","null","","","","","","","","","",""
"","html-keyboard-response","111","456073","0.0-8.0-1.5","gog79rk46k","one_one","1","indirect_first","0","er06es22","1","24","1","1","3","1","","0","1","0","null","","","<img src = 'category4/CS6.png' width = '100%;'>","null","","","","","","","","","",""
"","html-keyboard-response","112","456343","0.0-8.0-2.5","gog79rk46k","one_one","1","indirect_first","0","er06es22","1","24","1","1","3","1","","0","1","0","null","","","<img src = 'targets/7.png' width = '100%;'>","null","","","","","","","","","",""
"","html-keyboard-response","113","456911","0.0-8.0-3.5","gog79rk46k","one_one","1","indirect_first","0","er06es22","1","24","1","1","3","1","","0","1","0","567","","","<img src = 'targets/mask.png' width = '100%;'>","75","pos","GS","GSold","4","category4/CS6.png","targets/7.png","1","indirect","5",""
"","html-keyboard-response","114","458427","0.0-8.0-0.6","gog79rk46k","one_one","1","indirect_first","0","er06es22","1","24","1","1","3","1","","0","1","0","null","","","<div style=""font-size:60px;"">+</div>","null","","","","","","","","","",""
"","html-keyboard-response","115","458527","0.0-8.0-1.6","gog79rk46k","one_one","1","indirect_first","0","er06es22","1","24","1","1","3","1","","0","1","0","null","","","<img src = 'category4/CS5.png' width = '100%;'>","null","","","","","","","","","",""
"","html-keyboard-response","116","458796","0.0-8.0-2.6","gog79rk46k","one_one","1","indirect_first","0","er06es22","1","24","1","1","3","1","","0","1","0","null","","","<img src = 'targets/34.png' width = '100%;'>","null","","","","","","","","","",""
"","html-keyboard-response","117","459551","0.0-8.0-3.6","gog79rk46k","one_one","1","indirect_first","0","er06es22","1","24","1","1","3","1","","0","1","0","755","","","<img src = 'targets/mask.png' width = '100%;'>","75","pos","GS","GSold","4","category4/CS5.png","targets/34.png","1","indirect","6",""
"","html-keyboard-response","118","461056","0.0-8.0-0.7","gog79rk46k","one_one","1","indirect_first","0","er06es22","1","24","1","1","3","1","","0","1","0","null","","","<div style=""font-size:60px;"">+</div>","null","","","","","","","","","",""
"","html-keyboard-response","119","461160","0.0-8.0-1.7","gog79rk46k","one_one","1","indirect_first","0","er06es22","1","24","1","1","3","1","","0","1","0","null","","","<img src = 'category3/CS7.png' width = '100%;'>","null","","","","","","","","","",""
"","html-keyboard-response","120","461419","0.0-8.0-2.7","gog79rk46k","one_one","1","indirect_first","0","er06es22","1","24","1","1","3","1","","0","1","0","null","","","<img src = 'targets/28.png' width = '100%;'>","null","","","","","","","","","",""
"","html-keyboard-response","121","461759","0.0-8.0-3.7","gog79rk46k","one_one","1","indirect_first","0","er06es22","1","24","1","1","3","1","","0","1","0","338","","","<img src = 'targets/mask.png' width = '100%;'>","68","neg","GS","GSold","3","category3/CS7.png","targets/28.png","0","indirect","7",""
"","html-keyboard-response","122","463262","0.0-8.0-0.8","gog79rk46k","one_one","1","indirect_first","0","er06es22","1","24","1","1","3","1","","0","1","0","null","","","<div style=""font-size:60px;"">+</div>","null","","","","","","","","","",""
"","html-keyboard-response","123","463363","0.0-8.0-1.8","gog79rk46k","one_one","1","indirect_first","0","er06es22","1","24","1","1","3","1","","0","1","0","null","","","<img src = 'category2/CS2.png' width = '100%;'>","null","","","","","","","","","",""
"","html-keyboard-response","124","463625","0.0-8.0-2.8","gog79rk46k","one_one","1","indirect_first","0","er06es22","1","24","1","1","3","1","","0","1","0","null","","","<img src = 'targets/24.png' width = '100%;'>","null","","","","","","","","","",""
"","html-keyboard-response","125","464143","0.0-8.0-3.8","gog79rk46k","one_one","1","indirect_first","0","er06es22","1","24","1","1","3","1","","0","1","0","517","","","<img src = 'targets/mask.png' width = '100%;'>","75","pos","GS","GSold","2","category2/CS2.png","targets/24.png","1","indirect","8",""
"","html-keyboard-response","126","465669","0.0-8.0-0.9","gog79rk46k","one_one","1","indirect_first","0","er06es22","1","24","1","1","3","1","","0","1","0","null","","","<div style=""font-size:60px;"">+</div>","null","","","","","","","","","",""
"","html-keyboard-response","127","465769","0.0-8.0-1.9","gog79rk46k","one_one","1","indirect_first","0","er06es22","1","24","1","1","3","1","","0","1","0","null","","","<img src = 'category3/CS6.png' width = '100%;'>","null","","","","","","","","","",""
"","html-keyboard-response","128","466032","0.0-8.0-2.9","gog79rk46k","one_one","1","indirect_first","0","er06es22","1","24","1","1","3","1","","0","1","0","null","","","<img src = 'targets/35.png' width = '100%;'>","null","","","","","","","","","",""
"","html-keyboard-response","129","466912","0.0-8.0-3.9","gog79rk46k","one_one","1","indirect_first","0","er06es22","1","24","1","1","3","1","","0","1","0","877","","","<img src = 'targets/mask.png' width = '100%;'>","68","neg","CS","CS","3","category3/CS6.png","targets/35.png","0","indirect","9",""
"","html-keyboard-response","130","468423","0.0-8.0-0.10","gog79rk46k","one_one","1","indirect_first","0","er06es22","1","24","1","1","3","1","","0","1","0","null","","","<div style=""font-size:60px;"">+</div>","null","","","","","","","","","",""
"","html-keyboard-response","131","468523","0.0-8.0-1.10","gog79rk46k","one_one","1","indirect_first","0","er06es22","1","24","1","1","3","1","","0","1","0","null","","","<img src = 'category2/CS8.png' width = '100%;'>","null","","","","","","","","","",""
"","html-keyboard-response","132","468793","0.0-8.0-2.10","gog79rk46k","one_one","1","indirect_first","0","er06es22","1","24","1","1","3","1","","0","1","0","null","","","<img src = 'targets/38.png' width = '100%;'>","null","","","","","","","","","",""
"","html-keyboard-response","133","469344","0.0-8.0-3.10","gog79rk46k","one_one","1","indirect_first","0","er06es22","1","24","1","1","3","1","","0","1","0","550","","","<img src = 'targets/mask.png' width = '100%;'>","75","pos","GS","GSold","2","category2/CS8.png","targets/38.png","1","indirect","10",""
"","html-keyboard-response","134","470861","0.0-8.0-0.11","gog79rk46k","one_one","1","indirect_first","0","er06es22","1","24","1","1","3","1","","0","1","0","null","","","<div style=""font-size:60px;"">+</div>","null","","","","","","","","","",""
"","html-keyboard-response","135","470962","0.0-8.0-1.11","gog79rk46k","one_one","1","indirect_first","0","er06es22","1","24","1","1","3","1","","0","1","0","null","","","<img src = 'category1/CS5.png' width = '100%;'>","null","","","","","","","","","",""
"","html-keyboard-response","136","471231","0.0-8.0-2.11","gog79rk46k","one_one","1","indirect_first","0","er06es22","1","24","1","1","3","1","","0","1","0","null","","","<img src = 'targets/20.png' width = '100%;'>","null","","","","","","","","","",""
"","html-keyboard-response","137","471903","0.0-8.0-3.11","gog79rk46k","one_one","1","indirect_first","0","er06es22","1","24","1","1","3","1","","0","1","0","670","","","<img src = 'targets/mask.png' width = '100%;'>","68","neg","GS","GSold","1","category1/CS5.png","targets/20.png","0","indirect","11",""
"","html-keyboard-response","138","473406","0.0-8.0-0.12","gog79rk46k","one_one","1","indirect_first","0","er06es22","1","24","1","1","3","1","","0","1","0","null","","","<div style=""font-size:60px;"">+</div>","null","","","","","","","","","",""
"","html-keyboard-response","139","473506","0.0-8.0-1.12","gog79rk46k","one_one","1","indirect_first","0","er06es22","1","24","1","1","3","1","","0","1","0","null","","","<img src = 'category2/CS1.png' width = '100%;'>","null","","","","","","","","","",""
"","html-keyboard-response","140","473769","0.0-8.0-2.12","gog79rk46k","one_one","1","indirect_first","0","er06es22","1","24","1","1","3","1","","0","1","0","null","","","<img src = 'targets/44.png' width = '100%;'>","null","","","","","","","","","",""
"","html-keyboard-response","141","474340","0.0-8.0-3.12","gog79rk46k","one_one","1","indirect_first","0","er06es22","1","24","1","1","3","1","","0","1","0","570","","","<img src = 'targets/mask.png' width = '100%;'>","75","pos","GS","GSold","2","category2/CS1.png","targets/44.png","1","indirect","12",""
"","html-keyboard-response","142","475843","0.0-8.0-0.13","gog79rk46k","one_one","1","indirect_first","0","er06es22","1","24","1","1","3","1","","0","1","0","null","","","<div style=""font-size:60px;"">+</div>","null","","","","","","","","","",""
"","html-keyboard-response","143","475944","0.0-8.0-1.13","gog79rk46k","one_one","1","indirect_first","0","er06es22","1","24","1","1","3","1","","0","1","0","null","","","<img src = 'category4/CS1.png' width = '100%;'>","null","","","","","","","","","",""
"","html-keyboard-response","144","476214","0.0-8.0-2.13","gog79rk46k","one_one","1","indirect_first","0","er06es22","1","24","1","1","3","1","","0","1","0","null","","","<img src = 'targets/11.png' width = '100%;'>","null","","","","","","","","","",""
"","html-keyboard-response","145","476831","0.0-8.0-3.13","gog79rk46k","one_one","1","indirect_first","0","er06es22","1","24","1","1","3","1","","0","1","0","615","","","<img src = 'targets/mask.png' width = '100%;'>","68","pos","CS","CS","4","category4/CS1.png","targets/11.png","0","indirect","13",""
"","html-keyboard-response","146","478335","0.0-8.0-0.14","gog79rk46k","one_one","1","indirect_first","0","er06es22","1","24","1","1","3","1","","0","1","0","null","","","<div style=""font-size:60px;"">+</div>","null","","","","","","","","","",""
"","html-keyboard-response","147","478436","0.0-8.0-1.14","gog79rk46k","one_one","1","indirect_first","0","er06es22","1","24","1","1","3","1","","0","1","0","null","","","<img src = 'category1/CS3.png' width = '100%;'>","null","","","","","","","","","",""
"","html-keyboard-response","148","478706","0.0-8.0-2.14","gog79rk46k","one_one","1","indirect_first","0","er06es22","1","24","1","1","3","1","","0","1","0","null","","","<img src = 'targets/12.png' width = '100%;'>","null","","","","","","","","","",""
"","html-keyboard-response","149","480223","0.0-8.0-3.14","gog79rk46k","one_one","1","indirect_first","0","er06es22","1","24","1","1","3","1","","0","1","0","1516","","","<img src = 'targets/mask.png' width = '100%;'>","75","neg","GS","GSold","1","category1/CS3.png","targets/12.png","1","indirect","14",""
"","html-keyboard-response","150","481729","0.0-8.0-0.15","gog79rk46k","one_one","1","indirect_first","0","er06es22","1","24","1","1","3","1","","0","1","0","null","","","<div style=""font-size:60px;"">+</div>","null","","","","","","","","","",""
"","html-keyboard-response","151","481829","0.0-8.0-1.15","gog79rk46k","one_one","1","indirect_first","0","er06es22","1","24","1","1","3","1","","0","1","0","null","","","<img src = 'category3/CS8.png' width = '100%;'>","null","","","","","","","","","",""
"","html-keyboard-response","152","482093","0.0-8.0-2.15","gog79rk46k","one_one","1","indirect_first","0","er06es22","1","24","1","1","3","1","","0","1","0","null","","","<img src = 'targets/17.png' width = '100%;'>","null","","","","","","","","","",""
"","html-keyboard-response","153","483054","0.0-8.0-3.15","gog79rk46k","one_one","1","indirect_first","0","er06es22","1","24","1","1","3","1","","0","1","0","961","","","<img src = 'targets/mask.png' width = '100%;'>","68","neg","GS","GSold","3","category3/CS8.png","targets/17.png","0","indirect","15",""
"","survey-html-form","154","487429","0.0-9.0","gog79rk46k","one_one","1","indirect_first","0","er06es22","1","24","1","1","3","1","","0","1","0","3863","","{}","","","","","","","","","","","",""
"","html-keyboard-response","155","490437","0.0-10.0-0.0","gog79rk46k","one_one","1","indirect_first","0","er06es22","1","24","1","1","3","1","","0","1","0","null","","","<div style=""font-size:60px;"">+</div>","null","","","","","","","","","",""
"","html-keyboard-response","156","490538","0.0-10.0-1.0","gog79rk46k","one_one","1","indirect_first","0","er06es22","1","24","1","1","3","1","","0","1","0","null","","","<img src = 'category4/GS1.png' width = '100%;'>","null","","","","","","","","","",""
"","html-keyboard-response","157","490801","0.0-10.0-2.0","gog79rk46k","one_one","1","indirect_first","0","er06es22","1","24","1","1","3","1","","0","1","0","null","","","<img src = 'targets/22.png' width = '100%;'>","null","","","","","","","","","",""
"","html-keyboard-response","158","491583","0.0-10.0-3.0","gog79rk46k","one_one","1","indirect_first","0","er06es22","1","24","1","1","3","1","","0","1","0","780","","","<img src = 'targets/mask.png' width = '100%;'>","68","pos","GS","GSnew","4","category4/GS1.png","targets/22.png","0","indirect","16",""
"","html-keyboard-response","159","493110","0.0-10.0-0.1","gog79rk46k","one_one","1","indirect_first","0","er06es22","1","24","1","1","3","1","","0","1","0","null","","","<div style=""font-size:60px;"">+</div>","null","","","","","","","","","",""
"","html-keyboard-response","160","493208","0.0-10.0-1.1","gog79rk46k","one_one","1","indirect_first","0","er06es22","1","24","1","1","3","1","","0","1","0","null","","","<img src = 'category4/GS3.png' width = '100%;'>","null","","","","","","","","","",""
"","html-keyboard-response","161","493477","0.0-10.0-2.1","gog79rk46k","one_one","1","indirect_first","0","er06es22","1","24","1","1","3","1","","0","1","0","null","","","<img src = 'targets/5.png' width = '100%;'>","null","","","","","","","","","",""
"","html-keyboard-response","162","494113","0.0-10.0-3.1","gog79rk46k","one_one","1","indirect_first","0","er06es22","1","24","1","1","3","1","","0","1","0","633","","","<img src = 'targets/mask.png' width = '100%;'>","75","pos","GS","GSnew","4","category4/GS3.png","targets/5.png","1","indirect","17",""
"","html-keyboard-response","163","495630","0.0-10.0-0.2","gog79rk46k","one_one","1","indirect_first","0","er06es22","1","24","1","1","3","1","","0","1","0","null","","","<div style=""font-size:60px;"">+</div>","null","","","","","","","","","",""
"","html-keyboard-response","164","495730","0.0-10.0-1.2","gog79rk46k","one_one","1","indirect_first","0","er06es22","1","24","1","1","3","1","","0","1","0","null","","","<img src = 'category1/ma.png' width = '100%;'>","null","","","","","","","","","",""
"","html-keyboard-response","165","495999","0.0-10.0-2.2","gog79rk46k","one_one","1","indirect_first","0","er06es22","1","24","1","1","3","1","","0","1","0","null","","","<img src = 'targets/40.png' width = '100%;'>","null","","","","","","","","","",""
"","html-keyboard-response","166","497247","0.0-10.0-3.2","gog79rk46k","one_one","1","indirect_first","0","er06es22","1","24","1","1","3","1","","0","1","0","1245","","","<img src = 'targets/mask.png' width = '100%;'>","75","neg","GS","abstract","1","category1/ma.png","targets/40.png","1","indirect","18",""
"","html-keyboard-response","167","498761","0.0-10.0-0.3","gog79rk46k","one_one","1","indirect_first","0","er06es22","1","24","1","1","3","1","","0","1","0","null","","","<div style=""font-size:60px;"">+</div>","null","","","","","","","","","",""
"","html-keyboard-response","168","498861","0.0-10.0-1.3","gog79rk46k","one_one","1","indirect_first","0","er06es22","1","24","1","1","3","1","","0","1","0","null","","","<img src = 'category3/wang.png' width = '100%;'>","null","","","","","","","","","",""
"","html-keyboard-response","169","499124","0.0-10.0-2.3","gog79rk46k","one_one","1","indirect_first","0","er06es22","1","24","1","1","3","1","","0","1","0","null","","","<img src = 'targets/25.png' width = '100%;'>","null","","","","","","","","","",""
"","html-keyboard-response","170","500511","0.0-10.0-3.3","gog79rk46k","one_one","1","indirect_first","0","er06es22","1","24","1","1","3","1","","0","1","0","1385","","","<img src = 'targets/mask.png' width = '100%;'>","68","neg","GS","abstract","3","category3/wang.png","targets/25.png","0","indirect","19",""
"","html-keyboard-response","171","502020","0.0-10.0-0.4","gog79rk46k","one_one","1","indirect_first","0","er06es22","1","24","1","1","3","1","","0","1","0","null","","","<div style=""font-size:60px;"">+</div>","null","","","","","","","","","",""
"","html-keyboard-response","172","502125","0.0-10.0-1.4","gog79rk46k","one_one","1","indirect_first","0","er06es22","1","24","1","1","3","1","","0","1","0","null","","","<img src = 'category4/lin.png' width = '100%;'>","null","","","","","","","","","",""
"","html-keyboard-response","173","502392","0.0-10.0-2.4","gog79rk46k","one_one","1","indirect_first","0","er06es22","1","24","1","1","3","1","","0","1","0","null","","","<img src = 'targets/18.png' width = '100%;'>","null","","","","","","","","","",""
"","html-keyboard-response","174","502895","0.0-10.0-3.4","gog79rk46k","one_one","1","indirect_first","0","er06es22","1","24","1","1","3","1","","0","1","0","502","","","<img src = 'targets/mask.png' width = '100%;'>","75","pos","GS","abstract","4","category4/lin.png","targets/18.png","1","indirect","20",""
"","html-keyboard-response","175","504414","0.0-10.0-0.5","gog79rk46k","one_one","1","indirect_first","0","er06es22","1","24","1","1","3","1","","0","1","0","null","","","<div style=""font-size:60px;"">+</div>","null","","","","","","","","","",""
"","html-keyboard-response","176","504514","0.0-10.0-1.5","gog79rk46k","one_one","1","indirect_first","0","er06es22","1","24","1","1","3","1","","0","1","0","null","","","<img src = 'category2/GS2.png' width = '100%;'>","null","","","","","","","","","",""
"","html-keyboard-response","177","504783","0.0-10.0-2.5","gog79rk46k","one_one","1","indirect_first","0","er06es22","1","24","1","1","3","1","","0","1","0","null","","","<img src = 'targets/41.png' width = '100%;'>","null","","","","","","","","","",""
"","html-keyboard-response","178","505519","0.0-10.0-3.5","gog79rk46k","one_one","1","indirect_first","0","er06es22","1","24","1","1","3","1","","0","1","0","734","","","<img src = 'targets/mask.png' width = '100%;'>","75","pos","GS","GSnew","2","category2/GS2.png","targets/41.png","1","indirect","21",""
"","html-keyboard-response","179","507037","0.0-10.0-0.6","gog79rk46k","one_one","1","indirect_first","0","er06es22","1","24","1","1","3","1","","0","1","0","null","","","<div style=""font-size:60px;"">+</div>","null","","","","","","","","","",""
"","html-keyboard-response","180","507138","0.0-10.0-1.6","gog79rk46k","one_one","1","indirect_first","0","er06es22","1","24","1","1","3","1","","0","1","0","null","","","<img src = 'category3/GS1.png' width = '100%;'>","null","","","","","","","","","",""
"","html-keyboard-response","181","507406","0.0-10.0-2.6","gog79rk46k","one_one","1","indirect_first","0","er06es22","1","24","1","1","3","1","","0","1","0","null","","","<img src = 'targets/2.png' width = '100%;'>","null","","","","","","","","","",""
"","html-keyboard-response","182","508031","0.0-10.0-3.6","gog79rk46k","one_one","1","indirect_first","0","er06es22","1","24","1","1","3","1","","0","1","0","623","","","<img src = 'targets/mask.png' width = '100%;'>","68","neg","GS","GSnew","3","category3/GS1.png","targets/2.png","0","indirect","22",""
"","html-keyboard-response","183","509544","0.0-10.0-0.7","gog79rk46k","one_one","1","indirect_first","0","er06es22","1","24","1","1","3","1","","0","1","0","null","","","<div style=""font-size:60px;"">+</div>","null","","","","","","","","","",""
"","html-keyboard-response","184","509644","0.0-10.0-1.7","gog79rk46k","one_one","1","indirect_first","0","er06es22","1","24","1","1","3","1","","0","1","0","null","","","<img src = 'category2/men.png' width = '100%;'>","null","","","","","","","","","",""
"","html-keyboard-response","185","509913","0.0-10.0-2.7","gog79rk46k","one_one","1","indirect_first","0","er06es22","1","24","1","1","3","1","","0","1","0","null","","","<img src = 'targets/15.png' width = '100%;'>","null","","","","","","","","","",""
"","html-keyboard-response","186","510623","0.0-10.0-3.7","gog79rk46k","one_one","1","indirect_first","0","er06es22","1","24","1","1","3","1","","0","1","0","707","","","<img src = 'targets/mask.png' width = '100%;'>","75","pos","GS","abstract","2","category2/men.png","targets/15.png","1","indirect","23",""
"","html-keyboard-response","187","512135","0.0-10.0-0.8","gog79rk46k","one_one","1","indirect_first","0","er06es22","1","24","1","1","3","1","","0","1","0","null","","","<div style=""font-size:60px;"">+</div>","null","","","","","","","","","",""
"","html-keyboard-response","188","512236","0.0-10.0-1.8","gog79rk46k","one_one","1","indirect_first","0","er06es22","1","24","1","1","3","1","","0","1","0","null","","","<img src = 'category3/GS3.png' width = '100%;'>","null","","","","","","","","","",""
"","html-keyboard-response","189","512506","0.0-10.0-2.8","gog79rk46k","one_one","1","indirect_first","0","er06es22","1","24","1","1","3","1","","0","1","0","null","","","<img src = 'targets/42.png' width = '100%;'>","null","","","","","","","","","",""
"","html-keyboard-response","190","513214","0.0-10.0-3.8","gog79rk46k","one_one","1","indirect_first","0","er06es22","1","24","1","1","3","1","","0","1","0","708","","","<img src = 'targets/mask.png' width = '100%;'>","68","neg","GS","GSnew","3","category3/GS3.png","targets/42.png","0","indirect","24",""
"","html-keyboard-response","191","514728","0.0-10.0-0.9","gog79rk46k","one_one","1","indirect_first","0","er06es22","1","24","1","1","3","1","","0","1","0","null","","","<div style=""font-size:60px;"">+</div>","null","","","","","","","","","",""
"","html-keyboard-response","192","514828","0.0-10.0-1.9","gog79rk46k","one_one","1","indirect_first","0","er06es22","1","24","1","1","3","1","","0","1","0","null","","","<img src = 'category1/GS2.png' width = '100%;'>","null","","","","","","","","","",""
"","html-keyboard-response","193","515097","0.0-10.0-2.9","gog79rk46k","one_one","1","indirect_first","0","er06es22","1","24","1","1","3","1","","0","1","0","null","","","<img src = 'targets/47.png' width = '100%;'>","null","","","","","","","","","",""
"","html-keyboard-response","194","515791","0.0-10.0-3.9","gog79rk46k","one_one","1","indirect_first","0","er06es22","1","24","1","1","3","1","","0","1","0","691","","","<img src = 'targets/mask.png' width = '100%;'>","75","neg","GS","GSnew","1","category1/GS2.png","targets/47.png","1","indirect","25",""
"","html-keyboard-response","195","517335","0.0-10.0-0.10","gog79rk46k","one_one","1","indirect_first","0","er06es22","1","24","1","1","3","1","","0","1","0","null","","","<div style=""font-size:60px;"">+</div>","null","","","","","","","","","",""
"","html-keyboard-response","196","517435","0.0-10.0-1.10","gog79rk46k","one_one","1","indirect_first","0","er06es22","1","24","1","1","3","1","","0","1","0","null","","","<img src = 'category4/GS2.png' width = '100%;'>","null","","","","","","","","","",""
"","html-keyboard-response","197","517705","0.0-10.0-2.10","gog79rk46k","one_one","1","indirect_first","0","er06es22","1","24","1","1","3","1","","0","1","0","null","","","<img src = 'targets/48.png' width = '100%;'>","null","","","","","","","","","",""
"","html-keyboard-response","198","518751","0.0-10.0-3.10","gog79rk46k","one_one","1","indirect_first","0","er06es22","1","24","1","1","3","1","","0","1","0","1044","","","<img src = 'targets/mask.png' width = '100%;'>","75","pos","GS","GSnew","4","category4/GS2.png","targets/48.png","1","indirect","26",""
"","html-keyboard-response","199","520258","0.0-10.0-0.11","gog79rk46k","one_one","1","indirect_first","0","er06es22","1","24","1","1","3","1","","0","1","0","null","","","<div style=""font-size:60px;"">+</div>","null","","","","","","","","","",""
"","html-keyboard-response","200","520358","0.0-10.0-1.11","gog79rk46k","one_one","1","indirect_first","0","er06es22","1","24","1","1","3","1","","0","1","0","null","","","<img src = 'category3/GS2.png' width = '100%;'>","null","","","","","","","","","",""
"","html-keyboard-response","201","520628","0.0-10.0-2.11","gog79rk46k","one_one","1","indirect_first","0","er06es22","1","24","1","1","3","1","","0","1","0","null","","","<img src = 'targets/9.png' width = '100%;'>","null","","","","","","","","","",""
"","html-keyboard-response","202","521199","0.0-10.0-3.11","gog79rk46k","one_one","1","indirect_first","0","er06es22","1","24","1","1","3","1","","0","1","0","568","","","<img src = 'targets/mask.png' width = '100%;'>","68","neg","GS","GSnew","3","category3/GS2.png","targets/9.png","0","indirect","27",""
"","html-keyboard-response","203","522719","0.0-10.0-0.12","gog79rk46k","one_one","1","indirect_first","0","er06es22","1","24","1","1","3","1","","0","1","0","null","","","<div style=""font-size:60px;"">+</div>","null","","","","","","","","","",""
"","html-keyboard-response","204","522818","0.0-10.0-1.12","gog79rk46k","one_one","1","indirect_first","0","er06es22","1","24","1","1","3","1","","0","1","0","null","","","<img src = 'category2/GS3.png' width = '100%;'>","null","","","","","","","","","",""
"","html-keyboard-response","205","523081","0.0-10.0-2.12","gog79rk46k","one_one","1","indirect_first","0","er06es22","1","24","1","1","3","1","","0","1","0","null","","","<img src = 'targets/29.png' width = '100%;'>","null","","","","","","","","","",""
"","html-keyboard-response","206","523711","0.0-10.0-3.12","gog79rk46k","one_one","1","indirect_first","0","er06es22","1","24","1","1","3","1","","0","1","0","628","","","<img src = 'targets/mask.png' width = '100%;'>","75","pos","GS","GSnew","2","category2/GS3.png","targets/29.png","1","indirect","28",""
"","html-keyboard-response","207","525226","0.0-10.0-0.13","gog79rk46k","one_one","1","indirect_first","0","er06es22","1","24","1","1","3","1","","0","1","0","null","","","<div style=""font-size:60px;"">+</div>","null","","","","","","","","","",""
"","html-keyboard-response","208","525326","0.0-10.0-1.13","gog79rk46k","one_one","1","indirect_first","0","er06es22","1","24","1","1","3","1","","0","1","0","null","","","<img src = 'category1/GS1.png' width = '100%;'>","null","","","","","","","","","",""
"","html-keyboard-response","209","525589","0.0-10.0-2.13","gog79rk46k","one_one","1","indirect_first","0","er06es22","1","24","1","1","3","1","","0","1","0","null","","","<img src = 'targets/26.png' width = '100%;'>","null","","","","","","","","","",""
"","html-keyboard-response","210","526511","0.0-10.0-3.13","gog79rk46k","one_one","1","indirect_first","0","er06es22","1","24","1","1","3","1","","0","1","0","921","","","<img src = 'targets/mask.png' width = '100%;'>","75","neg","GS","GSnew","1","category1/GS1.png","targets/26.png","1","indirect","29",""
"","html-keyboard-response","211","528041","0.0-10.0-0.14","gog79rk46k","one_one","1","indirect_first","0","er06es22","1","24","1","1","3","1","","0","1","0","null","","","<div style=""font-size:60px;"">+</div>","null","","","","","","","","","",""
"","html-keyboard-response","212","528141","0.0-10.0-1.14","gog79rk46k","one_one","1","indirect_first","0","er06es22","1","24","1","1","3","1","","0","1","0","null","","","<img src = 'category1/GS3.png' width = '100%;'>","null","","","","","","","","","",""
"","html-keyboard-response","213","528435","0.0-10.0-2.14","gog79rk46k","one_one","1","indirect_first","0","er06es22","1","24","1","1","3","1","","0","1","0","null","","","<img src = 'targets/16.png' width = '100%;'>","null","","","","","","","","","",""
"","html-keyboard-response","214","529888","0.0-10.0-3.14","gog79rk46k","one_one","1","indirect_first","0","er06es22","1","24","1","1","3","1","","0","1","0","1452","","","<img src = 'targets/mask.png' width = '100%;'>","75","neg","GS","GSnew","1","category1/GS3.png","targets/16.png","1","indirect","30",""
"","html-keyboard-response","215","531415","0.0-10.0-0.15","gog79rk46k","one_one","1","indirect_first","0","er06es22","1","24","1","1","3","1","","0","1","0","null","","","<div style=""font-size:60px;"">+</div>","null","","","","","","","","","",""
"","html-keyboard-response","216","531506","0.0-10.0-1.15","gog79rk46k","one_one","1","indirect_first","0","er06es22","1","24","1","1","3","1","","0","1","0","null","","","<img src = 'category2/GS1.png' width = '100%;'>","null","","","","","","","","","",""
"","html-keyboard-response","217","531780","0.0-10.0-2.15","gog79rk46k","one_one","1","indirect_first","0","er06es22","1","24","1","1","3","1","","0","1","0","null","","","<img src = 'targets/3.png' width = '100%;'>","null","","","","","","","","","",""
"","html-keyboard-response","218","532224","0.0-10.0-3.15","gog79rk46k","one_one","1","indirect_first","0","er06es22","1","24","1","1","3","1","","0","1","0","444","","","<img src = 'targets/mask.png' width = '100%;'>","68","pos","GS","GSnew","2","category2/GS1.png","targets/3.png","0","indirect","31",""
"","survey-html-form","219","538716","0.0-11.0","gog79rk46k","one_one","1","indirect_first","0","er06es22","1","24","1","1","3","1","","0","1","0","5968","","{}","","","","","","","","","","","",""
"","image-slider-response","220","547668","0.0-12.0-0.0","gog79rk46k","one_one","1","indirect_first","0","er06es22","1","24","1","1","3","1","","0","1","0","6728","","","","","neg","GS","abstract","3","category3/wang.png","targets/25.png","","direct","","-37"
"","image-slider-response","221","554154","0.0-12.0-0.1","gog79rk46k","one_one","1","indirect_first","0","er06es22","1","24","1","1","3","1","","0","1","0","6482","","","","","pos","GS","GSold","4","category4/CS6.png","targets/7.png","","direct","","74"
"","image-slider-response","222","558979","0.0-12.0-0.2","gog79rk46k","one_one","1","indirect_first","0","er06es22","1","24","1","1","3","1","","0","1","0","4818","","","","","pos","GS","abstract","4","category4/lin.png","targets/18.png","","direct","","69"
"","image-slider-response","223","563963","0.0-12.0-0.3","gog79rk46k","one_one","1","indirect_first","0","er06es22","1","24","1","1","3","1","","0","1","0","4979","","","","","neg","GS","GSold","3","category3/CS7.png","targets/28.png","","direct","","-92"
"","image-slider-response","224","566922","0.0-12.0-0.4","gog79rk46k","one_one","1","indirect_first","0","er06es22","1","24","1","1","3","1","","0","1","0","2956","","","","","neg","GS","GSold","3","category3/CS8.png","targets/17.png","","direct","","-100"
"","image-slider-response","225","570674","0.0-12.0-0.5","gog79rk46k","one_one","1","indirect_first","0","er06es22","1","24","1","1","3","1","","0","1","0","3749","","","","","neg","GS","GSnew","3","category3/GS3.png","targets/42.png","","direct","","-50"
"","image-slider-response","226","575283","0.0-12.0-0.6","gog79rk46k","one_one","1","indirect_first","0","er06es22","1","24","1","1","3","1","","0","1","0","4605","","","","","neg","CS","CS","1","category1/CS7.png","targets/6.png","","direct","","-97"
"","image-slider-response","227","580251","0.0-12.0-0.7","gog79rk46k","one_one","1","indirect_first","0","er06es22","1","24","1","1","3","1","","0","1","0","4965","","","","","pos","GS","GSnew","2","category2/GS1.png","targets/3.png","","direct","","62"
"","image-slider-response","228","584502","0.0-12.0-0.8","gog79rk46k","one_one","1","indirect_first","0","er06es22","1","24","1","1","3","1","","0","1","0","4246","","","","","neg","GS","GSold","3","category3/CS2.png","targets/27.png","","direct","","-45"
"","image-slider-response","229","589243","0.0-12.0-0.9","gog79rk46k","one_one","1","indirect_first","0","er06es22","1","24","1","1","3","1","","0","1","0","4738","","","","","neg","GS","GSnew","1","category1/GS2.png","targets/47.png","","direct","","15"
"","image-slider-response","230","591995","0.0-12.0-0.10","gog79rk46k","one_one","1","indirect_first","0","er06es22","1","24","1","1","3","1","","0","1","0","2749","","","","","pos","GS","GSold","2","category2/CS1.png","targets/44.png","","direct","","72"
"","image-slider-response","231","596115","0.0-12.0-0.11","gog79rk46k","one_one","1","indirect_first","0","er06es22","1","24","1","1","3","1","","0","1","0","4116","","","","","pos","GS","GSnew","4","category4/GS3.png","targets/5.png","","direct","","-16"
"","image-slider-response","232","599347","0.0-12.0-0.12","gog79rk46k","one_one","1","indirect_first","0","er06es22","1","24","1","1","3","1","","0","1","0","3229","","","","","neg","CS","CS","3","category3/CS6.png","targets/35.png","","direct","","-35"
"","image-slider-response","233","605436","0.0-12.0-0.13","gog79rk46k","one_one","1","indirect_first","0","er06es22","1","24","1","1","3","1","","0","1","0","6085","","","","","neg","GS","GSold","1","category1/CS3.png","targets/12.png","","direct","","-3"
"","image-slider-response","234","608315","0.0-12.0-0.14","gog79rk46k","one_one","1","indirect_first","0","er06es22","1","24","1","1","3","1","","0","1","0","2875","","","","","pos","GS","GSold","2","category2/CS2.png","targets/24.png","","direct","","77"
"","image-slider-response","235","610803","0.0-12.0-0.15","gog79rk46k","one_one","1","indirect_first","0","er06es22","1","24","1","1","3","1","","0","1","0","2483","","","","","pos","GS","GSold","4","category4/CS5.png","targets/34.png","","direct","","23"
"","image-slider-response","236","613955","0.0-12.0-0.16","gog79rk46k","one_one","1","indirect_first","0","er06es22","1","24","1","1","3","1","","0","1","0","3148","","","","","neg","GS","abstract","1","category1/ma.png","targets/40.png","","direct","","16"
"","image-slider-response","237","622579","0.0-12.0-0.17","gog79rk46k","one_one","1","indirect_first","0","er06es22","1","24","1","1","3","1","","0","1","0","8620","","","","","neg","GS","GSold","1","category1/CS5.png","targets/20.png","","direct","","16"
"","image-slider-response","238","625090","0.0-12.0-0.18","gog79rk46k","one_one","1","indirect_first","0","er06es22","1","24","1","1","3","1","","0","1","0","2508","","","","","pos","GS","GSnew","4","category4/GS1.png","targets/22.png","","direct","","50"
"","image-slider-response","239","628371","0.0-12.0-0.19","gog79rk46k","one_one","1","indirect_first","0","er06es22","1","24","1","1","3","1","","0","1","0","3277","","","","","pos","GS","GSold","2","category2/CS8.png","targets/38.png","","direct","","85"
"","image-slider-response","240","631194","0.0-12.0-0.20","gog79rk46k","one_one","1","indirect_first","0","er06es22","1","24","1","1","3","1","","0","1","0","2821","","","","","pos","GS","GSnew","2","category2/GS2.png","targets/41.png","","direct","","74"
"","image-slider-response","241","635579","0.0-12.0-0.21","gog79rk46k","one_one","1","indirect_first","0","er06es22","1","24","1","1","3","1","","0","1","0","4380","","","","","pos","GS","GSnew","4","category4/GS2.png","targets/48.png","","direct","","5"
"","image-slider-response","242","638355","0.0-12.0-0.22","gog79rk46k","one_one","1","indirect_first","0","er06es22","1","24","1","1","3","1","","0","1","0","2772","","","","","pos","CS","CS","4","category4/CS1.png","targets/11.png","","direct","","-14"
"","image-slider-response","243","640682","0.0-12.0-0.23","gog79rk46k","one_one","1","indirect_first","0","er06es22","1","24","1","1","3","1","","0","1","0","2324","","","","","neg","GS","GSnew","3","category3/GS1.png","targets/2.png","","direct","","-43"
"","image-slider-response","244","643771","0.0-12.0-0.24","gog79rk46k","one_one","1","indirect_first","0","er06es22","1","24","1","1","3","1","","0","1","0","3084","","","","","neg","GS","GSnew","1","category1/GS3.png","targets/16.png","","direct","","11"
"","image-slider-response","245","646243","0.0-12.0-0.25","gog79rk46k","one_one","1","indirect_first","0","er06es22","1","24","1","1","3","1","","0","1","0","2468","","","","","pos","GS","abstract","2","category2/men.png","targets/15.png","","direct","","84"
"","image-slider-response","246","650267","0.0-12.0-0.26","gog79rk46k","one_one","1","indirect_first","0","er06es22","1","24","1","1","3","1","","0","1","0","4021","","","","","neg","GS","GSold","1","category1/CS4.png","targets/19.png","","direct","","-4"
"","image-slider-response","247","653594","0.0-12.0-0.27","gog79rk46k","one_one","1","indirect_first","0","er06es22","1","24","1","1","3","1","","0","1","0","3324","","","","","pos","GS","GSold","4","category4/CS2.png","targets/13.png","","direct","","9"
"","image-slider-response","248","656267","0.0-12.0-0.28","gog79rk46k","one_one","1","indirect_first","0","er06es22","1","24","1","1","3","1","","0","1","0","2669","","","","","neg","GS","GSnew","3","category3/GS2.png","targets/9.png","","direct","","-83"
"","image-slider-response","249","659115","0.0-12.0-0.29","gog79rk46k","one_one","1","indirect_first","0","er06es22","1","24","1","1","3","1","","0","1","0","2844","","","","","pos","CS","CS","2","category2/CS3.png","targets/1.png","","direct","","41"
"","image-slider-response","250","662556","0.0-12.0-0.30","gog79rk46k","one_one","1","indirect_first","0","er06es22","1","24","1","1","3","1","","0","1","0","3438","","","","","neg","GS","GSnew","1","category1/GS1.png","targets/26.png","","direct","","-14"
"","image-slider-response","251","664795","0.0-12.0-0.31","gog79rk46k","one_one","1","indirect_first","0","er06es22","1","24","1","1","3","1","","0","1","0","2235","","","","","pos","GS","GSnew","2","category2/GS3.png","targets/29.png","","direct","","81"
"","survey-html-form","252","672923","0.0-13.0","gog79rk46k","one_one","1","indirect_first","0","er06es22","1","24","1","1","3","1","","0","1","0","8126","","{}","","","","","","","","","","","",""
"","image-slider-response","253","679931","0.0-14.0-0.0","gog79rk46k","one_one","1","indirect_first","0","er06es22","1","24","1","1","3","1","","0","1","0","5994","","","","","neg","All","all","3","category3/wang_all.png","","","all","","-93"
"","image-slider-response","254","684195","0.0-14.0-0.1","gog79rk46k","one_one","1","indirect_first","0","er06es22","1","24","1","1","3","1","","0","1","0","4260","","","","","pos","All","all","4","category4/lin_all.png","","","all","","9"
"","image-slider-response","255","691836","0.0-14.0-0.2","gog79rk46k","one_one","1","indirect_first","0","er06es22","1","24","1","1","3","1","","0","1","0","7632","","","","","pos","All","all","2","category2/men_all.png","","","all","","98"
"","image-slider-response","256","698283","0.0-14.0-0.3","gog79rk46k","one_one","1","indirect_first","0","er06es22","1","24","1","1","3","1","","0","1","0","6443","","","","","neg","All","all","1","category1/ma_all.png","","","all","","-91"
"","survey-text","257","704299","0.0-15.0","gog79rk46k","one_one","1","indirect_first","0","er06es22","1","24","1","1","3","1","","0","1","0","5864","","{""comment"":""""}","","","","","","","","","","","",""
"","survey-html-form","258","716093","0.0-16.0","gog79rk46k","one_one","1","indirect_first","0","er06es22","1","24","1","1","3","1","","0","1","0","11789","","{""hinschauen"":""0"",""ablenkung"":""1"",""gewissenhaft"":""0""}","","","","","","","","","","","",""
