"success","trial_type","trial_index","time_elapsed","internal_node_id","subject","condition","condition_code","measure","measure_code","codeword","gender","age","education","chinese","fach","handedness","comment","hinschauen","ablenkung","gewissenhaft","rt","url","responses","stimulus","key_press","val","type","type_specific","category","cs_selected","response","target","task","indirect","nr_pres"
"true","fullscreen","0","739307","0.0-0.0","z4tja3oxb5","many_one","0","direct_first","1","rf07as06","0","21","1","0","3","1","","0","1","0","","","","","","","","","","","","","","",""
"","external-html","1","827482","0.0-1.0","z4tja3oxb5","many_one","0","direct_first","1","rf07as06","0","21","1","0","3","1","","0","1","0","88002.31500016525","text/information.html","","","","","","","","","","","","",""
"","external-html","2","861870","0.0-2.0","z4tja3oxb5","many_one","0","direct_first","1","rf07as06","0","21","1","0","3","1","","0","1","0","34289.960000198334","text/consent.html","","","","","","","","","","","","",""
"","survey-html-form","3","947216","0.0-3.0","z4tja3oxb5","many_one","0","direct_first","1","rf07as06","0","21","1","0","3","1","","0","1","0","85338.10500008985","","{""codeword_enter"":""rf07as06""}","","","","","","","","","","","",""
"","survey-html-form","4","994191","0.0-4.0","z4tja3oxb5","many_one","0","direct_first","1","rf07as06","0","21","1","0","3","1","","0","1","0","46959.73000023514","","{""age"":""21"",""education"":""1"",""subject"":""3"",""gender"":""0"",""handedness"":""1"",""chinese"":""0""}","","","","","","","","","","","",""
"","survey-html-form","5","1003574","0.0-5.0","z4tja3oxb5","many_one","0","direct_first","1","rf07as06","0","21","1","0","3","1","","0","1","0","9374.330000020564","","{}","","","","","","","","","","","",""
"","html-keyboard-response","6","1007616","0.0-6.0-0.0-0.0","z4tja3oxb5","many_one","0","direct_first","1","rf07as06","0","21","1","0","3","1","","0","1","0","null","","","<div class = 'row'><div class = 'column'><img src = 'uspos/2360.bmp' width = '100%;'></div><div class = 'column'><img src = 'category2/CS10.png' width = '70%;'></div></div>","null","pos","CS","CS","2","category2/CS10.png","","","","",""
"","html-keyboard-response","7","1010134","0.0-6.0-0.0-0.1","z4tja3oxb5","many_one","0","direct_first","1","rf07as06","0","21","1","0","3","1","","0","1","0","null","","","<div class = 'row'><div class = 'column'><img src = 'usneg/2205.bmp' width = '100%;'></div><div class = 'column'><img src = 'category3/CS7.png' width = '70%;'></div></div>","null","neg","CS","CS","3","category3/CS7.png","","","","",""
"","html-keyboard-response","8","1012651","0.0-6.0-0.0-0.2","z4tja3oxb5","many_one","0","direct_first","1","rf07as06","0","21","1","0","3","1","","0","1","0","null","","","<div class = 'row'><div class = 'column'><img src = 'uspos/2341.bmp' width = '100%;'></div><div class = 'column'><img src = 'category1/CS3.png' width = '70%;'></div></div>","null","pos","CS","CS","1","category1/CS3.png","","","","",""
"","html-keyboard-response","9","1015171","0.0-6.0-0.0-0.3","z4tja3oxb5","many_one","0","direct_first","1","rf07as06","0","21","1","0","3","1","","0","1","0","null","","","<div class = 'row'><div class = 'column'><img src = 'usneg/9415.bmp' width = '100%;'></div><div class = 'column'><img src = 'category4/CS8.png' width = '70%;'></div></div>","null","neg","CS","CS","4","category4/CS8.png","","","","",""
"","html-keyboard-response","10","1017691","0.0-6.0-0.0-0.4","z4tja3oxb5","many_one","0","direct_first","1","rf07as06","0","21","1","0","3","1","","0","1","0","null","","","<div class = 'row'><div class = 'column'><img src = 'uspos/2900.2.bmp' width = '100%;'></div><div class = 'column'><img src = 'category1/CS8.png' width = '70%;'></div></div>","null","pos","CS","CS","1","category1/CS8.png","","","","",""
"","html-keyboard-response","11","1020210","0.0-6.0-0.0-0.5","z4tja3oxb5","many_one","0","direct_first","1","rf07as06","0","21","1","0","3","1","","0","1","0","null","","","<div class = 'row'><div class = 'column'><img src = 'category1/CS6.png' width = '70%;'></div><div class = 'column'><img src = 'uspos/2530.bmp' width = '100%;'></div></div>","null","pos","CS","CS","1","category1/CS6.png","","","","",""
"","html-keyboard-response","12","1022738","0.0-6.0-0.0-0.6","z4tja3oxb5","many_one","0","direct_first","1","rf07as06","0","21","1","0","3","1","","0","1","0","null","","","<div class = 'row'><div class = 'column'><img src = 'category1/CS2.png' width = '70%;'></div><div class = 'column'><img src = 'uspos/5700.bmp' width = '100%;'></div></div>","null","pos","CS","CS","1","category1/CS2.png","","","","",""
"","html-keyboard-response","13","1025263","0.0-6.0-0.0-0.7","z4tja3oxb5","many_one","0","direct_first","1","rf07as06","0","21","1","0","3","1","","0","1","0","null","","","<div class = 'row'><div class = 'column'><img src = 'category2/CS5.png' width = '70%;'></div><div class = 'column'><img src = 'uspos/1710.bmp' width = '100%;'></div></div>","null","pos","CS","CS","2","category2/CS5.png","","","","",""
"","html-keyboard-response","14","1027779","0.0-6.0-0.0-0.8","z4tja3oxb5","many_one","0","direct_first","1","rf07as06","0","21","1","0","3","1","","0","1","0","null","","","<div class = 'row'><div class = 'column'><img src = 'category3/CS1.png' width = '70%;'></div><div class = 'column'><img src = 'usneg/9830.bmp' width = '100%;'></div></div>","null","neg","CS","CS","3","category3/CS1.png","","","","",""
"","html-keyboard-response","15","1030303","0.0-6.0-0.0-0.9","z4tja3oxb5","many_one","0","direct_first","1","rf07as06","0","21","1","0","3","1","","0","1","0","null","","","<div class = 'row'><div class = 'column'><img src = 'usneg/9290.bmp' width = '100%;'></div><div class = 'column'><img src = 'category3/CS2.png' width = '70%;'></div></div>","null","neg","CS","CS","3","category3/CS2.png","","","","",""
"","html-keyboard-response","16","1032829","0.0-6.0-0.0-0.10","z4tja3oxb5","many_one","0","direct_first","1","rf07as06","0","21","1","0","3","1","","0","1","0","null","","","<div class = 'row'><div class = 'column'><img src = 'usneg/9584.bmp' width = '100%;'></div><div class = 'column'><img src = 'category4/CS5.png' width = '70%;'></div></div>","null","neg","CS","CS","4","category4/CS5.png","","","","",""
"","html-keyboard-response","17","1035364","0.0-6.0-0.0-0.11","z4tja3oxb5","many_one","0","direct_first","1","rf07as06","0","21","1","0","3","1","","0","1","0","null","","","<div class = 'row'><div class = 'column'><img src = 'usneg/6570.1.bmp' width = '100%;'></div><div class = 'column'><img src = 'category4/CS7.png' width = '70%;'></div></div>","null","neg","CS","CS","4","category4/CS7.png","","","","",""
"","html-keyboard-response","18","1037880","0.0-6.0-0.0-0.12","z4tja3oxb5","many_one","0","direct_first","1","rf07as06","0","21","1","0","3","1","","0","1","0","null","","","<div class = 'row'><div class = 'column'><img src = 'category4/CS4.png' width = '70%;'></div><div class = 'column'><img src = 'usneg/6020.bmp' width = '100%;'></div></div>","null","neg","CS","CS","4","category4/CS4.png","","","","",""
"","html-keyboard-response","19","1040404","0.0-6.0-0.0-0.13","z4tja3oxb5","many_one","0","direct_first","1","rf07as06","0","21","1","0","3","1","","0","1","0","null","","","<div class = 'row'><div class = 'column'><img src = 'category3/CS9.png' width = '70%;'></div><div class = 'column'><img src = 'usneg/6212.bmp' width = '100%;'></div></div>","null","neg","CS","CS","3","category3/CS9.png","","","","",""
"","html-keyboard-response","20","1042922","0.0-6.0-0.0-0.14","z4tja3oxb5","many_one","0","direct_first","1","rf07as06","0","21","1","0","3","1","","0","1","0","null","","","<div class = 'row'><div class = 'column'><img src = 'uspos/2550.bmp' width = '100%;'></div><div class = 'column'><img src = 'category2/CS9.png' width = '70%;'></div></div>","null","pos","CS","CS","2","category2/CS9.png","","","","",""
"","html-keyboard-response","21","1045452","0.0-6.0-0.0-0.15","z4tja3oxb5","many_one","0","direct_first","1","rf07as06","0","21","1","0","3","1","","0","1","0","null","","","<div class = 'row'><div class = 'column'><img src = 'category4/CS3.png' width = '70%;'></div><div class = 'column'><img src = 'usneg/2141.bmp' width = '100%;'></div></div>","null","neg","CS","CS","4","category4/CS3.png","","","","",""
"","html-keyboard-response","22","1047981","0.0-6.0-0.0-0.16","z4tja3oxb5","many_one","0","direct_first","1","rf07as06","0","21","1","0","3","1","","0","1","0","null","","","<div class = 'row'><div class = 'column'><img src = 'category1/CS4.png' width = '70%;'></div><div class = 'column'><img src = 'uspos/2058.bmp' width = '100%;'></div></div>","null","pos","CS","CS","1","category1/CS4.png","","","","",""
"","html-keyboard-response","23","1050513","0.0-6.0-0.0-0.17","z4tja3oxb5","many_one","0","direct_first","1","rf07as06","0","21","1","0","3","1","","0","1","0","null","","","<div class = 'row'><div class = 'column'><img src = 'uspos/5621.bmp' width = '100%;'></div><div class = 'column'><img src = 'category2/CS4.png' width = '70%;'></div></div>","null","pos","CS","CS","2","category2/CS4.png","","","","",""
"","html-keyboard-response","24","1053043","0.0-6.0-0.0-0.18","z4tja3oxb5","many_one","0","direct_first","1","rf07as06","0","21","1","0","3","1","","0","1","0","null","","","<div class = 'row'><div class = 'column'><img src = 'category3/CS4.png' width = '70%;'></div><div class = 'column'><img src = 'usneg/9050.bmp' width = '100%;'></div></div>","null","neg","CS","CS","3","category3/CS4.png","","","","",""
"","html-keyboard-response","25","1055559","0.0-6.0-0.0-0.19","z4tja3oxb5","many_one","0","direct_first","1","rf07as06","0","21","1","0","3","1","","0","1","0","null","","","<div class = 'row'><div class = 'column'><img src = 'uspos/8490.bmp' width = '100%;'></div><div class = 'column'><img src = 'category2/CS2.png' width = '70%;'></div></div>","null","pos","CS","CS","2","category2/CS2.png","","","","",""
"","survey-html-form","26","1058887","0.0-6.0-1.0","z4tja3oxb5","many_one","0","direct_first","1","rf07as06","0","21","1","0","3","1","","0","1","0","2819.7750002145767","","{}","","","","","","","","","","","",""
"","html-keyboard-response","27","1062917","0.0-6.0-2.0-0.0","z4tja3oxb5","many_one","0","direct_first","1","rf07as06","0","21","1","0","3","1","","0","1","0","null","","","<div class = 'row'><div class = 'column'><img src = 'usneg/9290.bmp' width = '100%;'></div><div class = 'column'><img src = 'category3/CS2.png' width = '70%;'></div></div>","null","neg","CS","CS","3","category3/CS2.png","","","","",""
"","html-keyboard-response","28","1065432","0.0-6.0-2.0-0.1","z4tja3oxb5","many_one","0","direct_first","1","rf07as06","0","21","1","0","3","1","","0","1","0","null","","","<div class = 'row'><div class = 'column'><img src = 'uspos/5700.bmp' width = '100%;'></div><div class = 'column'><img src = 'category1/CS2.png' width = '70%;'></div></div>","null","pos","CS","CS","1","category1/CS2.png","","","","",""
"","html-keyboard-response","29","1067957","0.0-6.0-2.0-0.2","z4tja3oxb5","many_one","0","direct_first","1","rf07as06","0","21","1","0","3","1","","0","1","0","null","","","<div class = 'row'><div class = 'column'><img src = 'usneg/9830.bmp' width = '100%;'></div><div class = 'column'><img src = 'category3/CS1.png' width = '70%;'></div></div>","null","neg","CS","CS","3","category3/CS1.png","","","","",""
"","html-keyboard-response","30","1070477","0.0-6.0-2.0-0.3","z4tja3oxb5","many_one","0","direct_first","1","rf07as06","0","21","1","0","3","1","","0","1","0","null","","","<div class = 'row'><div class = 'column'><img src = 'category2/CS4.png' width = '70%;'></div><div class = 'column'><img src = 'uspos/5621.bmp' width = '100%;'></div></div>","null","pos","CS","CS","2","category2/CS4.png","","","","",""
"","html-keyboard-response","31","1073005","0.0-6.0-2.0-0.4","z4tja3oxb5","many_one","0","direct_first","1","rf07as06","0","21","1","0","3","1","","0","1","0","null","","","<div class = 'row'><div class = 'column'><img src = 'category2/CS9.png' width = '70%;'></div><div class = 'column'><img src = 'uspos/2550.bmp' width = '100%;'></div></div>","null","pos","CS","CS","2","category2/CS9.png","","","","",""
"","html-keyboard-response","32","1075522","0.0-6.0-2.0-0.5","z4tja3oxb5","many_one","0","direct_first","1","rf07as06","0","21","1","0","3","1","","0","1","0","null","","","<div class = 'row'><div class = 'column'><img src = 'uspos/2341.bmp' width = '100%;'></div><div class = 'column'><img src = 'category1/CS3.png' width = '70%;'></div></div>","null","pos","CS","CS","1","category1/CS3.png","","","","",""
"","html-keyboard-response","33","1078043","0.0-6.0-2.0-0.6","z4tja3oxb5","many_one","0","direct_first","1","rf07as06","0","21","1","0","3","1","","0","1","0","null","","","<div class = 'row'><div class = 'column'><img src = 'usneg/9415.bmp' width = '100%;'></div><div class = 'column'><img src = 'category4/CS8.png' width = '70%;'></div></div>","null","neg","CS","CS","4","category4/CS8.png","","","","",""
"","html-keyboard-response","34","1080556","0.0-6.0-2.0-0.7","z4tja3oxb5","many_one","0","direct_first","1","rf07as06","0","21","1","0","3","1","","0","1","0","null","","","<div class = 'row'><div class = 'column'><img src = 'category1/CS8.png' width = '70%;'></div><div class = 'column'><img src = 'uspos/2900.2.bmp' width = '100%;'></div></div>","null","pos","CS","CS","1","category1/CS8.png","","","","",""
"","html-keyboard-response","35","1083077","0.0-6.0-2.0-0.8","z4tja3oxb5","many_one","0","direct_first","1","rf07as06","0","21","1","0","3","1","","0","1","0","null","","","<div class = 'row'><div class = 'column'><img src = 'category2/CS10.png' width = '70%;'></div><div class = 'column'><img src = 'uspos/2360.bmp' width = '100%;'></div></div>","null","pos","CS","CS","2","category2/CS10.png","","","","",""
"","html-keyboard-response","36","1085612","0.0-6.0-2.0-0.9","z4tja3oxb5","many_one","0","direct_first","1","rf07as06","0","21","1","0","3","1","","0","1","0","null","","","<div class = 'row'><div class = 'column'><img src = 'usneg/2205.bmp' width = '100%;'></div><div class = 'column'><img src = 'category3/CS7.png' width = '70%;'></div></div>","null","neg","CS","CS","3","category3/CS7.png","","","","",""
"","html-keyboard-response","37","1088137","0.0-6.0-2.0-0.10","z4tja3oxb5","many_one","0","direct_first","1","rf07as06","0","21","1","0","3","1","","0","1","0","null","","","<div class = 'row'><div class = 'column'><img src = 'category3/CS4.png' width = '70%;'></div><div class = 'column'><img src = 'usneg/9050.bmp' width = '100%;'></div></div>","null","neg","CS","CS","3","category3/CS4.png","","","","",""
"","html-keyboard-response","38","1090657","0.0-6.0-2.0-0.11","z4tja3oxb5","many_one","0","direct_first","1","rf07as06","0","21","1","0","3","1","","0","1","0","null","","","<div class = 'row'><div class = 'column'><img src = 'category4/CS3.png' width = '70%;'></div><div class = 'column'><img src = 'usneg/2141.bmp' width = '100%;'></div></div>","null","neg","CS","CS","4","category4/CS3.png","","","","",""
"","html-keyboard-response","39","1093189","0.0-6.0-2.0-0.12","z4tja3oxb5","many_one","0","direct_first","1","rf07as06","0","21","1","0","3","1","","0","1","0","null","","","<div class = 'row'><div class = 'column'><img src = 'uspos/2530.bmp' width = '100%;'></div><div class = 'column'><img src = 'category1/CS6.png' width = '70%;'></div></div>","null","pos","CS","CS","1","category1/CS6.png","","","","",""
"","html-keyboard-response","40","1095706","0.0-6.0-2.0-0.13","z4tja3oxb5","many_one","0","direct_first","1","rf07as06","0","21","1","0","3","1","","0","1","0","null","","","<div class = 'row'><div class = 'column'><img src = 'usneg/6020.bmp' width = '100%;'></div><div class = 'column'><img src = 'category4/CS4.png' width = '70%;'></div></div>","null","neg","CS","CS","4","category4/CS4.png","","","","",""
"","html-keyboard-response","41","1098233","0.0-6.0-2.0-0.14","z4tja3oxb5","many_one","0","direct_first","1","rf07as06","0","21","1","0","3","1","","0","1","0","null","","","<div class = 'row'><div class = 'column'><img src = 'usneg/9584.bmp' width = '100%;'></div><div class = 'column'><img src = 'category4/CS5.png' width = '70%;'></div></div>","null","neg","CS","CS","4","category4/CS5.png","","","","",""
"","html-keyboard-response","42","1100760","0.0-6.0-2.0-0.15","z4tja3oxb5","many_one","0","direct_first","1","rf07as06","0","21","1","0","3","1","","0","1","0","null","","","<div class = 'row'><div class = 'column'><img src = 'category2/CS5.png' width = '70%;'></div><div class = 'column'><img src = 'uspos/1710.bmp' width = '100%;'></div></div>","null","pos","CS","CS","2","category2/CS5.png","","","","",""
"","html-keyboard-response","43","1103285","0.0-6.0-2.0-0.16","z4tja3oxb5","many_one","0","direct_first","1","rf07as06","0","21","1","0","3","1","","0","1","0","null","","","<div class = 'row'><div class = 'column'><img src = 'category3/CS9.png' width = '70%;'></div><div class = 'column'><img src = 'usneg/6212.bmp' width = '100%;'></div></div>","null","neg","CS","CS","3","category3/CS9.png","","","","",""
"","html-keyboard-response","44","1105813","0.0-6.0-2.0-0.17","z4tja3oxb5","many_one","0","direct_first","1","rf07as06","0","21","1","0","3","1","","0","1","0","null","","","<div class = 'row'><div class = 'column'><img src = 'usneg/6570.1.bmp' width = '100%;'></div><div class = 'column'><img src = 'category4/CS7.png' width = '70%;'></div></div>","null","neg","CS","CS","4","category4/CS7.png","","","","",""
"","html-keyboard-response","45","1108337","0.0-6.0-2.0-0.18","z4tja3oxb5","many_one","0","direct_first","1","rf07as06","0","21","1","0","3","1","","0","1","0","null","","","<div class = 'row'><div class = 'column'><img src = 'uspos/8490.bmp' width = '100%;'></div><div class = 'column'><img src = 'category2/CS2.png' width = '70%;'></div></div>","null","pos","CS","CS","2","category2/CS2.png","","","","",""
"","html-keyboard-response","46","1110862","0.0-6.0-2.0-0.19","z4tja3oxb5","many_one","0","direct_first","1","rf07as06","0","21","1","0","3","1","","0","1","0","null","","","<div class = 'row'><div class = 'column'><img src = 'category1/CS4.png' width = '70%;'></div><div class = 'column'><img src = 'uspos/2058.bmp' width = '100%;'></div></div>","null","pos","CS","CS","1","category1/CS4.png","","","","",""
"","survey-html-form","47","1118351","0.0-6.0-3.0","z4tja3oxb5","many_one","0","direct_first","1","rf07as06","0","21","1","0","3","1","","0","1","0","6978.110000025481","","{}","","","","","","","","","","","",""
"","html-keyboard-response","48","1122374","0.0-6.0-4.0-0.0","z4tja3oxb5","many_one","0","direct_first","1","rf07as06","0","21","1","0","3","1","","0","1","0","null","","","<div class = 'row'><div class = 'column'><img src = 'uspos/2550.bmp' width = '100%;'></div><div class = 'column'><img src = 'category2/CS9.png' width = '70%;'></div></div>","null","pos","CS","CS","2","category2/CS9.png","","","","",""
"","html-keyboard-response","49","1124886","0.0-6.0-4.0-0.1","z4tja3oxb5","many_one","0","direct_first","1","rf07as06","0","21","1","0","3","1","","0","1","0","null","","","<div class = 'row'><div class = 'column'><img src = 'usneg/2205.bmp' width = '100%;'></div><div class = 'column'><img src = 'category3/CS7.png' width = '70%;'></div></div>","null","neg","CS","CS","3","category3/CS7.png","","","","",""
"","html-keyboard-response","50","1127419","0.0-6.0-4.0-0.2","z4tja3oxb5","many_one","0","direct_first","1","rf07as06","0","21","1","0","3","1","","0","1","0","null","","","<div class = 'row'><div class = 'column'><img src = 'uspos/2058.bmp' width = '100%;'></div><div class = 'column'><img src = 'category1/CS4.png' width = '70%;'></div></div>","null","pos","CS","CS","1","category1/CS4.png","","","","",""
"","html-keyboard-response","51","1129936","0.0-6.0-4.0-0.3","z4tja3oxb5","many_one","0","direct_first","1","rf07as06","0","21","1","0","3","1","","0","1","0","null","","","<div class = 'row'><div class = 'column'><img src = 'category4/CS8.png' width = '70%;'></div><div class = 'column'><img src = 'usneg/9415.bmp' width = '100%;'></div></div>","null","neg","CS","CS","4","category4/CS8.png","","","","",""
"","html-keyboard-response","52","1132457","0.0-6.0-4.0-0.4","z4tja3oxb5","many_one","0","direct_first","1","rf07as06","0","21","1","0","3","1","","0","1","0","null","","","<div class = 'row'><div class = 'column'><img src = 'category4/CS4.png' width = '70%;'></div><div class = 'column'><img src = 'usneg/6020.bmp' width = '100%;'></div></div>","null","neg","CS","CS","4","category4/CS4.png","","","","",""
"","html-keyboard-response","53","1134981","0.0-6.0-4.0-0.5","z4tja3oxb5","many_one","0","direct_first","1","rf07as06","0","21","1","0","3","1","","0","1","0","null","","","<div class = 'row'><div class = 'column'><img src = 'uspos/1710.bmp' width = '100%;'></div><div class = 'column'><img src = 'category2/CS5.png' width = '70%;'></div></div>","null","pos","CS","CS","2","category2/CS5.png","","","","",""
"","html-keyboard-response","54","1137498","0.0-6.0-4.0-0.6","z4tja3oxb5","many_one","0","direct_first","1","rf07as06","0","21","1","0","3","1","","0","1","0","null","","","<div class = 'row'><div class = 'column'><img src = 'uspos/2900.2.bmp' width = '100%;'></div><div class = 'column'><img src = 'category1/CS8.png' width = '70%;'></div></div>","null","pos","CS","CS","1","category1/CS8.png","","","","",""
"","html-keyboard-response","55","1140026","0.0-6.0-4.0-0.7","z4tja3oxb5","many_one","0","direct_first","1","rf07as06","0","21","1","0","3","1","","0","1","0","null","","","<div class = 'row'><div class = 'column'><img src = 'usneg/9290.bmp' width = '100%;'></div><div class = 'column'><img src = 'category3/CS2.png' width = '70%;'></div></div>","null","neg","CS","CS","3","category3/CS2.png","","","","",""
"","html-keyboard-response","56","1142543","0.0-6.0-4.0-0.8","z4tja3oxb5","many_one","0","direct_first","1","rf07as06","0","21","1","0","3","1","","0","1","0","null","","","<div class = 'row'><div class = 'column'><img src = 'uspos/2341.bmp' width = '100%;'></div><div class = 'column'><img src = 'category1/CS3.png' width = '70%;'></div></div>","null","pos","CS","CS","1","category1/CS3.png","","","","",""
"","html-keyboard-response","57","1145059","0.0-6.0-4.0-0.9","z4tja3oxb5","many_one","0","direct_first","1","rf07as06","0","21","1","0","3","1","","0","1","0","null","","","<div class = 'row'><div class = 'column'><img src = 'category2/CS2.png' width = '70%;'></div><div class = 'column'><img src = 'uspos/8490.bmp' width = '100%;'></div></div>","null","pos","CS","CS","2","category2/CS2.png","","","","",""
"","html-keyboard-response","58","1147578","0.0-6.0-4.0-0.10","z4tja3oxb5","many_one","0","direct_first","1","rf07as06","0","21","1","0","3","1","","0","1","0","null","","","<div class = 'row'><div class = 'column'><img src = 'category3/CS9.png' width = '70%;'></div><div class = 'column'><img src = 'usneg/6212.bmp' width = '100%;'></div></div>","null","neg","CS","CS","3","category3/CS9.png","","","","",""
"","html-keyboard-response","59","1150099","0.0-6.0-4.0-0.11","z4tja3oxb5","many_one","0","direct_first","1","rf07as06","0","21","1","0","3","1","","0","1","0","null","","","<div class = 'row'><div class = 'column'><img src = 'category1/CS6.png' width = '70%;'></div><div class = 'column'><img src = 'uspos/2530.bmp' width = '100%;'></div></div>","null","pos","CS","CS","1","category1/CS6.png","","","","",""
"","html-keyboard-response","60","1152639","0.0-6.0-4.0-0.12","z4tja3oxb5","many_one","0","direct_first","1","rf07as06","0","21","1","0","3","1","","0","1","0","null","","","<div class = 'row'><div class = 'column'><img src = 'category4/CS7.png' width = '70%;'></div><div class = 'column'><img src = 'usneg/6570.1.bmp' width = '100%;'></div></div>","null","neg","CS","CS","4","category4/CS7.png","","","","",""
"","html-keyboard-response","61","1155160","0.0-6.0-4.0-0.13","z4tja3oxb5","many_one","0","direct_first","1","rf07as06","0","21","1","0","3","1","","0","1","0","null","","","<div class = 'row'><div class = 'column'><img src = 'category4/CS5.png' width = '70%;'></div><div class = 'column'><img src = 'usneg/9584.bmp' width = '100%;'></div></div>","null","neg","CS","CS","4","category4/CS5.png","","","","",""
"","html-keyboard-response","62","1157681","0.0-6.0-4.0-0.14","z4tja3oxb5","many_one","0","direct_first","1","rf07as06","0","21","1","0","3","1","","0","1","0","null","","","<div class = 'row'><div class = 'column'><img src = 'usneg/9050.bmp' width = '100%;'></div><div class = 'column'><img src = 'category3/CS4.png' width = '70%;'></div></div>","null","neg","CS","CS","3","category3/CS4.png","","","","",""
"","html-keyboard-response","63","1160210","0.0-6.0-4.0-0.15","z4tja3oxb5","many_one","0","direct_first","1","rf07as06","0","21","1","0","3","1","","0","1","0","null","","","<div class = 'row'><div class = 'column'><img src = 'category4/CS3.png' width = '70%;'></div><div class = 'column'><img src = 'usneg/2141.bmp' width = '100%;'></div></div>","null","neg","CS","CS","4","category4/CS3.png","","","","",""
"","html-keyboard-response","64","1162738","0.0-6.0-4.0-0.16","z4tja3oxb5","many_one","0","direct_first","1","rf07as06","0","21","1","0","3","1","","0","1","0","null","","","<div class = 'row'><div class = 'column'><img src = 'uspos/5621.bmp' width = '100%;'></div><div class = 'column'><img src = 'category2/CS4.png' width = '70%;'></div></div>","null","pos","CS","CS","2","category2/CS4.png","","","","",""
"","html-keyboard-response","65","1165264","0.0-6.0-4.0-0.17","z4tja3oxb5","many_one","0","direct_first","1","rf07as06","0","21","1","0","3","1","","0","1","0","null","","","<div class = 'row'><div class = 'column'><img src = 'uspos/5700.bmp' width = '100%;'></div><div class = 'column'><img src = 'category1/CS2.png' width = '70%;'></div></div>","null","pos","CS","CS","1","category1/CS2.png","","","","",""
"","html-keyboard-response","66","1167786","0.0-6.0-4.0-0.18","z4tja3oxb5","many_one","0","direct_first","1","rf07as06","0","21","1","0","3","1","","0","1","0","null","","","<div class = 'row'><div class = 'column'><img src = 'category2/CS10.png' width = '70%;'></div><div class = 'column'><img src = 'uspos/2360.bmp' width = '100%;'></div></div>","null","pos","CS","CS","2","category2/CS10.png","","","","",""
"","html-keyboard-response","67","1170312","0.0-6.0-4.0-0.19","z4tja3oxb5","many_one","0","direct_first","1","rf07as06","0","21","1","0","3","1","","0","1","0","null","","","<div class = 'row'><div class = 'column'><img src = 'category3/CS1.png' width = '70%;'></div><div class = 'column'><img src = 'usneg/9830.bmp' width = '100%;'></div></div>","null","neg","CS","CS","3","category3/CS1.png","","","","",""
"","survey-html-form","68","1174460","0.0-6.0-5.0","z4tja3oxb5","many_one","0","direct_first","1","rf07as06","0","21","1","0","3","1","","0","1","0","3631.000000052154","","{}","","","","","","","","","","","",""
"","html-keyboard-response","69","1178497","0.0-6.0-6.0-0.0","z4tja3oxb5","many_one","0","direct_first","1","rf07as06","0","21","1","0","3","1","","0","1","0","null","","","<div class = 'row'><div class = 'column'><img src = 'usneg/6020.bmp' width = '100%;'></div><div class = 'column'><img src = 'category4/CS4.png' width = '70%;'></div></div>","null","neg","CS","CS","4","category4/CS4.png","","","","",""
"","html-keyboard-response","70","1181023","0.0-6.0-6.0-0.1","z4tja3oxb5","many_one","0","direct_first","1","rf07as06","0","21","1","0","3","1","","0","1","0","null","","","<div class = 'row'><div class = 'column'><img src = 'uspos/5700.bmp' width = '100%;'></div><div class = 'column'><img src = 'category1/CS2.png' width = '70%;'></div></div>","null","pos","CS","CS","1","category1/CS2.png","","","","",""
"","html-keyboard-response","71","1183552","0.0-6.0-6.0-0.2","z4tja3oxb5","many_one","0","direct_first","1","rf07as06","0","21","1","0","3","1","","0","1","0","null","","","<div class = 'row'><div class = 'column'><img src = 'category2/CS5.png' width = '70%;'></div><div class = 'column'><img src = 'uspos/1710.bmp' width = '100%;'></div></div>","null","pos","CS","CS","2","category2/CS5.png","","","","",""
"","html-keyboard-response","72","1186078","0.0-6.0-6.0-0.3","z4tja3oxb5","many_one","0","direct_first","1","rf07as06","0","21","1","0","3","1","","0","1","0","null","","","<div class = 'row'><div class = 'column'><img src = 'usneg/2205.bmp' width = '100%;'></div><div class = 'column'><img src = 'category3/CS7.png' width = '70%;'></div></div>","null","neg","CS","CS","3","category3/CS7.png","","","","",""
"","html-keyboard-response","73","1188588","0.0-6.0-6.0-0.4","z4tja3oxb5","many_one","0","direct_first","1","rf07as06","0","21","1","0","3","1","","0","1","0","null","","","<div class = 'row'><div class = 'column'><img src = 'category1/CS3.png' width = '70%;'></div><div class = 'column'><img src = 'uspos/2341.bmp' width = '100%;'></div></div>","null","pos","CS","CS","1","category1/CS3.png","","","","",""
"","html-keyboard-response","74","1191113","0.0-6.0-6.0-0.5","z4tja3oxb5","many_one","0","direct_first","1","rf07as06","0","21","1","0","3","1","","0","1","0","null","","","<div class = 'row'><div class = 'column'><img src = 'usneg/9290.bmp' width = '100%;'></div><div class = 'column'><img src = 'category3/CS2.png' width = '70%;'></div></div>","null","neg","CS","CS","3","category3/CS2.png","","","","",""
"","html-keyboard-response","75","1193640","0.0-6.0-6.0-0.6","z4tja3oxb5","many_one","0","direct_first","1","rf07as06","0","21","1","0","3","1","","0","1","0","null","","","<div class = 'row'><div class = 'column'><img src = 'category4/CS3.png' width = '70%;'></div><div class = 'column'><img src = 'usneg/2141.bmp' width = '100%;'></div></div>","null","neg","CS","CS","4","category4/CS3.png","","","","",""
"","html-keyboard-response","76","1196157","0.0-6.0-6.0-0.7","z4tja3oxb5","many_one","0","direct_first","1","rf07as06","0","21","1","0","3","1","","0","1","0","null","","","<div class = 'row'><div class = 'column'><img src = 'uspos/2550.bmp' width = '100%;'></div><div class = 'column'><img src = 'category2/CS9.png' width = '70%;'></div></div>","null","pos","CS","CS","2","category2/CS9.png","","","","",""
"","html-keyboard-response","77","1198668","0.0-6.0-6.0-0.8","z4tja3oxb5","many_one","0","direct_first","1","rf07as06","0","21","1","0","3","1","","0","1","0","null","","","<div class = 'row'><div class = 'column'><img src = 'uspos/2900.2.bmp' width = '100%;'></div><div class = 'column'><img src = 'category1/CS8.png' width = '70%;'></div></div>","null","pos","CS","CS","1","category1/CS8.png","","","","",""
"","html-keyboard-response","78","1201177","0.0-6.0-6.0-0.9","z4tja3oxb5","many_one","0","direct_first","1","rf07as06","0","21","1","0","3","1","","0","1","0","null","","","<div class = 'row'><div class = 'column'><img src = 'usneg/6570.1.bmp' width = '100%;'></div><div class = 'column'><img src = 'category4/CS7.png' width = '70%;'></div></div>","null","neg","CS","CS","4","category4/CS7.png","","","","",""
"","html-keyboard-response","79","1203696","0.0-6.0-6.0-0.10","z4tja3oxb5","many_one","0","direct_first","1","rf07as06","0","21","1","0","3","1","","0","1","0","null","","","<div class = 'row'><div class = 'column'><img src = 'usneg/9415.bmp' width = '100%;'></div><div class = 'column'><img src = 'category4/CS8.png' width = '70%;'></div></div>","null","neg","CS","CS","4","category4/CS8.png","","","","",""
"","html-keyboard-response","80","1206216","0.0-6.0-6.0-0.11","z4tja3oxb5","many_one","0","direct_first","1","rf07as06","0","21","1","0","3","1","","0","1","0","null","","","<div class = 'row'><div class = 'column'><img src = 'usneg/9050.bmp' width = '100%;'></div><div class = 'column'><img src = 'category3/CS4.png' width = '70%;'></div></div>","null","neg","CS","CS","3","category3/CS4.png","","","","",""
"","html-keyboard-response","81","1208744","0.0-6.0-6.0-0.12","z4tja3oxb5","many_one","0","direct_first","1","rf07as06","0","21","1","0","3","1","","0","1","0","null","","","<div class = 'row'><div class = 'column'><img src = 'usneg/9584.bmp' width = '100%;'></div><div class = 'column'><img src = 'category4/CS5.png' width = '70%;'></div></div>","null","neg","CS","CS","4","category4/CS5.png","","","","",""
"","html-keyboard-response","82","1211266","0.0-6.0-6.0-0.13","z4tja3oxb5","many_one","0","direct_first","1","rf07as06","0","21","1","0","3","1","","0","1","0","null","","","<div class = 'row'><div class = 'column'><img src = 'uspos/8490.bmp' width = '100%;'></div><div class = 'column'><img src = 'category2/CS2.png' width = '70%;'></div></div>","null","pos","CS","CS","2","category2/CS2.png","","","","",""
"","html-keyboard-response","83","1213782","0.0-6.0-6.0-0.14","z4tja3oxb5","many_one","0","direct_first","1","rf07as06","0","21","1","0","3","1","","0","1","0","null","","","<div class = 'row'><div class = 'column'><img src = 'category2/CS4.png' width = '70%;'></div><div class = 'column'><img src = 'uspos/5621.bmp' width = '100%;'></div></div>","null","pos","CS","CS","2","category2/CS4.png","","","","",""
"","html-keyboard-response","84","1216302","0.0-6.0-6.0-0.15","z4tja3oxb5","many_one","0","direct_first","1","rf07as06","0","21","1","0","3","1","","0","1","0","null","","","<div class = 'row'><div class = 'column'><img src = 'category3/CS9.png' width = '70%;'></div><div class = 'column'><img src = 'usneg/6212.bmp' width = '100%;'></div></div>","null","neg","CS","CS","3","category3/CS9.png","","","","",""
"","html-keyboard-response","85","1218823","0.0-6.0-6.0-0.16","z4tja3oxb5","many_one","0","direct_first","1","rf07as06","0","21","1","0","3","1","","0","1","0","null","","","<div class = 'row'><div class = 'column'><img src = 'uspos/2058.bmp' width = '100%;'></div><div class = 'column'><img src = 'category1/CS4.png' width = '70%;'></div></div>","null","pos","CS","CS","1","category1/CS4.png","","","","",""
"","html-keyboard-response","86","1221349","0.0-6.0-6.0-0.17","z4tja3oxb5","many_one","0","direct_first","1","rf07as06","0","21","1","0","3","1","","0","1","0","null","","","<div class = 'row'><div class = 'column'><img src = 'category1/CS6.png' width = '70%;'></div><div class = 'column'><img src = 'uspos/2530.bmp' width = '100%;'></div></div>","null","pos","CS","CS","1","category1/CS6.png","","","","",""
"","html-keyboard-response","87","1223872","0.0-6.0-6.0-0.18","z4tja3oxb5","many_one","0","direct_first","1","rf07as06","0","21","1","0","3","1","","0","1","0","null","","","<div class = 'row'><div class = 'column'><img src = 'uspos/2360.bmp' width = '100%;'></div><div class = 'column'><img src = 'category2/CS10.png' width = '70%;'></div></div>","null","pos","CS","CS","2","category2/CS10.png","","","","",""
"","html-keyboard-response","88","1226402","0.0-6.0-6.0-0.19","z4tja3oxb5","many_one","0","direct_first","1","rf07as06","0","21","1","0","3","1","","0","1","0","null","","","<div class = 'row'><div class = 'column'><img src = 'usneg/9830.bmp' width = '100%;'></div><div class = 'column'><img src = 'category3/CS1.png' width = '70%;'></div></div>","null","neg","CS","CS","3","category3/CS1.png","","","","",""
"","survey-html-form","89","1238922","0.0-7.0","z4tja3oxb5","many_one","0","direct_first","1","rf07as06","0","21","1","0","3","1","","0","1","0","12005.665000062436","","{}","","","","","","","","","","","",""
"","image-slider-response","90","1253280","0.0-8.0-0.0","z4tja3oxb5","many_one","0","direct_first","1","rf07as06","0","21","1","0","3","1","","0","1","0","12348.53499988094","","","","","neg","CS","CS","3","category3/CS2.png","85","targets/26.png","direct","",""
"","image-slider-response","91","1259984","0.0-8.0-0.1","z4tja3oxb5","many_one","0","direct_first","1","rf07as06","0","21","1","0","3","1","","0","1","0","6702.244999818504","","","","","neg","GS","GSold","4","category4/CS1.png","-47","targets/4.png","direct","",""
"","image-slider-response","92","1267524","0.0-8.0-0.2","z4tja3oxb5","many_one","0","direct_first","1","rf07as06","0","21","1","0","3","1","","0","1","0","7538.11000008136","","","","","pos","GS","GSnew","2","category2/GS3.png","-1","targets/38.png","direct","",""
"","image-slider-response","93","1276300","0.0-8.0-0.3","z4tja3oxb5","many_one","0","direct_first","1","rf07as06","0","21","1","0","3","1","","0","1","0","8774.315000046045","","","","","pos","GS","abstract","1","category1/ma.png","20","targets/47.png","direct","",""
"","image-slider-response","94","1281775","0.0-8.0-0.4","z4tja3oxb5","many_one","0","direct_first","1","rf07as06","0","21","1","0","3","1","","0","1","0","5472.769999876618","","","","","neg","GS","abstract","3","category3/wang.png","-17","targets/23.png","direct","",""
"","image-slider-response","95","1287852","0.0-8.0-0.5","z4tja3oxb5","many_one","0","direct_first","1","rf07as06","0","21","1","0","3","1","","0","1","0","6075.834999792278","","","","","neg","GS","abstract","4","category4/lin.png","35","targets/36.png","direct","",""
"","image-slider-response","96","1292735","0.0-8.0-0.6","z4tja3oxb5","many_one","0","direct_first","1","rf07as06","0","21","1","0","3","1","","0","1","0","4881.444999948144","","","","","neg","CS","CS","4","category4/CS8.png","-21","targets/29.png","direct","",""
"","image-slider-response","97","1298586","0.0-8.0-0.7","z4tja3oxb5","many_one","0","direct_first","1","rf07as06","0","21","1","0","3","1","","0","1","0","5848.840000107884","","","","","pos","CS","CS","2","category2/CS10.png","-35","targets/39.png","direct","",""
"","image-slider-response","98","1305420","0.0-8.0-0.8","z4tja3oxb5","many_one","0","direct_first","1","rf07as06","0","21","1","0","3","1","","0","1","0","6832.214999943972","","","","","neg","CS","CS","4","category4/CS4.png","-57","targets/16.png","direct","",""
"","image-slider-response","99","1309590","0.0-8.0-0.9","z4tja3oxb5","many_one","0","direct_first","1","rf07as06","0","21","1","0","3","1","","0","1","0","4168.409999925643","","","","","pos","CS","CS","1","category1/CS3.png","53","targets/18.png","direct","",""
"","image-slider-response","100","1314533","0.0-8.0-0.10","z4tja3oxb5","many_one","0","direct_first","1","rf07as06","0","21","1","0","3","1","","0","1","0","4941.6099996306","","","","","pos","CS","CS","1","category1/CS4.png","-13","targets/37.png","direct","",""
"","image-slider-response","101","1320946","0.0-8.0-0.11","z4tja3oxb5","many_one","0","direct_first","1","rf07as06","0","21","1","0","3","1","","0","1","0","6411.650000140071","","","","","pos","GS","GSold","1","category1/CS7.png","-7","targets/42.png","direct","",""
"","image-slider-response","102","1328620","0.0-8.0-0.12","z4tja3oxb5","many_one","0","direct_first","1","rf07as06","0","21","1","0","3","1","","0","1","0","7672.259999904782","","","","","pos","GS","abstract","2","category2/men.png","23","targets/20.png","direct","",""
"","image-slider-response","103","1333886","0.0-8.0-0.13","z4tja3oxb5","many_one","0","direct_first","1","rf07as06","0","21","1","0","3","1","","0","1","0","5263.569999951869","","","","","pos","CS","CS","2","category2/CS2.png","-21","targets/3.png","direct","",""
"","image-slider-response","104","1337914","0.0-8.0-0.14","z4tja3oxb5","many_one","0","direct_first","1","rf07as06","0","21","1","0","3","1","","0","1","0","4026.2700002640486","","","","","neg","GS","GSold","4","category4/CS6.png","12","targets/14.png","direct","",""
"","image-slider-response","105","1342798","0.0-8.0-0.15","z4tja3oxb5","many_one","0","direct_first","1","rf07as06","0","21","1","0","3","1","","0","1","0","4881.109999958426","","","","","pos","GS","GSnew","1","category1/GS3.png","25","targets/19.png","direct","",""
"","image-slider-response","106","1347936","0.0-8.0-0.16","z4tja3oxb5","many_one","0","direct_first","1","rf07as06","0","21","1","0","3","1","","0","1","0","5136.270000133663","","","","","pos","GS","GSnew","2","category2/GS1.png","-22","targets/1.png","direct","",""
"","image-slider-response","107","1353127","0.0-8.0-0.17","z4tja3oxb5","many_one","0","direct_first","1","rf07as06","0","21","1","0","3","1","","0","1","0","5189.350000116974","","","","","pos","GS","GSold","2","category2/CS3.png","-12","targets/2.png","direct","",""
"","image-slider-response","108","1360035","0.0-8.0-0.18","z4tja3oxb5","many_one","0","direct_first","1","rf07as06","0","21","1","0","3","1","","0","1","0","6906.63000009954","","","","","neg","CS","CS","4","category4/CS5.png","19","targets/45.png","direct","",""
"","image-slider-response","109","1365863","0.0-8.0-0.19","z4tja3oxb5","many_one","0","direct_first","1","rf07as06","0","21","1","0","3","1","","0","1","0","5825.985000003129","","","","","neg","CS","CS","3","category3/CS4.png","-29","targets/12.png","direct","",""
"","image-slider-response","110","1369262","0.0-8.0-0.20","z4tja3oxb5","many_one","0","direct_first","1","rf07as06","0","21","1","0","3","1","","0","1","0","3396.5050000697374","","","","","pos","CS","CS","2","category2/CS4.png","-23","targets/22.png","direct","",""
"","image-slider-response","111","1375270","0.0-8.0-0.21","z4tja3oxb5","many_one","0","direct_first","1","rf07as06","0","21","1","0","3","1","","0","1","0","6006.655000150204","","","","","pos","GS","GSnew","1","category1/GS2.png","40","targets/35.png","direct","",""
"","image-slider-response","112","1378511","0.0-8.0-0.22","z4tja3oxb5","many_one","0","direct_first","1","rf07as06","0","21","1","0","3","1","","0","1","0","3238.874999806285","","","","","neg","GS","GSold","3","category3/CS3.png","-35","targets/7.png","direct","",""
"","image-slider-response","113","1385554","0.0-8.0-0.23","z4tja3oxb5","many_one","0","direct_first","1","rf07as06","0","21","1","0","3","1","","0","1","0","7041.8050000444055","","","","","neg","GS","GSnew","3","category3/GS2.png","-41","targets/25.png","direct","",""
"","image-slider-response","114","1389200","0.0-8.0-0.24","z4tja3oxb5","many_one","0","direct_first","1","rf07as06","0","21","1","0","3","1","","0","1","0","3643.3199997991323","","","","","pos","GS","GSold","1","category1/CS10.png","26","targets/11.png","direct","",""
"","image-slider-response","115","1392441","0.0-8.0-0.25","z4tja3oxb5","many_one","0","direct_first","1","rf07as06","0","21","1","0","3","1","","0","1","0","3238.774999976158","","","","","neg","GS","GSnew","4","category4/GS3.png","39","targets/21.png","direct","",""
"","image-slider-response","116","1396806","0.0-8.0-0.26","z4tja3oxb5","many_one","0","direct_first","1","rf07as06","0","21","1","0","3","1","","0","1","0","4363.845000043511","","","","","pos","CS","CS","1","category1/CS2.png","-13","targets/27.png","direct","",""
"","image-slider-response","117","1400774","0.0-8.0-0.27","z4tja3oxb5","many_one","0","direct_first","1","rf07as06","0","21","1","0","3","1","","0","1","0","3966.1700003780425","","","","","neg","GS","GSnew","4","category4/GS1.png","40","targets/44.png","direct","",""
"","image-slider-response","118","1405830","0.0-8.0-0.28","z4tja3oxb5","many_one","0","direct_first","1","rf07as06","0","21","1","0","3","1","","0","1","0","5053.899999707937","","","","","pos","CS","CS","1","category1/CS6.png","-21","targets/31.png","direct","",""
"","image-slider-response","119","1408643","0.0-8.0-0.29","z4tja3oxb5","many_one","0","direct_first","1","rf07as06","0","21","1","0","3","1","","0","1","0","2811.435000039637","","","","","neg","GS","GSnew","4","category4/GS2.png","19","targets/17.png","direct","",""
"","image-slider-response","120","1412813","0.0-8.0-0.30","z4tja3oxb5","many_one","0","direct_first","1","rf07as06","0","21","1","0","3","1","","0","1","0","4168.709999881685","","","","","neg","CS","CS","3","category3/CS1.png","35","targets/13.png","direct","",""
"","image-slider-response","121","1416452","0.0-8.0-0.31","z4tja3oxb5","many_one","0","direct_first","1","rf07as06","0","21","1","0","3","1","","0","1","0","3636.480000335723","","","","","pos","CS","CS","2","category2/CS9.png","48","targets/6.png","direct","",""
"","image-slider-response","122","1421860","0.0-8.0-0.32","z4tja3oxb5","many_one","0","direct_first","1","rf07as06","0","21","1","0","3","1","","0","1","0","5406.764999963343","","","","","pos","GS","GSold","2","category2/CS8.png","-16","targets/15.png","direct","",""
"","image-slider-response","123","1426038","0.0-8.0-0.33","z4tja3oxb5","many_one","0","direct_first","1","rf07as06","0","21","1","0","3","1","","0","1","0","4176.075000315905","","","","","pos","GS","GSnew","2","category2/GS2.png","-18","targets/5.png","direct","",""
"","image-slider-response","124","1428760","0.0-8.0-0.34","z4tja3oxb5","many_one","0","direct_first","1","rf07as06","0","21","1","0","3","1","","0","1","0","2720.879999920726","","","","","neg","GS","GSold","4","category4/CS2.png","17","targets/9.png","direct","",""
"","image-slider-response","125","1433081","0.0-8.0-0.35","z4tja3oxb5","many_one","0","direct_first","1","rf07as06","0","21","1","0","3","1","","0","1","0","4319.230000022799","","","","","pos","CS","CS","1","category1/CS8.png","-21","targets/32.png","direct","",""
"","image-slider-response","126","1439765","0.0-8.0-0.36","z4tja3oxb5","many_one","0","direct_first","1","rf07as06","0","21","1","0","3","1","","0","1","0","6682.244999799877","","","","","neg","GS","GSold","3","category3/CS10.png","16","targets/10.png","direct","",""
"","image-slider-response","127","1443748","0.0-8.0-0.37","z4tja3oxb5","many_one","0","direct_first","1","rf07as06","0","21","1","0","3","1","","0","1","0","3980.914999730885","","","","","neg","CS","CS","4","category4/CS7.png","-25","targets/41.png","direct","",""
"","image-slider-response","128","1446718","0.0-8.0-0.38","z4tja3oxb5","many_one","0","direct_first","1","rf07as06","0","21","1","0","3","1","","0","1","0","2968.929999973625","","","","","neg","CS","CS","4","category4/CS3.png","-16","targets/33.png","direct","",""
"","image-slider-response","129","1450214","0.0-8.0-0.39","z4tja3oxb5","many_one","0","direct_first","1","rf07as06","0","21","1","0","3","1","","0","1","0","3493.635000195354","","","","","neg","GS","GSnew","3","category3/GS3.png","14","targets/30.png","direct","",""
"","image-slider-response","130","1454084","0.0-8.0-0.40","z4tja3oxb5","many_one","0","direct_first","1","rf07as06","0","21","1","0","3","1","","0","1","0","3868.814999703318","","","","","pos","CS","CS","2","category2/CS5.png","32","targets/8.png","direct","",""
"","image-slider-response","131","1457475","0.0-8.0-0.41","z4tja3oxb5","many_one","0","direct_first","1","rf07as06","0","21","1","0","3","1","","0","1","0","3389.0849999152124","","","","","neg","GS","GSold","3","category3/CS6.png","-23","targets/40.png","direct","",""
"","image-slider-response","132","1461188","0.0-8.0-0.42","z4tja3oxb5","many_one","0","direct_first","1","rf07as06","0","21","1","0","3","1","","0","1","0","3710.9349998645484","","","","","neg","GS","GSnew","3","category3/GS1.png","-32","targets/43.png","direct","",""
"","image-slider-response","133","1466056","0.0-8.0-0.43","z4tja3oxb5","many_one","0","direct_first","1","rf07as06","0","21","1","0","3","1","","0","1","0","4866.549999918789","","","","","pos","GS","GSold","1","category1/CS9.png","15","targets/24.png","direct","",""
"","image-slider-response","134","1471615","0.0-8.0-0.44","z4tja3oxb5","many_one","0","direct_first","1","rf07as06","0","21","1","0","3","1","","0","1","0","5556.8250003270805","","","","","pos","GS","GSold","2","category2/CS7.png","-40","targets/48.png","direct","",""
"","image-slider-response","135","1474757","0.0-8.0-0.45","z4tja3oxb5","many_one","0","direct_first","1","rf07as06","0","21","1","0","3","1","","0","1","0","3140.5850001610816","","","","","pos","GS","GSnew","1","category1/GS1.png","-36","targets/28.png","direct","",""
"","image-slider-response","136","1478830","0.0-8.0-0.46","z4tja3oxb5","many_one","0","direct_first","1","rf07as06","0","21","1","0","3","1","","0","1","0","4071.3150002993643","","","","","neg","CS","CS","3","category3/CS7.png","-32","targets/34.png","direct","",""
"","image-slider-response","137","1482889","0.0-8.0-0.47","z4tja3oxb5","many_one","0","direct_first","1","rf07as06","0","21","1","0","3","1","","0","1","0","4056.739999912679","","","","","neg","CS","CS","3","category3/CS9.png","-19","targets/46.png","direct","",""
"","html-keyboard-response","138","1514647","0.0-9.0","z4tja3oxb5","many_one","0","direct_first","1","rf07as06","0","21","1","0","3","1","","0","1","0","31755.494999699295","","","<p>Sie sehen nun die chinesischen Zeichen nur ganz kurz. Danach sehen Sie die jeweilige Aussprache der Zeichen als Silbe auf dem Bildschrim. Ihre Aufgabe ist es, für jede Silbe anzugeben, ob diese etwas angenehmes, oder unangenehmes bedeuten könnte. Verlassen Sie sich hier vor allem auf Ihre Intuition.<br><br>Die Zeichen werden nur zur Orientierung dargestellt, beachten Sie sie deshalb nicht. Konzentrieren Sie sich vor allem auf die Silben. <br>Reagieren Sie mit folgenden zwei Tasten: <br><br><b>'D' </b> wenn die Silbe etwas <b>unangenehmes</b> bedeuten könnte. <br><b>'K'</b> wenn die Silbe etwas <b>angenehmes</b> bedeuten könnte. <br><br>Bitte legen Sie nun den Zeigefinger der linken Hand auf die Taste 'D' und den Zeigefinger der rechten Hand auf die Taste 'K'. <br>Reagieren Sie auf jede Silbe so schnell wie möglich. Uns interessiert Ihre spontane Reaktion. <br> <br> <br>Drücken Sie 'D' oder 'K', um die nächste Aufgabe zu starten. </p>","75","","","","","","","","","",""
"","html-keyboard-response","139","1517660","0.0-10.0-0.0","z4tja3oxb5","many_one","0","direct_first","1","rf07as06","0","21","1","0","3","1","","0","1","0","null","","","<div style=""font-size:60px;"">+</div>","null","","","","","","","","","",""
"","html-keyboard-response","140","1517755","0.0-10.0-1.0","z4tja3oxb5","many_one","0","direct_first","1","rf07as06","0","21","1","0","3","1","","0","1","0","null","","","<img src = 'category1/CS9.png' width = '100%;'>","null","","","","","","","","","",""
"","html-keyboard-response","141","1518018","0.0-10.0-2.0","z4tja3oxb5","many_one","0","direct_first","1","rf07as06","0","21","1","0","3","1","","0","1","0","null","","","<img src = 'targets/24.png' width = '100%;'>","null","","","","","","","","","",""
"","html-keyboard-response","142","1519609","0.0-10.0-3.0","z4tja3oxb5","many_one","0","direct_first","1","rf07as06","0","21","1","0","3","1","","0","1","0","1588.5099996812642","","","<img src = 'targets/mask.png' width = '100%;'>","68","pos","GS","GSold","1","category1/CS9.png","","targets/24.png","indirect","0","0"
"","html-keyboard-response","143","1521141","0.0-10.0-0.1","z4tja3oxb5","many_one","0","direct_first","1","rf07as06","0","21","1","0","3","1","","0","1","0","null","","","<div style=""font-size:60px;"">+</div>","null","","","","","","","","","",""
"","html-keyboard-response","144","1521248","0.0-10.0-1.1","z4tja3oxb5","many_one","0","direct_first","1","rf07as06","0","21","1","0","3","1","","0","1","0","null","","","<img src = 'category1/CS2.png' width = '100%;'>","null","","","","","","","","","",""
"","html-keyboard-response","145","1521513","0.0-10.0-2.1","z4tja3oxb5","many_one","0","direct_first","1","rf07as06","0","21","1","0","3","1","","0","1","0","null","","","<img src = 'targets/27.png' width = '100%;'>","null","","","","","","","","","",""
"","html-keyboard-response","146","1522609","0.0-10.0-3.1","z4tja3oxb5","many_one","0","direct_first","1","rf07as06","0","21","1","0","3","1","","0","1","0","1093.7000000849366","","","<img src = 'targets/mask.png' width = '100%;'>","75","pos","CS","CS","1","category1/CS2.png","","targets/27.png","indirect","1","1"
"","html-keyboard-response","147","1524124","0.0-10.0-0.2","z4tja3oxb5","many_one","0","direct_first","1","rf07as06","0","21","1","0","3","1","","0","1","0","null","","","<div style=""font-size:60px;"">+</div>","null","","","","","","","","","",""
"","html-keyboard-response","148","1524231","0.0-10.0-1.2","z4tja3oxb5","many_one","0","direct_first","1","rf07as06","0","21","1","0","3","1","","0","1","0","null","","","<img src = 'category3/CS6.png' width = '100%;'>","null","","","","","","","","","",""
"","html-keyboard-response","149","1524499","0.0-10.0-2.2","z4tja3oxb5","many_one","0","direct_first","1","rf07as06","0","21","1","0","3","1","","0","1","0","null","","","<img src = 'targets/40.png' width = '100%;'>","null","","","","","","","","","",""
"","html-keyboard-response","150","1525060","0.0-10.0-3.2","z4tja3oxb5","many_one","0","direct_first","1","rf07as06","0","21","1","0","3","1","","0","1","0","558.1450001336634","","","<img src = 'targets/mask.png' width = '100%;'>","68","neg","GS","GSold","3","category3/CS6.png","","targets/40.png","indirect","0","2"
"","html-keyboard-response","151","1526578","0.0-10.0-0.3","z4tja3oxb5","many_one","0","direct_first","1","rf07as06","0","21","1","0","3","1","","0","1","0","null","","","<div style=""font-size:60px;"">+</div>","null","","","","","","","","","",""
"","html-keyboard-response","152","1526685","0.0-10.0-1.3","z4tja3oxb5","many_one","0","direct_first","1","rf07as06","0","21","1","0","3","1","","0","1","0","null","","","<img src = 'category1/CS4.png' width = '100%;'>","null","","","","","","","","","",""
"","html-keyboard-response","153","1526953","0.0-10.0-2.3","z4tja3oxb5","many_one","0","direct_first","1","rf07as06","0","21","1","0","3","1","","0","1","0","null","","","<img src = 'targets/37.png' width = '100%;'>","null","","","","","","","","","",""
"","html-keyboard-response","154","1527600","0.0-10.0-3.3","z4tja3oxb5","many_one","0","direct_first","1","rf07as06","0","21","1","0","3","1","","0","1","0","643.8699997961521","","","<img src = 'targets/mask.png' width = '100%;'>","68","pos","CS","CS","1","category1/CS4.png","","targets/37.png","indirect","0","3"
"","html-keyboard-response","155","1529129","0.0-10.0-0.4","z4tja3oxb5","many_one","0","direct_first","1","rf07as06","0","21","1","0","3","1","","0","1","0","null","","","<div style=""font-size:60px;"">+</div>","null","","","","","","","","","",""
"","html-keyboard-response","156","1529221","0.0-10.0-1.4","z4tja3oxb5","many_one","0","direct_first","1","rf07as06","0","21","1","0","3","1","","0","1","0","null","","","<img src = 'category2/CS5.png' width = '100%;'>","null","","","","","","","","","",""
"","html-keyboard-response","157","1529486","0.0-10.0-2.4","z4tja3oxb5","many_one","0","direct_first","1","rf07as06","0","21","1","0","3","1","","0","1","0","null","","","<img src = 'targets/8.png' width = '100%;'>","null","","","","","","","","","",""
"","html-keyboard-response","158","1529779","0.0-10.0-3.4","z4tja3oxb5","many_one","0","direct_first","1","rf07as06","0","21","1","0","3","1","","0","1","0","291.3450002670288","","","<img src = 'targets/mask.png' width = '100%;'>","75","pos","CS","CS","2","category2/CS5.png","","targets/8.png","indirect","1","4"
"","html-keyboard-response","159","1531304","0.0-10.0-0.5","z4tja3oxb5","many_one","0","direct_first","1","rf07as06","0","21","1","0","3","1","","0","1","0","null","","","<div style=""font-size:60px;"">+</div>","null","","","","","","","","","",""
"","html-keyboard-response","160","1531397","0.0-10.0-1.5","z4tja3oxb5","many_one","0","direct_first","1","rf07as06","0","21","1","0","3","1","","0","1","0","null","","","<img src = 'category3/CS2.png' width = '100%;'>","null","","","","","","","","","",""
"","html-keyboard-response","161","1531663","0.0-10.0-2.5","z4tja3oxb5","many_one","0","direct_first","1","rf07as06","0","21","1","0","3","1","","0","1","0","null","","","<img src = 'targets/26.png' width = '100%;'>","null","","","","","","","","","",""
"","html-keyboard-response","162","1532299","0.0-10.0-3.5","z4tja3oxb5","many_one","0","direct_first","1","rf07as06","0","21","1","0","3","1","","0","1","0","633.644999936223","","","<img src = 'targets/mask.png' width = '100%;'>","68","neg","CS","CS","3","category3/CS2.png","","targets/26.png","indirect","0","5"
"","html-keyboard-response","163","1533815","0.0-10.0-0.6","z4tja3oxb5","many_one","0","direct_first","1","rf07as06","0","21","1","0","3","1","","0","1","0","null","","","<div style=""font-size:60px;"">+</div>","null","","","","","","","","","",""
"","html-keyboard-response","164","1533912","0.0-10.0-1.6","z4tja3oxb5","many_one","0","direct_first","1","rf07as06","0","21","1","0","3","1","","0","1","0","null","","","<img src = 'category1/CS8.png' width = '100%;'>","null","","","","","","","","","",""
"","html-keyboard-response","165","1534176","0.0-10.0-2.6","z4tja3oxb5","many_one","0","direct_first","1","rf07as06","0","21","1","0","3","1","","0","1","0","null","","","<img src = 'targets/32.png' width = '100%;'>","null","","","","","","","","","",""
"","html-keyboard-response","166","1534720","0.0-10.0-3.6","z4tja3oxb5","many_one","0","direct_first","1","rf07as06","0","21","1","0","3","1","","0","1","0","541.1750003695488","","","<img src = 'targets/mask.png' width = '100%;'>","75","pos","CS","CS","1","category1/CS8.png","","targets/32.png","indirect","1","6"
"","html-keyboard-response","167","1536232","0.0-10.0-0.7","z4tja3oxb5","many_one","0","direct_first","1","rf07as06","0","21","1","0","3","1","","0","1","0","null","","","<div style=""font-size:60px;"">+</div>","null","","","","","","","","","",""
"","html-keyboard-response","168","1536325","0.0-10.0-1.7","z4tja3oxb5","many_one","0","direct_first","1","rf07as06","0","21","1","0","3","1","","0","1","0","null","","","<img src = 'category2/CS4.png' width = '100%;'>","null","","","","","","","","","",""
"","html-keyboard-response","169","1536590","0.0-10.0-2.7","z4tja3oxb5","many_one","0","direct_first","1","rf07as06","0","21","1","0","3","1","","0","1","0","null","","","<img src = 'targets/22.png' width = '100%;'>","null","","","","","","","","","",""
"","html-keyboard-response","170","1537210","0.0-10.0-3.7","z4tja3oxb5","many_one","0","direct_first","1","rf07as06","0","21","1","0","3","1","","0","1","0","618.0799999274313","","","<img src = 'targets/mask.png' width = '100%;'>","68","pos","CS","CS","2","category2/CS4.png","","targets/22.png","indirect","0","7"
"","html-keyboard-response","171","1538739","0.0-10.0-0.8","z4tja3oxb5","many_one","0","direct_first","1","rf07as06","0","21","1","0","3","1","","0","1","0","null","","","<div style=""font-size:60px;"">+</div>","null","","","","","","","","","",""
"","html-keyboard-response","172","1538835","0.0-10.0-1.8","z4tja3oxb5","many_one","0","direct_first","1","rf07as06","0","21","1","0","3","1","","0","1","0","null","","","<img src = 'category3/CS7.png' width = '100%;'>","null","","","","","","","","","",""
"","html-keyboard-response","173","1539102","0.0-10.0-2.8","z4tja3oxb5","many_one","0","direct_first","1","rf07as06","0","21","1","0","3","1","","0","1","0","null","","","<img src = 'targets/34.png' width = '100%;'>","null","","","","","","","","","",""
"","html-keyboard-response","174","1539759","0.0-10.0-3.8","z4tja3oxb5","many_one","0","direct_first","1","rf07as06","0","21","1","0","3","1","","0","1","0","654.310000129044","","","<img src = 'targets/mask.png' width = '100%;'>","75","neg","CS","CS","3","category3/CS7.png","","targets/34.png","indirect","1","8"
"","html-keyboard-response","175","1541292","0.0-10.0-0.9","z4tja3oxb5","many_one","0","direct_first","1","rf07as06","0","21","1","0","3","1","","0","1","0","null","","","<div style=""font-size:60px;"">+</div>","null","","","","","","","","","",""
"","html-keyboard-response","176","1541399","0.0-10.0-1.9","z4tja3oxb5","many_one","0","direct_first","1","rf07as06","0","21","1","0","3","1","","0","1","0","null","","","<img src = 'category3/CS9.png' width = '100%;'>","null","","","","","","","","","",""
"","html-keyboard-response","177","1541667","0.0-10.0-2.9","z4tja3oxb5","many_one","0","direct_first","1","rf07as06","0","21","1","0","3","1","","0","1","0","null","","","<img src = 'targets/46.png' width = '100%;'>","null","","","","","","","","","",""
"","html-keyboard-response","178","1542099","0.0-10.0-3.9","z4tja3oxb5","many_one","0","direct_first","1","rf07as06","0","21","1","0","3","1","","0","1","0","430.5099998600781","","","<img src = 'targets/mask.png' width = '100%;'>","68","neg","CS","CS","3","category3/CS9.png","","targets/46.png","indirect","0","9"
"","html-keyboard-response","179","1543622","0.0-10.0-0.10","z4tja3oxb5","many_one","0","direct_first","1","rf07as06","0","21","1","0","3","1","","0","1","0","null","","","<div style=""font-size:60px;"">+</div>","null","","","","","","","","","",""
"","html-keyboard-response","180","1543717","0.0-10.0-1.10","z4tja3oxb5","many_one","0","direct_first","1","rf07as06","0","21","1","0","3","1","","0","1","0","null","","","<img src = 'category4/CS8.png' width = '100%;'>","null","","","","","","","","","",""
"","html-keyboard-response","181","1543979","0.0-10.0-2.10","z4tja3oxb5","many_one","0","direct_first","1","rf07as06","0","21","1","0","3","1","","0","1","0","null","","","<img src = 'targets/29.png' width = '100%;'>","null","","","","","","","","","",""
"","html-keyboard-response","182","1544620","0.0-10.0-3.10","z4tja3oxb5","many_one","0","direct_first","1","rf07as06","0","21","1","0","3","1","","0","1","0","637.5599997118115","","","<img src = 'targets/mask.png' width = '100%;'>","75","neg","CS","CS","4","category4/CS8.png","","targets/29.png","indirect","1","10"
"","html-keyboard-response","183","1546135","0.0-10.0-0.11","z4tja3oxb5","many_one","0","direct_first","1","rf07as06","0","21","1","0","3","1","","0","1","0","null","","","<div style=""font-size:60px;"">+</div>","null","","","","","","","","","",""
"","html-keyboard-response","184","1546238","0.0-10.0-1.11","z4tja3oxb5","many_one","0","direct_first","1","rf07as06","0","21","1","0","3","1","","0","1","0","null","","","<img src = 'category4/CS7.png' width = '100%;'>","null","","","","","","","","","",""
"","html-keyboard-response","185","1546515","0.0-10.0-2.11","z4tja3oxb5","many_one","0","direct_first","1","rf07as06","0","21","1","0","3","1","","0","1","0","null","","","<img src = 'targets/41.png' width = '100%;'>","null","","","","","","","","","",""
"","html-keyboard-response","186","1547189","0.0-10.0-3.11","z4tja3oxb5","many_one","0","direct_first","1","rf07as06","0","21","1","0","3","1","","0","1","0","671.9499998725951","","","<img src = 'targets/mask.png' width = '100%;'>","75","neg","CS","CS","4","category4/CS7.png","","targets/41.png","indirect","1","11"
"","html-keyboard-response","187","1548710","0.0-10.0-0.12","z4tja3oxb5","many_one","0","direct_first","1","rf07as06","0","21","1","0","3","1","","0","1","0","null","","","<div style=""font-size:60px;"">+</div>","null","","","","","","","","","",""
"","html-keyboard-response","188","1548818","0.0-10.0-1.12","z4tja3oxb5","many_one","0","direct_first","1","rf07as06","0","21","1","0","3","1","","0","1","0","null","","","<img src = 'category2/CS10.png' width = '100%;'>","null","","","","","","","","","",""
"","html-keyboard-response","189","1549085","0.0-10.0-2.12","z4tja3oxb5","many_one","0","direct_first","1","rf07as06","0","21","1","0","3","1","","0","1","0","null","","","<img src = 'targets/39.png' width = '100%;'>","null","","","","","","","","","",""
"","html-keyboard-response","190","1549690","0.0-10.0-3.12","z4tja3oxb5","many_one","0","direct_first","1","rf07as06","0","21","1","0","3","1","","0","1","0","602.0800000987947","","","<img src = 'targets/mask.png' width = '100%;'>","68","pos","CS","CS","2","category2/CS10.png","","targets/39.png","indirect","0","12"
"","html-keyboard-response","191","1551203","0.0-10.0-0.13","z4tja3oxb5","many_one","0","direct_first","1","rf07as06","0","21","1","0","3","1","","0","1","0","null","","","<div style=""font-size:60px;"">+</div>","null","","","","","","","","","",""
"","html-keyboard-response","192","1551309","0.0-10.0-1.13","z4tja3oxb5","many_one","0","direct_first","1","rf07as06","0","21","1","0","3","1","","0","1","0","null","","","<img src = 'category4/CS5.png' width = '100%;'>","null","","","","","","","","","",""
"","html-keyboard-response","193","1551580","0.0-10.0-2.13","z4tja3oxb5","many_one","0","direct_first","1","rf07as06","0","21","1","0","3","1","","0","1","0","null","","","<img src = 'targets/45.png' width = '100%;'>","null","","","","","","","","","",""
"","html-keyboard-response","194","1552249","0.0-10.0-3.13","z4tja3oxb5","many_one","0","direct_first","1","rf07as06","0","21","1","0","3","1","","0","1","0","666.9649998657405","","","<img src = 'targets/mask.png' width = '100%;'>","68","neg","CS","CS","4","category4/CS5.png","","targets/45.png","indirect","0","13"
"","html-keyboard-response","195","1553782","0.0-10.0-0.14","z4tja3oxb5","many_one","0","direct_first","1","rf07as06","0","21","1","0","3","1","","0","1","0","null","","","<div style=""font-size:60px;"">+</div>","null","","","","","","","","","",""
"","html-keyboard-response","196","1553877","0.0-10.0-1.14","z4tja3oxb5","many_one","0","direct_first","1","rf07as06","0","21","1","0","3","1","","0","1","0","null","","","<img src = 'category1/CS3.png' width = '100%;'>","null","","","","","","","","","",""
"","html-keyboard-response","197","1554156","0.0-10.0-2.14","z4tja3oxb5","many_one","0","direct_first","1","rf07as06","0","21","1","0","3","1","","0","1","0","null","","","<img src = 'targets/18.png' width = '100%;'>","null","","","","","","","","","",""
"","html-keyboard-response","198","1554929","0.0-10.0-3.14","z4tja3oxb5","many_one","0","direct_first","1","rf07as06","0","21","1","0","3","1","","0","1","0","770.2000001445413","","","<img src = 'targets/mask.png' width = '100%;'>","68","pos","CS","CS","1","category1/CS3.png","","targets/18.png","indirect","0","14"
"","html-keyboard-response","199","1556442","0.0-10.0-0.15","z4tja3oxb5","many_one","0","direct_first","1","rf07as06","0","21","1","0","3","1","","0","1","0","null","","","<div style=""font-size:60px;"">+</div>","null","","","","","","","","","",""
"","html-keyboard-response","200","1556543","0.0-10.0-1.15","z4tja3oxb5","many_one","0","direct_first","1","rf07as06","0","21","1","0","3","1","","0","1","0","null","","","<img src = 'category3/CS1.png' width = '100%;'>","null","","","","","","","","","",""
"","html-keyboard-response","201","1556817","0.0-10.0-2.15","z4tja3oxb5","many_one","0","direct_first","1","rf07as06","0","21","1","0","3","1","","0","1","0","null","","","<img src = 'targets/13.png' width = '100%;'>","null","","","","","","","","","",""
"","html-keyboard-response","202","1557480","0.0-10.0-3.15","z4tja3oxb5","many_one","0","direct_first","1","rf07as06","0","21","1","0","3","1","","0","1","0","659.2999999411404","","","<img src = 'targets/mask.png' width = '100%;'>","75","neg","CS","CS","3","category3/CS1.png","","targets/13.png","indirect","1","15"
"","html-keyboard-response","203","1559002","0.0-10.0-0.16","z4tja3oxb5","many_one","0","direct_first","1","rf07as06","0","21","1","0","3","1","","0","1","0","null","","","<div style=""font-size:60px;"">+</div>","null","","","","","","","","","",""
"","html-keyboard-response","204","1559109","0.0-10.0-1.16","z4tja3oxb5","many_one","0","direct_first","1","rf07as06","0","21","1","0","3","1","","0","1","0","null","","","<img src = 'category4/CS4.png' width = '100%;'>","null","","","","","","","","","",""
"","html-keyboard-response","205","1559386","0.0-10.0-2.16","z4tja3oxb5","many_one","0","direct_first","1","rf07as06","0","21","1","0","3","1","","0","1","0","null","","","<img src = 'targets/16.png' width = '100%;'>","null","","","","","","","","","",""
"","html-keyboard-response","206","1560051","0.0-10.0-3.16","z4tja3oxb5","many_one","0","direct_first","1","rf07as06","0","21","1","0","3","1","","0","1","0","662.0450001209974","","","<img src = 'targets/mask.png' width = '100%;'>","68","neg","CS","CS","4","category4/CS4.png","","targets/16.png","indirect","0","16"
"","html-keyboard-response","207","1561575","0.0-10.0-0.17","z4tja3oxb5","many_one","0","direct_first","1","rf07as06","0","21","1","0","3","1","","0","1","0","null","","","<div style=""font-size:60px;"">+</div>","null","","","","","","","","","",""
"","html-keyboard-response","208","1561675","0.0-10.0-1.17","z4tja3oxb5","many_one","0","direct_first","1","rf07as06","0","21","1","0","3","1","","0","1","0","null","","","<img src = 'category3/CS4.png' width = '100%;'>","null","","","","","","","","","",""
"","html-keyboard-response","209","1561943","0.0-10.0-2.17","z4tja3oxb5","many_one","0","direct_first","1","rf07as06","0","21","1","0","3","1","","0","1","0","null","","","<img src = 'targets/12.png' width = '100%;'>","null","","","","","","","","","",""
"","html-keyboard-response","210","1562709","0.0-10.0-3.17","z4tja3oxb5","many_one","0","direct_first","1","rf07as06","0","21","1","0","3","1","","0","1","0","764.119999948889","","","<img src = 'targets/mask.png' width = '100%;'>","68","neg","CS","CS","3","category3/CS4.png","","targets/12.png","indirect","0","17"
"","html-keyboard-response","211","1564231","0.0-10.0-0.18","z4tja3oxb5","many_one","0","direct_first","1","rf07as06","0","21","1","0","3","1","","0","1","0","null","","","<div style=""font-size:60px;"">+</div>","null","","","","","","","","","",""
"","html-keyboard-response","212","1564339","0.0-10.0-1.18","z4tja3oxb5","many_one","0","direct_first","1","rf07as06","0","21","1","0","3","1","","0","1","0","null","","","<img src = 'category4/CS3.png' width = '100%;'>","null","","","","","","","","","",""
"","html-keyboard-response","213","1564605","0.0-10.0-2.18","z4tja3oxb5","many_one","0","direct_first","1","rf07as06","0","21","1","0","3","1","","0","1","0","null","","","<img src = 'targets/33.png' width = '100%;'>","null","","","","","","","","","",""
"","html-keyboard-response","214","1565579","0.0-10.0-3.18","z4tja3oxb5","many_one","0","direct_first","1","rf07as06","0","21","1","0","3","1","","0","1","0","971.6199999675155","","","<img src = 'targets/mask.png' width = '100%;'>","75","neg","CS","CS","4","category4/CS3.png","","targets/33.png","indirect","1","18"
"","html-keyboard-response","215","1567100","0.0-10.0-0.19","z4tja3oxb5","many_one","0","direct_first","1","rf07as06","0","21","1","0","3","1","","0","1","0","null","","","<div style=""font-size:60px;"">+</div>","null","","","","","","","","","",""
"","html-keyboard-response","216","1567207","0.0-10.0-1.19","z4tja3oxb5","many_one","0","direct_first","1","rf07as06","0","21","1","0","3","1","","0","1","0","null","","","<img src = 'category2/CS9.png' width = '100%;'>","null","","","","","","","","","",""
"","html-keyboard-response","217","1567475","0.0-10.0-2.19","z4tja3oxb5","many_one","0","direct_first","1","rf07as06","0","21","1","0","3","1","","0","1","0","null","","","<img src = 'targets/6.png' width = '100%;'>","null","","","","","","","","","",""
"","html-keyboard-response","218","1568040","0.0-10.0-3.19","z4tja3oxb5","many_one","0","direct_first","1","rf07as06","0","21","1","0","3","1","","0","1","0","561.7700000293553","","","<img src = 'targets/mask.png' width = '100%;'>","68","pos","CS","CS","2","category2/CS9.png","","targets/6.png","indirect","0","19"
"","html-keyboard-response","219","1569551","0.0-10.0-0.20","z4tja3oxb5","many_one","0","direct_first","1","rf07as06","0","21","1","0","3","1","","0","1","0","null","","","<div style=""font-size:60px;"">+</div>","null","","","","","","","","","",""
"","html-keyboard-response","220","1569645","0.0-10.0-1.20","z4tja3oxb5","many_one","0","direct_first","1","rf07as06","0","21","1","0","3","1","","0","1","0","null","","","<img src = 'category3/CS10.png' width = '100%;'>","null","","","","","","","","","",""
"","html-keyboard-response","221","1569909","0.0-10.0-2.20","z4tja3oxb5","many_one","0","direct_first","1","rf07as06","0","21","1","0","3","1","","0","1","0","null","","","<img src = 'targets/10.png' width = '100%;'>","null","","","","","","","","","",""
"","html-keyboard-response","222","1570561","0.0-10.0-3.20","z4tja3oxb5","many_one","0","direct_first","1","rf07as06","0","21","1","0","3","1","","0","1","0","649.1399998776615","","","<img src = 'targets/mask.png' width = '100%;'>","68","neg","GS","GSold","3","category3/CS10.png","","targets/10.png","indirect","0","20"
"","html-keyboard-response","223","1572066","0.0-10.0-0.21","z4tja3oxb5","many_one","0","direct_first","1","rf07as06","0","21","1","0","3","1","","0","1","0","null","","","<div style=""font-size:60px;"">+</div>","null","","","","","","","","","",""
"","html-keyboard-response","224","1572162","0.0-10.0-1.21","z4tja3oxb5","many_one","0","direct_first","1","rf07as06","0","21","1","0","3","1","","0","1","0","null","","","<img src = 'category1/CS6.png' width = '100%;'>","null","","","","","","","","","",""
"","html-keyboard-response","225","1572429","0.0-10.0-2.21","z4tja3oxb5","many_one","0","direct_first","1","rf07as06","0","21","1","0","3","1","","0","1","0","null","","","<img src = 'targets/31.png' width = '100%;'>","null","","","","","","","","","",""
"","html-keyboard-response","226","1573220","0.0-10.0-3.21","z4tja3oxb5","many_one","0","direct_first","1","rf07as06","0","21","1","0","3","1","","0","1","0","788.4549996815622","","","<img src = 'targets/mask.png' width = '100%;'>","68","pos","CS","CS","1","category1/CS6.png","","targets/31.png","indirect","0","21"
"","html-keyboard-response","227","1574744","0.0-10.0-0.22","z4tja3oxb5","many_one","0","direct_first","1","rf07as06","0","21","1","0","3","1","","0","1","0","null","","","<div style=""font-size:60px;"">+</div>","null","","","","","","","","","",""
"","html-keyboard-response","228","1574844","0.0-10.0-1.22","z4tja3oxb5","many_one","0","direct_first","1","rf07as06","0","21","1","0","3","1","","0","1","0","null","","","<img src = 'category2/CS2.png' width = '100%;'>","null","","","","","","","","","",""
"","html-keyboard-response","229","1575119","0.0-10.0-2.22","z4tja3oxb5","many_one","0","direct_first","1","rf07as06","0","21","1","0","3","1","","0","1","0","null","","","<img src = 'targets/3.png' width = '100%;'>","null","","","","","","","","","",""
"","html-keyboard-response","230","1575770","0.0-10.0-3.22","z4tja3oxb5","many_one","0","direct_first","1","rf07as06","0","21","1","0","3","1","","0","1","0","648.6500003375113","","","<img src = 'targets/mask.png' width = '100%;'>","75","pos","CS","CS","2","category2/CS2.png","","targets/3.png","indirect","1","22"
"","html-keyboard-response","231","1577294","0.0-10.0-0.23","z4tja3oxb5","many_one","0","direct_first","1","rf07as06","0","21","1","0","3","1","","0","1","0","null","","","<div style=""font-size:60px;"">+</div>","null","","","","","","","","","",""
"","html-keyboard-response","232","1577387","0.0-10.0-1.23","z4tja3oxb5","many_one","0","direct_first","1","rf07as06","0","21","1","0","3","1","","0","1","0","null","","","<img src = 'category3/CS3.png' width = '100%;'>","null","","","","","","","","","",""
"","html-keyboard-response","233","1577650","0.0-10.0-2.23","z4tja3oxb5","many_one","0","direct_first","1","rf07as06","0","21","1","0","3","1","","0","1","0","null","","","<img src = 'targets/7.png' width = '100%;'>","null","","","","","","","","","",""
"","html-keyboard-response","234","1578160","0.0-10.0-3.23","z4tja3oxb5","many_one","0","direct_first","1","rf07as06","0","21","1","0","3","1","","0","1","0","507.65000004321337","","","<img src = 'targets/mask.png' width = '100%;'>","68","neg","GS","GSold","3","category3/CS3.png","","targets/7.png","indirect","0","23"
"","survey-html-form","235","1581644","0.0-11.0","z4tja3oxb5","many_one","0","direct_first","1","rf07as06","0","21","1","0","3","1","","0","1","0","2968.2849999517202","","{}","","","","","","","","","","","",""
"","html-keyboard-response","236","1584663","0.0-12.0-0.0","z4tja3oxb5","many_one","0","direct_first","1","rf07as06","0","21","1","0","3","1","","0","1","0","null","","","<div style=""font-size:60px;"">+</div>","null","","","","","","","","","",""
"","html-keyboard-response","237","1584767","0.0-12.0-1.0","z4tja3oxb5","many_one","0","direct_first","1","rf07as06","0","21","1","0","3","1","","0","1","0","null","","","<img src = 'category2/men.png' width = '100%;'>","null","","","","","","","","","",""
"","html-keyboard-response","238","1585031","0.0-12.0-2.0","z4tja3oxb5","many_one","0","direct_first","1","rf07as06","0","21","1","0","3","1","","0","1","0","null","","","<img src = 'targets/20.png' width = '100%;'>","null","","","","","","","","","",""
"","html-keyboard-response","239","1585730","0.0-12.0-3.0","z4tja3oxb5","many_one","0","direct_first","1","rf07as06","0","21","1","0","3","1","","0","1","0","695.0750001706183","","","<img src = 'targets/mask.png' width = '100%;'>","68","pos","GS","abstract","2","category2/men.png","","targets/20.png","indirect","0","24"
"","html-keyboard-response","240","1587240","0.0-12.0-0.1","z4tja3oxb5","many_one","0","direct_first","1","rf07as06","0","21","1","0","3","1","","0","1","0","null","","","<div style=""font-size:60px;"">+</div>","null","","","","","","","","","",""
"","html-keyboard-response","241","1587348","0.0-12.0-1.1","z4tja3oxb5","many_one","0","direct_first","1","rf07as06","0","21","1","0","3","1","","0","1","0","null","","","<img src = 'category4/GS2.png' width = '100%;'>","null","","","","","","","","","",""
"","html-keyboard-response","242","1587617","0.0-12.0-2.1","z4tja3oxb5","many_one","0","direct_first","1","rf07as06","0","21","1","0","3","1","","0","1","0","null","","","<img src = 'targets/17.png' width = '100%;'>","null","","","","","","","","","",""
"","html-keyboard-response","243","1588139","0.0-12.0-3.1","z4tja3oxb5","many_one","0","direct_first","1","rf07as06","0","21","1","0","3","1","","0","1","0","520.019999705255","","","<img src = 'targets/mask.png' width = '100%;'>","75","neg","GS","GSnew","4","category4/GS2.png","","targets/17.png","indirect","1","25"
"","html-keyboard-response","244","1589657","0.0-12.0-0.2","z4tja3oxb5","many_one","0","direct_first","1","rf07as06","0","21","1","0","3","1","","0","1","0","null","","","<div style=""font-size:60px;"">+</div>","null","","","","","","","","","",""
"","html-keyboard-response","245","1589766","0.0-12.0-1.2","z4tja3oxb5","many_one","0","direct_first","1","rf07as06","0","21","1","0","3","1","","0","1","0","null","","","<img src = 'category2/CS3.png' width = '100%;'>","null","","","","","","","","","",""
"","html-keyboard-response","246","1590036","0.0-12.0-2.2","z4tja3oxb5","many_one","0","direct_first","1","rf07as06","0","21","1","0","3","1","","0","1","0","null","","","<img src = 'targets/2.png' width = '100%;'>","null","","","","","","","","","",""
"","html-keyboard-response","247","1590430","0.0-12.0-3.2","z4tja3oxb5","many_one","0","direct_first","1","rf07as06","0","21","1","0","3","1","","0","1","0","391.8299996294081","","","<img src = 'targets/mask.png' width = '100%;'>","68","pos","GS","GSold","2","category2/CS3.png","","targets/2.png","indirect","0","26"
"","html-keyboard-response","248","1591960","0.0-12.0-0.3","z4tja3oxb5","many_one","0","direct_first","1","rf07as06","0","21","1","0","3","1","","0","1","0","null","","","<div style=""font-size:60px;"">+</div>","null","","","","","","","","","",""
"","html-keyboard-response","249","1592069","0.0-12.0-1.3","z4tja3oxb5","many_one","0","direct_first","1","rf07as06","0","21","1","0","3","1","","0","1","0","null","","","<img src = 'category2/GS2.png' width = '100%;'>","null","","","","","","","","","",""
"","html-keyboard-response","250","1592331","0.0-12.0-2.3","z4tja3oxb5","many_one","0","direct_first","1","rf07as06","0","21","1","0","3","1","","0","1","0","null","","","<img src = 'targets/5.png' width = '100%;'>","null","","","","","","","","","",""
"","html-keyboard-response","251","1593001","0.0-12.0-3.3","z4tja3oxb5","many_one","0","direct_first","1","rf07as06","0","21","1","0","3","1","","0","1","0","667.9349998012185","","","<img src = 'targets/mask.png' width = '100%;'>","68","pos","GS","GSnew","2","category2/GS2.png","","targets/5.png","indirect","0","27"
"","html-keyboard-response","252","1594513","0.0-12.0-0.4","z4tja3oxb5","many_one","0","direct_first","1","rf07as06","0","21","1","0","3","1","","0","1","0","null","","","<div style=""font-size:60px;"">+</div>","null","","","","","","","","","",""
"","html-keyboard-response","253","1594622","0.0-12.0-1.4","z4tja3oxb5","many_one","0","direct_first","1","rf07as06","0","21","1","0","3","1","","0","1","0","null","","","<img src = 'category1/GS2.png' width = '100%;'>","null","","","","","","","","","",""
"","html-keyboard-response","254","1594889","0.0-12.0-2.4","z4tja3oxb5","many_one","0","direct_first","1","rf07as06","0","21","1","0","3","1","","0","1","0","null","","","<img src = 'targets/35.png' width = '100%;'>","null","","","","","","","","","",""
"","html-keyboard-response","255","1595681","0.0-12.0-3.4","z4tja3oxb5","many_one","0","direct_first","1","rf07as06","0","21","1","0","3","1","","0","1","0","788.7949999421835","","","<img src = 'targets/mask.png' width = '100%;'>","75","pos","GS","GSnew","1","category1/GS2.png","","targets/35.png","indirect","1","28"
"","html-keyboard-response","256","1597197","0.0-12.0-0.5","z4tja3oxb5","many_one","0","direct_first","1","rf07as06","0","21","1","0","3","1","","0","1","0","null","","","<div style=""font-size:60px;"">+</div>","null","","","","","","","","","",""
"","html-keyboard-response","257","1597303","0.0-12.0-1.5","z4tja3oxb5","many_one","0","direct_first","1","rf07as06","0","21","1","0","3","1","","0","1","0","null","","","<img src = 'category1/CS7.png' width = '100%;'>","null","","","","","","","","","",""
"","html-keyboard-response","258","1597573","0.0-12.0-2.5","z4tja3oxb5","many_one","0","direct_first","1","rf07as06","0","21","1","0","3","1","","0","1","0","null","","","<img src = 'targets/42.png' width = '100%;'>","null","","","","","","","","","",""
"","html-keyboard-response","259","1598451","0.0-12.0-3.5","z4tja3oxb5","many_one","0","direct_first","1","rf07as06","0","21","1","0","3","1","","0","1","0","874.5950004085898","","","<img src = 'targets/mask.png' width = '100%;'>","68","pos","GS","GSold","1","category1/CS7.png","","targets/42.png","indirect","0","29"
"","html-keyboard-response","260","1599961","0.0-12.0-0.6","z4tja3oxb5","many_one","0","direct_first","1","rf07as06","0","21","1","0","3","1","","0","1","0","null","","","<div style=""font-size:60px;"">+</div>","null","","","","","","","","","",""
"","html-keyboard-response","261","1600069","0.0-12.0-1.6","z4tja3oxb5","many_one","0","direct_first","1","rf07as06","0","21","1","0","3","1","","0","1","0","null","","","<img src = 'category1/CS10.png' width = '100%;'>","null","","","","","","","","","",""
"","html-keyboard-response","262","1600333","0.0-12.0-2.6","z4tja3oxb5","many_one","0","direct_first","1","rf07as06","0","21","1","0","3","1","","0","1","0","null","","","<img src = 'targets/11.png' width = '100%;'>","null","","","","","","","","","",""
"","html-keyboard-response","263","1601200","0.0-12.0-3.6","z4tja3oxb5","many_one","0","direct_first","1","rf07as06","0","21","1","0","3","1","","0","1","0","864.134999923408","","","<img src = 'targets/mask.png' width = '100%;'>","68","pos","GS","GSold","1","category1/CS10.png","","targets/11.png","indirect","0","30"
"","html-keyboard-response","264","1602724","0.0-12.0-0.7","z4tja3oxb5","many_one","0","direct_first","1","rf07as06","0","21","1","0","3","1","","0","1","0","null","","","<div style=""font-size:60px;"">+</div>","null","","","","","","","","","",""
"","html-keyboard-response","265","1602832","0.0-12.0-1.7","z4tja3oxb5","many_one","0","direct_first","1","rf07as06","0","21","1","0","3","1","","0","1","0","null","","","<img src = 'category2/GS3.png' width = '100%;'>","null","","","","","","","","","",""
"","html-keyboard-response","266","1603093","0.0-12.0-2.7","z4tja3oxb5","many_one","0","direct_first","1","rf07as06","0","21","1","0","3","1","","0","1","0","null","","","<img src = 'targets/38.png' width = '100%;'>","null","","","","","","","","","",""
"","html-keyboard-response","267","1603671","0.0-12.0-3.7","z4tja3oxb5","many_one","0","direct_first","1","rf07as06","0","21","1","0","3","1","","0","1","0","575.114999897778","","","<img src = 'targets/mask.png' width = '100%;'>","75","pos","GS","GSnew","2","category2/GS3.png","","targets/38.png","indirect","1","31"
"","html-keyboard-response","268","1605187","0.0-12.0-0.8","z4tja3oxb5","many_one","0","direct_first","1","rf07as06","0","21","1","0","3","1","","0","1","0","null","","","<div style=""font-size:60px;"">+</div>","null","","","","","","","","","",""
"","html-keyboard-response","269","1605295","0.0-12.0-1.8","z4tja3oxb5","many_one","0","direct_first","1","rf07as06","0","21","1","0","3","1","","0","1","0","null","","","<img src = 'category1/ma.png' width = '100%;'>","null","","","","","","","","","",""
"","html-keyboard-response","270","1605561","0.0-12.0-2.8","z4tja3oxb5","many_one","0","direct_first","1","rf07as06","0","21","1","0","3","1","","0","1","0","null","","","<img src = 'targets/47.png' width = '100%;'>","null","","","","","","","","","",""
"","html-keyboard-response","271","1606471","0.0-12.0-3.8","z4tja3oxb5","many_one","0","direct_first","1","rf07as06","0","21","1","0","3","1","","0","1","0","907.1649997495115","","","<img src = 'targets/mask.png' width = '100%;'>","68","pos","GS","abstract","1","category1/ma.png","","targets/47.png","indirect","0","32"
"","html-keyboard-response","272","1607981","0.0-12.0-0.9","z4tja3oxb5","many_one","0","direct_first","1","rf07as06","0","21","1","0","3","1","","0","1","0","null","","","<div style=""font-size:60px;"">+</div>","null","","","","","","","","","",""
"","html-keyboard-response","273","1608088","0.0-12.0-1.9","z4tja3oxb5","many_one","0","direct_first","1","rf07as06","0","21","1","0","3","1","","0","1","0","null","","","<img src = 'category2/GS1.png' width = '100%;'>","null","","","","","","","","","",""
"","html-keyboard-response","274","1608357","0.0-12.0-2.9","z4tja3oxb5","many_one","0","direct_first","1","rf07as06","0","21","1","0","3","1","","0","1","0","null","","","<img src = 'targets/1.png' width = '100%;'>","null","","","","","","","","","",""
"","html-keyboard-response","275","1609181","0.0-12.0-3.9","z4tja3oxb5","many_one","0","direct_first","1","rf07as06","0","21","1","0","3","1","","0","1","0","821.4199999347329","","","<img src = 'targets/mask.png' width = '100%;'>","75","pos","GS","GSnew","2","category2/GS1.png","","targets/1.png","indirect","1","33"
"","html-keyboard-response","276","1610707","0.0-12.0-0.10","z4tja3oxb5","many_one","0","direct_first","1","rf07as06","0","21","1","0","3","1","","0","1","0","null","","","<div style=""font-size:60px;"">+</div>","null","","","","","","","","","",""
"","html-keyboard-response","277","1610802","0.0-12.0-1.10","z4tja3oxb5","many_one","0","direct_first","1","rf07as06","0","21","1","0","3","1","","0","1","0","null","","","<img src = 'category4/CS6.png' width = '100%;'>","null","","","","","","","","","",""
"","html-keyboard-response","278","1611067","0.0-12.0-2.10","z4tja3oxb5","many_one","0","direct_first","1","rf07as06","0","21","1","0","3","1","","0","1","0","null","","","<img src = 'targets/14.png' width = '100%;'>","null","","","","","","","","","",""
"","html-keyboard-response","279","1612050","0.0-12.0-3.10","z4tja3oxb5","many_one","0","direct_first","1","rf07as06","0","21","1","0","3","1","","0","1","0","980.8000000193715","","","<img src = 'targets/mask.png' width = '100%;'>","68","neg","GS","GSold","4","category4/CS6.png","","targets/14.png","indirect","0","34"
"","html-keyboard-response","280","1613555","0.0-12.0-0.11","z4tja3oxb5","many_one","0","direct_first","1","rf07as06","0","21","1","0","3","1","","0","1","0","null","","","<div style=""font-size:60px;"">+</div>","null","","","","","","","","","",""
"","html-keyboard-response","281","1613665","0.0-12.0-1.11","z4tja3oxb5","many_one","0","direct_first","1","rf07as06","0","21","1","0","3","1","","0","1","0","null","","","<img src = 'category3/GS1.png' width = '100%;'>","null","","","","","","","","","",""
"","html-keyboard-response","282","1613929","0.0-12.0-2.11","z4tja3oxb5","many_one","0","direct_first","1","rf07as06","0","21","1","0","3","1","","0","1","0","null","","","<img src = 'targets/43.png' width = '100%;'>","null","","","","","","","","","",""
"","html-keyboard-response","283","1614841","0.0-12.0-3.11","z4tja3oxb5","many_one","0","direct_first","1","rf07as06","0","21","1","0","3","1","","0","1","0","909.4350002706051","","","<img src = 'targets/mask.png' width = '100%;'>","75","neg","GS","GSnew","3","category3/GS1.png","","targets/43.png","indirect","1","35"
"","html-keyboard-response","284","1616368","0.0-12.0-0.12","z4tja3oxb5","many_one","0","direct_first","1","rf07as06","0","21","1","0","3","1","","0","1","0","null","","","<div style=""font-size:60px;"">+</div>","null","","","","","","","","","",""
"","html-keyboard-response","285","1616461","0.0-12.0-1.12","z4tja3oxb5","many_one","0","direct_first","1","rf07as06","0","21","1","0","3","1","","0","1","0","null","","","<img src = 'category4/CS2.png' width = '100%;'>","null","","","","","","","","","",""
"","html-keyboard-response","286","1616727","0.0-12.0-2.12","z4tja3oxb5","many_one","0","direct_first","1","rf07as06","0","21","1","0","3","1","","0","1","0","null","","","<img src = 'targets/9.png' width = '100%;'>","null","","","","","","","","","",""
"","html-keyboard-response","287","1617231","0.0-12.0-3.12","z4tja3oxb5","many_one","0","direct_first","1","rf07as06","0","21","1","0","3","1","","0","1","0","501.5300000086427","","","<img src = 'targets/mask.png' width = '100%;'>","68","neg","GS","GSold","4","category4/CS2.png","","targets/9.png","indirect","0","36"
"","html-keyboard-response","288","1618760","0.0-12.0-0.13","z4tja3oxb5","many_one","0","direct_first","1","rf07as06","0","21","1","0","3","1","","0","1","0","null","","","<div style=""font-size:60px;"">+</div>","null","","","","","","","","","",""
"","html-keyboard-response","289","1618853","0.0-12.0-1.13","z4tja3oxb5","many_one","0","direct_first","1","rf07as06","0","21","1","0","3","1","","0","1","0","null","","","<img src = 'category3/GS3.png' width = '100%;'>","null","","","","","","","","","",""
"","html-keyboard-response","290","1619119","0.0-12.0-2.13","z4tja3oxb5","many_one","0","direct_first","1","rf07as06","0","21","1","0","3","1","","0","1","0","null","","","<img src = 'targets/30.png' width = '100%;'>","null","","","","","","","","","",""
"","html-keyboard-response","291","1619661","0.0-12.0-3.13","z4tja3oxb5","many_one","0","direct_first","1","rf07as06","0","21","1","0","3","1","","0","1","0","538.9049998484552","","","<img src = 'targets/mask.png' width = '100%;'>","68","neg","GS","GSnew","3","category3/GS3.png","","targets/30.png","indirect","0","37"
"","html-keyboard-response","292","1621179","0.0-12.0-0.14","z4tja3oxb5","many_one","0","direct_first","1","rf07as06","0","21","1","0","3","1","","0","1","0","null","","","<div style=""font-size:60px;"">+</div>","null","","","","","","","","","",""
"","html-keyboard-response","293","1621280","0.0-12.0-1.14","z4tja3oxb5","many_one","0","direct_first","1","rf07as06","0","21","1","0","3","1","","0","1","0","null","","","<img src = 'category3/GS2.png' width = '100%;'>","null","","","","","","","","","",""
"","html-keyboard-response","294","1621555","0.0-12.0-2.14","z4tja3oxb5","many_one","0","direct_first","1","rf07as06","0","21","1","0","3","1","","0","1","0","null","","","<img src = 'targets/25.png' width = '100%;'>","null","","","","","","","","","",""
"","html-keyboard-response","295","1622121","0.0-12.0-3.14","z4tja3oxb5","many_one","0","direct_first","1","rf07as06","0","21","1","0","3","1","","0","1","0","563.5250001214445","","","<img src = 'targets/mask.png' width = '100%;'>","75","neg","GS","GSnew","3","category3/GS2.png","","targets/25.png","indirect","1","38"
"","html-keyboard-response","296","1623634","0.0-12.0-0.15","z4tja3oxb5","many_one","0","direct_first","1","rf07as06","0","21","1","0","3","1","","0","1","0","null","","","<div style=""font-size:60px;"">+</div>","null","","","","","","","","","",""
"","html-keyboard-response","297","1623731","0.0-12.0-1.15","z4tja3oxb5","many_one","0","direct_first","1","rf07as06","0","21","1","0","3","1","","0","1","0","null","","","<img src = 'category4/CS1.png' width = '100%;'>","null","","","","","","","","","",""
"","html-keyboard-response","298","1623993","0.0-12.0-2.15","z4tja3oxb5","many_one","0","direct_first","1","rf07as06","0","21","1","0","3","1","","0","1","0","null","","","<img src = 'targets/4.png' width = '100%;'>","null","","","","","","","","","",""
"","html-keyboard-response","299","1624482","0.0-12.0-3.15","z4tja3oxb5","many_one","0","direct_first","1","rf07as06","0","21","1","0","3","1","","0","1","0","484.72499987110496","","","<img src = 'targets/mask.png' width = '100%;'>","68","neg","GS","GSold","4","category4/CS1.png","","targets/4.png","indirect","0","39"
"","html-keyboard-response","300","1625993","0.0-12.0-0.16","z4tja3oxb5","many_one","0","direct_first","1","rf07as06","0","21","1","0","3","1","","0","1","0","null","","","<div style=""font-size:60px;"">+</div>","null","","","","","","","","","",""
"","html-keyboard-response","301","1626097","0.0-12.0-1.16","z4tja3oxb5","many_one","0","direct_first","1","rf07as06","0","21","1","0","3","1","","0","1","0","null","","","<img src = 'category2/CS8.png' width = '100%;'>","null","","","","","","","","","",""
"","html-keyboard-response","302","1626373","0.0-12.0-2.16","z4tja3oxb5","many_one","0","direct_first","1","rf07as06","0","21","1","0","3","1","","0","1","0","null","","","<img src = 'targets/15.png' width = '100%;'>","null","","","","","","","","","",""
"","html-keyboard-response","303","1627072","0.0-12.0-3.16","z4tja3oxb5","many_one","0","direct_first","1","rf07as06","0","21","1","0","3","1","","0","1","0","696.9650001265109","","","<img src = 'targets/mask.png' width = '100%;'>","75","pos","GS","GSold","2","category2/CS8.png","","targets/15.png","indirect","1","40"
"","html-keyboard-response","304","1628595","0.0-12.0-0.17","z4tja3oxb5","many_one","0","direct_first","1","rf07as06","0","21","1","0","3","1","","0","1","0","null","","","<div style=""font-size:60px;"">+</div>","null","","","","","","","","","",""
"","html-keyboard-response","305","1628689","0.0-12.0-1.17","z4tja3oxb5","many_one","0","direct_first","1","rf07as06","0","21","1","0","3","1","","0","1","0","null","","","<img src = 'category3/wang.png' width = '100%;'>","null","","","","","","","","","",""
"","html-keyboard-response","306","1628953","0.0-12.0-2.17","z4tja3oxb5","many_one","0","direct_first","1","rf07as06","0","21","1","0","3","1","","0","1","0","null","","","<img src = 'targets/23.png' width = '100%;'>","null","","","","","","","","","",""
"","html-keyboard-response","307","1629452","0.0-12.0-3.17","z4tja3oxb5","many_one","0","direct_first","1","rf07as06","0","21","1","0","3","1","","0","1","0","496.4000000618398","","","<img src = 'targets/mask.png' width = '100%;'>","68","neg","GS","abstract","3","category3/wang.png","","targets/23.png","indirect","0","41"
"","html-keyboard-response","308","1630971","0.0-12.0-0.18","z4tja3oxb5","many_one","0","direct_first","1","rf07as06","0","21","1","0","3","1","","0","1","0","null","","","<div style=""font-size:60px;"">+</div>","null","","","","","","","","","",""
"","html-keyboard-response","309","1631080","0.0-12.0-1.18","z4tja3oxb5","many_one","0","direct_first","1","rf07as06","0","21","1","0","3","1","","0","1","0","null","","","<img src = 'category2/CS7.png' width = '100%;'>","null","","","","","","","","","",""
"","html-keyboard-response","310","1631350","0.0-12.0-2.18","z4tja3oxb5","many_one","0","direct_first","1","rf07as06","0","21","1","0","3","1","","0","1","0","null","","","<img src = 'targets/48.png' width = '100%;'>","null","","","","","","","","","",""
"","html-keyboard-response","311","1631972","0.0-12.0-3.18","z4tja3oxb5","many_one","0","direct_first","1","rf07as06","0","21","1","0","3","1","","0","1","0","619.2399999126792","","","<img src = 'targets/mask.png' width = '100%;'>","68","pos","GS","GSold","2","category2/CS7.png","","targets/48.png","indirect","0","42"
"","html-keyboard-response","312","1633478","0.0-12.0-0.19","z4tja3oxb5","many_one","0","direct_first","1","rf07as06","0","21","1","0","3","1","","0","1","0","null","","","<div style=""font-size:60px;"">+</div>","null","","","","","","","","","",""
"","html-keyboard-response","313","1633584","0.0-12.0-1.19","z4tja3oxb5","many_one","0","direct_first","1","rf07as06","0","21","1","0","3","1","","0","1","0","null","","","<img src = 'category1/GS3.png' width = '100%;'>","null","","","","","","","","","",""
"","html-keyboard-response","314","1633846","0.0-12.0-2.19","z4tja3oxb5","many_one","0","direct_first","1","rf07as06","0","21","1","0","3","1","","0","1","0","null","","","<img src = 'targets/19.png' width = '100%;'>","null","","","","","","","","","",""
"","html-keyboard-response","315","1634512","0.0-12.0-3.19","z4tja3oxb5","many_one","0","direct_first","1","rf07as06","0","21","1","0","3","1","","0","1","0","662.9800000227988","","","<img src = 'targets/mask.png' width = '100%;'>","75","pos","GS","GSnew","1","category1/GS3.png","","targets/19.png","indirect","1","43"
"","html-keyboard-response","316","1636018","0.0-12.0-0.20","z4tja3oxb5","many_one","0","direct_first","1","rf07as06","0","21","1","0","3","1","","0","1","0","null","","","<div style=""font-size:60px;"">+</div>","null","","","","","","","","","",""
"","html-keyboard-response","317","1636124","0.0-12.0-1.20","z4tja3oxb5","many_one","0","direct_first","1","rf07as06","0","21","1","0","3","1","","0","1","0","null","","","<img src = 'category4/GS3.png' width = '100%;'>","null","","","","","","","","","",""
"","html-keyboard-response","318","1636396","0.0-12.0-2.20","z4tja3oxb5","many_one","0","direct_first","1","rf07as06","0","21","1","0","3","1","","0","1","0","null","","","<img src = 'targets/21.png' width = '100%;'>","null","","","","","","","","","",""
"","html-keyboard-response","319","1636961","0.0-12.0-3.20","z4tja3oxb5","many_one","0","direct_first","1","rf07as06","0","21","1","0","3","1","","0","1","0","562.3900000937283","","","<img src = 'targets/mask.png' width = '100%;'>","68","neg","GS","GSnew","4","category4/GS3.png","","targets/21.png","indirect","0","44"
"","html-keyboard-response","320","1638472","0.0-12.0-0.21","z4tja3oxb5","many_one","0","direct_first","1","rf07as06","0","21","1","0","3","1","","0","1","0","null","","","<div style=""font-size:60px;"">+</div>","null","","","","","","","","","",""
"","html-keyboard-response","321","1638566","0.0-12.0-1.21","z4tja3oxb5","many_one","0","direct_first","1","rf07as06","0","21","1","0","3","1","","0","1","0","null","","","<img src = 'category4/GS1.png' width = '100%;'>","null","","","","","","","","","",""
"","html-keyboard-response","322","1638845","0.0-12.0-2.21","z4tja3oxb5","many_one","0","direct_first","1","rf07as06","0","21","1","0","3","1","","0","1","0","null","","","<img src = 'targets/44.png' width = '100%;'>","null","","","","","","","","","",""
"","html-keyboard-response","323","1639562","0.0-12.0-3.21","z4tja3oxb5","many_one","0","direct_first","1","rf07as06","0","21","1","0","3","1","","0","1","0","714.6600000560284","","","<img src = 'targets/mask.png' width = '100%;'>","75","neg","GS","GSnew","4","category4/GS1.png","","targets/44.png","indirect","1","45"
"","html-keyboard-response","324","1641082","0.0-12.0-0.22","z4tja3oxb5","many_one","0","direct_first","1","rf07as06","0","21","1","0","3","1","","0","1","0","null","","","<div style=""font-size:60px;"">+</div>","null","","","","","","","","","",""
"","html-keyboard-response","325","1641174","0.0-12.0-1.22","z4tja3oxb5","many_one","0","direct_first","1","rf07as06","0","21","1","0","3","1","","0","1","0","null","","","<img src = 'category4/lin.png' width = '100%;'>","null","","","","","","","","","",""
"","html-keyboard-response","326","1641445","0.0-12.0-2.22","z4tja3oxb5","many_one","0","direct_first","1","rf07as06","0","21","1","0","3","1","","0","1","0","null","","","<img src = 'targets/36.png' width = '100%;'>","null","","","","","","","","","",""
