"success","trial_type","trial_index","time_elapsed","internal_node_id","subject","condition","condition_code","measure","measure_code","codeword","gender","age","education","chinese","fach","handedness","comment","hinschauen","ablenkung","gewissenhaft","rt","url","responses","stimulus","key_press","val","type","type_specific","category","cs_selected","target","indirect","task","nr_pres","response"
"true","fullscreen","0","9328","0.0-0.0","nks3bwqtk8","one_one","1","indirect_first","0","nn04ed24","1","57","2","1","NA","1","ich fand es schwierig, die Schriftzeichen mit einem positiven oder negativen Eindruck zu bewerten. Je komplexer das Zeichen, desto negativer? (weil es dann umso verwirrender wirkt?). Zeichen, die an ein Haus erinnern, wirken eher positiv","0","1","0","","","","","","","","","","","","","","",""
"","external-html","1","78101","0.0-1.0","nks3bwqtk8","one_one","1","indirect_first","0","nn04ed24","1","57","2","1","NA","1","ich fand es schwierig, die Schriftzeichen mit einem positiven oder negativen Eindruck zu bewerten. Je komplexer das Zeichen, desto negativer? (weil es dann umso verwirrender wirkt?). Zeichen, die an ein Haus erinnern, wirken eher positiv","0","1","0","68721","text/information.html","","","","","","","","","","","","",""
"","external-html","2","105141","0.0-2.0","nks3bwqtk8","one_one","1","indirect_first","0","nn04ed24","1","57","2","1","NA","1","ich fand es schwierig, die Schriftzeichen mit einem positiven oder negativen Eindruck zu bewerten. Je komplexer das Zeichen, desto negativer? (weil es dann umso verwirrender wirkt?). Zeichen, die an ein Haus erinnern, wirken eher positiv","0","1","0","26946","text/consent.html","","","","","","","","","","","","",""
"","survey-html-form","3","161326","0.0-3.0","nks3bwqtk8","one_one","1","indirect_first","0","nn04ed24","1","57","2","1","NA","1","ich fand es schwierig, die Schriftzeichen mit einem positiven oder negativen Eindruck zu bewerten. Je komplexer das Zeichen, desto negativer? (weil es dann umso verwirrender wirkt?). Zeichen, die an ein Haus erinnern, wirken eher positiv","0","1","0","56181","","{""codeword_enter"":""nn04ed24""}","","","","","","","","","","","",""
"","survey-html-form","4","206344","0.0-4.0","nks3bwqtk8","one_one","1","indirect_first","0","nn04ed24","1","57","2","1","NA","1","ich fand es schwierig, die Schriftzeichen mit einem positiven oder negativen Eindruck zu bewerten. Je komplexer das Zeichen, desto negativer? (weil es dann umso verwirrender wirkt?). Zeichen, die an ein Haus erinnern, wirken eher positiv","0","1","0","45013","","{""age"":""57"",""education"":""2"",""subject"":""NA"",""gender"":""1"",""handedness"":""1"",""chinese"":""1""}","","","","","","","","","","","",""
"","survey-html-form","5","223476","0.0-5.0","nks3bwqtk8","one_one","1","indirect_first","0","nn04ed24","1","57","2","1","NA","1","ich fand es schwierig, die Schriftzeichen mit einem positiven oder negativen Eindruck zu bewerten. Je komplexer das Zeichen, desto negativer? (weil es dann umso verwirrender wirkt?). Zeichen, die an ein Haus erinnern, wirken eher positiv","0","1","0","17131","","{}","","","","","","","","","","","",""
"","html-keyboard-response","6","227490","0.0-6.0-0.0-0.0","nks3bwqtk8","one_one","1","indirect_first","0","nn04ed24","1","57","2","1","NA","1","ich fand es schwierig, die Schriftzeichen mit einem positiven oder negativen Eindruck zu bewerten. Je komplexer das Zeichen, desto negativer? (weil es dann umso verwirrender wirkt?). Zeichen, die an ein Haus erinnern, wirken eher positiv","0","1","0","null","","","<div class = 'row'><div class = 'column'><img src = 'category2/CS1.png' width = '70%;'></div><div class = 'column'><img src = 'usneg/9520.bmp' width = '100%;'></div></div>","null","neg","CS","CS","2","category2/CS1.png","","","","",""
"","html-keyboard-response","7","230009","0.0-6.0-0.0-0.1","nks3bwqtk8","one_one","1","indirect_first","0","nn04ed24","1","57","2","1","NA","1","ich fand es schwierig, die Schriftzeichen mit einem positiven oder negativen Eindruck zu bewerten. Je komplexer das Zeichen, desto negativer? (weil es dann umso verwirrender wirkt?). Zeichen, die an ein Haus erinnern, wirken eher positiv","0","1","0","null","","","<div class = 'row'><div class = 'column'><img src = 'uspos/2360.bmp' width = '100%;'></div><div class = 'column'><img src = 'category1/CS8.png' width = '70%;'></div></div>","null","pos","CS","CS","1","category1/CS8.png","","","","",""
"","html-keyboard-response","8","232531","0.0-6.0-0.0-0.2","nks3bwqtk8","one_one","1","indirect_first","0","nn04ed24","1","57","2","1","NA","1","ich fand es schwierig, die Schriftzeichen mit einem positiven oder negativen Eindruck zu bewerten. Je komplexer das Zeichen, desto negativer? (weil es dann umso verwirrender wirkt?). Zeichen, die an ein Haus erinnern, wirken eher positiv","0","1","0","null","","","<div class = 'row'><div class = 'column'><img src = 'category4/CS2.png' width = '70%;'></div><div class = 'column'><img src = 'uspos/5760.bmp' width = '100%;'></div></div>","null","pos","CS","CS","4","category4/CS2.png","","","","",""
"","html-keyboard-response","9","235049","0.0-6.0-0.0-0.3","nks3bwqtk8","one_one","1","indirect_first","0","nn04ed24","1","57","2","1","NA","1","ich fand es schwierig, die Schriftzeichen mit einem positiven oder negativen Eindruck zu bewerten. Je komplexer das Zeichen, desto negativer? (weil es dann umso verwirrender wirkt?). Zeichen, die an ein Haus erinnern, wirken eher positiv","0","1","0","null","","","<div class = 'row'><div class = 'column'><img src = 'uspos/2360.bmp' width = '100%;'></div><div class = 'column'><img src = 'category1/CS8.png' width = '70%;'></div></div>","null","pos","CS","CS","1","category1/CS8.png","","","","",""
"","html-keyboard-response","10","237569","0.0-6.0-0.0-0.4","nks3bwqtk8","one_one","1","indirect_first","0","nn04ed24","1","57","2","1","NA","1","ich fand es schwierig, die Schriftzeichen mit einem positiven oder negativen Eindruck zu bewerten. Je komplexer das Zeichen, desto negativer? (weil es dann umso verwirrender wirkt?). Zeichen, die an ein Haus erinnern, wirken eher positiv","0","1","0","null","","","<div class = 'row'><div class = 'column'><img src = 'uspos/5760.bmp' width = '100%;'></div><div class = 'column'><img src = 'category4/CS2.png' width = '70%;'></div></div>","null","pos","CS","CS","4","category4/CS2.png","","","","",""
"","html-keyboard-response","11","240089","0.0-6.0-0.0-0.5","nks3bwqtk8","one_one","1","indirect_first","0","nn04ed24","1","57","2","1","NA","1","ich fand es schwierig, die Schriftzeichen mit einem positiven oder negativen Eindruck zu bewerten. Je komplexer das Zeichen, desto negativer? (weil es dann umso verwirrender wirkt?). Zeichen, die an ein Haus erinnern, wirken eher positiv","0","1","0","null","","","<div class = 'row'><div class = 'column'><img src = 'usneg/9180.bmp' width = '100%;'></div><div class = 'column'><img src = 'category3/CS9.png' width = '70%;'></div></div>","null","neg","CS","CS","3","category3/CS9.png","","","","",""
"","html-keyboard-response","12","242609","0.0-6.0-0.0-0.6","nks3bwqtk8","one_one","1","indirect_first","0","nn04ed24","1","57","2","1","NA","1","ich fand es schwierig, die Schriftzeichen mit einem positiven oder negativen Eindruck zu bewerten. Je komplexer das Zeichen, desto negativer? (weil es dann umso verwirrender wirkt?). Zeichen, die an ein Haus erinnern, wirken eher positiv","0","1","0","null","","","<div class = 'row'><div class = 'column'><img src = 'uspos/2360.bmp' width = '100%;'></div><div class = 'column'><img src = 'category1/CS8.png' width = '70%;'></div></div>","null","pos","CS","CS","1","category1/CS8.png","","","","",""
"","html-keyboard-response","13","245128","0.0-6.0-0.0-0.7","nks3bwqtk8","one_one","1","indirect_first","0","nn04ed24","1","57","2","1","NA","1","ich fand es schwierig, die Schriftzeichen mit einem positiven oder negativen Eindruck zu bewerten. Je komplexer das Zeichen, desto negativer? (weil es dann umso verwirrender wirkt?). Zeichen, die an ein Haus erinnern, wirken eher positiv","0","1","0","null","","","<div class = 'row'><div class = 'column'><img src = 'category3/CS9.png' width = '70%;'></div><div class = 'column'><img src = 'usneg/9180.bmp' width = '100%;'></div></div>","null","neg","CS","CS","3","category3/CS9.png","","","","",""
"","html-keyboard-response","14","247649","0.0-6.0-0.0-0.8","nks3bwqtk8","one_one","1","indirect_first","0","nn04ed24","1","57","2","1","NA","1","ich fand es schwierig, die Schriftzeichen mit einem positiven oder negativen Eindruck zu bewerten. Je komplexer das Zeichen, desto negativer? (weil es dann umso verwirrender wirkt?). Zeichen, die an ein Haus erinnern, wirken eher positiv","0","1","0","null","","","<div class = 'row'><div class = 'column'><img src = 'category1/CS8.png' width = '70%;'></div><div class = 'column'><img src = 'uspos/2360.bmp' width = '100%;'></div></div>","null","pos","CS","CS","1","category1/CS8.png","","","","",""
"","html-keyboard-response","15","250168","0.0-6.0-0.0-0.9","nks3bwqtk8","one_one","1","indirect_first","0","nn04ed24","1","57","2","1","NA","1","ich fand es schwierig, die Schriftzeichen mit einem positiven oder negativen Eindruck zu bewerten. Je komplexer das Zeichen, desto negativer? (weil es dann umso verwirrender wirkt?). Zeichen, die an ein Haus erinnern, wirken eher positiv","0","1","0","null","","","<div class = 'row'><div class = 'column'><img src = 'category4/CS2.png' width = '70%;'></div><div class = 'column'><img src = 'uspos/5760.bmp' width = '100%;'></div></div>","null","pos","CS","CS","4","category4/CS2.png","","","","",""
"","html-keyboard-response","16","252689","0.0-6.0-0.0-0.10","nks3bwqtk8","one_one","1","indirect_first","0","nn04ed24","1","57","2","1","NA","1","ich fand es schwierig, die Schriftzeichen mit einem positiven oder negativen Eindruck zu bewerten. Je komplexer das Zeichen, desto negativer? (weil es dann umso verwirrender wirkt?). Zeichen, die an ein Haus erinnern, wirken eher positiv","0","1","0","null","","","<div class = 'row'><div class = 'column'><img src = 'usneg/9180.bmp' width = '100%;'></div><div class = 'column'><img src = 'category3/CS9.png' width = '70%;'></div></div>","null","neg","CS","CS","3","category3/CS9.png","","","","",""
"","html-keyboard-response","17","255207","0.0-6.0-0.0-0.11","nks3bwqtk8","one_one","1","indirect_first","0","nn04ed24","1","57","2","1","NA","1","ich fand es schwierig, die Schriftzeichen mit einem positiven oder negativen Eindruck zu bewerten. Je komplexer das Zeichen, desto negativer? (weil es dann umso verwirrender wirkt?). Zeichen, die an ein Haus erinnern, wirken eher positiv","0","1","0","null","","","<div class = 'row'><div class = 'column'><img src = 'usneg/9520.bmp' width = '100%;'></div><div class = 'column'><img src = 'category2/CS1.png' width = '70%;'></div></div>","null","neg","CS","CS","2","category2/CS1.png","","","","",""
"","html-keyboard-response","18","257718","0.0-6.0-0.0-0.12","nks3bwqtk8","one_one","1","indirect_first","0","nn04ed24","1","57","2","1","NA","1","ich fand es schwierig, die Schriftzeichen mit einem positiven oder negativen Eindruck zu bewerten. Je komplexer das Zeichen, desto negativer? (weil es dann umso verwirrender wirkt?). Zeichen, die an ein Haus erinnern, wirken eher positiv","0","1","0","null","","","<div class = 'row'><div class = 'column'><img src = 'category3/CS9.png' width = '70%;'></div><div class = 'column'><img src = 'usneg/9180.bmp' width = '100%;'></div></div>","null","neg","CS","CS","3","category3/CS9.png","","","","",""
"","html-keyboard-response","19","260236","0.0-6.0-0.0-0.13","nks3bwqtk8","one_one","1","indirect_first","0","nn04ed24","1","57","2","1","NA","1","ich fand es schwierig, die Schriftzeichen mit einem positiven oder negativen Eindruck zu bewerten. Je komplexer das Zeichen, desto negativer? (weil es dann umso verwirrender wirkt?). Zeichen, die an ein Haus erinnern, wirken eher positiv","0","1","0","null","","","<div class = 'row'><div class = 'column'><img src = 'category2/CS1.png' width = '70%;'></div><div class = 'column'><img src = 'usneg/9520.bmp' width = '100%;'></div></div>","null","neg","CS","CS","2","category2/CS1.png","","","","",""
"","html-keyboard-response","20","262749","0.0-6.0-0.0-0.14","nks3bwqtk8","one_one","1","indirect_first","0","nn04ed24","1","57","2","1","NA","1","ich fand es schwierig, die Schriftzeichen mit einem positiven oder negativen Eindruck zu bewerten. Je komplexer das Zeichen, desto negativer? (weil es dann umso verwirrender wirkt?). Zeichen, die an ein Haus erinnern, wirken eher positiv","0","1","0","null","","","<div class = 'row'><div class = 'column'><img src = 'category4/CS2.png' width = '70%;'></div><div class = 'column'><img src = 'uspos/5760.bmp' width = '100%;'></div></div>","null","pos","CS","CS","4","category4/CS2.png","","","","",""
"","html-keyboard-response","21","265267","0.0-6.0-0.0-0.15","nks3bwqtk8","one_one","1","indirect_first","0","nn04ed24","1","57","2","1","NA","1","ich fand es schwierig, die Schriftzeichen mit einem positiven oder negativen Eindruck zu bewerten. Je komplexer das Zeichen, desto negativer? (weil es dann umso verwirrender wirkt?). Zeichen, die an ein Haus erinnern, wirken eher positiv","0","1","0","null","","","<div class = 'row'><div class = 'column'><img src = 'category2/CS1.png' width = '70%;'></div><div class = 'column'><img src = 'usneg/9520.bmp' width = '100%;'></div></div>","null","neg","CS","CS","2","category2/CS1.png","","","","",""
"","html-keyboard-response","22","267777","0.0-6.0-0.0-0.16","nks3bwqtk8","one_one","1","indirect_first","0","nn04ed24","1","57","2","1","NA","1","ich fand es schwierig, die Schriftzeichen mit einem positiven oder negativen Eindruck zu bewerten. Je komplexer das Zeichen, desto negativer? (weil es dann umso verwirrender wirkt?). Zeichen, die an ein Haus erinnern, wirken eher positiv","0","1","0","null","","","<div class = 'row'><div class = 'column'><img src = 'category4/CS2.png' width = '70%;'></div><div class = 'column'><img src = 'uspos/5760.bmp' width = '100%;'></div></div>","null","pos","CS","CS","4","category4/CS2.png","","","","",""
"","html-keyboard-response","23","270298","0.0-6.0-0.0-0.17","nks3bwqtk8","one_one","1","indirect_first","0","nn04ed24","1","57","2","1","NA","1","ich fand es schwierig, die Schriftzeichen mit einem positiven oder negativen Eindruck zu bewerten. Je komplexer das Zeichen, desto negativer? (weil es dann umso verwirrender wirkt?). Zeichen, die an ein Haus erinnern, wirken eher positiv","0","1","0","null","","","<div class = 'row'><div class = 'column'><img src = 'category1/CS8.png' width = '70%;'></div><div class = 'column'><img src = 'uspos/2360.bmp' width = '100%;'></div></div>","null","pos","CS","CS","1","category1/CS8.png","","","","",""
"","html-keyboard-response","24","272818","0.0-6.0-0.0-0.18","nks3bwqtk8","one_one","1","indirect_first","0","nn04ed24","1","57","2","1","NA","1","ich fand es schwierig, die Schriftzeichen mit einem positiven oder negativen Eindruck zu bewerten. Je komplexer das Zeichen, desto negativer? (weil es dann umso verwirrender wirkt?). Zeichen, die an ein Haus erinnern, wirken eher positiv","0","1","0","null","","","<div class = 'row'><div class = 'column'><img src = 'category3/CS9.png' width = '70%;'></div><div class = 'column'><img src = 'usneg/9180.bmp' width = '100%;'></div></div>","null","neg","CS","CS","3","category3/CS9.png","","","","",""
"","html-keyboard-response","25","275339","0.0-6.0-0.0-0.19","nks3bwqtk8","one_one","1","indirect_first","0","nn04ed24","1","57","2","1","NA","1","ich fand es schwierig, die Schriftzeichen mit einem positiven oder negativen Eindruck zu bewerten. Je komplexer das Zeichen, desto negativer? (weil es dann umso verwirrender wirkt?). Zeichen, die an ein Haus erinnern, wirken eher positiv","0","1","0","null","","","<div class = 'row'><div class = 'column'><img src = 'category2/CS1.png' width = '70%;'></div><div class = 'column'><img src = 'usneg/9520.bmp' width = '100%;'></div></div>","null","neg","CS","CS","2","category2/CS1.png","","","","",""
"","survey-html-form","26","284116","0.0-6.0-1.0","nks3bwqtk8","one_one","1","indirect_first","0","nn04ed24","1","57","2","1","NA","1","ich fand es schwierig, die Schriftzeichen mit einem positiven oder negativen Eindruck zu bewerten. Je komplexer das Zeichen, desto negativer? (weil es dann umso verwirrender wirkt?). Zeichen, die an ein Haus erinnern, wirken eher positiv","0","1","0","8265","","{}","","","","","","","","","","","",""
"","html-keyboard-response","27","288129","0.0-6.0-2.0-0.0","nks3bwqtk8","one_one","1","indirect_first","0","nn04ed24","1","57","2","1","NA","1","ich fand es schwierig, die Schriftzeichen mit einem positiven oder negativen Eindruck zu bewerten. Je komplexer das Zeichen, desto negativer? (weil es dann umso verwirrender wirkt?). Zeichen, die an ein Haus erinnern, wirken eher positiv","0","1","0","null","","","<div class = 'row'><div class = 'column'><img src = 'category3/CS9.png' width = '70%;'></div><div class = 'column'><img src = 'usneg/9180.bmp' width = '100%;'></div></div>","null","neg","CS","CS","3","category3/CS9.png","","","","",""
"","html-keyboard-response","28","290647","0.0-6.0-2.0-0.1","nks3bwqtk8","one_one","1","indirect_first","0","nn04ed24","1","57","2","1","NA","1","ich fand es schwierig, die Schriftzeichen mit einem positiven oder negativen Eindruck zu bewerten. Je komplexer das Zeichen, desto negativer? (weil es dann umso verwirrender wirkt?). Zeichen, die an ein Haus erinnern, wirken eher positiv","0","1","0","null","","","<div class = 'row'><div class = 'column'><img src = 'uspos/2360.bmp' width = '100%;'></div><div class = 'column'><img src = 'category1/CS8.png' width = '70%;'></div></div>","null","pos","CS","CS","1","category1/CS8.png","","","","",""
"","html-keyboard-response","29","293168","0.0-6.0-2.0-0.2","nks3bwqtk8","one_one","1","indirect_first","0","nn04ed24","1","57","2","1","NA","1","ich fand es schwierig, die Schriftzeichen mit einem positiven oder negativen Eindruck zu bewerten. Je komplexer das Zeichen, desto negativer? (weil es dann umso verwirrender wirkt?). Zeichen, die an ein Haus erinnern, wirken eher positiv","0","1","0","null","","","<div class = 'row'><div class = 'column'><img src = 'category3/CS9.png' width = '70%;'></div><div class = 'column'><img src = 'usneg/9180.bmp' width = '100%;'></div></div>","null","neg","CS","CS","3","category3/CS9.png","","","","",""
"","html-keyboard-response","30","295688","0.0-6.0-2.0-0.3","nks3bwqtk8","one_one","1","indirect_first","0","nn04ed24","1","57","2","1","NA","1","ich fand es schwierig, die Schriftzeichen mit einem positiven oder negativen Eindruck zu bewerten. Je komplexer das Zeichen, desto negativer? (weil es dann umso verwirrender wirkt?). Zeichen, die an ein Haus erinnern, wirken eher positiv","0","1","0","null","","","<div class = 'row'><div class = 'column'><img src = 'uspos/2360.bmp' width = '100%;'></div><div class = 'column'><img src = 'category1/CS8.png' width = '70%;'></div></div>","null","pos","CS","CS","1","category1/CS8.png","","","","",""
"","html-keyboard-response","31","298208","0.0-6.0-2.0-0.4","nks3bwqtk8","one_one","1","indirect_first","0","nn04ed24","1","57","2","1","NA","1","ich fand es schwierig, die Schriftzeichen mit einem positiven oder negativen Eindruck zu bewerten. Je komplexer das Zeichen, desto negativer? (weil es dann umso verwirrender wirkt?). Zeichen, die an ein Haus erinnern, wirken eher positiv","0","1","0","null","","","<div class = 'row'><div class = 'column'><img src = 'usneg/9180.bmp' width = '100%;'></div><div class = 'column'><img src = 'category3/CS9.png' width = '70%;'></div></div>","null","neg","CS","CS","3","category3/CS9.png","","","","",""
"","html-keyboard-response","32","300719","0.0-6.0-2.0-0.5","nks3bwqtk8","one_one","1","indirect_first","0","nn04ed24","1","57","2","1","NA","1","ich fand es schwierig, die Schriftzeichen mit einem positiven oder negativen Eindruck zu bewerten. Je komplexer das Zeichen, desto negativer? (weil es dann umso verwirrender wirkt?). Zeichen, die an ein Haus erinnern, wirken eher positiv","0","1","0","null","","","<div class = 'row'><div class = 'column'><img src = 'uspos/5760.bmp' width = '100%;'></div><div class = 'column'><img src = 'category4/CS2.png' width = '70%;'></div></div>","null","pos","CS","CS","4","category4/CS2.png","","","","",""
"","html-keyboard-response","33","303238","0.0-6.0-2.0-0.6","nks3bwqtk8","one_one","1","indirect_first","0","nn04ed24","1","57","2","1","NA","1","ich fand es schwierig, die Schriftzeichen mit einem positiven oder negativen Eindruck zu bewerten. Je komplexer das Zeichen, desto negativer? (weil es dann umso verwirrender wirkt?). Zeichen, die an ein Haus erinnern, wirken eher positiv","0","1","0","null","","","<div class = 'row'><div class = 'column'><img src = 'usneg/9180.bmp' width = '100%;'></div><div class = 'column'><img src = 'category3/CS9.png' width = '70%;'></div></div>","null","neg","CS","CS","3","category3/CS9.png","","","","",""
"","html-keyboard-response","34","305756","0.0-6.0-2.0-0.7","nks3bwqtk8","one_one","1","indirect_first","0","nn04ed24","1","57","2","1","NA","1","ich fand es schwierig, die Schriftzeichen mit einem positiven oder negativen Eindruck zu bewerten. Je komplexer das Zeichen, desto negativer? (weil es dann umso verwirrender wirkt?). Zeichen, die an ein Haus erinnern, wirken eher positiv","0","1","0","null","","","<div class = 'row'><div class = 'column'><img src = 'usneg/9520.bmp' width = '100%;'></div><div class = 'column'><img src = 'category2/CS1.png' width = '70%;'></div></div>","null","neg","CS","CS","2","category2/CS1.png","","","","",""
"","html-keyboard-response","35","308278","0.0-6.0-2.0-0.8","nks3bwqtk8","one_one","1","indirect_first","0","nn04ed24","1","57","2","1","NA","1","ich fand es schwierig, die Schriftzeichen mit einem positiven oder negativen Eindruck zu bewerten. Je komplexer das Zeichen, desto negativer? (weil es dann umso verwirrender wirkt?). Zeichen, die an ein Haus erinnern, wirken eher positiv","0","1","0","null","","","<div class = 'row'><div class = 'column'><img src = 'uspos/5760.bmp' width = '100%;'></div><div class = 'column'><img src = 'category4/CS2.png' width = '70%;'></div></div>","null","pos","CS","CS","4","category4/CS2.png","","","","",""
"","html-keyboard-response","36","310797","0.0-6.0-2.0-0.9","nks3bwqtk8","one_one","1","indirect_first","0","nn04ed24","1","57","2","1","NA","1","ich fand es schwierig, die Schriftzeichen mit einem positiven oder negativen Eindruck zu bewerten. Je komplexer das Zeichen, desto negativer? (weil es dann umso verwirrender wirkt?). Zeichen, die an ein Haus erinnern, wirken eher positiv","0","1","0","null","","","<div class = 'row'><div class = 'column'><img src = 'usneg/9180.bmp' width = '100%;'></div><div class = 'column'><img src = 'category3/CS9.png' width = '70%;'></div></div>","null","neg","CS","CS","3","category3/CS9.png","","","","",""
"","html-keyboard-response","37","313318","0.0-6.0-2.0-0.10","nks3bwqtk8","one_one","1","indirect_first","0","nn04ed24","1","57","2","1","NA","1","ich fand es schwierig, die Schriftzeichen mit einem positiven oder negativen Eindruck zu bewerten. Je komplexer das Zeichen, desto negativer? (weil es dann umso verwirrender wirkt?). Zeichen, die an ein Haus erinnern, wirken eher positiv","0","1","0","null","","","<div class = 'row'><div class = 'column'><img src = 'category4/CS2.png' width = '70%;'></div><div class = 'column'><img src = 'uspos/5760.bmp' width = '100%;'></div></div>","null","pos","CS","CS","4","category4/CS2.png","","","","",""
"","html-keyboard-response","38","315838","0.0-6.0-2.0-0.11","nks3bwqtk8","one_one","1","indirect_first","0","nn04ed24","1","57","2","1","NA","1","ich fand es schwierig, die Schriftzeichen mit einem positiven oder negativen Eindruck zu bewerten. Je komplexer das Zeichen, desto negativer? (weil es dann umso verwirrender wirkt?). Zeichen, die an ein Haus erinnern, wirken eher positiv","0","1","0","null","","","<div class = 'row'><div class = 'column'><img src = 'usneg/9520.bmp' width = '100%;'></div><div class = 'column'><img src = 'category2/CS1.png' width = '70%;'></div></div>","null","neg","CS","CS","2","category2/CS1.png","","","","",""
"","html-keyboard-response","39","318368","0.0-6.0-2.0-0.12","nks3bwqtk8","one_one","1","indirect_first","0","nn04ed24","1","57","2","1","NA","1","ich fand es schwierig, die Schriftzeichen mit einem positiven oder negativen Eindruck zu bewerten. Je komplexer das Zeichen, desto negativer? (weil es dann umso verwirrender wirkt?). Zeichen, die an ein Haus erinnern, wirken eher positiv","0","1","0","null","","","<div class = 'row'><div class = 'column'><img src = 'category4/CS2.png' width = '70%;'></div><div class = 'column'><img src = 'uspos/5760.bmp' width = '100%;'></div></div>","null","pos","CS","CS","4","category4/CS2.png","","","","",""
"","html-keyboard-response","40","320888","0.0-6.0-2.0-0.13","nks3bwqtk8","one_one","1","indirect_first","0","nn04ed24","1","57","2","1","NA","1","ich fand es schwierig, die Schriftzeichen mit einem positiven oder negativen Eindruck zu bewerten. Je komplexer das Zeichen, desto negativer? (weil es dann umso verwirrender wirkt?). Zeichen, die an ein Haus erinnern, wirken eher positiv","0","1","0","null","","","<div class = 'row'><div class = 'column'><img src = 'uspos/2360.bmp' width = '100%;'></div><div class = 'column'><img src = 'category1/CS8.png' width = '70%;'></div></div>","null","pos","CS","CS","1","category1/CS8.png","","","","",""
"","html-keyboard-response","41","323407","0.0-6.0-2.0-0.14","nks3bwqtk8","one_one","1","indirect_first","0","nn04ed24","1","57","2","1","NA","1","ich fand es schwierig, die Schriftzeichen mit einem positiven oder negativen Eindruck zu bewerten. Je komplexer das Zeichen, desto negativer? (weil es dann umso verwirrender wirkt?). Zeichen, die an ein Haus erinnern, wirken eher positiv","0","1","0","null","","","<div class = 'row'><div class = 'column'><img src = 'usneg/9520.bmp' width = '100%;'></div><div class = 'column'><img src = 'category2/CS1.png' width = '70%;'></div></div>","null","neg","CS","CS","2","category2/CS1.png","","","","",""
"","html-keyboard-response","42","325928","0.0-6.0-2.0-0.15","nks3bwqtk8","one_one","1","indirect_first","0","nn04ed24","1","57","2","1","NA","1","ich fand es schwierig, die Schriftzeichen mit einem positiven oder negativen Eindruck zu bewerten. Je komplexer das Zeichen, desto negativer? (weil es dann umso verwirrender wirkt?). Zeichen, die an ein Haus erinnern, wirken eher positiv","0","1","0","null","","","<div class = 'row'><div class = 'column'><img src = 'uspos/2360.bmp' width = '100%;'></div><div class = 'column'><img src = 'category1/CS8.png' width = '70%;'></div></div>","null","pos","CS","CS","1","category1/CS8.png","","","","",""
"","html-keyboard-response","43","328437","0.0-6.0-2.0-0.16","nks3bwqtk8","one_one","1","indirect_first","0","nn04ed24","1","57","2","1","NA","1","ich fand es schwierig, die Schriftzeichen mit einem positiven oder negativen Eindruck zu bewerten. Je komplexer das Zeichen, desto negativer? (weil es dann umso verwirrender wirkt?). Zeichen, die an ein Haus erinnern, wirken eher positiv","0","1","0","null","","","<div class = 'row'><div class = 'column'><img src = 'category2/CS1.png' width = '70%;'></div><div class = 'column'><img src = 'usneg/9520.bmp' width = '100%;'></div></div>","null","neg","CS","CS","2","category2/CS1.png","","","","",""
"","html-keyboard-response","44","330957","0.0-6.0-2.0-0.17","nks3bwqtk8","one_one","1","indirect_first","0","nn04ed24","1","57","2","1","NA","1","ich fand es schwierig, die Schriftzeichen mit einem positiven oder negativen Eindruck zu bewerten. Je komplexer das Zeichen, desto negativer? (weil es dann umso verwirrender wirkt?). Zeichen, die an ein Haus erinnern, wirken eher positiv","0","1","0","null","","","<div class = 'row'><div class = 'column'><img src = 'uspos/5760.bmp' width = '100%;'></div><div class = 'column'><img src = 'category4/CS2.png' width = '70%;'></div></div>","null","pos","CS","CS","4","category4/CS2.png","","","","",""
"","html-keyboard-response","45","333477","0.0-6.0-2.0-0.18","nks3bwqtk8","one_one","1","indirect_first","0","nn04ed24","1","57","2","1","NA","1","ich fand es schwierig, die Schriftzeichen mit einem positiven oder negativen Eindruck zu bewerten. Je komplexer das Zeichen, desto negativer? (weil es dann umso verwirrender wirkt?). Zeichen, die an ein Haus erinnern, wirken eher positiv","0","1","0","null","","","<div class = 'row'><div class = 'column'><img src = 'category2/CS1.png' width = '70%;'></div><div class = 'column'><img src = 'usneg/9520.bmp' width = '100%;'></div></div>","null","neg","CS","CS","2","category2/CS1.png","","","","",""
"","html-keyboard-response","46","335997","0.0-6.0-2.0-0.19","nks3bwqtk8","one_one","1","indirect_first","0","nn04ed24","1","57","2","1","NA","1","ich fand es schwierig, die Schriftzeichen mit einem positiven oder negativen Eindruck zu bewerten. Je komplexer das Zeichen, desto negativer? (weil es dann umso verwirrender wirkt?). Zeichen, die an ein Haus erinnern, wirken eher positiv","0","1","0","null","","","<div class = 'row'><div class = 'column'><img src = 'uspos/2360.bmp' width = '100%;'></div><div class = 'column'><img src = 'category1/CS8.png' width = '70%;'></div></div>","null","pos","CS","CS","1","category1/CS8.png","","","","",""
"","survey-html-form","47","352740","0.0-6.0-3.0","nks3bwqtk8","one_one","1","indirect_first","0","nn04ed24","1","57","2","1","NA","1","ich fand es schwierig, die Schriftzeichen mit einem positiven oder negativen Eindruck zu bewerten. Je komplexer das Zeichen, desto negativer? (weil es dann umso verwirrender wirkt?). Zeichen, die an ein Haus erinnern, wirken eher positiv","0","1","0","16232","","{}","","","","","","","","","","","",""
"","html-keyboard-response","48","356758","0.0-6.0-4.0-0.0","nks3bwqtk8","one_one","1","indirect_first","0","nn04ed24","1","57","2","1","NA","1","ich fand es schwierig, die Schriftzeichen mit einem positiven oder negativen Eindruck zu bewerten. Je komplexer das Zeichen, desto negativer? (weil es dann umso verwirrender wirkt?). Zeichen, die an ein Haus erinnern, wirken eher positiv","0","1","0","null","","","<div class = 'row'><div class = 'column'><img src = 'category4/CS2.png' width = '70%;'></div><div class = 'column'><img src = 'uspos/5760.bmp' width = '100%;'></div></div>","null","pos","CS","CS","4","category4/CS2.png","","","","",""
"","html-keyboard-response","49","359278","0.0-6.0-4.0-0.1","nks3bwqtk8","one_one","1","indirect_first","0","nn04ed24","1","57","2","1","NA","1","ich fand es schwierig, die Schriftzeichen mit einem positiven oder negativen Eindruck zu bewerten. Je komplexer das Zeichen, desto negativer? (weil es dann umso verwirrender wirkt?). Zeichen, die an ein Haus erinnern, wirken eher positiv","0","1","0","null","","","<div class = 'row'><div class = 'column'><img src = 'category2/CS1.png' width = '70%;'></div><div class = 'column'><img src = 'usneg/9520.bmp' width = '100%;'></div></div>","null","neg","CS","CS","2","category2/CS1.png","","","","",""
"","html-keyboard-response","50","361798","0.0-6.0-4.0-0.2","nks3bwqtk8","one_one","1","indirect_first","0","nn04ed24","1","57","2","1","NA","1","ich fand es schwierig, die Schriftzeichen mit einem positiven oder negativen Eindruck zu bewerten. Je komplexer das Zeichen, desto negativer? (weil es dann umso verwirrender wirkt?). Zeichen, die an ein Haus erinnern, wirken eher positiv","0","1","0","null","","","<div class = 'row'><div class = 'column'><img src = 'category1/CS8.png' width = '70%;'></div><div class = 'column'><img src = 'uspos/2360.bmp' width = '100%;'></div></div>","null","pos","CS","CS","1","category1/CS8.png","","","","",""
"","html-keyboard-response","51","364317","0.0-6.0-4.0-0.3","nks3bwqtk8","one_one","1","indirect_first","0","nn04ed24","1","57","2","1","NA","1","ich fand es schwierig, die Schriftzeichen mit einem positiven oder negativen Eindruck zu bewerten. Je komplexer das Zeichen, desto negativer? (weil es dann umso verwirrender wirkt?). Zeichen, die an ein Haus erinnern, wirken eher positiv","0","1","0","null","","","<div class = 'row'><div class = 'column'><img src = 'category3/CS9.png' width = '70%;'></div><div class = 'column'><img src = 'usneg/9180.bmp' width = '100%;'></div></div>","null","neg","CS","CS","3","category3/CS9.png","","","","",""
"","html-keyboard-response","52","366838","0.0-6.0-4.0-0.4","nks3bwqtk8","one_one","1","indirect_first","0","nn04ed24","1","57","2","1","NA","1","ich fand es schwierig, die Schriftzeichen mit einem positiven oder negativen Eindruck zu bewerten. Je komplexer das Zeichen, desto negativer? (weil es dann umso verwirrender wirkt?). Zeichen, die an ein Haus erinnern, wirken eher positiv","0","1","0","null","","","<div class = 'row'><div class = 'column'><img src = 'category1/CS8.png' width = '70%;'></div><div class = 'column'><img src = 'uspos/2360.bmp' width = '100%;'></div></div>","null","pos","CS","CS","1","category1/CS8.png","","","","",""
"","html-keyboard-response","53","369358","0.0-6.0-4.0-0.5","nks3bwqtk8","one_one","1","indirect_first","0","nn04ed24","1","57","2","1","NA","1","ich fand es schwierig, die Schriftzeichen mit einem positiven oder negativen Eindruck zu bewerten. Je komplexer das Zeichen, desto negativer? (weil es dann umso verwirrender wirkt?). Zeichen, die an ein Haus erinnern, wirken eher positiv","0","1","0","null","","","<div class = 'row'><div class = 'column'><img src = 'category4/CS2.png' width = '70%;'></div><div class = 'column'><img src = 'uspos/5760.bmp' width = '100%;'></div></div>","null","pos","CS","CS","4","category4/CS2.png","","","","",""
"","html-keyboard-response","54","371881","0.0-6.0-4.0-0.6","nks3bwqtk8","one_one","1","indirect_first","0","nn04ed24","1","57","2","1","NA","1","ich fand es schwierig, die Schriftzeichen mit einem positiven oder negativen Eindruck zu bewerten. Je komplexer das Zeichen, desto negativer? (weil es dann umso verwirrender wirkt?). Zeichen, die an ein Haus erinnern, wirken eher positiv","0","1","0","null","","","<div class = 'row'><div class = 'column'><img src = 'usneg/9520.bmp' width = '100%;'></div><div class = 'column'><img src = 'category2/CS1.png' width = '70%;'></div></div>","null","neg","CS","CS","2","category2/CS1.png","","","","",""
"","html-keyboard-response","55","374397","0.0-6.0-4.0-0.7","nks3bwqtk8","one_one","1","indirect_first","0","nn04ed24","1","57","2","1","NA","1","ich fand es schwierig, die Schriftzeichen mit einem positiven oder negativen Eindruck zu bewerten. Je komplexer das Zeichen, desto negativer? (weil es dann umso verwirrender wirkt?). Zeichen, die an ein Haus erinnern, wirken eher positiv","0","1","0","null","","","<div class = 'row'><div class = 'column'><img src = 'category3/CS9.png' width = '70%;'></div><div class = 'column'><img src = 'usneg/9180.bmp' width = '100%;'></div></div>","null","neg","CS","CS","3","category3/CS9.png","","","","",""
"","html-keyboard-response","56","376917","0.0-6.0-4.0-0.8","nks3bwqtk8","one_one","1","indirect_first","0","nn04ed24","1","57","2","1","NA","1","ich fand es schwierig, die Schriftzeichen mit einem positiven oder negativen Eindruck zu bewerten. Je komplexer das Zeichen, desto negativer? (weil es dann umso verwirrender wirkt?). Zeichen, die an ein Haus erinnern, wirken eher positiv","0","1","0","null","","","<div class = 'row'><div class = 'column'><img src = 'uspos/2360.bmp' width = '100%;'></div><div class = 'column'><img src = 'category1/CS8.png' width = '70%;'></div></div>","null","pos","CS","CS","1","category1/CS8.png","","","","",""
"","html-keyboard-response","57","379437","0.0-6.0-4.0-0.9","nks3bwqtk8","one_one","1","indirect_first","0","nn04ed24","1","57","2","1","NA","1","ich fand es schwierig, die Schriftzeichen mit einem positiven oder negativen Eindruck zu bewerten. Je komplexer das Zeichen, desto negativer? (weil es dann umso verwirrender wirkt?). Zeichen, die an ein Haus erinnern, wirken eher positiv","0","1","0","null","","","<div class = 'row'><div class = 'column'><img src = 'category3/CS9.png' width = '70%;'></div><div class = 'column'><img src = 'usneg/9180.bmp' width = '100%;'></div></div>","null","neg","CS","CS","3","category3/CS9.png","","","","",""
"","html-keyboard-response","58","381957","0.0-6.0-4.0-0.10","nks3bwqtk8","one_one","1","indirect_first","0","nn04ed24","1","57","2","1","NA","1","ich fand es schwierig, die Schriftzeichen mit einem positiven oder negativen Eindruck zu bewerten. Je komplexer das Zeichen, desto negativer? (weil es dann umso verwirrender wirkt?). Zeichen, die an ein Haus erinnern, wirken eher positiv","0","1","0","null","","","<div class = 'row'><div class = 'column'><img src = 'category4/CS2.png' width = '70%;'></div><div class = 'column'><img src = 'uspos/5760.bmp' width = '100%;'></div></div>","null","pos","CS","CS","4","category4/CS2.png","","","","",""
"","html-keyboard-response","59","384477","0.0-6.0-4.0-0.11","nks3bwqtk8","one_one","1","indirect_first","0","nn04ed24","1","57","2","1","NA","1","ich fand es schwierig, die Schriftzeichen mit einem positiven oder negativen Eindruck zu bewerten. Je komplexer das Zeichen, desto negativer? (weil es dann umso verwirrender wirkt?). Zeichen, die an ein Haus erinnern, wirken eher positiv","0","1","0","null","","","<div class = 'row'><div class = 'column'><img src = 'uspos/2360.bmp' width = '100%;'></div><div class = 'column'><img src = 'category1/CS8.png' width = '70%;'></div></div>","null","pos","CS","CS","1","category1/CS8.png","","","","",""
"","html-keyboard-response","60","386997","0.0-6.0-4.0-0.12","nks3bwqtk8","one_one","1","indirect_first","0","nn04ed24","1","57","2","1","NA","1","ich fand es schwierig, die Schriftzeichen mit einem positiven oder negativen Eindruck zu bewerten. Je komplexer das Zeichen, desto negativer? (weil es dann umso verwirrender wirkt?). Zeichen, die an ein Haus erinnern, wirken eher positiv","0","1","0","null","","","<div class = 'row'><div class = 'column'><img src = 'uspos/5760.bmp' width = '100%;'></div><div class = 'column'><img src = 'category4/CS2.png' width = '70%;'></div></div>","null","pos","CS","CS","4","category4/CS2.png","","","","",""
"","html-keyboard-response","61","389514","0.0-6.0-4.0-0.13","nks3bwqtk8","one_one","1","indirect_first","0","nn04ed24","1","57","2","1","NA","1","ich fand es schwierig, die Schriftzeichen mit einem positiven oder negativen Eindruck zu bewerten. Je komplexer das Zeichen, desto negativer? (weil es dann umso verwirrender wirkt?). Zeichen, die an ein Haus erinnern, wirken eher positiv","0","1","0","null","","","<div class = 'row'><div class = 'column'><img src = 'category2/CS1.png' width = '70%;'></div><div class = 'column'><img src = 'usneg/9520.bmp' width = '100%;'></div></div>","null","neg","CS","CS","2","category2/CS1.png","","","","",""
"","html-keyboard-response","62","392037","0.0-6.0-4.0-0.14","nks3bwqtk8","one_one","1","indirect_first","0","nn04ed24","1","57","2","1","NA","1","ich fand es schwierig, die Schriftzeichen mit einem positiven oder negativen Eindruck zu bewerten. Je komplexer das Zeichen, desto negativer? (weil es dann umso verwirrender wirkt?). Zeichen, die an ein Haus erinnern, wirken eher positiv","0","1","0","null","","","<div class = 'row'><div class = 'column'><img src = 'usneg/9180.bmp' width = '100%;'></div><div class = 'column'><img src = 'category3/CS9.png' width = '70%;'></div></div>","null","neg","CS","CS","3","category3/CS9.png","","","","",""
"","html-keyboard-response","63","394559","0.0-6.0-4.0-0.15","nks3bwqtk8","one_one","1","indirect_first","0","nn04ed24","1","57","2","1","NA","1","ich fand es schwierig, die Schriftzeichen mit einem positiven oder negativen Eindruck zu bewerten. Je komplexer das Zeichen, desto negativer? (weil es dann umso verwirrender wirkt?). Zeichen, die an ein Haus erinnern, wirken eher positiv","0","1","0","null","","","<div class = 'row'><div class = 'column'><img src = 'usneg/9520.bmp' width = '100%;'></div><div class = 'column'><img src = 'category2/CS1.png' width = '70%;'></div></div>","null","neg","CS","CS","2","category2/CS1.png","","","","",""
"","html-keyboard-response","64","397077","0.0-6.0-4.0-0.16","nks3bwqtk8","one_one","1","indirect_first","0","nn04ed24","1","57","2","1","NA","1","ich fand es schwierig, die Schriftzeichen mit einem positiven oder negativen Eindruck zu bewerten. Je komplexer das Zeichen, desto negativer? (weil es dann umso verwirrender wirkt?). Zeichen, die an ein Haus erinnern, wirken eher positiv","0","1","0","null","","","<div class = 'row'><div class = 'column'><img src = 'category3/CS9.png' width = '70%;'></div><div class = 'column'><img src = 'usneg/9180.bmp' width = '100%;'></div></div>","null","neg","CS","CS","3","category3/CS9.png","","","","",""
"","html-keyboard-response","65","399594","0.0-6.0-4.0-0.17","nks3bwqtk8","one_one","1","indirect_first","0","nn04ed24","1","57","2","1","NA","1","ich fand es schwierig, die Schriftzeichen mit einem positiven oder negativen Eindruck zu bewerten. Je komplexer das Zeichen, desto negativer? (weil es dann umso verwirrender wirkt?). Zeichen, die an ein Haus erinnern, wirken eher positiv","0","1","0","null","","","<div class = 'row'><div class = 'column'><img src = 'category4/CS2.png' width = '70%;'></div><div class = 'column'><img src = 'uspos/5760.bmp' width = '100%;'></div></div>","null","pos","CS","CS","4","category4/CS2.png","","","","",""
"","html-keyboard-response","66","402108","0.0-6.0-4.0-0.18","nks3bwqtk8","one_one","1","indirect_first","0","nn04ed24","1","57","2","1","NA","1","ich fand es schwierig, die Schriftzeichen mit einem positiven oder negativen Eindruck zu bewerten. Je komplexer das Zeichen, desto negativer? (weil es dann umso verwirrender wirkt?). Zeichen, die an ein Haus erinnern, wirken eher positiv","0","1","0","null","","","<div class = 'row'><div class = 'column'><img src = 'usneg/9520.bmp' width = '100%;'></div><div class = 'column'><img src = 'category2/CS1.png' width = '70%;'></div></div>","null","neg","CS","CS","2","category2/CS1.png","","","","",""
"","html-keyboard-response","67","404627","0.0-6.0-4.0-0.19","nks3bwqtk8","one_one","1","indirect_first","0","nn04ed24","1","57","2","1","NA","1","ich fand es schwierig, die Schriftzeichen mit einem positiven oder negativen Eindruck zu bewerten. Je komplexer das Zeichen, desto negativer? (weil es dann umso verwirrender wirkt?). Zeichen, die an ein Haus erinnern, wirken eher positiv","0","1","0","null","","","<div class = 'row'><div class = 'column'><img src = 'category1/CS8.png' width = '70%;'></div><div class = 'column'><img src = 'uspos/2360.bmp' width = '100%;'></div></div>","null","pos","CS","CS","1","category1/CS8.png","","","","",""
"","survey-html-form","68","413795","0.0-6.0-5.0","nks3bwqtk8","one_one","1","indirect_first","0","nn04ed24","1","57","2","1","NA","1","ich fand es schwierig, die Schriftzeichen mit einem positiven oder negativen Eindruck zu bewerten. Je komplexer das Zeichen, desto negativer? (weil es dann umso verwirrender wirkt?). Zeichen, die an ein Haus erinnern, wirken eher positiv","0","1","0","8659","","{}","","","","","","","","","","","",""
"","html-keyboard-response","69","417809","0.0-6.0-6.0-0.0","nks3bwqtk8","one_one","1","indirect_first","0","nn04ed24","1","57","2","1","NA","1","ich fand es schwierig, die Schriftzeichen mit einem positiven oder negativen Eindruck zu bewerten. Je komplexer das Zeichen, desto negativer? (weil es dann umso verwirrender wirkt?). Zeichen, die an ein Haus erinnern, wirken eher positiv","0","1","0","null","","","<div class = 'row'><div class = 'column'><img src = 'usneg/9520.bmp' width = '100%;'></div><div class = 'column'><img src = 'category2/CS1.png' width = '70%;'></div></div>","null","neg","CS","CS","2","category2/CS1.png","","","","",""
"","html-keyboard-response","70","420327","0.0-6.0-6.0-0.1","nks3bwqtk8","one_one","1","indirect_first","0","nn04ed24","1","57","2","1","NA","1","ich fand es schwierig, die Schriftzeichen mit einem positiven oder negativen Eindruck zu bewerten. Je komplexer das Zeichen, desto negativer? (weil es dann umso verwirrender wirkt?). Zeichen, die an ein Haus erinnern, wirken eher positiv","0","1","0","null","","","<div class = 'row'><div class = 'column'><img src = 'usneg/9180.bmp' width = '100%;'></div><div class = 'column'><img src = 'category3/CS9.png' width = '70%;'></div></div>","null","neg","CS","CS","3","category3/CS9.png","","","","",""
"","html-keyboard-response","71","422847","0.0-6.0-6.0-0.2","nks3bwqtk8","one_one","1","indirect_first","0","nn04ed24","1","57","2","1","NA","1","ich fand es schwierig, die Schriftzeichen mit einem positiven oder negativen Eindruck zu bewerten. Je komplexer das Zeichen, desto negativer? (weil es dann umso verwirrender wirkt?). Zeichen, die an ein Haus erinnern, wirken eher positiv","0","1","0","null","","","<div class = 'row'><div class = 'column'><img src = 'uspos/5760.bmp' width = '100%;'></div><div class = 'column'><img src = 'category4/CS2.png' width = '70%;'></div></div>","null","pos","CS","CS","4","category4/CS2.png","","","","",""
"","html-keyboard-response","72","425367","0.0-6.0-6.0-0.3","nks3bwqtk8","one_one","1","indirect_first","0","nn04ed24","1","57","2","1","NA","1","ich fand es schwierig, die Schriftzeichen mit einem positiven oder negativen Eindruck zu bewerten. Je komplexer das Zeichen, desto negativer? (weil es dann umso verwirrender wirkt?). Zeichen, die an ein Haus erinnern, wirken eher positiv","0","1","0","null","","","<div class = 'row'><div class = 'column'><img src = 'category2/CS1.png' width = '70%;'></div><div class = 'column'><img src = 'usneg/9520.bmp' width = '100%;'></div></div>","null","neg","CS","CS","2","category2/CS1.png","","","","",""
"","html-keyboard-response","73","427888","0.0-6.0-6.0-0.4","nks3bwqtk8","one_one","1","indirect_first","0","nn04ed24","1","57","2","1","NA","1","ich fand es schwierig, die Schriftzeichen mit einem positiven oder negativen Eindruck zu bewerten. Je komplexer das Zeichen, desto negativer? (weil es dann umso verwirrender wirkt?). Zeichen, die an ein Haus erinnern, wirken eher positiv","0","1","0","null","","","<div class = 'row'><div class = 'column'><img src = 'category3/CS9.png' width = '70%;'></div><div class = 'column'><img src = 'usneg/9180.bmp' width = '100%;'></div></div>","null","neg","CS","CS","3","category3/CS9.png","","","","",""
"","html-keyboard-response","74","430408","0.0-6.0-6.0-0.5","nks3bwqtk8","one_one","1","indirect_first","0","nn04ed24","1","57","2","1","NA","1","ich fand es schwierig, die Schriftzeichen mit einem positiven oder negativen Eindruck zu bewerten. Je komplexer das Zeichen, desto negativer? (weil es dann umso verwirrender wirkt?). Zeichen, die an ein Haus erinnern, wirken eher positiv","0","1","0","null","","","<div class = 'row'><div class = 'column'><img src = 'uspos/2360.bmp' width = '100%;'></div><div class = 'column'><img src = 'category1/CS8.png' width = '70%;'></div></div>","null","pos","CS","CS","1","category1/CS8.png","","","","",""
"","html-keyboard-response","75","432926","0.0-6.0-6.0-0.6","nks3bwqtk8","one_one","1","indirect_first","0","nn04ed24","1","57","2","1","NA","1","ich fand es schwierig, die Schriftzeichen mit einem positiven oder negativen Eindruck zu bewerten. Je komplexer das Zeichen, desto negativer? (weil es dann umso verwirrender wirkt?). Zeichen, die an ein Haus erinnern, wirken eher positiv","0","1","0","null","","","<div class = 'row'><div class = 'column'><img src = 'uspos/5760.bmp' width = '100%;'></div><div class = 'column'><img src = 'category4/CS2.png' width = '70%;'></div></div>","null","pos","CS","CS","4","category4/CS2.png","","","","",""
"","html-keyboard-response","76","435448","0.0-6.0-6.0-0.7","nks3bwqtk8","one_one","1","indirect_first","0","nn04ed24","1","57","2","1","NA","1","ich fand es schwierig, die Schriftzeichen mit einem positiven oder negativen Eindruck zu bewerten. Je komplexer das Zeichen, desto negativer? (weil es dann umso verwirrender wirkt?). Zeichen, die an ein Haus erinnern, wirken eher positiv","0","1","0","null","","","<div class = 'row'><div class = 'column'><img src = 'usneg/9180.bmp' width = '100%;'></div><div class = 'column'><img src = 'category3/CS9.png' width = '70%;'></div></div>","null","neg","CS","CS","3","category3/CS9.png","","","","",""
"","html-keyboard-response","77","437968","0.0-6.0-6.0-0.8","nks3bwqtk8","one_one","1","indirect_first","0","nn04ed24","1","57","2","1","NA","1","ich fand es schwierig, die Schriftzeichen mit einem positiven oder negativen Eindruck zu bewerten. Je komplexer das Zeichen, desto negativer? (weil es dann umso verwirrender wirkt?). Zeichen, die an ein Haus erinnern, wirken eher positiv","0","1","0","null","","","<div class = 'row'><div class = 'column'><img src = 'uspos/2360.bmp' width = '100%;'></div><div class = 'column'><img src = 'category1/CS8.png' width = '70%;'></div></div>","null","pos","CS","CS","1","category1/CS8.png","","","","",""
"","html-keyboard-response","78","440487","0.0-6.0-6.0-0.9","nks3bwqtk8","one_one","1","indirect_first","0","nn04ed24","1","57","2","1","NA","1","ich fand es schwierig, die Schriftzeichen mit einem positiven oder negativen Eindruck zu bewerten. Je komplexer das Zeichen, desto negativer? (weil es dann umso verwirrender wirkt?). Zeichen, die an ein Haus erinnern, wirken eher positiv","0","1","0","null","","","<div class = 'row'><div class = 'column'><img src = 'uspos/5760.bmp' width = '100%;'></div><div class = 'column'><img src = 'category4/CS2.png' width = '70%;'></div></div>","null","pos","CS","CS","4","category4/CS2.png","","","","",""
"","html-keyboard-response","79","443006","0.0-6.0-6.0-0.10","nks3bwqtk8","one_one","1","indirect_first","0","nn04ed24","1","57","2","1","NA","1","ich fand es schwierig, die Schriftzeichen mit einem positiven oder negativen Eindruck zu bewerten. Je komplexer das Zeichen, desto negativer? (weil es dann umso verwirrender wirkt?). Zeichen, die an ein Haus erinnern, wirken eher positiv","0","1","0","null","","","<div class = 'row'><div class = 'column'><img src = 'usneg/9520.bmp' width = '100%;'></div><div class = 'column'><img src = 'category2/CS1.png' width = '70%;'></div></div>","null","neg","CS","CS","2","category2/CS1.png","","","","",""
"","html-keyboard-response","80","445526","0.0-6.0-6.0-0.11","nks3bwqtk8","one_one","1","indirect_first","0","nn04ed24","1","57","2","1","NA","1","ich fand es schwierig, die Schriftzeichen mit einem positiven oder negativen Eindruck zu bewerten. Je komplexer das Zeichen, desto negativer? (weil es dann umso verwirrender wirkt?). Zeichen, die an ein Haus erinnern, wirken eher positiv","0","1","0","null","","","<div class = 'row'><div class = 'column'><img src = 'category3/CS9.png' width = '70%;'></div><div class = 'column'><img src = 'usneg/9180.bmp' width = '100%;'></div></div>","null","neg","CS","CS","3","category3/CS9.png","","","","",""
"","html-keyboard-response","81","448048","0.0-6.0-6.0-0.12","nks3bwqtk8","one_one","1","indirect_first","0","nn04ed24","1","57","2","1","NA","1","ich fand es schwierig, die Schriftzeichen mit einem positiven oder negativen Eindruck zu bewerten. Je komplexer das Zeichen, desto negativer? (weil es dann umso verwirrender wirkt?). Zeichen, die an ein Haus erinnern, wirken eher positiv","0","1","0","null","","","<div class = 'row'><div class = 'column'><img src = 'category4/CS2.png' width = '70%;'></div><div class = 'column'><img src = 'uspos/5760.bmp' width = '100%;'></div></div>","null","pos","CS","CS","4","category4/CS2.png","","","","",""
"","html-keyboard-response","82","450567","0.0-6.0-6.0-0.13","nks3bwqtk8","one_one","1","indirect_first","0","nn04ed24","1","57","2","1","NA","1","ich fand es schwierig, die Schriftzeichen mit einem positiven oder negativen Eindruck zu bewerten. Je komplexer das Zeichen, desto negativer? (weil es dann umso verwirrender wirkt?). Zeichen, die an ein Haus erinnern, wirken eher positiv","0","1","0","null","","","<div class = 'row'><div class = 'column'><img src = 'uspos/2360.bmp' width = '100%;'></div><div class = 'column'><img src = 'category1/CS8.png' width = '70%;'></div></div>","null","pos","CS","CS","1","category1/CS8.png","","","","",""
"","html-keyboard-response","83","453087","0.0-6.0-6.0-0.14","nks3bwqtk8","one_one","1","indirect_first","0","nn04ed24","1","57","2","1","NA","1","ich fand es schwierig, die Schriftzeichen mit einem positiven oder negativen Eindruck zu bewerten. Je komplexer das Zeichen, desto negativer? (weil es dann umso verwirrender wirkt?). Zeichen, die an ein Haus erinnern, wirken eher positiv","0","1","0","null","","","<div class = 'row'><div class = 'column'><img src = 'usneg/9520.bmp' width = '100%;'></div><div class = 'column'><img src = 'category2/CS1.png' width = '70%;'></div></div>","null","neg","CS","CS","2","category2/CS1.png","","","","",""
"","html-keyboard-response","84","455606","0.0-6.0-6.0-0.15","nks3bwqtk8","one_one","1","indirect_first","0","nn04ed24","1","57","2","1","NA","1","ich fand es schwierig, die Schriftzeichen mit einem positiven oder negativen Eindruck zu bewerten. Je komplexer das Zeichen, desto negativer? (weil es dann umso verwirrender wirkt?). Zeichen, die an ein Haus erinnern, wirken eher positiv","0","1","0","null","","","<div class = 'row'><div class = 'column'><img src = 'category3/CS9.png' width = '70%;'></div><div class = 'column'><img src = 'usneg/9180.bmp' width = '100%;'></div></div>","null","neg","CS","CS","3","category3/CS9.png","","","","",""
"","html-keyboard-response","85","458129","0.0-6.0-6.0-0.16","nks3bwqtk8","one_one","1","indirect_first","0","nn04ed24","1","57","2","1","NA","1","ich fand es schwierig, die Schriftzeichen mit einem positiven oder negativen Eindruck zu bewerten. Je komplexer das Zeichen, desto negativer? (weil es dann umso verwirrender wirkt?). Zeichen, die an ein Haus erinnern, wirken eher positiv","0","1","0","null","","","<div class = 'row'><div class = 'column'><img src = 'category4/CS2.png' width = '70%;'></div><div class = 'column'><img src = 'uspos/5760.bmp' width = '100%;'></div></div>","null","pos","CS","CS","4","category4/CS2.png","","","","",""
"","html-keyboard-response","86","460646","0.0-6.0-6.0-0.17","nks3bwqtk8","one_one","1","indirect_first","0","nn04ed24","1","57","2","1","NA","1","ich fand es schwierig, die Schriftzeichen mit einem positiven oder negativen Eindruck zu bewerten. Je komplexer das Zeichen, desto negativer? (weil es dann umso verwirrender wirkt?). Zeichen, die an ein Haus erinnern, wirken eher positiv","0","1","0","null","","","<div class = 'row'><div class = 'column'><img src = 'uspos/2360.bmp' width = '100%;'></div><div class = 'column'><img src = 'category1/CS8.png' width = '70%;'></div></div>","null","pos","CS","CS","1","category1/CS8.png","","","","",""
"","html-keyboard-response","87","463167","0.0-6.0-6.0-0.18","nks3bwqtk8","one_one","1","indirect_first","0","nn04ed24","1","57","2","1","NA","1","ich fand es schwierig, die Schriftzeichen mit einem positiven oder negativen Eindruck zu bewerten. Je komplexer das Zeichen, desto negativer? (weil es dann umso verwirrender wirkt?). Zeichen, die an ein Haus erinnern, wirken eher positiv","0","1","0","null","","","<div class = 'row'><div class = 'column'><img src = 'usneg/9520.bmp' width = '100%;'></div><div class = 'column'><img src = 'category2/CS1.png' width = '70%;'></div></div>","null","neg","CS","CS","2","category2/CS1.png","","","","",""
"","html-keyboard-response","88","465686","0.0-6.0-6.0-0.19","nks3bwqtk8","one_one","1","indirect_first","0","nn04ed24","1","57","2","1","NA","1","ich fand es schwierig, die Schriftzeichen mit einem positiven oder negativen Eindruck zu bewerten. Je komplexer das Zeichen, desto negativer? (weil es dann umso verwirrender wirkt?). Zeichen, die an ein Haus erinnern, wirken eher positiv","0","1","0","null","","","<div class = 'row'><div class = 'column'><img src = 'category1/CS8.png' width = '70%;'></div><div class = 'column'><img src = 'uspos/2360.bmp' width = '100%;'></div></div>","null","pos","CS","CS","1","category1/CS8.png","","","","",""
"","html-keyboard-response","89","512907","0.0-7.0","nks3bwqtk8","one_one","1","indirect_first","0","nn04ed24","1","57","2","1","NA","1","ich fand es schwierig, die Schriftzeichen mit einem positiven oder negativen Eindruck zu bewerten. Je komplexer das Zeichen, desto negativer? (weil es dann umso verwirrender wirkt?). Zeichen, die an ein Haus erinnern, wirken eher positiv","0","1","0","46707","","","<p>Sie sehen nun die chinesischen Zeichen nur ganz kurz. Danach sehen Sie die jeweilige Aussprache der Zeichen als Silbe auf dem Bildschrim. Ihre Aufgabe ist es, fr jede Silbe anzugeben, ob diese etwas angenehmes, oder unangenehmes bedeuten knnte. Verlassen Sie sich hier vor allem auf Ihre Intuition.<br><br>Die Zeichen werden nur zur Orientierung dargestellt, beachten Sie sie deshalb nicht. Konzentrieren Sie sich vor allem auf die Silben. <br>Reagieren Sie mit folgenden zwei Tasten: <br><br><b>'D' </b> wenn die Silbe etwas <b>unangenehmes</b> bedeuten knnte. <br><b>'K'</b> wenn die Silbe etwas <b>angenehmes</b> bedeuten knnte. <br><br>Bitte legen Sie nun den Zeigefinger der linken Hand auf die Taste 'D' und den Zeigefinger der rechten Hand auf die Taste 'K'. <br>Reagieren Sie auf jede Silbe so schnell wie mglich. Uns interessiert Ihre spontane Reaktion. <br> <br> <br>Drcken Sie 'D' oder 'K', um die nchste Aufgabe zu starten. </p>","68","","","","","","","","","",""
"","html-keyboard-response","90","515925","0.0-8.0-0.0","nks3bwqtk8","one_one","1","indirect_first","0","nn04ed24","1","57","2","1","NA","1","ich fand es schwierig, die Schriftzeichen mit einem positiven oder negativen Eindruck zu bewerten. Je komplexer das Zeichen, desto negativer? (weil es dann umso verwirrender wirkt?). Zeichen, die an ein Haus erinnern, wirken eher positiv","0","1","0","null","","","<div style=""font-size:60px;"">+</div>","null","","","","","","","","","",""
"","html-keyboard-response","91","516026","0.0-8.0-1.0","nks3bwqtk8","one_one","1","indirect_first","0","nn04ed24","1","57","2","1","NA","1","ich fand es schwierig, die Schriftzeichen mit einem positiven oder negativen Eindruck zu bewerten. Je komplexer das Zeichen, desto negativer? (weil es dann umso verwirrender wirkt?). Zeichen, die an ein Haus erinnern, wirken eher positiv","0","1","0","null","","","<img src = 'category2/CS6.png' width = '100%;'>","null","","","","","","","","","",""
"","html-keyboard-response","92","516286","0.0-8.0-2.0","nks3bwqtk8","one_one","1","indirect_first","0","nn04ed24","1","57","2","1","NA","1","ich fand es schwierig, die Schriftzeichen mit einem positiven oder negativen Eindruck zu bewerten. Je komplexer das Zeichen, desto negativer? (weil es dann umso verwirrender wirkt?). Zeichen, die an ein Haus erinnern, wirken eher positiv","0","1","0","null","","","<img src = 'targets/46.png' width = '100%;'>","null","","","","","","","","","",""
"","html-keyboard-response","93","518549","0.0-8.0-3.0","nks3bwqtk8","one_one","1","indirect_first","0","nn04ed24","1","57","2","1","NA","1","ich fand es schwierig, die Schriftzeichen mit einem positiven oder negativen Eindruck zu bewerten. Je komplexer das Zeichen, desto negativer? (weil es dann umso verwirrender wirkt?). Zeichen, die an ein Haus erinnern, wirken eher positiv","0","1","0","2258","","","<img src = 'targets/mask.png' width = '100%;'>","68","neg","GS","GSold","2","category2/CS6.png","targets/46.png","0","indirect","0",""
"","html-keyboard-response","94","520065","0.0-8.0-0.1","nks3bwqtk8","one_one","1","indirect_first","0","nn04ed24","1","57","2","1","NA","1","ich fand es schwierig, die Schriftzeichen mit einem positiven oder negativen Eindruck zu bewerten. Je komplexer das Zeichen, desto negativer? (weil es dann umso verwirrender wirkt?). Zeichen, die an ein Haus erinnern, wirken eher positiv","0","1","0","null","","","<div style=""font-size:60px;"">+</div>","null","","","","","","","","","",""
"","html-keyboard-response","95","520166","0.0-8.0-1.1","nks3bwqtk8","one_one","1","indirect_first","0","nn04ed24","1","57","2","1","NA","1","ich fand es schwierig, die Schriftzeichen mit einem positiven oder negativen Eindruck zu bewerten. Je komplexer das Zeichen, desto negativer? (weil es dann umso verwirrender wirkt?). Zeichen, die an ein Haus erinnern, wirken eher positiv","0","1","0","null","","","<img src = 'category1/CS3.png' width = '100%;'>","null","","","","","","","","","",""
"","html-keyboard-response","96","520425","0.0-8.0-2.1","nks3bwqtk8","one_one","1","indirect_first","0","nn04ed24","1","57","2","1","NA","1","ich fand es schwierig, die Schriftzeichen mit einem positiven oder negativen Eindruck zu bewerten. Je komplexer das Zeichen, desto negativer? (weil es dann umso verwirrender wirkt?). Zeichen, die an ein Haus erinnern, wirken eher positiv","0","1","0","null","","","<img src = 'targets/11.png' width = '100%;'>","null","","","","","","","","","",""
"","html-keyboard-response","97","522791","0.0-8.0-3.1","nks3bwqtk8","one_one","1","indirect_first","0","nn04ed24","1","57","2","1","NA","1","ich fand es schwierig, die Schriftzeichen mit einem positiven oder negativen Eindruck zu bewerten. Je komplexer das Zeichen, desto negativer? (weil es dann umso verwirrender wirkt?). Zeichen, die an ein Haus erinnern, wirken eher positiv","0","1","0","2362","","","<img src = 'targets/mask.png' width = '100%;'>","68","pos","GS","GSold","1","category1/CS3.png","targets/11.png","0","indirect","1",""
"","html-keyboard-response","98","524306","0.0-8.0-0.2","nks3bwqtk8","one_one","1","indirect_first","0","nn04ed24","1","57","2","1","NA","1","ich fand es schwierig, die Schriftzeichen mit einem positiven oder negativen Eindruck zu bewerten. Je komplexer das Zeichen, desto negativer? (weil es dann umso verwirrender wirkt?). Zeichen, die an ein Haus erinnern, wirken eher positiv","0","1","0","null","","","<div style=""font-size:60px;"">+</div>","null","","","","","","","","","",""
"","html-keyboard-response","99","524407","0.0-8.0-1.2","nks3bwqtk8","one_one","1","indirect_first","0","nn04ed24","1","57","2","1","NA","1","ich fand es schwierig, die Schriftzeichen mit einem positiven oder negativen Eindruck zu bewerten. Je komplexer das Zeichen, desto negativer? (weil es dann umso verwirrender wirkt?). Zeichen, die an ein Haus erinnern, wirken eher positiv","0","1","0","null","","","<img src = 'category3/CS7.png' width = '100%;'>","null","","","","","","","","","",""
"","html-keyboard-response","100","524666","0.0-8.0-2.2","nks3bwqtk8","one_one","1","indirect_first","0","nn04ed24","1","57","2","1","NA","1","ich fand es schwierig, die Schriftzeichen mit einem positiven oder negativen Eindruck zu bewerten. Je komplexer das Zeichen, desto negativer? (weil es dann umso verwirrender wirkt?). Zeichen, die an ein Haus erinnern, wirken eher positiv","0","1","0","null","","","<img src = 'targets/2.png' width = '100%;'>","null","","","","","","","","","",""
"","html-keyboard-response","101","527184","0.0-8.0-3.2","nks3bwqtk8","one_one","1","indirect_first","0","nn04ed24","1","57","2","1","NA","1","ich fand es schwierig, die Schriftzeichen mit einem positiven oder negativen Eindruck zu bewerten. Je komplexer das Zeichen, desto negativer? (weil es dann umso verwirrender wirkt?). Zeichen, die an ein Haus erinnern, wirken eher positiv","0","1","0","2514","","","<img src = 'targets/mask.png' width = '100%;'>","68","neg","GS","GSold","3","category3/CS7.png","targets/2.png","0","indirect","2",""
"","html-keyboard-response","102","528707","0.0-8.0-0.3","nks3bwqtk8","one_one","1","indirect_first","0","nn04ed24","1","57","2","1","NA","1","ich fand es schwierig, die Schriftzeichen mit einem positiven oder negativen Eindruck zu bewerten. Je komplexer das Zeichen, desto negativer? (weil es dann umso verwirrender wirkt?). Zeichen, die an ein Haus erinnern, wirken eher positiv","0","1","0","null","","","<div style=""font-size:60px;"">+</div>","null","","","","","","","","","",""
"","html-keyboard-response","103","528805","0.0-8.0-1.3","nks3bwqtk8","one_one","1","indirect_first","0","nn04ed24","1","57","2","1","NA","1","ich fand es schwierig, die Schriftzeichen mit einem positiven oder negativen Eindruck zu bewerten. Je komplexer das Zeichen, desto negativer? (weil es dann umso verwirrender wirkt?). Zeichen, die an ein Haus erinnern, wirken eher positiv","0","1","0","null","","","<img src = 'category4/CS9.png' width = '100%;'>","null","","","","","","","","","",""
"","html-keyboard-response","104","529066","0.0-8.0-2.3","nks3bwqtk8","one_one","1","indirect_first","0","nn04ed24","1","57","2","1","NA","1","ich fand es schwierig, die Schriftzeichen mit einem positiven oder negativen Eindruck zu bewerten. Je komplexer das Zeichen, desto negativer? (weil es dann umso verwirrender wirkt?). Zeichen, die an ein Haus erinnern, wirken eher positiv","0","1","0","null","","","<img src = 'targets/38.png' width = '100%;'>","null","","","","","","","","","",""
"","html-keyboard-response","105","532723","0.0-8.0-3.3","nks3bwqtk8","one_one","1","indirect_first","0","nn04ed24","1","57","2","1","NA","1","ich fand es schwierig, die Schriftzeichen mit einem positiven oder negativen Eindruck zu bewerten. Je komplexer das Zeichen, desto negativer? (weil es dann umso verwirrender wirkt?). Zeichen, die an ein Haus erinnern, wirken eher positiv","0","1","0","3655","","","<img src = 'targets/mask.png' width = '100%;'>","68","pos","GS","GSold","4","category4/CS9.png","targets/38.png","0","indirect","3",""
"","html-keyboard-response","106","534235","0.0-8.0-0.4","nks3bwqtk8","one_one","1","indirect_first","0","nn04ed24","1","57","2","1","NA","1","ich fand es schwierig, die Schriftzeichen mit einem positiven oder negativen Eindruck zu bewerten. Je komplexer das Zeichen, desto negativer? (weil es dann umso verwirrender wirkt?). Zeichen, die an ein Haus erinnern, wirken eher positiv","0","1","0","null","","","<div style=""font-size:60px;"">+</div>","null","","","","","","","","","",""
"","html-keyboard-response","107","534335","0.0-8.0-1.4","nks3bwqtk8","one_one","1","indirect_first","0","nn04ed24","1","57","2","1","NA","1","ich fand es schwierig, die Schriftzeichen mit einem positiven oder negativen Eindruck zu bewerten. Je komplexer das Zeichen, desto negativer? (weil es dann umso verwirrender wirkt?). Zeichen, die an ein Haus erinnern, wirken eher positiv","0","1","0","null","","","<img src = 'category1/CS8.png' width = '100%;'>","null","","","","","","","","","",""
"","html-keyboard-response","108","534598","0.0-8.0-2.4","nks3bwqtk8","one_one","1","indirect_first","0","nn04ed24","1","57","2","1","NA","1","ich fand es schwierig, die Schriftzeichen mit einem positiven oder negativen Eindruck zu bewerten. Je komplexer das Zeichen, desto negativer? (weil es dann umso verwirrender wirkt?). Zeichen, die an ein Haus erinnern, wirken eher positiv","0","1","0","null","","","<img src = 'targets/24.png' width = '100%;'>","null","","","","","","","","","",""
"","html-keyboard-response","109","536832","0.0-8.0-3.4","nks3bwqtk8","one_one","1","indirect_first","0","nn04ed24","1","57","2","1","NA","1","ich fand es schwierig, die Schriftzeichen mit einem positiven oder negativen Eindruck zu bewerten. Je komplexer das Zeichen, desto negativer? (weil es dann umso verwirrender wirkt?). Zeichen, die an ein Haus erinnern, wirken eher positiv","0","1","0","2231","","","<img src = 'targets/mask.png' width = '100%;'>","75","pos","CS","CS","1","category1/CS8.png","targets/24.png","1","indirect","4",""
"","html-keyboard-response","110","538345","0.0-8.0-0.5","nks3bwqtk8","one_one","1","indirect_first","0","nn04ed24","1","57","2","1","NA","1","ich fand es schwierig, die Schriftzeichen mit einem positiven oder negativen Eindruck zu bewerten. Je komplexer das Zeichen, desto negativer? (weil es dann umso verwirrender wirkt?). Zeichen, die an ein Haus erinnern, wirken eher positiv","0","1","0","null","","","<div style=""font-size:60px;"">+</div>","null","","","","","","","","","",""
"","html-keyboard-response","111","538445","0.0-8.0-1.5","nks3bwqtk8","one_one","1","indirect_first","0","nn04ed24","1","57","2","1","NA","1","ich fand es schwierig, die Schriftzeichen mit einem positiven oder negativen Eindruck zu bewerten. Je komplexer das Zeichen, desto negativer? (weil es dann umso verwirrender wirkt?). Zeichen, die an ein Haus erinnern, wirken eher positiv","0","1","0","null","","","<img src = 'category4/CS4.png' width = '100%;'>","null","","","","","","","","","",""
"","html-keyboard-response","112","538706","0.0-8.0-2.5","nks3bwqtk8","one_one","1","indirect_first","0","nn04ed24","1","57","2","1","NA","1","ich fand es schwierig, die Schriftzeichen mit einem positiven oder negativen Eindruck zu bewerten. Je komplexer das Zeichen, desto negativer? (weil es dann umso verwirrender wirkt?). Zeichen, die an ein Haus erinnern, wirken eher positiv","0","1","0","null","","","<img src = 'targets/14.png' width = '100%;'>","null","","","","","","","","","",""
"","html-keyboard-response","113","540159","0.0-8.0-3.5","nks3bwqtk8","one_one","1","indirect_first","0","nn04ed24","1","57","2","1","NA","1","ich fand es schwierig, die Schriftzeichen mit einem positiven oder negativen Eindruck zu bewerten. Je komplexer das Zeichen, desto negativer? (weil es dann umso verwirrender wirkt?). Zeichen, die an ein Haus erinnern, wirken eher positiv","0","1","0","1450","","","<img src = 'targets/mask.png' width = '100%;'>","75","pos","GS","GSold","4","category4/CS4.png","targets/14.png","1","indirect","5",""
"","html-keyboard-response","114","541675","0.0-8.0-0.6","nks3bwqtk8","one_one","1","indirect_first","0","nn04ed24","1","57","2","1","NA","1","ich fand es schwierig, die Schriftzeichen mit einem positiven oder negativen Eindruck zu bewerten. Je komplexer das Zeichen, desto negativer? (weil es dann umso verwirrender wirkt?). Zeichen, die an ein Haus erinnern, wirken eher positiv","0","1","0","null","","","<div style=""font-size:60px;"">+</div>","null","","","","","","","","","",""
"","html-keyboard-response","115","541776","0.0-8.0-1.6","nks3bwqtk8","one_one","1","indirect_first","0","nn04ed24","1","57","2","1","NA","1","ich fand es schwierig, die Schriftzeichen mit einem positiven oder negativen Eindruck zu bewerten. Je komplexer das Zeichen, desto negativer? (weil es dann umso verwirrender wirkt?). Zeichen, die an ein Haus erinnern, wirken eher positiv","0","1","0","null","","","<img src = 'category2/CS1.png' width = '100%;'>","null","","","","","","","","","",""
"","html-keyboard-response","116","542039","0.0-8.0-2.6","nks3bwqtk8","one_one","1","indirect_first","0","nn04ed24","1","57","2","1","NA","1","ich fand es schwierig, die Schriftzeichen mit einem positiven oder negativen Eindruck zu bewerten. Je komplexer das Zeichen, desto negativer? (weil es dann umso verwirrender wirkt?). Zeichen, die an ein Haus erinnern, wirken eher positiv","0","1","0","null","","","<img src = 'targets/13.png' width = '100%;'>","null","","","","","","","","","",""
"","html-keyboard-response","117","543684","0.0-8.0-3.6","nks3bwqtk8","one_one","1","indirect_first","0","nn04ed24","1","57","2","1","NA","1","ich fand es schwierig, die Schriftzeichen mit einem positiven oder negativen Eindruck zu bewerten. Je komplexer das Zeichen, desto negativer? (weil es dann umso verwirrender wirkt?). Zeichen, die an ein Haus erinnern, wirken eher positiv","0","1","0","1641","","","<img src = 'targets/mask.png' width = '100%;'>","75","neg","CS","CS","2","category2/CS1.png","targets/13.png","1","indirect","6",""
"","html-keyboard-response","118","545195","0.0-8.0-0.7","nks3bwqtk8","one_one","1","indirect_first","0","nn04ed24","1","57","2","1","NA","1","ich fand es schwierig, die Schriftzeichen mit einem positiven oder negativen Eindruck zu bewerten. Je komplexer das Zeichen, desto negativer? (weil es dann umso verwirrender wirkt?). Zeichen, die an ein Haus erinnern, wirken eher positiv","0","1","0","null","","","<div style=""font-size:60px;"">+</div>","null","","","","","","","","","",""
"","html-keyboard-response","119","545296","0.0-8.0-1.7","nks3bwqtk8","one_one","1","indirect_first","0","nn04ed24","1","57","2","1","NA","1","ich fand es schwierig, die Schriftzeichen mit einem positiven oder negativen Eindruck zu bewerten. Je komplexer das Zeichen, desto negativer? (weil es dann umso verwirrender wirkt?). Zeichen, die an ein Haus erinnern, wirken eher positiv","0","1","0","null","","","<img src = 'category2/CS9.png' width = '100%;'>","null","","","","","","","","","",""
"","html-keyboard-response","120","545557","0.0-8.0-2.7","nks3bwqtk8","one_one","1","indirect_first","0","nn04ed24","1","57","2","1","NA","1","ich fand es schwierig, die Schriftzeichen mit einem positiven oder negativen Eindruck zu bewerten. Je komplexer das Zeichen, desto negativer? (weil es dann umso verwirrender wirkt?). Zeichen, die an ein Haus erinnern, wirken eher positiv","0","1","0","null","","","<img src = 'targets/6.png' width = '100%;'>","null","","","","","","","","","",""
"","html-keyboard-response","121","547679","0.0-8.0-3.7","nks3bwqtk8","one_one","1","indirect_first","0","nn04ed24","1","57","2","1","NA","1","ich fand es schwierig, die Schriftzeichen mit einem positiven oder negativen Eindruck zu bewerten. Je komplexer das Zeichen, desto negativer? (weil es dann umso verwirrender wirkt?). Zeichen, die an ein Haus erinnern, wirken eher positiv","0","1","0","2120","","","<img src = 'targets/mask.png' width = '100%;'>","75","neg","GS","GSold","2","category2/CS9.png","targets/6.png","1","indirect","7",""
"","html-keyboard-response","122","549196","0.0-8.0-0.8","nks3bwqtk8","one_one","1","indirect_first","0","nn04ed24","1","57","2","1","NA","1","ich fand es schwierig, die Schriftzeichen mit einem positiven oder negativen Eindruck zu bewerten. Je komplexer das Zeichen, desto negativer? (weil es dann umso verwirrender wirkt?). Zeichen, die an ein Haus erinnern, wirken eher positiv","0","1","0","null","","","<div style=""font-size:60px;"">+</div>","null","","","","","","","","","",""
"","html-keyboard-response","123","549296","0.0-8.0-1.8","nks3bwqtk8","one_one","1","indirect_first","0","nn04ed24","1","57","2","1","NA","1","ich fand es schwierig, die Schriftzeichen mit einem positiven oder negativen Eindruck zu bewerten. Je komplexer das Zeichen, desto negativer? (weil es dann umso verwirrender wirkt?). Zeichen, die an ein Haus erinnern, wirken eher positiv","0","1","0","null","","","<img src = 'category2/CS5.png' width = '100%;'>","null","","","","","","","","","",""
"","html-keyboard-response","124","549555","0.0-8.0-2.8","nks3bwqtk8","one_one","1","indirect_first","0","nn04ed24","1","57","2","1","NA","1","ich fand es schwierig, die Schriftzeichen mit einem positiven oder negativen Eindruck zu bewerten. Je komplexer das Zeichen, desto negativer? (weil es dann umso verwirrender wirkt?). Zeichen, die an ein Haus erinnern, wirken eher positiv","0","1","0","null","","","<img src = 'targets/22.png' width = '100%;'>","null","","","","","","","","","",""
"","html-keyboard-response","125","552168","0.0-8.0-3.8","nks3bwqtk8","one_one","1","indirect_first","0","nn04ed24","1","57","2","1","NA","1","ich fand es schwierig, die Schriftzeichen mit einem positiven oder negativen Eindruck zu bewerten. Je komplexer das Zeichen, desto negativer? (weil es dann umso verwirrender wirkt?). Zeichen, die an ein Haus erinnern, wirken eher positiv","0","1","0","2611","","","<img src = 'targets/mask.png' width = '100%;'>","75","neg","GS","GSold","2","category2/CS5.png","targets/22.png","1","indirect","8",""
"","html-keyboard-response","126","553686","0.0-8.0-0.9","nks3bwqtk8","one_one","1","indirect_first","0","nn04ed24","1","57","2","1","NA","1","ich fand es schwierig, die Schriftzeichen mit einem positiven oder negativen Eindruck zu bewerten. Je komplexer das Zeichen, desto negativer? (weil es dann umso verwirrender wirkt?). Zeichen, die an ein Haus erinnern, wirken eher positiv","0","1","0","null","","","<div style=""font-size:60px;"">+</div>","null","","","","","","","","","",""
"","html-keyboard-response","127","553785","0.0-8.0-1.9","nks3bwqtk8","one_one","1","indirect_first","0","nn04ed24","1","57","2","1","NA","1","ich fand es schwierig, die Schriftzeichen mit einem positiven oder negativen Eindruck zu bewerten. Je komplexer das Zeichen, desto negativer? (weil es dann umso verwirrender wirkt?). Zeichen, die an ein Haus erinnern, wirken eher positiv","0","1","0","null","","","<img src = 'category1/CS5.png' width = '100%;'>","null","","","","","","","","","",""
"","html-keyboard-response","128","554047","0.0-8.0-2.9","nks3bwqtk8","one_one","1","indirect_first","0","nn04ed24","1","57","2","1","NA","1","ich fand es schwierig, die Schriftzeichen mit einem positiven oder negativen Eindruck zu bewerten. Je komplexer das Zeichen, desto negativer? (weil es dann umso verwirrender wirkt?). Zeichen, die an ein Haus erinnern, wirken eher positiv","0","1","0","null","","","<img src = 'targets/40.png' width = '100%;'>","null","","","","","","","","","",""
"","html-keyboard-response","129","555564","0.0-8.0-3.9","nks3bwqtk8","one_one","1","indirect_first","0","nn04ed24","1","57","2","1","NA","1","ich fand es schwierig, die Schriftzeichen mit einem positiven oder negativen Eindruck zu bewerten. Je komplexer das Zeichen, desto negativer? (weil es dann umso verwirrender wirkt?). Zeichen, die an ein Haus erinnern, wirken eher positiv","0","1","0","1513","","","<img src = 'targets/mask.png' width = '100%;'>","68","pos","GS","GSold","1","category1/CS5.png","targets/40.png","0","indirect","9",""
"","html-keyboard-response","130","557075","0.0-8.0-0.10","nks3bwqtk8","one_one","1","indirect_first","0","nn04ed24","1","57","2","1","NA","1","ich fand es schwierig, die Schriftzeichen mit einem positiven oder negativen Eindruck zu bewerten. Je komplexer das Zeichen, desto negativer? (weil es dann umso verwirrender wirkt?). Zeichen, die an ein Haus erinnern, wirken eher positiv","0","1","0","null","","","<div style=""font-size:60px;"">+</div>","null","","","","","","","","","",""
"","html-keyboard-response","131","557175","0.0-8.0-1.10","nks3bwqtk8","one_one","1","indirect_first","0","nn04ed24","1","57","2","1","NA","1","ich fand es schwierig, die Schriftzeichen mit einem positiven oder negativen Eindruck zu bewerten. Je komplexer das Zeichen, desto negativer? (weil es dann umso verwirrender wirkt?). Zeichen, die an ein Haus erinnern, wirken eher positiv","0","1","0","null","","","<img src = 'category4/CS2.png' width = '100%;'>","null","","","","","","","","","",""
"","html-keyboard-response","132","557436","0.0-8.0-2.10","nks3bwqtk8","one_one","1","indirect_first","0","nn04ed24","1","57","2","1","NA","1","ich fand es schwierig, die Schriftzeichen mit einem positiven oder negativen Eindruck zu bewerten. Je komplexer das Zeichen, desto negativer? (weil es dann umso verwirrender wirkt?). Zeichen, die an ein Haus erinnern, wirken eher positiv","0","1","0","null","","","<img src = 'targets/10.png' width = '100%;'>","null","","","","","","","","","",""
"","html-keyboard-response","133","558613","0.0-8.0-3.10","nks3bwqtk8","one_one","1","indirect_first","0","nn04ed24","1","57","2","1","NA","1","ich fand es schwierig, die Schriftzeichen mit einem positiven oder negativen Eindruck zu bewerten. Je komplexer das Zeichen, desto negativer? (weil es dann umso verwirrender wirkt?). Zeichen, die an ein Haus erinnern, wirken eher positiv","0","1","0","1174","","","<img src = 'targets/mask.png' width = '100%;'>","75","pos","CS","CS","4","category4/CS2.png","targets/10.png","1","indirect","10",""
"","html-keyboard-response","134","560125","0.0-8.0-0.11","nks3bwqtk8","one_one","1","indirect_first","0","nn04ed24","1","57","2","1","NA","1","ich fand es schwierig, die Schriftzeichen mit einem positiven oder negativen Eindruck zu bewerten. Je komplexer das Zeichen, desto negativer? (weil es dann umso verwirrender wirkt?). Zeichen, die an ein Haus erinnern, wirken eher positiv","0","1","0","null","","","<div style=""font-size:60px;"">+</div>","null","","","","","","","","","",""
"","html-keyboard-response","135","560225","0.0-8.0-1.11","nks3bwqtk8","one_one","1","indirect_first","0","nn04ed24","1","57","2","1","NA","1","ich fand es schwierig, die Schriftzeichen mit einem positiven oder negativen Eindruck zu bewerten. Je komplexer das Zeichen, desto negativer? (weil es dann umso verwirrender wirkt?). Zeichen, die an ein Haus erinnern, wirken eher positiv","0","1","0","null","","","<img src = 'category1/CS7.png' width = '100%;'>","null","","","","","","","","","",""
"","html-keyboard-response","136","560487","0.0-8.0-2.11","nks3bwqtk8","one_one","1","indirect_first","0","nn04ed24","1","57","2","1","NA","1","ich fand es schwierig, die Schriftzeichen mit einem positiven oder negativen Eindruck zu bewerten. Je komplexer das Zeichen, desto negativer? (weil es dann umso verwirrender wirkt?). Zeichen, die an ein Haus erinnern, wirken eher positiv","0","1","0","null","","","<img src = 'targets/7.png' width = '100%;'>","null","","","","","","","","","",""
"","html-keyboard-response","137","562949","0.0-8.0-3.11","nks3bwqtk8","one_one","1","indirect_first","0","nn04ed24","1","57","2","1","NA","1","ich fand es schwierig, die Schriftzeichen mit einem positiven oder negativen Eindruck zu bewerten. Je komplexer das Zeichen, desto negativer? (weil es dann umso verwirrender wirkt?). Zeichen, die an ein Haus erinnern, wirken eher positiv","0","1","0","2461","","","<img src = 'targets/mask.png' width = '100%;'>","68","pos","GS","GSold","1","category1/CS7.png","targets/7.png","0","indirect","11",""
"","html-keyboard-response","138","564466","0.0-8.0-0.12","nks3bwqtk8","one_one","1","indirect_first","0","nn04ed24","1","57","2","1","NA","1","ich fand es schwierig, die Schriftzeichen mit einem positiven oder negativen Eindruck zu bewerten. Je komplexer das Zeichen, desto negativer? (weil es dann umso verwirrender wirkt?). Zeichen, die an ein Haus erinnern, wirken eher positiv","0","1","0","null","","","<div style=""font-size:60px;"">+</div>","null","","","","","","","","","",""
"","html-keyboard-response","139","564566","0.0-8.0-1.12","nks3bwqtk8","one_one","1","indirect_first","0","nn04ed24","1","57","2","1","NA","1","ich fand es schwierig, die Schriftzeichen mit einem positiven oder negativen Eindruck zu bewerten. Je komplexer das Zeichen, desto negativer? (weil es dann umso verwirrender wirkt?). Zeichen, die an ein Haus erinnern, wirken eher positiv","0","1","0","null","","","<img src = 'category3/CS6.png' width = '100%;'>","null","","","","","","","","","",""
"","html-keyboard-response","140","564825","0.0-8.0-2.12","nks3bwqtk8","one_one","1","indirect_first","0","nn04ed24","1","57","2","1","NA","1","ich fand es schwierig, die Schriftzeichen mit einem positiven oder negativen Eindruck zu bewerten. Je komplexer das Zeichen, desto negativer? (weil es dann umso verwirrender wirkt?). Zeichen, die an ein Haus erinnern, wirken eher positiv","0","1","0","null","","","<img src = 'targets/42.png' width = '100%;'>","null","","","","","","","","","",""
"","html-keyboard-response","141","567582","0.0-8.0-3.12","nks3bwqtk8","one_one","1","indirect_first","0","nn04ed24","1","57","2","1","NA","1","ich fand es schwierig, die Schriftzeichen mit einem positiven oder negativen Eindruck zu bewerten. Je komplexer das Zeichen, desto negativer? (weil es dann umso verwirrender wirkt?). Zeichen, die an ein Haus erinnern, wirken eher positiv","0","1","0","2754","","","<img src = 'targets/mask.png' width = '100%;'>","68","neg","GS","GSold","3","category3/CS6.png","targets/42.png","0","indirect","12",""
"","html-keyboard-response","142","569096","0.0-8.0-0.13","nks3bwqtk8","one_one","1","indirect_first","0","nn04ed24","1","57","2","1","NA","1","ich fand es schwierig, die Schriftzeichen mit einem positiven oder negativen Eindruck zu bewerten. Je komplexer das Zeichen, desto negativer? (weil es dann umso verwirrender wirkt?). Zeichen, die an ein Haus erinnern, wirken eher positiv","0","1","0","null","","","<div style=""font-size:60px;"">+</div>","null","","","","","","","","","",""
"","html-keyboard-response","143","569195","0.0-8.0-1.13","nks3bwqtk8","one_one","1","indirect_first","0","nn04ed24","1","57","2","1","NA","1","ich fand es schwierig, die Schriftzeichen mit einem positiven oder negativen Eindruck zu bewerten. Je komplexer das Zeichen, desto negativer? (weil es dann umso verwirrender wirkt?). Zeichen, die an ein Haus erinnern, wirken eher positiv","0","1","0","null","","","<img src = 'category4/CS6.png' width = '100%;'>","null","","","","","","","","","",""
"","html-keyboard-response","144","569455","0.0-8.0-2.13","nks3bwqtk8","one_one","1","indirect_first","0","nn04ed24","1","57","2","1","NA","1","ich fand es schwierig, die Schriftzeichen mit einem positiven oder negativen Eindruck zu bewerten. Je komplexer das Zeichen, desto negativer? (weil es dann umso verwirrender wirkt?). Zeichen, die an ein Haus erinnern, wirken eher positiv","0","1","0","null","","","<img src = 'targets/29.png' width = '100%;'>","null","","","","","","","","","",""
"","html-keyboard-response","145","571873","0.0-8.0-3.13","nks3bwqtk8","one_one","1","indirect_first","0","nn04ed24","1","57","2","1","NA","1","ich fand es schwierig, die Schriftzeichen mit einem positiven oder negativen Eindruck zu bewerten. Je komplexer das Zeichen, desto negativer? (weil es dann umso verwirrender wirkt?). Zeichen, die an ein Haus erinnern, wirken eher positiv","0","1","0","2414","","","<img src = 'targets/mask.png' width = '100%;'>","75","pos","GS","GSold","4","category4/CS6.png","targets/29.png","1","indirect","13",""
"","html-keyboard-response","146","573383","0.0-8.0-0.14","nks3bwqtk8","one_one","1","indirect_first","0","nn04ed24","1","57","2","1","NA","1","ich fand es schwierig, die Schriftzeichen mit einem positiven oder negativen Eindruck zu bewerten. Je komplexer das Zeichen, desto negativer? (weil es dann umso verwirrender wirkt?). Zeichen, die an ein Haus erinnern, wirken eher positiv","0","1","0","null","","","<div style=""font-size:60px;"">+</div>","null","","","","","","","","","",""
"","html-keyboard-response","147","573475","0.0-8.0-1.14","nks3bwqtk8","one_one","1","indirect_first","0","nn04ed24","1","57","2","1","NA","1","ich fand es schwierig, die Schriftzeichen mit einem positiven oder negativen Eindruck zu bewerten. Je komplexer das Zeichen, desto negativer? (weil es dann umso verwirrender wirkt?). Zeichen, die an ein Haus erinnern, wirken eher positiv","0","1","0","null","","","<img src = 'category3/CS3.png' width = '100%;'>","null","","","","","","","","","",""
"","html-keyboard-response","148","573736","0.0-8.0-2.14","nks3bwqtk8","one_one","1","indirect_first","0","nn04ed24","1","57","2","1","NA","1","ich fand es schwierig, die Schriftzeichen mit einem positiven oder negativen Eindruck zu bewerten. Je komplexer das Zeichen, desto negativer? (weil es dann umso verwirrender wirkt?). Zeichen, die an ein Haus erinnern, wirken eher positiv","0","1","0","null","","","<img src = 'targets/27.png' width = '100%;'>","null","","","","","","","","","",""
"","html-keyboard-response","149","575556","0.0-8.0-3.14","nks3bwqtk8","one_one","1","indirect_first","0","nn04ed24","1","57","2","1","NA","1","ich fand es schwierig, die Schriftzeichen mit einem positiven oder negativen Eindruck zu bewerten. Je komplexer das Zeichen, desto negativer? (weil es dann umso verwirrender wirkt?). Zeichen, die an ein Haus erinnern, wirken eher positiv","0","1","0","1818","","","<img src = 'targets/mask.png' width = '100%;'>","68","neg","GS","GSold","3","category3/CS3.png","targets/27.png","0","indirect","14",""
"","html-keyboard-response","150","577076","0.0-8.0-0.15","nks3bwqtk8","one_one","1","indirect_first","0","nn04ed24","1","57","2","1","NA","1","ich fand es schwierig, die Schriftzeichen mit einem positiven oder negativen Eindruck zu bewerten. Je komplexer das Zeichen, desto negativer? (weil es dann umso verwirrender wirkt?). Zeichen, die an ein Haus erinnern, wirken eher positiv","0","1","0","null","","","<div style=""font-size:60px;"">+</div>","null","","","","","","","","","",""
"","html-keyboard-response","151","577175","0.0-8.0-1.15","nks3bwqtk8","one_one","1","indirect_first","0","nn04ed24","1","57","2","1","NA","1","ich fand es schwierig, die Schriftzeichen mit einem positiven oder negativen Eindruck zu bewerten. Je komplexer das Zeichen, desto negativer? (weil es dann umso verwirrender wirkt?). Zeichen, die an ein Haus erinnern, wirken eher positiv","0","1","0","null","","","<img src = 'category3/CS9.png' width = '100%;'>","null","","","","","","","","","",""
"","html-keyboard-response","152","577435","0.0-8.0-2.15","nks3bwqtk8","one_one","1","indirect_first","0","nn04ed24","1","57","2","1","NA","1","ich fand es schwierig, die Schriftzeichen mit einem positiven oder negativen Eindruck zu bewerten. Je komplexer das Zeichen, desto negativer? (weil es dann umso verwirrender wirkt?). Zeichen, die an ein Haus erinnern, wirken eher positiv","0","1","0","null","","","<img src = 'targets/36.png' width = '100%;'>","null","","","","","","","","","",""
"","html-keyboard-response","153","579324","0.0-8.0-3.15","nks3bwqtk8","one_one","1","indirect_first","0","nn04ed24","1","57","2","1","NA","1","ich fand es schwierig, die Schriftzeichen mit einem positiven oder negativen Eindruck zu bewerten. Je komplexer das Zeichen, desto negativer? (weil es dann umso verwirrender wirkt?). Zeichen, die an ein Haus erinnern, wirken eher positiv","0","1","0","1885","","","<img src = 'targets/mask.png' width = '100%;'>","75","neg","CS","CS","3","category3/CS9.png","targets/36.png","1","indirect","15",""
"","survey-html-form","154","593794","0.0-9.0","nks3bwqtk8","one_one","1","indirect_first","0","nn04ed24","1","57","2","1","NA","1","ich fand es schwierig, die Schriftzeichen mit einem positiven oder negativen Eindruck zu bewerten. Je komplexer das Zeichen, desto negativer? (weil es dann umso verwirrender wirkt?). Zeichen, die an ein Haus erinnern, wirken eher positiv","0","1","0","13967","","{}","","","","","","","","","","","",""
"","html-keyboard-response","155","596805","0.0-10.0-0.0","nks3bwqtk8","one_one","1","indirect_first","0","nn04ed24","1","57","2","1","NA","1","ich fand es schwierig, die Schriftzeichen mit einem positiven oder negativen Eindruck zu bewerten. Je komplexer das Zeichen, desto negativer? (weil es dann umso verwirrender wirkt?). Zeichen, die an ein Haus erinnern, wirken eher positiv","0","1","0","null","","","<div style=""font-size:60px;"">+</div>","null","","","","","","","","","",""
"","html-keyboard-response","156","596906","0.0-10.0-1.0","nks3bwqtk8","one_one","1","indirect_first","0","nn04ed24","1","57","2","1","NA","1","ich fand es schwierig, die Schriftzeichen mit einem positiven oder negativen Eindruck zu bewerten. Je komplexer das Zeichen, desto negativer? (weil es dann umso verwirrender wirkt?). Zeichen, die an ein Haus erinnern, wirken eher positiv","0","1","0","null","","","<img src = 'category4/GS3.png' width = '100%;'>","null","","","","","","","","","",""
"","html-keyboard-response","157","597168","0.0-10.0-2.0","nks3bwqtk8","one_one","1","indirect_first","0","nn04ed24","1","57","2","1","NA","1","ich fand es schwierig, die Schriftzeichen mit einem positiven oder negativen Eindruck zu bewerten. Je komplexer das Zeichen, desto negativer? (weil es dann umso verwirrender wirkt?). Zeichen, die an ein Haus erinnern, wirken eher positiv","0","1","0","null","","","<img src = 'targets/21.png' width = '100%;'>","null","","","","","","","","","",""
"","html-keyboard-response","158","599264","0.0-10.0-3.0","nks3bwqtk8","one_one","1","indirect_first","0","nn04ed24","1","57","2","1","NA","1","ich fand es schwierig, die Schriftzeichen mit einem positiven oder negativen Eindruck zu bewerten. Je komplexer das Zeichen, desto negativer? (weil es dann umso verwirrender wirkt?). Zeichen, die an ein Haus erinnern, wirken eher positiv","0","1","0","2094","","","<img src = 'targets/mask.png' width = '100%;'>","68","pos","GS","GSnew","4","category4/GS3.png","targets/21.png","0","indirect","16",""
"","html-keyboard-response","159","600785","0.0-10.0-0.1","nks3bwqtk8","one_one","1","indirect_first","0","nn04ed24","1","57","2","1","NA","1","ich fand es schwierig, die Schriftzeichen mit einem positiven oder negativen Eindruck zu bewerten. Je komplexer das Zeichen, desto negativer? (weil es dann umso verwirrender wirkt?). Zeichen, die an ein Haus erinnern, wirken eher positiv","0","1","0","null","","","<div style=""font-size:60px;"">+</div>","null","","","","","","","","","",""
"","html-keyboard-response","160","600889","0.0-10.0-1.1","nks3bwqtk8","one_one","1","indirect_first","0","nn04ed24","1","57","2","1","NA","1","ich fand es schwierig, die Schriftzeichen mit einem positiven oder negativen Eindruck zu bewerten. Je komplexer das Zeichen, desto negativer? (weil es dann umso verwirrender wirkt?). Zeichen, die an ein Haus erinnern, wirken eher positiv","0","1","0","null","","","<img src = 'category1/ma.png' width = '100%;'>","null","","","","","","","","","",""
"","html-keyboard-response","161","601146","0.0-10.0-2.1","nks3bwqtk8","one_one","1","indirect_first","0","nn04ed24","1","57","2","1","NA","1","ich fand es schwierig, die Schriftzeichen mit einem positiven oder negativen Eindruck zu bewerten. Je komplexer das Zeichen, desto negativer? (weil es dann umso verwirrender wirkt?). Zeichen, die an ein Haus erinnern, wirken eher positiv","0","1","0","null","","","<img src = 'targets/18.png' width = '100%;'>","null","","","","","","","","","",""
"","html-keyboard-response","162","602242","0.0-10.0-3.1","nks3bwqtk8","one_one","1","indirect_first","0","nn04ed24","1","57","2","1","NA","1","ich fand es schwierig, die Schriftzeichen mit einem positiven oder negativen Eindruck zu bewerten. Je komplexer das Zeichen, desto negativer? (weil es dann umso verwirrender wirkt?). Zeichen, die an ein Haus erinnern, wirken eher positiv","0","1","0","1093","","","<img src = 'targets/mask.png' width = '100%;'>","68","pos","GS","abstract","1","category1/ma.png","targets/18.png","0","indirect","17",""
"","html-keyboard-response","163","603755","0.0-10.0-0.2","nks3bwqtk8","one_one","1","indirect_first","0","nn04ed24","1","57","2","1","NA","1","ich fand es schwierig, die Schriftzeichen mit einem positiven oder negativen Eindruck zu bewerten. Je komplexer das Zeichen, desto negativer? (weil es dann umso verwirrender wirkt?). Zeichen, die an ein Haus erinnern, wirken eher positiv","0","1","0","null","","","<div style=""font-size:60px;"">+</div>","null","","","","","","","","","",""
"","html-keyboard-response","164","603855","0.0-10.0-1.2","nks3bwqtk8","one_one","1","indirect_first","0","nn04ed24","1","57","2","1","NA","1","ich fand es schwierig, die Schriftzeichen mit einem positiven oder negativen Eindruck zu bewerten. Je komplexer das Zeichen, desto negativer? (weil es dann umso verwirrender wirkt?). Zeichen, die an ein Haus erinnern, wirken eher positiv","0","1","0","null","","","<img src = 'category4/GS1.png' width = '100%;'>","null","","","","","","","","","",""
"","html-keyboard-response","165","604115","0.0-10.0-2.2","nks3bwqtk8","one_one","1","indirect_first","0","nn04ed24","1","57","2","1","NA","1","ich fand es schwierig, die Schriftzeichen mit einem positiven oder negativen Eindruck zu bewerten. Je komplexer das Zeichen, desto negativer? (weil es dann umso verwirrender wirkt?). Zeichen, die an ein Haus erinnern, wirken eher positiv","0","1","0","null","","","<img src = 'targets/41.png' width = '100%;'>","null","","","","","","","","","",""
"","html-keyboard-response","166","605019","0.0-10.0-3.2","nks3bwqtk8","one_one","1","indirect_first","0","nn04ed24","1","57","2","1","NA","1","ich fand es schwierig, die Schriftzeichen mit einem positiven oder negativen Eindruck zu bewerten. Je komplexer das Zeichen, desto negativer? (weil es dann umso verwirrender wirkt?). Zeichen, die an ein Haus erinnern, wirken eher positiv","0","1","0","901","","","<img src = 'targets/mask.png' width = '100%;'>","75","pos","GS","GSnew","4","category4/GS1.png","targets/41.png","1","indirect","18",""
"","html-keyboard-response","167","606534","0.0-10.0-0.3","nks3bwqtk8","one_one","1","indirect_first","0","nn04ed24","1","57","2","1","NA","1","ich fand es schwierig, die Schriftzeichen mit einem positiven oder negativen Eindruck zu bewerten. Je komplexer das Zeichen, desto negativer? (weil es dann umso verwirrender wirkt?). Zeichen, die an ein Haus erinnern, wirken eher positiv","0","1","0","null","","","<div style=""font-size:60px;"">+</div>","null","","","","","","","","","",""
"","html-keyboard-response","168","606635","0.0-10.0-1.3","nks3bwqtk8","one_one","1","indirect_first","0","nn04ed24","1","57","2","1","NA","1","ich fand es schwierig, die Schriftzeichen mit einem positiven oder negativen Eindruck zu bewerten. Je komplexer das Zeichen, desto negativer? (weil es dann umso verwirrender wirkt?). Zeichen, die an ein Haus erinnern, wirken eher positiv","0","1","0","null","","","<img src = 'category1/GS3.png' width = '100%;'>","null","","","","","","","","","",""
"","html-keyboard-response","169","606895","0.0-10.0-2.3","nks3bwqtk8","one_one","1","indirect_first","0","nn04ed24","1","57","2","1","NA","1","ich fand es schwierig, die Schriftzeichen mit einem positiven oder negativen Eindruck zu bewerten. Je komplexer das Zeichen, desto negativer? (weil es dann umso verwirrender wirkt?). Zeichen, die an ein Haus erinnern, wirken eher positiv","0","1","0","null","","","<img src = 'targets/4.png' width = '100%;'>","null","","","","","","","","","",""
"","html-keyboard-response","170","609524","0.0-10.0-3.3","nks3bwqtk8","one_one","1","indirect_first","0","nn04ed24","1","57","2","1","NA","1","ich fand es schwierig, die Schriftzeichen mit einem positiven oder negativen Eindruck zu bewerten. Je komplexer das Zeichen, desto negativer? (weil es dann umso verwirrender wirkt?). Zeichen, die an ein Haus erinnern, wirken eher positiv","0","1","0","2624","","","<img src = 'targets/mask.png' width = '100%;'>","75","pos","GS","GSnew","1","category1/GS3.png","targets/4.png","1","indirect","19",""
"","html-keyboard-response","171","611035","0.0-10.0-0.4","nks3bwqtk8","one_one","1","indirect_first","0","nn04ed24","1","57","2","1","NA","1","ich fand es schwierig, die Schriftzeichen mit einem positiven oder negativen Eindruck zu bewerten. Je komplexer das Zeichen, desto negativer? (weil es dann umso verwirrender wirkt?). Zeichen, die an ein Haus erinnern, wirken eher positiv","0","1","0","null","","","<div style=""font-size:60px;"">+</div>","null","","","","","","","","","",""
"","html-keyboard-response","172","611135","0.0-10.0-1.4","nks3bwqtk8","one_one","1","indirect_first","0","nn04ed24","1","57","2","1","NA","1","ich fand es schwierig, die Schriftzeichen mit einem positiven oder negativen Eindruck zu bewerten. Je komplexer das Zeichen, desto negativer? (weil es dann umso verwirrender wirkt?). Zeichen, die an ein Haus erinnern, wirken eher positiv","0","1","0","null","","","<img src = 'category3/GS3.png' width = '100%;'>","null","","","","","","","","","",""
"","html-keyboard-response","173","611395","0.0-10.0-2.4","nks3bwqtk8","one_one","1","indirect_first","0","nn04ed24","1","57","2","1","NA","1","ich fand es schwierig, die Schriftzeichen mit einem positiven oder negativen Eindruck zu bewerten. Je komplexer das Zeichen, desto negativer? (weil es dann umso verwirrender wirkt?). Zeichen, die an ein Haus erinnern, wirken eher positiv","0","1","0","null","","","<img src = 'targets/23.png' width = '100%;'>","null","","","","","","","","","",""
