"success","trial_type","trial_index","time_elapsed","internal_node_id","subject","condition","condition_code","measure","measure_code","codeword","gender","age","education","chinese","fach","handedness","comment","hinschauen","ablenkung","gewissenhaft","rt","url","responses","stimulus","key_press","val","type","type_specific","category","cs_selected","response","target","task","indirect","nr_pres"
"true","fullscreen","0","4749","0.0-0.0","en3mrxlu2g","one_one","1","direct_first","1","er05nd10","0","23","1","1","3","1","","0","1","0","","","","","","","","","","","","","","",""
"","external-html","1","33561","0.0-1.0","en3mrxlu2g","one_one","1","direct_first","1","er05nd10","0","23","1","1","3","1","","0","1","0","28691","text/information.html","","","","","","","","","","","","",""
"","external-html","2","45312","0.0-2.0","en3mrxlu2g","one_one","1","direct_first","1","er05nd10","0","23","1","1","3","1","","0","1","0","11277","text/consent.html","","","","","","","","","","","","",""
"","survey-html-form","3","87455","0.0-3.0","en3mrxlu2g","one_one","1","direct_first","1","er05nd10","0","23","1","1","3","1","","0","1","0","42140","","{""codeword_enter"":""er05nd10""}","","","","","","","","","","","",""
"","survey-html-form","4","103028","0.0-4.0","en3mrxlu2g","one_one","1","direct_first","1","er05nd10","0","23","1","1","3","1","","0","1","0","15570","","{""age"":""23"",""education"":""1"",""subject"":""3"",""gender"":""0"",""handedness"":""1"",""chinese"":""1""}","","","","","","","","","","","",""
"","survey-html-form","5","113519","0.0-5.0","en3mrxlu2g","one_one","1","direct_first","1","er05nd10","0","23","1","1","3","1","","0","1","0","10489","","{}","","","","","","","","","","","",""
"","html-keyboard-response","6","117549","0.0-6.0-0.0-0.0","en3mrxlu2g","one_one","1","direct_first","1","er05nd10","0","23","1","1","3","1","","0","1","0","null","","","<div class = 'row'><div class = 'column'><img src = 'uspos/5600.bmp' width = '100%;'></div><div class = 'column'><img src = 'category3/CS4.png' width = '70%;'></div></div>","null","pos","CS","CS","3","category3/CS4.png","","","","",""
"","html-keyboard-response","7","120089","0.0-6.0-0.0-0.1","en3mrxlu2g","one_one","1","direct_first","1","er05nd10","0","23","1","1","3","1","","0","1","0","null","","","<div class = 'row'><div class = 'column'><img src = 'usneg/9041.bmp' width = '100%;'></div><div class = 'column'><img src = 'category1/CS2.png' width = '70%;'></div></div>","null","neg","CS","CS","1","category1/CS2.png","","","","",""
"","html-keyboard-response","8","122629","0.0-6.0-0.0-0.2","en3mrxlu2g","one_one","1","direct_first","1","er05nd10","0","23","1","1","3","1","","0","1","0","null","","","<div class = 'row'><div class = 'column'><img src = 'category2/CS3.png' width = '70%;'></div><div class = 'column'><img src = 'usneg/9404.bmp' width = '100%;'></div></div>","null","neg","CS","CS","2","category2/CS3.png","","","","",""
"","html-keyboard-response","9","125169","0.0-6.0-0.0-0.3","en3mrxlu2g","one_one","1","direct_first","1","er05nd10","0","23","1","1","3","1","","0","1","0","null","","","<div class = 'row'><div class = 'column'><img src = 'uspos/1710.bmp' width = '100%;'></div><div class = 'column'><img src = 'category4/CS2.png' width = '70%;'></div></div>","null","pos","CS","CS","4","category4/CS2.png","","","","",""
"","html-keyboard-response","10","127708","0.0-6.0-0.0-0.4","en3mrxlu2g","one_one","1","direct_first","1","er05nd10","0","23","1","1","3","1","","0","1","0","null","","","<div class = 'row'><div class = 'column'><img src = 'uspos/5600.bmp' width = '100%;'></div><div class = 'column'><img src = 'category3/CS4.png' width = '70%;'></div></div>","null","pos","CS","CS","3","category3/CS4.png","","","","",""
"","html-keyboard-response","11","130248","0.0-6.0-0.0-0.5","en3mrxlu2g","one_one","1","direct_first","1","er05nd10","0","23","1","1","3","1","","0","1","0","null","","","<div class = 'row'><div class = 'column'><img src = 'uspos/1710.bmp' width = '100%;'></div><div class = 'column'><img src = 'category4/CS2.png' width = '70%;'></div></div>","null","pos","CS","CS","4","category4/CS2.png","","","","",""
"","html-keyboard-response","12","132788","0.0-6.0-0.0-0.6","en3mrxlu2g","one_one","1","direct_first","1","er05nd10","0","23","1","1","3","1","","0","1","0","null","","","<div class = 'row'><div class = 'column'><img src = 'usneg/9041.bmp' width = '100%;'></div><div class = 'column'><img src = 'category1/CS2.png' width = '70%;'></div></div>","null","neg","CS","CS","1","category1/CS2.png","","","","",""
"","html-keyboard-response","13","135327","0.0-6.0-0.0-0.7","en3mrxlu2g","one_one","1","direct_first","1","er05nd10","0","23","1","1","3","1","","0","1","0","null","","","<div class = 'row'><div class = 'column'><img src = 'category2/CS3.png' width = '70%;'></div><div class = 'column'><img src = 'usneg/9404.bmp' width = '100%;'></div></div>","null","neg","CS","CS","2","category2/CS3.png","","","","",""
"","html-keyboard-response","14","137847","0.0-6.0-0.0-0.8","en3mrxlu2g","one_one","1","direct_first","1","er05nd10","0","23","1","1","3","1","","0","1","0","null","","","<div class = 'row'><div class = 'column'><img src = 'uspos/1710.bmp' width = '100%;'></div><div class = 'column'><img src = 'category4/CS2.png' width = '70%;'></div></div>","null","pos","CS","CS","4","category4/CS2.png","","","","",""
"","html-keyboard-response","15","140367","0.0-6.0-0.0-0.9","en3mrxlu2g","one_one","1","direct_first","1","er05nd10","0","23","1","1","3","1","","0","1","0","null","","","<div class = 'row'><div class = 'column'><img src = 'usneg/9041.bmp' width = '100%;'></div><div class = 'column'><img src = 'category1/CS2.png' width = '70%;'></div></div>","null","neg","CS","CS","1","category1/CS2.png","","","","",""
"","html-keyboard-response","16","142908","0.0-6.0-0.0-0.10","en3mrxlu2g","one_one","1","direct_first","1","er05nd10","0","23","1","1","3","1","","0","1","0","null","","","<div class = 'row'><div class = 'column'><img src = 'category2/CS3.png' width = '70%;'></div><div class = 'column'><img src = 'usneg/9404.bmp' width = '100%;'></div></div>","null","neg","CS","CS","2","category2/CS3.png","","","","",""
"","html-keyboard-response","17","145448","0.0-6.0-0.0-0.11","en3mrxlu2g","one_one","1","direct_first","1","er05nd10","0","23","1","1","3","1","","0","1","0","null","","","<div class = 'row'><div class = 'column'><img src = 'category1/CS2.png' width = '70%;'></div><div class = 'column'><img src = 'usneg/9041.bmp' width = '100%;'></div></div>","null","neg","CS","CS","1","category1/CS2.png","","","","",""
"","html-keyboard-response","18","147968","0.0-6.0-0.0-0.12","en3mrxlu2g","one_one","1","direct_first","1","er05nd10","0","23","1","1","3","1","","0","1","0","null","","","<div class = 'row'><div class = 'column'><img src = 'usneg/9404.bmp' width = '100%;'></div><div class = 'column'><img src = 'category2/CS3.png' width = '70%;'></div></div>","null","neg","CS","CS","2","category2/CS3.png","","","","",""
"","html-keyboard-response","19","150508","0.0-6.0-0.0-0.13","en3mrxlu2g","one_one","1","direct_first","1","er05nd10","0","23","1","1","3","1","","0","1","0","null","","","<div class = 'row'><div class = 'column'><img src = 'uspos/5600.bmp' width = '100%;'></div><div class = 'column'><img src = 'category3/CS4.png' width = '70%;'></div></div>","null","pos","CS","CS","3","category3/CS4.png","","","","",""
"","html-keyboard-response","20","153048","0.0-6.0-0.0-0.14","en3mrxlu2g","one_one","1","direct_first","1","er05nd10","0","23","1","1","3","1","","0","1","0","null","","","<div class = 'row'><div class = 'column'><img src = 'category4/CS2.png' width = '70%;'></div><div class = 'column'><img src = 'uspos/1710.bmp' width = '100%;'></div></div>","null","pos","CS","CS","4","category4/CS2.png","","","","",""
"","html-keyboard-response","21","155588","0.0-6.0-0.0-0.15","en3mrxlu2g","one_one","1","direct_first","1","er05nd10","0","23","1","1","3","1","","0","1","0","null","","","<div class = 'row'><div class = 'column'><img src = 'usneg/9404.bmp' width = '100%;'></div><div class = 'column'><img src = 'category2/CS3.png' width = '70%;'></div></div>","null","neg","CS","CS","2","category2/CS3.png","","","","",""
"","html-keyboard-response","22","158127","0.0-6.0-0.0-0.16","en3mrxlu2g","one_one","1","direct_first","1","er05nd10","0","23","1","1","3","1","","0","1","0","null","","","<div class = 'row'><div class = 'column'><img src = 'category4/CS2.png' width = '70%;'></div><div class = 'column'><img src = 'uspos/1710.bmp' width = '100%;'></div></div>","null","pos","CS","CS","4","category4/CS2.png","","","","",""
"","html-keyboard-response","23","160648","0.0-6.0-0.0-0.17","en3mrxlu2g","one_one","1","direct_first","1","er05nd10","0","23","1","1","3","1","","0","1","0","null","","","<div class = 'row'><div class = 'column'><img src = 'category3/CS4.png' width = '70%;'></div><div class = 'column'><img src = 'uspos/5600.bmp' width = '100%;'></div></div>","null","pos","CS","CS","3","category3/CS4.png","","","","",""
"","html-keyboard-response","24","163188","0.0-6.0-0.0-0.18","en3mrxlu2g","one_one","1","direct_first","1","er05nd10","0","23","1","1","3","1","","0","1","0","null","","","<div class = 'row'><div class = 'column'><img src = 'category1/CS2.png' width = '70%;'></div><div class = 'column'><img src = 'usneg/9041.bmp' width = '100%;'></div></div>","null","neg","CS","CS","1","category1/CS2.png","","","","",""
"","html-keyboard-response","25","165728","0.0-6.0-0.0-0.19","en3mrxlu2g","one_one","1","direct_first","1","er05nd10","0","23","1","1","3","1","","0","1","0","null","","","<div class = 'row'><div class = 'column'><img src = 'category3/CS4.png' width = '70%;'></div><div class = 'column'><img src = 'uspos/5600.bmp' width = '100%;'></div></div>","null","pos","CS","CS","3","category3/CS4.png","","","","",""
"","survey-html-form","26","168935","0.0-6.0-1.0","en3mrxlu2g","one_one","1","direct_first","1","er05nd10","0","23","1","1","3","1","","0","1","0","2687","","{}","","","","","","","","","","","",""
"","html-keyboard-response","27","172958","0.0-6.0-2.0-0.0","en3mrxlu2g","one_one","1","direct_first","1","er05nd10","0","23","1","1","3","1","","0","1","0","null","","","<div class = 'row'><div class = 'column'><img src = 'uspos/1710.bmp' width = '100%;'></div><div class = 'column'><img src = 'category4/CS2.png' width = '70%;'></div></div>","null","pos","CS","CS","4","category4/CS2.png","","","","",""
"","html-keyboard-response","28","175477","0.0-6.0-2.0-0.1","en3mrxlu2g","one_one","1","direct_first","1","er05nd10","0","23","1","1","3","1","","0","1","0","null","","","<div class = 'row'><div class = 'column'><img src = 'usneg/9041.bmp' width = '100%;'></div><div class = 'column'><img src = 'category1/CS2.png' width = '70%;'></div></div>","null","neg","CS","CS","1","category1/CS2.png","","","","",""
"","html-keyboard-response","29","178018","0.0-6.0-2.0-0.2","en3mrxlu2g","one_one","1","direct_first","1","er05nd10","0","23","1","1","3","1","","0","1","0","null","","","<div class = 'row'><div class = 'column'><img src = 'category2/CS3.png' width = '70%;'></div><div class = 'column'><img src = 'usneg/9404.bmp' width = '100%;'></div></div>","null","neg","CS","CS","2","category2/CS3.png","","","","",""
"","html-keyboard-response","30","180558","0.0-6.0-2.0-0.3","en3mrxlu2g","one_one","1","direct_first","1","er05nd10","0","23","1","1","3","1","","0","1","0","null","","","<div class = 'row'><div class = 'column'><img src = 'usneg/9041.bmp' width = '100%;'></div><div class = 'column'><img src = 'category1/CS2.png' width = '70%;'></div></div>","null","neg","CS","CS","1","category1/CS2.png","","","","",""
"","html-keyboard-response","31","183097","0.0-6.0-2.0-0.4","en3mrxlu2g","one_one","1","direct_first","1","er05nd10","0","23","1","1","3","1","","0","1","0","null","","","<div class = 'row'><div class = 'column'><img src = 'category3/CS4.png' width = '70%;'></div><div class = 'column'><img src = 'uspos/5600.bmp' width = '100%;'></div></div>","null","pos","CS","CS","3","category3/CS4.png","","","","",""
"","html-keyboard-response","32","185617","0.0-6.0-2.0-0.5","en3mrxlu2g","one_one","1","direct_first","1","er05nd10","0","23","1","1","3","1","","0","1","0","null","","","<div class = 'row'><div class = 'column'><img src = 'usneg/9041.bmp' width = '100%;'></div><div class = 'column'><img src = 'category1/CS2.png' width = '70%;'></div></div>","null","neg","CS","CS","1","category1/CS2.png","","","","",""
"","html-keyboard-response","33","188148","0.0-6.0-2.0-0.6","en3mrxlu2g","one_one","1","direct_first","1","er05nd10","0","23","1","1","3","1","","0","1","0","null","","","<div class = 'row'><div class = 'column'><img src = 'usneg/9404.bmp' width = '100%;'></div><div class = 'column'><img src = 'category2/CS3.png' width = '70%;'></div></div>","null","neg","CS","CS","2","category2/CS3.png","","","","",""
"","html-keyboard-response","34","190668","0.0-6.0-2.0-0.7","en3mrxlu2g","one_one","1","direct_first","1","er05nd10","0","23","1","1","3","1","","0","1","0","null","","","<div class = 'row'><div class = 'column'><img src = 'category4/CS2.png' width = '70%;'></div><div class = 'column'><img src = 'uspos/1710.bmp' width = '100%;'></div></div>","null","pos","CS","CS","4","category4/CS2.png","","","","",""
"","html-keyboard-response","35","193208","0.0-6.0-2.0-0.8","en3mrxlu2g","one_one","1","direct_first","1","er05nd10","0","23","1","1","3","1","","0","1","0","null","","","<div class = 'row'><div class = 'column'><img src = 'usneg/9404.bmp' width = '100%;'></div><div class = 'column'><img src = 'category2/CS3.png' width = '70%;'></div></div>","null","neg","CS","CS","2","category2/CS3.png","","","","",""
"","html-keyboard-response","36","195728","0.0-6.0-2.0-0.9","en3mrxlu2g","one_one","1","direct_first","1","er05nd10","0","23","1","1","3","1","","0","1","0","null","","","<div class = 'row'><div class = 'column'><img src = 'category4/CS2.png' width = '70%;'></div><div class = 'column'><img src = 'uspos/1710.bmp' width = '100%;'></div></div>","null","pos","CS","CS","4","category4/CS2.png","","","","",""
"","html-keyboard-response","37","198248","0.0-6.0-2.0-0.10","en3mrxlu2g","one_one","1","direct_first","1","er05nd10","0","23","1","1","3","1","","0","1","0","null","","","<div class = 'row'><div class = 'column'><img src = 'usneg/9404.bmp' width = '100%;'></div><div class = 'column'><img src = 'category2/CS3.png' width = '70%;'></div></div>","null","neg","CS","CS","2","category2/CS3.png","","","","",""
"","html-keyboard-response","38","200788","0.0-6.0-2.0-0.11","en3mrxlu2g","one_one","1","direct_first","1","er05nd10","0","23","1","1","3","1","","0","1","0","null","","","<div class = 'row'><div class = 'column'><img src = 'category1/CS2.png' width = '70%;'></div><div class = 'column'><img src = 'usneg/9041.bmp' width = '100%;'></div></div>","null","neg","CS","CS","1","category1/CS2.png","","","","",""
"","html-keyboard-response","39","203328","0.0-6.0-2.0-0.12","en3mrxlu2g","one_one","1","direct_first","1","er05nd10","0","23","1","1","3","1","","0","1","0","null","","","<div class = 'row'><div class = 'column'><img src = 'uspos/5600.bmp' width = '100%;'></div><div class = 'column'><img src = 'category3/CS4.png' width = '70%;'></div></div>","null","pos","CS","CS","3","category3/CS4.png","","","","",""
"","html-keyboard-response","40","205848","0.0-6.0-2.0-0.13","en3mrxlu2g","one_one","1","direct_first","1","er05nd10","0","23","1","1","3","1","","0","1","0","null","","","<div class = 'row'><div class = 'column'><img src = 'usneg/9404.bmp' width = '100%;'></div><div class = 'column'><img src = 'category2/CS3.png' width = '70%;'></div></div>","null","neg","CS","CS","2","category2/CS3.png","","","","",""
"","html-keyboard-response","41","208368","0.0-6.0-2.0-0.14","en3mrxlu2g","one_one","1","direct_first","1","er05nd10","0","23","1","1","3","1","","0","1","0","null","","","<div class = 'row'><div class = 'column'><img src = 'uspos/1710.bmp' width = '100%;'></div><div class = 'column'><img src = 'category4/CS2.png' width = '70%;'></div></div>","null","pos","CS","CS","4","category4/CS2.png","","","","",""
"","html-keyboard-response","42","210908","0.0-6.0-2.0-0.15","en3mrxlu2g","one_one","1","direct_first","1","er05nd10","0","23","1","1","3","1","","0","1","0","null","","","<div class = 'row'><div class = 'column'><img src = 'category3/CS4.png' width = '70%;'></div><div class = 'column'><img src = 'uspos/5600.bmp' width = '100%;'></div></div>","null","pos","CS","CS","3","category3/CS4.png","","","","",""
"","html-keyboard-response","43","213449","0.0-6.0-2.0-0.16","en3mrxlu2g","one_one","1","direct_first","1","er05nd10","0","23","1","1","3","1","","0","1","0","null","","","<div class = 'row'><div class = 'column'><img src = 'category1/CS2.png' width = '70%;'></div><div class = 'column'><img src = 'usneg/9041.bmp' width = '100%;'></div></div>","null","neg","CS","CS","1","category1/CS2.png","","","","",""
"","html-keyboard-response","44","215968","0.0-6.0-2.0-0.17","en3mrxlu2g","one_one","1","direct_first","1","er05nd10","0","23","1","1","3","1","","0","1","0","null","","","<div class = 'row'><div class = 'column'><img src = 'category3/CS4.png' width = '70%;'></div><div class = 'column'><img src = 'uspos/5600.bmp' width = '100%;'></div></div>","null","pos","CS","CS","3","category3/CS4.png","","","","",""
"","html-keyboard-response","45","218508","0.0-6.0-2.0-0.18","en3mrxlu2g","one_one","1","direct_first","1","er05nd10","0","23","1","1","3","1","","0","1","0","null","","","<div class = 'row'><div class = 'column'><img src = 'uspos/1710.bmp' width = '100%;'></div><div class = 'column'><img src = 'category4/CS2.png' width = '70%;'></div></div>","null","pos","CS","CS","4","category4/CS2.png","","","","",""
"","html-keyboard-response","46","221047","0.0-6.0-2.0-0.19","en3mrxlu2g","one_one","1","direct_first","1","er05nd10","0","23","1","1","3","1","","0","1","0","null","","","<div class = 'row'><div class = 'column'><img src = 'category3/CS4.png' width = '70%;'></div><div class = 'column'><img src = 'uspos/5600.bmp' width = '100%;'></div></div>","null","pos","CS","CS","3","category3/CS4.png","","","","",""
"","survey-html-form","47","223821","0.0-6.0-3.0","en3mrxlu2g","one_one","1","direct_first","1","er05nd10","0","23","1","1","3","1","","0","1","0","2251","","{}","","","","","","","","","","","",""
"","html-keyboard-response","48","227848","0.0-6.0-4.0-0.0","en3mrxlu2g","one_one","1","direct_first","1","er05nd10","0","23","1","1","3","1","","0","1","0","null","","","<div class = 'row'><div class = 'column'><img src = 'category2/CS3.png' width = '70%;'></div><div class = 'column'><img src = 'usneg/9404.bmp' width = '100%;'></div></div>","null","neg","CS","CS","2","category2/CS3.png","","","","",""
"","html-keyboard-response","49","230367","0.0-6.0-4.0-0.1","en3mrxlu2g","one_one","1","direct_first","1","er05nd10","0","23","1","1","3","1","","0","1","0","null","","","<div class = 'row'><div class = 'column'><img src = 'category4/CS2.png' width = '70%;'></div><div class = 'column'><img src = 'uspos/1710.bmp' width = '100%;'></div></div>","null","pos","CS","CS","4","category4/CS2.png","","","","",""
"","html-keyboard-response","50","232908","0.0-6.0-4.0-0.2","en3mrxlu2g","one_one","1","direct_first","1","er05nd10","0","23","1","1","3","1","","0","1","0","null","","","<div class = 'row'><div class = 'column'><img src = 'usneg/9041.bmp' width = '100%;'></div><div class = 'column'><img src = 'category1/CS2.png' width = '70%;'></div></div>","null","neg","CS","CS","1","category1/CS2.png","","","","",""
"","html-keyboard-response","51","235448","0.0-6.0-4.0-0.3","en3mrxlu2g","one_one","1","direct_first","1","er05nd10","0","23","1","1","3","1","","0","1","0","null","","","<div class = 'row'><div class = 'column'><img src = 'category2/CS3.png' width = '70%;'></div><div class = 'column'><img src = 'usneg/9404.bmp' width = '100%;'></div></div>","null","neg","CS","CS","2","category2/CS3.png","","","","",""
"","html-keyboard-response","52","237988","0.0-6.0-4.0-0.4","en3mrxlu2g","one_one","1","direct_first","1","er05nd10","0","23","1","1","3","1","","0","1","0","null","","","<div class = 'row'><div class = 'column'><img src = 'category3/CS4.png' width = '70%;'></div><div class = 'column'><img src = 'uspos/5600.bmp' width = '100%;'></div></div>","null","pos","CS","CS","3","category3/CS4.png","","","","",""
"","html-keyboard-response","53","240528","0.0-6.0-4.0-0.5","en3mrxlu2g","one_one","1","direct_first","1","er05nd10","0","23","1","1","3","1","","0","1","0","null","","","<div class = 'row'><div class = 'column'><img src = 'uspos/1710.bmp' width = '100%;'></div><div class = 'column'><img src = 'category4/CS2.png' width = '70%;'></div></div>","null","pos","CS","CS","4","category4/CS2.png","","","","",""
"","html-keyboard-response","54","243068","0.0-6.0-4.0-0.6","en3mrxlu2g","one_one","1","direct_first","1","er05nd10","0","23","1","1","3","1","","0","1","0","null","","","<div class = 'row'><div class = 'column'><img src = 'category1/CS2.png' width = '70%;'></div><div class = 'column'><img src = 'usneg/9041.bmp' width = '100%;'></div></div>","null","neg","CS","CS","1","category1/CS2.png","","","","",""
"","html-keyboard-response","55","245607","0.0-6.0-4.0-0.7","en3mrxlu2g","one_one","1","direct_first","1","er05nd10","0","23","1","1","3","1","","0","1","0","null","","","<div class = 'row'><div class = 'column'><img src = 'usneg/9404.bmp' width = '100%;'></div><div class = 'column'><img src = 'category2/CS3.png' width = '70%;'></div></div>","null","neg","CS","CS","2","category2/CS3.png","","","","",""
"","html-keyboard-response","56","248137","0.0-6.0-4.0-0.8","en3mrxlu2g","one_one","1","direct_first","1","er05nd10","0","23","1","1","3","1","","0","1","0","null","","","<div class = 'row'><div class = 'column'><img src = 'uspos/5600.bmp' width = '100%;'></div><div class = 'column'><img src = 'category3/CS4.png' width = '70%;'></div></div>","null","pos","CS","CS","3","category3/CS4.png","","","","",""
"","html-keyboard-response","57","250678","0.0-6.0-4.0-0.9","en3mrxlu2g","one_one","1","direct_first","1","er05nd10","0","23","1","1","3","1","","0","1","0","null","","","<div class = 'row'><div class = 'column'><img src = 'usneg/9404.bmp' width = '100%;'></div><div class = 'column'><img src = 'category2/CS3.png' width = '70%;'></div></div>","null","neg","CS","CS","2","category2/CS3.png","","","","",""
"","html-keyboard-response","58","253208","0.0-6.0-4.0-0.10","en3mrxlu2g","one_one","1","direct_first","1","er05nd10","0","23","1","1","3","1","","0","1","0","null","","","<div class = 'row'><div class = 'column'><img src = 'category1/CS2.png' width = '70%;'></div><div class = 'column'><img src = 'usneg/9041.bmp' width = '100%;'></div></div>","null","neg","CS","CS","1","category1/CS2.png","","","","",""
"","html-keyboard-response","59","255748","0.0-6.0-4.0-0.11","en3mrxlu2g","one_one","1","direct_first","1","er05nd10","0","23","1","1","3","1","","0","1","0","null","","","<div class = 'row'><div class = 'column'><img src = 'uspos/1710.bmp' width = '100%;'></div><div class = 'column'><img src = 'category4/CS2.png' width = '70%;'></div></div>","null","pos","CS","CS","4","category4/CS2.png","","","","",""
"","html-keyboard-response","60","258268","0.0-6.0-4.0-0.12","en3mrxlu2g","one_one","1","direct_first","1","er05nd10","0","23","1","1","3","1","","0","1","0","null","","","<div class = 'row'><div class = 'column'><img src = 'category3/CS4.png' width = '70%;'></div><div class = 'column'><img src = 'uspos/5600.bmp' width = '100%;'></div></div>","null","pos","CS","CS","3","category3/CS4.png","","","","",""
"","html-keyboard-response","61","260808","0.0-6.0-4.0-0.13","en3mrxlu2g","one_one","1","direct_first","1","er05nd10","0","23","1","1","3","1","","0","1","0","null","","","<div class = 'row'><div class = 'column'><img src = 'category1/CS2.png' width = '70%;'></div><div class = 'column'><img src = 'usneg/9041.bmp' width = '100%;'></div></div>","null","neg","CS","CS","1","category1/CS2.png","","","","",""
"","html-keyboard-response","62","263347","0.0-6.0-4.0-0.14","en3mrxlu2g","one_one","1","direct_first","1","er05nd10","0","23","1","1","3","1","","0","1","0","null","","","<div class = 'row'><div class = 'column'><img src = 'uspos/1710.bmp' width = '100%;'></div><div class = 'column'><img src = 'category4/CS2.png' width = '70%;'></div></div>","null","pos","CS","CS","4","category4/CS2.png","","","","",""
"","html-keyboard-response","63","265884","0.0-6.0-4.0-0.15","en3mrxlu2g","one_one","1","direct_first","1","er05nd10","0","23","1","1","3","1","","0","1","0","null","","","<div class = 'row'><div class = 'column'><img src = 'usneg/9041.bmp' width = '100%;'></div><div class = 'column'><img src = 'category1/CS2.png' width = '70%;'></div></div>","null","neg","CS","CS","1","category1/CS2.png","","","","",""
"","html-keyboard-response","64","268388","0.0-6.0-4.0-0.16","en3mrxlu2g","one_one","1","direct_first","1","er05nd10","0","23","1","1","3","1","","0","1","0","null","","","<div class = 'row'><div class = 'column'><img src = 'uspos/5600.bmp' width = '100%;'></div><div class = 'column'><img src = 'category3/CS4.png' width = '70%;'></div></div>","null","pos","CS","CS","3","category3/CS4.png","","","","",""
"","html-keyboard-response","65","270928","0.0-6.0-4.0-0.17","en3mrxlu2g","one_one","1","direct_first","1","er05nd10","0","23","1","1","3","1","","0","1","0","null","","","<div class = 'row'><div class = 'column'><img src = 'category2/CS3.png' width = '70%;'></div><div class = 'column'><img src = 'usneg/9404.bmp' width = '100%;'></div></div>","null","neg","CS","CS","2","category2/CS3.png","","","","",""
"","html-keyboard-response","66","273468","0.0-6.0-4.0-0.18","en3mrxlu2g","one_one","1","direct_first","1","er05nd10","0","23","1","1","3","1","","0","1","0","null","","","<div class = 'row'><div class = 'column'><img src = 'category4/CS2.png' width = '70%;'></div><div class = 'column'><img src = 'uspos/1710.bmp' width = '100%;'></div></div>","null","pos","CS","CS","4","category4/CS2.png","","","","",""
"","html-keyboard-response","67","275978","0.0-6.0-4.0-0.19","en3mrxlu2g","one_one","1","direct_first","1","er05nd10","0","23","1","1","3","1","","0","1","0","null","","","<div class = 'row'><div class = 'column'><img src = 'category3/CS4.png' width = '70%;'></div><div class = 'column'><img src = 'uspos/5600.bmp' width = '100%;'></div></div>","null","pos","CS","CS","3","category3/CS4.png","","","","",""
"","survey-html-form","68","278293","0.0-6.0-5.0","en3mrxlu2g","one_one","1","direct_first","1","er05nd10","0","23","1","1","3","1","","0","1","0","1794","","{}","","","","","","","","","","","",""
"","html-keyboard-response","69","282308","0.0-6.0-6.0-0.0","en3mrxlu2g","one_one","1","direct_first","1","er05nd10","0","23","1","1","3","1","","0","1","0","null","","","<div class = 'row'><div class = 'column'><img src = 'usneg/9404.bmp' width = '100%;'></div><div class = 'column'><img src = 'category2/CS3.png' width = '70%;'></div></div>","null","neg","CS","CS","2","category2/CS3.png","","","","",""
"","html-keyboard-response","70","284847","0.0-6.0-6.0-0.1","en3mrxlu2g","one_one","1","direct_first","1","er05nd10","0","23","1","1","3","1","","0","1","0","null","","","<div class = 'row'><div class = 'column'><img src = 'category1/CS2.png' width = '70%;'></div><div class = 'column'><img src = 'usneg/9041.bmp' width = '100%;'></div></div>","null","neg","CS","CS","1","category1/CS2.png","","","","",""
"","html-keyboard-response","71","287388","0.0-6.0-6.0-0.2","en3mrxlu2g","one_one","1","direct_first","1","er05nd10","0","23","1","1","3","1","","0","1","0","null","","","<div class = 'row'><div class = 'column'><img src = 'category4/CS2.png' width = '70%;'></div><div class = 'column'><img src = 'uspos/1710.bmp' width = '100%;'></div></div>","null","pos","CS","CS","4","category4/CS2.png","","","","",""
"","html-keyboard-response","72","289928","0.0-6.0-6.0-0.3","en3mrxlu2g","one_one","1","direct_first","1","er05nd10","0","23","1","1","3","1","","0","1","0","null","","","<div class = 'row'><div class = 'column'><img src = 'uspos/5600.bmp' width = '100%;'></div><div class = 'column'><img src = 'category3/CS4.png' width = '70%;'></div></div>","null","pos","CS","CS","3","category3/CS4.png","","","","",""
"","html-keyboard-response","73","292468","0.0-6.0-6.0-0.4","en3mrxlu2g","one_one","1","direct_first","1","er05nd10","0","23","1","1","3","1","","0","1","0","null","","","<div class = 'row'><div class = 'column'><img src = 'category2/CS3.png' width = '70%;'></div><div class = 'column'><img src = 'usneg/9404.bmp' width = '100%;'></div></div>","null","neg","CS","CS","2","category2/CS3.png","","","","",""
"","html-keyboard-response","74","295007","0.0-6.0-6.0-0.5","en3mrxlu2g","one_one","1","direct_first","1","er05nd10","0","23","1","1","3","1","","0","1","0","null","","","<div class = 'row'><div class = 'column'><img src = 'category4/CS2.png' width = '70%;'></div><div class = 'column'><img src = 'uspos/1710.bmp' width = '100%;'></div></div>","null","pos","CS","CS","4","category4/CS2.png","","","","",""
"","html-keyboard-response","75","297528","0.0-6.0-6.0-0.6","en3mrxlu2g","one_one","1","direct_first","1","er05nd10","0","23","1","1","3","1","","0","1","0","null","","","<div class = 'row'><div class = 'column'><img src = 'usneg/9041.bmp' width = '100%;'></div><div class = 'column'><img src = 'category1/CS2.png' width = '70%;'></div></div>","null","neg","CS","CS","1","category1/CS2.png","","","","",""
"","html-keyboard-response","76","300068","0.0-6.0-6.0-0.7","en3mrxlu2g","one_one","1","direct_first","1","er05nd10","0","23","1","1","3","1","","0","1","0","null","","","<div class = 'row'><div class = 'column'><img src = 'category3/CS4.png' width = '70%;'></div><div class = 'column'><img src = 'uspos/5600.bmp' width = '100%;'></div></div>","null","pos","CS","CS","3","category3/CS4.png","","","","",""
"","html-keyboard-response","77","302608","0.0-6.0-6.0-0.8","en3mrxlu2g","one_one","1","direct_first","1","er05nd10","0","23","1","1","3","1","","0","1","0","null","","","<div class = 'row'><div class = 'column'><img src = 'uspos/1710.bmp' width = '100%;'></div><div class = 'column'><img src = 'category4/CS2.png' width = '70%;'></div></div>","null","pos","CS","CS","4","category4/CS2.png","","","","",""
"","html-keyboard-response","78","305148","0.0-6.0-6.0-0.9","en3mrxlu2g","one_one","1","direct_first","1","er05nd10","0","23","1","1","3","1","","0","1","0","null","","","<div class = 'row'><div class = 'column'><img src = 'category1/CS2.png' width = '70%;'></div><div class = 'column'><img src = 'usneg/9041.bmp' width = '100%;'></div></div>","null","neg","CS","CS","1","category1/CS2.png","","","","",""
"","html-keyboard-response","79","307688","0.0-6.0-6.0-0.10","en3mrxlu2g","one_one","1","direct_first","1","er05nd10","0","23","1","1","3","1","","0","1","0","null","","","<div class = 'row'><div class = 'column'><img src = 'usneg/9404.bmp' width = '100%;'></div><div class = 'column'><img src = 'category2/CS3.png' width = '70%;'></div></div>","null","neg","CS","CS","2","category2/CS3.png","","","","",""
"","html-keyboard-response","80","310208","0.0-6.0-6.0-0.11","en3mrxlu2g","one_one","1","direct_first","1","er05nd10","0","23","1","1","3","1","","0","1","0","null","","","<div class = 'row'><div class = 'column'><img src = 'uspos/5600.bmp' width = '100%;'></div><div class = 'column'><img src = 'category3/CS4.png' width = '70%;'></div></div>","null","pos","CS","CS","3","category3/CS4.png","","","","",""
"","html-keyboard-response","81","312729","0.0-6.0-6.0-0.12","en3mrxlu2g","one_one","1","direct_first","1","er05nd10","0","23","1","1","3","1","","0","1","0","null","","","<div class = 'row'><div class = 'column'><img src = 'uspos/1710.bmp' width = '100%;'></div><div class = 'column'><img src = 'category4/CS2.png' width = '70%;'></div></div>","null","pos","CS","CS","4","category4/CS2.png","","","","",""
"","html-keyboard-response","82","315268","0.0-6.0-6.0-0.13","en3mrxlu2g","one_one","1","direct_first","1","er05nd10","0","23","1","1","3","1","","0","1","0","null","","","<div class = 'row'><div class = 'column'><img src = 'usneg/9404.bmp' width = '100%;'></div><div class = 'column'><img src = 'category2/CS3.png' width = '70%;'></div></div>","null","neg","CS","CS","2","category2/CS3.png","","","","",""
"","html-keyboard-response","83","317808","0.0-6.0-6.0-0.14","en3mrxlu2g","one_one","1","direct_first","1","er05nd10","0","23","1","1","3","1","","0","1","0","null","","","<div class = 'row'><div class = 'column'><img src = 'uspos/5600.bmp' width = '100%;'></div><div class = 'column'><img src = 'category3/CS4.png' width = '70%;'></div></div>","null","pos","CS","CS","3","category3/CS4.png","","","","",""
"","html-keyboard-response","84","320338","0.0-6.0-6.0-0.15","en3mrxlu2g","one_one","1","direct_first","1","er05nd10","0","23","1","1","3","1","","0","1","0","null","","","<div class = 'row'><div class = 'column'><img src = 'usneg/9041.bmp' width = '100%;'></div><div class = 'column'><img src = 'category1/CS2.png' width = '70%;'></div></div>","null","neg","CS","CS","1","category1/CS2.png","","","","",""
"","html-keyboard-response","85","322877","0.0-6.0-6.0-0.16","en3mrxlu2g","one_one","1","direct_first","1","er05nd10","0","23","1","1","3","1","","0","1","0","null","","","<div class = 'row'><div class = 'column'><img src = 'uspos/1710.bmp' width = '100%;'></div><div class = 'column'><img src = 'category4/CS2.png' width = '70%;'></div></div>","null","pos","CS","CS","4","category4/CS2.png","","","","",""
"","html-keyboard-response","86","325408","0.0-6.0-6.0-0.17","en3mrxlu2g","one_one","1","direct_first","1","er05nd10","0","23","1","1","3","1","","0","1","0","null","","","<div class = 'row'><div class = 'column'><img src = 'category1/CS2.png' width = '70%;'></div><div class = 'column'><img src = 'usneg/9041.bmp' width = '100%;'></div></div>","null","neg","CS","CS","1","category1/CS2.png","","","","",""
"","html-keyboard-response","87","327948","0.0-6.0-6.0-0.18","en3mrxlu2g","one_one","1","direct_first","1","er05nd10","0","23","1","1","3","1","","0","1","0","null","","","<div class = 'row'><div class = 'column'><img src = 'category2/CS3.png' width = '70%;'></div><div class = 'column'><img src = 'usneg/9404.bmp' width = '100%;'></div></div>","null","neg","CS","CS","2","category2/CS3.png","","","","",""
"","html-keyboard-response","88","330478","0.0-6.0-6.0-0.19","en3mrxlu2g","one_one","1","direct_first","1","er05nd10","0","23","1","1","3","1","","0","1","0","null","","","<div class = 'row'><div class = 'column'><img src = 'category3/CS4.png' width = '70%;'></div><div class = 'column'><img src = 'uspos/5600.bmp' width = '100%;'></div></div>","null","pos","CS","CS","3","category3/CS4.png","","","","",""
"","survey-html-form","89","340053","0.0-7.0","en3mrxlu2g","one_one","1","direct_first","1","er05nd10","0","23","1","1","3","1","","0","1","0","9055","","{}","","","","","","","","","","","",""
"","image-slider-response","90","348286","0.0-8.0-0.0","en3mrxlu2g","one_one","1","direct_first","1","er05nd10","0","23","1","1","3","1","","0","1","0","6215","","","","","pos","CS","CS","3","category3/CS4.png","92","targets/1.png","direct","",""
"","image-slider-response","91","353752","0.0-8.0-0.1","en3mrxlu2g","one_one","1","direct_first","1","er05nd10","0","23","1","1","3","1","","0","1","0","5464","","","","","pos","GS","GSnew","3","category3/GS1.png","26","targets/43.png","direct","",""
"","image-slider-response","92","357031","0.0-8.0-0.2","en3mrxlu2g","one_one","1","direct_first","1","er05nd10","0","23","1","1","3","1","","0","1","0","3278","","","","","pos","GS","abstract","4","category4/lin.png","29","targets/30.png","direct","",""
"","image-slider-response","93","362148","0.0-8.0-0.3","en3mrxlu2g","one_one","1","direct_first","1","er05nd10","0","23","1","1","3","1","","0","1","0","5115","","","","","neg","GS","GSold","1","category1/CS6.png","-36","targets/38.png","direct","",""
"","image-slider-response","94","367606","0.0-8.0-0.4","en3mrxlu2g","one_one","1","direct_first","1","er05nd10","0","23","1","1","3","1","","0","1","0","5457","","","","","neg","GS","GSnew","1","category1/GS3.png","-36","targets/28.png","direct","",""
"","image-slider-response","95","370724","0.0-8.0-0.5","en3mrxlu2g","one_one","1","direct_first","1","er05nd10","0","23","1","1","3","1","","0","1","0","3116","","","","","pos","GS","abstract","3","category3/wang.png","28","targets/6.png","direct","",""
"","image-slider-response","96","377036","0.0-8.0-0.6","en3mrxlu2g","one_one","1","direct_first","1","er05nd10","0","23","1","1","3","1","","0","1","0","6312","","","","","pos","GS","GSnew","4","category4/GS1.png","33","targets/42.png","direct","",""
"","image-slider-response","97","380760","0.0-8.0-0.7","en3mrxlu2g","one_one","1","direct_first","1","er05nd10","0","23","1","1","3","1","","0","1","0","3720","","","","","pos","GS","GSold","4","category4/CS10.png","32","targets/22.png","direct","",""
"","image-slider-response","98","383676","0.0-8.0-0.8","en3mrxlu2g","one_one","1","direct_first","1","er05nd10","0","23","1","1","3","1","","0","1","0","2915","","","","","neg","CS","CS","1","category1/CS2.png","-47","targets/40.png","direct","",""
"","image-slider-response","99","386164","0.0-8.0-0.9","en3mrxlu2g","one_one","1","direct_first","1","er05nd10","0","23","1","1","3","1","","0","1","0","2486","","","","","neg","GS","GSold","1","category1/CS4.png","-35","targets/24.png","direct","",""
"","image-slider-response","100","389032","0.0-8.0-0.10","en3mrxlu2g","one_one","1","direct_first","1","er05nd10","0","23","1","1","3","1","","0","1","0","2866","","","","","pos","GS","GSold","3","category3/CS8.png","39","targets/27.png","direct","",""
"","image-slider-response","101","391504","0.0-8.0-0.11","en3mrxlu2g","one_one","1","direct_first","1","er05nd10","0","23","1","1","3","1","","0","1","0","2471","","","","","pos","GS","GSnew","3","category3/GS2.png","28","targets/45.png","direct","",""
"","image-slider-response","102","394349","0.0-8.0-0.12","en3mrxlu2g","one_one","1","direct_first","1","er05nd10","0","23","1","1","3","1","","0","1","0","2844","","","","","pos","GS","GSold","4","category4/CS9.png","28","targets/39.png","direct","",""
"","image-slider-response","103","397437","0.0-8.0-0.13","en3mrxlu2g","one_one","1","direct_first","1","er05nd10","0","23","1","1","3","1","","0","1","0","3085","","","","","pos","CS","CS","4","category4/CS2.png","78","targets/48.png","direct","",""
"","image-slider-response","104","400904","0.0-8.0-0.14","en3mrxlu2g","one_one","1","direct_first","1","er05nd10","0","23","1","1","3","1","","0","1","0","3465","","","","","pos","GS","GSold","3","category3/CS2.png","35","targets/37.png","direct","",""
"","image-slider-response","105","410038","0.0-8.0-0.15","en3mrxlu2g","one_one","1","direct_first","1","er05nd10","0","23","1","1","3","1","","0","1","0","9133","","","","","neg","GS","GSnew","2","category2/GS3.png","-1","targets/18.png","direct","",""
"","image-slider-response","106","418021","0.0-8.0-0.16","en3mrxlu2g","one_one","1","direct_first","1","er05nd10","0","23","1","1","3","1","","0","1","0","7983","","","","","neg","GS","GSold","2","category2/CS1.png","2","targets/2.png","direct","",""
"","image-slider-response","107","421070","0.0-8.0-0.17","en3mrxlu2g","one_one","1","direct_first","1","er05nd10","0","23","1","1","3","1","","0","1","0","3047","","","","","neg","GS","GSnew","2","category2/GS2.png","12","targets/33.png","direct","",""
"","image-slider-response","108","424879","0.0-8.0-0.18","en3mrxlu2g","one_one","1","direct_first","1","er05nd10","0","23","1","1","3","1","","0","1","0","3808","","","","","neg","CS","CS","2","category2/CS3.png","-66","targets/3.png","direct","",""
"","image-slider-response","109","428276","0.0-8.0-0.19","en3mrxlu2g","one_one","1","direct_first","1","er05nd10","0","23","1","1","3","1","","0","1","0","3396","","","","","neg","GS","GSold","2","category2/CS5.png","-29","targets/17.png","direct","",""
"","image-slider-response","110","431862","0.0-8.0-0.20","en3mrxlu2g","one_one","1","direct_first","1","er05nd10","0","23","1","1","3","1","","0","1","0","3584","","","","","neg","GS","GSnew","2","category2/GS1.png","-26","targets/8.png","direct","",""
"","image-slider-response","111","437296","0.0-8.0-0.21","en3mrxlu2g","one_one","1","direct_first","1","er05nd10","0","23","1","1","3","1","","0","1","0","5432","","","","","neg","GS","GSnew","1","category1/GS2.png","-32","targets/9.png","direct","",""
"","image-slider-response","112","440664","0.0-8.0-0.22","en3mrxlu2g","one_one","1","direct_first","1","er05nd10","0","23","1","1","3","1","","0","1","0","3367","","","","","pos","GS","GSnew","4","category4/GS3.png","37","targets/34.png","direct","",""
"","image-slider-response","113","444582","0.0-8.0-0.23","en3mrxlu2g","one_one","1","direct_first","1","er05nd10","0","23","1","1","3","1","","0","1","0","3917","","","","","neg","GS","GSold","2","category2/CS7.png","-13","targets/13.png","direct","",""
"","image-slider-response","114","447442","0.0-8.0-0.24","en3mrxlu2g","one_one","1","direct_first","1","er05nd10","0","23","1","1","3","1","","0","1","0","2858","","","","","neg","GS","abstract","1","category1/ma.png","-58","targets/41.png","direct","",""
"","image-slider-response","115","450248","0.0-8.0-0.25","en3mrxlu2g","one_one","1","direct_first","1","er05nd10","0","23","1","1","3","1","","0","1","0","2804","","","","","neg","GS","GSold","1","category1/CS5.png","-38","targets/12.png","direct","",""
"","image-slider-response","116","456242","0.0-8.0-0.26","en3mrxlu2g","one_one","1","direct_first","1","er05nd10","0","23","1","1","3","1","","0","1","0","5992","","","","","pos","GS","GSold","4","category4/CS8.png","26","targets/11.png","direct","",""
"","image-slider-response","117","459182","0.0-8.0-0.27","en3mrxlu2g","one_one","1","direct_first","1","er05nd10","0","23","1","1","3","1","","0","1","0","2939","","","","","pos","GS","GSnew","4","category4/GS2.png","25","targets/25.png","direct","",""
"","image-slider-response","118","463620","0.0-8.0-0.28","en3mrxlu2g","one_one","1","direct_first","1","er05nd10","0","23","1","1","3","1","","0","1","0","4437","","","","","neg","GS","abstract","2","category2/men.png","-13","targets/7.png","direct","",""
"","image-slider-response","119","467709","0.0-8.0-0.29","en3mrxlu2g","one_one","1","direct_first","1","er05nd10","0","23","1","1","3","1","","0","1","0","4088","","","","","pos","GS","GSnew","3","category3/GS3.png","63","targets/29.png","direct","",""
"","image-slider-response","120","470991","0.0-8.0-0.30","en3mrxlu2g","one_one","1","direct_first","1","er05nd10","0","23","1","1","3","1","","0","1","0","3281","","","","","pos","GS","GSold","3","category3/CS5.png","27","targets/20.png","direct","",""
"","image-slider-response","121","474178","0.0-8.0-0.31","en3mrxlu2g","one_one","1","direct_first","1","er05nd10","0","23","1","1","3","1","","0","1","0","3185","","","","","neg","GS","GSnew","1","category1/GS1.png","-41","targets/36.png","direct","",""
"","html-keyboard-response","122","500807","0.0-9.0","en3mrxlu2g","one_one","1","direct_first","1","er05nd10","0","23","1","1","3","1","","0","1","0","26628","","","<p>Sie sehen nun die chinesischen Zeichen nur ganz kurz. Danach sehen Sie die jeweilige Aussprache der Zeichen als Silbe auf dem Bildschrim. Ihre Aufgabe ist es, für jede Silbe anzugeben, ob diese etwas angenehmes, oder unangenehmes bedeuten könnte. Verlassen Sie sich hier vor allem auf Ihre Intuition.<br><br>Die Zeichen werden nur zur Orientierung dargestellt, beachten Sie sie deshalb nicht. Konzentrieren Sie sich vor allem auf die Silben. <br>Reagieren Sie mit folgenden zwei Tasten: <br><br><b>'D' </b> wenn die Silbe etwas <b>unangenehmes</b> bedeuten könnte. <br><b>'K'</b> wenn die Silbe etwas <b>angenehmes</b> bedeuten könnte. <br><br>Bitte legen Sie nun den Zeigefinger der linken Hand auf die Taste 'D' und den Zeigefinger der rechten Hand auf die Taste 'K'. <br>Reagieren Sie auf jede Silbe so schnell wie möglich. Uns interessiert Ihre spontane Reaktion. <br> <br> <br>Drücken Sie 'D' oder 'K', um die nächste Aufgabe zu starten. </p>","68","","","","","","","","","",""
"","html-keyboard-response","123","503847","0.0-10.0-0.0","en3mrxlu2g","one_one","1","direct_first","1","er05nd10","0","23","1","1","3","1","","0","1","0","null","","","<div style=""font-size:60px;"">+</div>","null","","","","","","","","","",""
"","html-keyboard-response","124","503947","0.0-10.0-1.0","en3mrxlu2g","one_one","1","direct_first","1","er05nd10","0","23","1","1","3","1","","0","1","0","null","","","<img src = 'category3/CS4.png' width = '100%;'>","null","","","","","","","","","",""
"","html-keyboard-response","125","504228","0.0-10.0-2.0","en3mrxlu2g","one_one","1","direct_first","1","er05nd10","0","23","1","1","3","1","","0","1","0","null","","","<img src = 'targets/1.png' width = '100%;'>","null","","","","","","","","","",""
"","html-keyboard-response","126","508189","0.0-10.0-3.0","en3mrxlu2g","one_one","1","direct_first","1","er05nd10","0","23","1","1","3","1","","0","1","0","3959","","","<img src = 'targets/mask.png' width = '100%;'>","68","pos","CS","CS","3","category3/CS4.png","","targets/1.png","indirect","0","0"
"","html-keyboard-response","127","509718","0.0-10.0-0.1","en3mrxlu2g","one_one","1","direct_first","1","er05nd10","0","23","1","1","3","1","","0","1","0","null","","","<div style=""font-size:60px;"">+</div>","null","","","","","","","","","",""
"","html-keyboard-response","128","509818","0.0-10.0-1.1","en3mrxlu2g","one_one","1","direct_first","1","er05nd10","0","23","1","1","3","1","","0","1","0","null","","","<img src = 'category2/CS1.png' width = '100%;'>","null","","","","","","","","","",""
"","html-keyboard-response","129","510098","0.0-10.0-2.1","en3mrxlu2g","one_one","1","direct_first","1","er05nd10","0","23","1","1","3","1","","0","1","0","null","","","<img src = 'targets/2.png' width = '100%;'>","null","","","","","","","","","",""
"","html-keyboard-response","130","512385","0.0-10.0-3.1","en3mrxlu2g","one_one","1","direct_first","1","er05nd10","0","23","1","1","3","1","","0","1","0","2286","","","<img src = 'targets/mask.png' width = '100%;'>","68","neg","GS","GSold","2","category2/CS1.png","","targets/2.png","indirect","0","1"
"","html-keyboard-response","131","513908","0.0-10.0-0.2","en3mrxlu2g","one_one","1","direct_first","1","er05nd10","0","23","1","1","3","1","","0","1","0","null","","","<div style=""font-size:60px;"">+</div>","null","","","","","","","","","",""
"","html-keyboard-response","132","514008","0.0-10.0-1.2","en3mrxlu2g","one_one","1","direct_first","1","er05nd10","0","23","1","1","3","1","","0","1","0","null","","","<img src = 'category1/CS4.png' width = '100%;'>","null","","","","","","","","","",""
"","html-keyboard-response","133","514287","0.0-10.0-2.2","en3mrxlu2g","one_one","1","direct_first","1","er05nd10","0","23","1","1","3","1","","0","1","0","null","","","<img src = 'targets/24.png' width = '100%;'>","null","","","","","","","","","",""
"","html-keyboard-response","134","517505","0.0-10.0-3.2","en3mrxlu2g","one_one","1","direct_first","1","er05nd10","0","23","1","1","3","1","","0","1","0","3217","","","<img src = 'targets/mask.png' width = '100%;'>","68","neg","GS","GSold","1","category1/CS4.png","","targets/24.png","indirect","0","2"
"","html-keyboard-response","135","519038","0.0-10.0-0.3","en3mrxlu2g","one_one","1","direct_first","1","er05nd10","0","23","1","1","3","1","","0","1","0","null","","","<div style=""font-size:60px;"">+</div>","null","","","","","","","","","",""
"","html-keyboard-response","136","519138","0.0-10.0-1.3","en3mrxlu2g","one_one","1","direct_first","1","er05nd10","0","23","1","1","3","1","","0","1","0","null","","","<img src = 'category4/CS8.png' width = '100%;'>","null","","","","","","","","","",""
"","html-keyboard-response","137","519418","0.0-10.0-2.3","en3mrxlu2g","one_one","1","direct_first","1","er05nd10","0","23","1","1","3","1","","0","1","0","null","","","<img src = 'targets/11.png' width = '100%;'>","null","","","","","","","","","",""
"","html-keyboard-response","138","521045","0.0-10.0-3.3","en3mrxlu2g","one_one","1","direct_first","1","er05nd10","0","23","1","1","3","1","","0","1","0","1626","","","<img src = 'targets/mask.png' width = '100%;'>","75","pos","GS","GSold","4","category4/CS8.png","","targets/11.png","indirect","1","3"
"","html-keyboard-response","139","522548","0.0-10.0-0.4","en3mrxlu2g","one_one","1","direct_first","1","er05nd10","0","23","1","1","3","1","","0","1","0","null","","","<div style=""font-size:60px;"">+</div>","null","","","","","","","","","",""
"","html-keyboard-response","140","522648","0.0-10.0-1.4","en3mrxlu2g","one_one","1","direct_first","1","er05nd10","0","23","1","1","3","1","","0","1","0","null","","","<img src = 'category2/CS5.png' width = '100%;'>","null","","","","","","","","","",""
"","html-keyboard-response","141","522928","0.0-10.0-2.4","en3mrxlu2g","one_one","1","direct_first","1","er05nd10","0","23","1","1","3","1","","0","1","0","null","","","<img src = 'targets/17.png' width = '100%;'>","null","","","","","","","","","",""
"","html-keyboard-response","142","526570","0.0-10.0-3.4","en3mrxlu2g","one_one","1","direct_first","1","er05nd10","0","23","1","1","3","1","","0","1","0","3641","","","<img src = 'targets/mask.png' width = '100%;'>","75","neg","GS","GSold","2","category2/CS5.png","","targets/17.png","indirect","1","4"
"","html-keyboard-response","143","528097","0.0-10.0-0.5","en3mrxlu2g","one_one","1","direct_first","1","er05nd10","0","23","1","1","3","1","","0","1","0","null","","","<div style=""font-size:60px;"">+</div>","null","","","","","","","","","",""
"","html-keyboard-response","144","528197","0.0-10.0-1.5","en3mrxlu2g","one_one","1","direct_first","1","er05nd10","0","23","1","1","3","1","","0","1","0","null","","","<img src = 'category3/CS2.png' width = '100%;'>","null","","","","","","","","","",""
"","html-keyboard-response","145","528478","0.0-10.0-2.5","en3mrxlu2g","one_one","1","direct_first","1","er05nd10","0","23","1","1","3","1","","0","1","0","null","","","<img src = 'targets/37.png' width = '100%;'>","null","","","","","","","","","",""
"","html-keyboard-response","146","529723","0.0-10.0-3.5","en3mrxlu2g","one_one","1","direct_first","1","er05nd10","0","23","1","1","3","1","","0","1","0","1243","","","<img src = 'targets/mask.png' width = '100%;'>","75","pos","GS","GSold","3","category3/CS2.png","","targets/37.png","indirect","1","5"
"","html-keyboard-response","147","531258","0.0-10.0-0.6","en3mrxlu2g","one_one","1","direct_first","1","er05nd10","0","23","1","1","3","1","","0","1","0","null","","","<div style=""font-size:60px;"">+</div>","null","","","","","","","","","",""
"","html-keyboard-response","148","531358","0.0-10.0-1.6","en3mrxlu2g","one_one","1","direct_first","1","er05nd10","0","23","1","1","3","1","","0","1","0","null","","","<img src = 'category1/CS5.png' width = '100%;'>","null","","","","","","","","","",""
"","html-keyboard-response","149","531636","0.0-10.0-2.6","en3mrxlu2g","one_one","1","direct_first","1","er05nd10","0","23","1","1","3","1","","0","1","0","null","","","<img src = 'targets/12.png' width = '100%;'>","null","","","","","","","","","",""
"","html-keyboard-response","150","533275","0.0-10.0-3.6","en3mrxlu2g","one_one","1","direct_first","1","er05nd10","0","23","1","1","3","1","","0","1","0","1638","","","<img src = 'targets/mask.png' width = '100%;'>","68","neg","GS","GSold","1","category1/CS5.png","","targets/12.png","indirect","0","6"
"","html-keyboard-response","151","534797","0.0-10.0-0.7","en3mrxlu2g","one_one","1","direct_first","1","er05nd10","0","23","1","1","3","1","","0","1","0","null","","","<div style=""font-size:60px;"">+</div>","null","","","","","","","","","",""
"","html-keyboard-response","152","534898","0.0-10.0-1.7","en3mrxlu2g","one_one","1","direct_first","1","er05nd10","0","23","1","1","3","1","","0","1","0","null","","","<img src = 'category1/CS6.png' width = '100%;'>","null","","","","","","","","","",""
"","html-keyboard-response","153","535177","0.0-10.0-2.7","en3mrxlu2g","one_one","1","direct_first","1","er05nd10","0","23","1","1","3","1","","0","1","0","null","","","<img src = 'targets/38.png' width = '100%;'>","null","","","","","","","","","",""
"","html-keyboard-response","154","538880","0.0-10.0-3.7","en3mrxlu2g","one_one","1","direct_first","1","er05nd10","0","23","1","1","3","1","","0","1","0","3700","","","<img src = 'targets/mask.png' width = '100%;'>","75","neg","GS","GSold","1","category1/CS6.png","","targets/38.png","indirect","1","7"
"","html-keyboard-response","155","540417","0.0-10.0-0.8","en3mrxlu2g","one_one","1","direct_first","1","er05nd10","0","23","1","1","3","1","","0","1","0","null","","","<div style=""font-size:60px;"">+</div>","null","","","","","","","","","",""
"","html-keyboard-response","156","540517","0.0-10.0-1.8","en3mrxlu2g","one_one","1","direct_first","1","er05nd10","0","23","1","1","3","1","","0","1","0","null","","","<img src = 'category3/CS5.png' width = '100%;'>","null","","","","","","","","","",""
"","html-keyboard-response","157","540787","0.0-10.0-2.8","en3mrxlu2g","one_one","1","direct_first","1","er05nd10","0","23","1","1","3","1","","0","1","0","null","","","<img src = 'targets/20.png' width = '100%;'>","null","","","","","","","","","",""
"","html-keyboard-response","158","541799","0.0-10.0-3.8","en3mrxlu2g","one_one","1","direct_first","1","er05nd10","0","23","1","1","3","1","","0","1","0","1012","","","<img src = 'targets/mask.png' width = '100%;'>","75","pos","GS","GSold","3","category3/CS5.png","","targets/20.png","indirect","1","8"
"","html-keyboard-response","159","543327","0.0-10.0-0.9","en3mrxlu2g","one_one","1","direct_first","1","er05nd10","0","23","1","1","3","1","","0","1","0","null","","","<div style=""font-size:60px;"">+</div>","null","","","","","","","","","",""
"","html-keyboard-response","160","543427","0.0-10.0-1.9","en3mrxlu2g","one_one","1","direct_first","1","er05nd10","0","23","1","1","3","1","","0","1","0","null","","","<img src = 'category4/CS10.png' width = '100%;'>","null","","","","","","","","","",""
"","html-keyboard-response","161","543708","0.0-10.0-2.9","en3mrxlu2g","one_one","1","direct_first","1","er05nd10","0","23","1","1","3","1","","0","1","0","null","","","<img src = 'targets/22.png' width = '100%;'>","null","","","","","","","","","",""
"","html-keyboard-response","162","545158","0.0-10.0-3.9","en3mrxlu2g","one_one","1","direct_first","1","er05nd10","0","23","1","1","3","1","","0","1","0","1447","","","<img src = 'targets/mask.png' width = '100%;'>","75","pos","GS","GSold","4","category4/CS10.png","","targets/22.png","indirect","1","9"
"","html-keyboard-response","163","546665","0.0-10.0-0.10","en3mrxlu2g","one_one","1","direct_first","1","er05nd10","0","23","1","1","3","1","","0","1","0","null","","","<div style=""font-size:60px;"">+</div>","null","","","","","","","","","",""
"","html-keyboard-response","164","546765","0.0-10.0-1.10","en3mrxlu2g","one_one","1","direct_first","1","er05nd10","0","23","1","1","3","1","","0","1","0","null","","","<img src = 'category2/CS3.png' width = '100%;'>","null","","","","","","","","","",""
"","html-keyboard-response","165","547047","0.0-10.0-2.10","en3mrxlu2g","one_one","1","direct_first","1","er05nd10","0","23","1","1","3","1","","0","1","0","null","","","<img src = 'targets/3.png' width = '100%;'>","null","","","","","","","","","",""
"","html-keyboard-response","166","548952","0.0-10.0-3.10","en3mrxlu2g","one_one","1","direct_first","1","er05nd10","0","23","1","1","3","1","","0","1","0","1902","","","<img src = 'targets/mask.png' width = '100%;'>","68","neg","CS","CS","2","category2/CS3.png","","targets/3.png","indirect","0","10"
"","html-keyboard-response","167","550468","0.0-10.0-0.11","en3mrxlu2g","one_one","1","direct_first","1","er05nd10","0","23","1","1","3","1","","0","1","0","null","","","<div style=""font-size:60px;"">+</div>","null","","","","","","","","","",""
"","html-keyboard-response","168","550568","0.0-10.0-1.11","en3mrxlu2g","one_one","1","direct_first","1","er05nd10","0","23","1","1","3","1","","0","1","0","null","","","<img src = 'category3/CS8.png' width = '100%;'>","null","","","","","","","","","",""
"","html-keyboard-response","169","550847","0.0-10.0-2.11","en3mrxlu2g","one_one","1","direct_first","1","er05nd10","0","23","1","1","3","1","","0","1","0","null","","","<img src = 'targets/27.png' width = '100%;'>","null","","","","","","","","","",""
"","html-keyboard-response","170","551744","0.0-10.0-3.11","en3mrxlu2g","one_one","1","direct_first","1","er05nd10","0","23","1","1","3","1","","0","1","0","896","","","<img src = 'targets/mask.png' width = '100%;'>","75","pos","GS","GSold","3","category3/CS8.png","","targets/27.png","indirect","1","11"
"","html-keyboard-response","171","553248","0.0-10.0-0.12","en3mrxlu2g","one_one","1","direct_first","1","er05nd10","0","23","1","1","3","1","","0","1","0","null","","","<div style=""font-size:60px;"">+</div>","null","","","","","","","","","",""
"","html-keyboard-response","172","553348","0.0-10.0-1.12","en3mrxlu2g","one_one","1","direct_first","1","er05nd10","0","23","1","1","3","1","","0","1","0","null","","","<img src = 'category4/CS2.png' width = '100%;'>","null","","","","","","","","","",""
"","html-keyboard-response","173","553627","0.0-10.0-2.12","en3mrxlu2g","one_one","1","direct_first","1","er05nd10","0","23","1","1","3","1","","0","1","0","null","","","<img src = 'targets/48.png' width = '100%;'>","null","","","","","","","","","",""
"","html-keyboard-response","174","554764","0.0-10.0-3.12","en3mrxlu2g","one_one","1","direct_first","1","er05nd10","0","23","1","1","3","1","","0","1","0","1136","","","<img src = 'targets/mask.png' width = '100%;'>","75","pos","CS","CS","4","category4/CS2.png","","targets/48.png","indirect","1","12"
"","html-keyboard-response","175","556297","0.0-10.0-0.13","en3mrxlu2g","one_one","1","direct_first","1","er05nd10","0","23","1","1","3","1","","0","1","0","null","","","<div style=""font-size:60px;"">+</div>","null","","","","","","","","","",""
"","html-keyboard-response","176","556397","0.0-10.0-1.13","en3mrxlu2g","one_one","1","direct_first","1","er05nd10","0","23","1","1","3","1","","0","1","0","null","","","<img src = 'category2/CS7.png' width = '100%;'>","null","","","","","","","","","",""
"","html-keyboard-response","177","556677","0.0-10.0-2.13","en3mrxlu2g","one_one","1","direct_first","1","er05nd10","0","23","1","1","3","1","","0","1","0","null","","","<img src = 'targets/13.png' width = '100%;'>","null","","","","","","","","","",""
"","html-keyboard-response","178","560599","0.0-10.0-3.13","en3mrxlu2g","one_one","1","direct_first","1","er05nd10","0","23","1","1","3","1","","0","1","0","3921","","","<img src = 'targets/mask.png' width = '100%;'>","68","neg","GS","GSold","2","category2/CS7.png","","targets/13.png","indirect","0","13"
"","html-keyboard-response","179","562107","0.0-10.0-0.14","en3mrxlu2g","one_one","1","direct_first","1","er05nd10","0","23","1","1","3","1","","0","1","0","null","","","<div style=""font-size:60px;"">+</div>","null","","","","","","","","","",""
"","html-keyboard-response","180","562208","0.0-10.0-1.14","en3mrxlu2g","one_one","1","direct_first","1","er05nd10","0","23","1","1","3","1","","0","1","0","null","","","<img src = 'category4/CS9.png' width = '100%;'>","null","","","","","","","","","",""
"","html-keyboard-response","181","562488","0.0-10.0-2.14","en3mrxlu2g","one_one","1","direct_first","1","er05nd10","0","23","1","1","3","1","","0","1","0","null","","","<img src = 'targets/39.png' width = '100%;'>","null","","","","","","","","","",""
"","html-keyboard-response","182","564446","0.0-10.0-3.14","en3mrxlu2g","one_one","1","direct_first","1","er05nd10","0","23","1","1","3","1","","0","1","0","1958","","","<img src = 'targets/mask.png' width = '100%;'>","75","pos","GS","GSold","4","category4/CS9.png","","targets/39.png","indirect","1","14"
"","html-keyboard-response","183","565958","0.0-10.0-0.15","en3mrxlu2g","one_one","1","direct_first","1","er05nd10","0","23","1","1","3","1","","0","1","0","null","","","<div style=""font-size:60px;"">+</div>","null","","","","","","","","","",""
"","html-keyboard-response","184","566058","0.0-10.0-1.15","en3mrxlu2g","one_one","1","direct_first","1","er05nd10","0","23","1","1","3","1","","0","1","0","null","","","<img src = 'category1/CS2.png' width = '100%;'>","null","","","","","","","","","",""
"","html-keyboard-response","185","566337","0.0-10.0-2.15","en3mrxlu2g","one_one","1","direct_first","1","er05nd10","0","23","1","1","3","1","","0","1","0","null","","","<img src = 'targets/40.png' width = '100%;'>","null","","","","","","","","","",""
"","html-keyboard-response","186","567267","0.0-10.0-3.15","en3mrxlu2g","one_one","1","direct_first","1","er05nd10","0","23","1","1","3","1","","0","1","0","930","","","<img src = 'targets/mask.png' width = '100%;'>","68","neg","CS","CS","1","category1/CS2.png","","targets/40.png","indirect","0","15"
"","survey-html-form","187","571161","0.0-11.0","en3mrxlu2g","one_one","1","direct_first","1","er05nd10","0","23","1","1","3","1","","0","1","0","3382","","{}","","","","","","","","","","","",""
"","html-keyboard-response","188","574197","0.0-12.0-0.0","en3mrxlu2g","one_one","1","direct_first","1","er05nd10","0","23","1","1","3","1","","0","1","0","null","","","<div style=""font-size:60px;"">+</div>","null","","","","","","","","","",""
"","html-keyboard-response","189","574298","0.0-12.0-1.0","en3mrxlu2g","one_one","1","direct_first","1","er05nd10","0","23","1","1","3","1","","0","1","0","null","","","<img src = 'category1/GS1.png' width = '100%;'>","null","","","","","","","","","",""
"","html-keyboard-response","190","574578","0.0-12.0-2.0","en3mrxlu2g","one_one","1","direct_first","1","er05nd10","0","23","1","1","3","1","","0","1","0","null","","","<img src = 'targets/36.png' width = '100%;'>","null","","","","","","","","","",""
"","html-keyboard-response","191","575898","0.0-12.0-3.0","en3mrxlu2g","one_one","1","direct_first","1","er05nd10","0","23","1","1","3","1","","0","1","0","1319","","","<img src = 'targets/mask.png' width = '100%;'>","68","neg","GS","GSnew","1","category1/GS1.png","","targets/36.png","indirect","0","16"
"","html-keyboard-response","192","577437","0.0-12.0-0.1","en3mrxlu2g","one_one","1","direct_first","1","er05nd10","0","23","1","1","3","1","","0","1","0","null","","","<div style=""font-size:60px;"">+</div>","null","","","","","","","","","",""
"","html-keyboard-response","193","577537","0.0-12.0-1.1","en3mrxlu2g","one_one","1","direct_first","1","er05nd10","0","23","1","1","3","1","","0","1","0","null","","","<img src = 'category2/GS2.png' width = '100%;'>","null","","","","","","","","","",""
"","html-keyboard-response","194","577817","0.0-12.0-2.1","en3mrxlu2g","one_one","1","direct_first","1","er05nd10","0","23","1","1","3","1","","0","1","0","null","","","<img src = 'targets/33.png' width = '100%;'>","null","","","","","","","","","",""
"","html-keyboard-response","195","579764","0.0-12.0-3.1","en3mrxlu2g","one_one","1","direct_first","1","er05nd10","0","23","1","1","3","1","","0","1","0","1945","","","<img src = 'targets/mask.png' width = '100%;'>","68","neg","GS","GSnew","2","category2/GS2.png","","targets/33.png","indirect","0","17"
"","html-keyboard-response","196","581297","0.0-12.0-0.2","en3mrxlu2g","one_one","1","direct_first","1","er05nd10","0","23","1","1","3","1","","0","1","0","null","","","<div style=""font-size:60px;"">+</div>","null","","","","","","","","","",""
"","html-keyboard-response","197","581398","0.0-12.0-1.2","en3mrxlu2g","one_one","1","direct_first","1","er05nd10","0","23","1","1","3","1","","0","1","0","null","","","<img src = 'category4/GS1.png' width = '100%;'>","null","","","","","","","","","",""
"","html-keyboard-response","198","581678","0.0-12.0-2.2","en3mrxlu2g","one_one","1","direct_first","1","er05nd10","0","23","1","1","3","1","","0","1","0","null","","","<img src = 'targets/42.png' width = '100%;'>","null","","","","","","","","","",""
"","html-keyboard-response","199","582299","0.0-12.0-3.2","en3mrxlu2g","one_one","1","direct_first","1","er05nd10","0","23","1","1","3","1","","0","1","0","619","","","<img src = 'targets/mask.png' width = '100%;'>","75","pos","GS","GSnew","4","category4/GS1.png","","targets/42.png","indirect","1","18"
"","html-keyboard-response","200","583838","0.0-12.0-0.3","en3mrxlu2g","one_one","1","direct_first","1","er05nd10","0","23","1","1","3","1","","0","1","0","null","","","<div style=""font-size:60px;"">+</div>","null","","","","","","","","","",""
"","html-keyboard-response","201","583938","0.0-12.0-1.3","en3mrxlu2g","one_one","1","direct_first","1","er05nd10","0","23","1","1","3","1","","0","1","0","null","","","<img src = 'category3/GS1.png' width = '100%;'>","null","","","","","","","","","",""
"","html-keyboard-response","202","584218","0.0-12.0-2.3","en3mrxlu2g","one_one","1","direct_first","1","er05nd10","0","23","1","1","3","1","","0","1","0","null","","","<img src = 'targets/43.png' width = '100%;'>","null","","","","","","","","","",""
"","html-keyboard-response","203","584940","0.0-12.0-3.3","en3mrxlu2g","one_one","1","direct_first","1","er05nd10","0","23","1","1","3","1","","0","1","0","721","","","<img src = 'targets/mask.png' width = '100%;'>","75","pos","GS","GSnew","3","category3/GS1.png","","targets/43.png","indirect","1","19"
"","html-keyboard-response","204","586453","0.0-12.0-0.4","en3mrxlu2g","one_one","1","direct_first","1","er05nd10","0","23","1","1","3","1","","0","1","0","null","","","<div style=""font-size:60px;"">+</div>","null","","","","","","","","","",""
"","html-keyboard-response","205","586555","0.0-12.0-1.4","en3mrxlu2g","one_one","1","direct_first","1","er05nd10","0","23","1","1","3","1","","0","1","0","null","","","<img src = 'category2/GS3.png' width = '100%;'>","null","","","","","","","","","",""
"","html-keyboard-response","206","586837","0.0-12.0-2.4","en3mrxlu2g","one_one","1","direct_first","1","er05nd10","0","23","1","1","3","1","","0","1","0","null","","","<img src = 'targets/18.png' width = '100%;'>","null","","","","","","","","","",""
"","html-keyboard-response","207","590414","0.0-12.0-3.4","en3mrxlu2g","one_one","1","direct_first","1","er05nd10","0","23","1","1","3","1","","0","1","0","3576","","","<img src = 'targets/mask.png' width = '100%;'>","75","neg","GS","GSnew","2","category2/GS3.png","","targets/18.png","indirect","1","20"
"","html-keyboard-response","208","591938","0.0-12.0-0.5","en3mrxlu2g","one_one","1","direct_first","1","er05nd10","0","23","1","1","3","1","","0","1","0","null","","","<div style=""font-size:60px;"">+</div>","null","","","","","","","","","",""
"","html-keyboard-response","209","592038","0.0-12.0-1.5","en3mrxlu2g","one_one","1","direct_first","1","er05nd10","0","23","1","1","3","1","","0","1","0","null","","","<img src = 'category2/GS1.png' width = '100%;'>","null","","","","","","","","","",""
"","html-keyboard-response","210","592317","0.0-12.0-2.5","en3mrxlu2g","one_one","1","direct_first","1","er05nd10","0","23","1","1","3","1","","0","1","0","null","","","<img src = 'targets/8.png' width = '100%;'>","null","","","","","","","","","",""
"","html-keyboard-response","211","595984","0.0-12.0-3.5","en3mrxlu2g","one_one","1","direct_first","1","er05nd10","0","23","1","1","3","1","","0","1","0","3664","","","<img src = 'targets/mask.png' width = '100%;'>","68","neg","GS","GSnew","2","category2/GS1.png","","targets/8.png","indirect","0","21"
"","html-keyboard-response","212","597498","0.0-12.0-0.6","en3mrxlu2g","one_one","1","direct_first","1","er05nd10","0","23","1","1","3","1","","0","1","0","null","","","<div style=""font-size:60px;"">+</div>","null","","","","","","","","","",""
"","html-keyboard-response","213","597598","0.0-12.0-1.6","en3mrxlu2g","one_one","1","direct_first","1","er05nd10","0","23","1","1","3","1","","0","1","0","null","","","<img src = 'category4/GS2.png' width = '100%;'>","null","","","","","","","","","",""
"","html-keyboard-response","214","597878","0.0-12.0-2.6","en3mrxlu2g","one_one","1","direct_first","1","er05nd10","0","23","1","1","3","1","","0","1","0","null","","","<img src = 'targets/25.png' width = '100%;'>","null","","","","","","","","","",""
"","html-keyboard-response","215","598618","0.0-12.0-3.6","en3mrxlu2g","one_one","1","direct_first","1","er05nd10","0","23","1","1","3","1","","0","1","0","740","","","<img src = 'targets/mask.png' width = '100%;'>","75","pos","GS","GSnew","4","category4/GS2.png","","targets/25.png","indirect","1","22"
"","html-keyboard-response","216","600157","0.0-12.0-0.7","en3mrxlu2g","one_one","1","direct_first","1","er05nd10","0","23","1","1","3","1","","0","1","0","null","","","<div style=""font-size:60px;"">+</div>","null","","","","","","","","","",""
"","html-keyboard-response","217","600258","0.0-12.0-1.7","en3mrxlu2g","one_one","1","direct_first","1","er05nd10","0","23","1","1","3","1","","0","1","0","null","","","<img src = 'category1/GS2.png' width = '100%;'>","null","","","","","","","","","",""
"","html-keyboard-response","218","600537","0.0-12.0-2.7","en3mrxlu2g","one_one","1","direct_first","1","er05nd10","0","23","1","1","3","1","","0","1","0","null","","","<img src = 'targets/9.png' width = '100%;'>","null","","","","","","","","","",""
"","html-keyboard-response","219","601251","0.0-12.0-3.7","en3mrxlu2g","one_one","1","direct_first","1","er05nd10","0","23","1","1","3","1","","0","1","0","712","","","<img src = 'targets/mask.png' width = '100%;'>","68","neg","GS","GSnew","1","category1/GS2.png","","targets/9.png","indirect","0","23"
"","html-keyboard-response","220","602757","0.0-12.0-0.8","en3mrxlu2g","one_one","1","direct_first","1","er05nd10","0","23","1","1","3","1","","0","1","0","null","","","<div style=""font-size:60px;"">+</div>","null","","","","","","","","","",""
"","html-keyboard-response","221","602858","0.0-12.0-1.8","en3mrxlu2g","one_one","1","direct_first","1","er05nd10","0","23","1","1","3","1","","0","1","0","null","","","<img src = 'category4/lin.png' width = '100%;'>","null","","","","","","","","","",""
"","html-keyboard-response","222","603137","0.0-12.0-2.8","en3mrxlu2g","one_one","1","direct_first","1","er05nd10","0","23","1","1","3","1","","0","1","0","null","","","<img src = 'targets/30.png' width = '100%;'>","null","","","","","","","","","",""
"","html-keyboard-response","223","605963","0.0-12.0-3.8","en3mrxlu2g","one_one","1","direct_first","1","er05nd10","0","23","1","1","3","1","","0","1","0","2823","","","<img src = 'targets/mask.png' width = '100%;'>","75","pos","GS","abstract","4","category4/lin.png","","targets/30.png","indirect","1","24"
"","html-keyboard-response","224","607498","0.0-12.0-0.9","en3mrxlu2g","one_one","1","direct_first","1","er05nd10","0","23","1","1","3","1","","0","1","0","null","","","<div style=""font-size:60px;"">+</div>","null","","","","","","","","","",""
"","html-keyboard-response","225","607598","0.0-12.0-1.9","en3mrxlu2g","one_one","1","direct_first","1","er05nd10","0","23","1","1","3","1","","0","1","0","null","","","<img src = 'category4/GS3.png' width = '100%;'>","null","","","","","","","","","",""
"","html-keyboard-response","226","607877","0.0-12.0-2.9","en3mrxlu2g","one_one","1","direct_first","1","er05nd10","0","23","1","1","3","1","","0","1","0","null","","","<img src = 'targets/34.png' width = '100%;'>","null","","","","","","","","","",""
"","html-keyboard-response","227","608431","0.0-12.0-3.9","en3mrxlu2g","one_one","1","direct_first","1","er05nd10","0","23","1","1","3","1","","0","1","0","553","","","<img src = 'targets/mask.png' width = '100%;'>","75","pos","GS","GSnew","4","category4/GS3.png","","targets/34.png","indirect","1","25"
"","html-keyboard-response","228","609938","0.0-12.0-0.10","en3mrxlu2g","one_one","1","direct_first","1","er05nd10","0","23","1","1","3","1","","0","1","0","null","","","<div style=""font-size:60px;"">+</div>","null","","","","","","","","","",""
"","html-keyboard-response","229","610038","0.0-12.0-1.10","en3mrxlu2g","one_one","1","direct_first","1","er05nd10","0","23","1","1","3","1","","0","1","0","null","","","<img src = 'category3/GS2.png' width = '100%;'>","null","","","","","","","","","",""
"","html-keyboard-response","230","610318","0.0-12.0-2.10","en3mrxlu2g","one_one","1","direct_first","1","er05nd10","0","23","1","1","3","1","","0","1","0","null","","","<img src = 'targets/45.png' width = '100%;'>","null","","","","","","","","","",""
"","html-keyboard-response","231","610751","0.0-12.0-3.10","en3mrxlu2g","one_one","1","direct_first","1","er05nd10","0","23","1","1","3","1","","0","1","0","433","","","<img src = 'targets/mask.png' width = '100%;'>","75","pos","GS","GSnew","3","category3/GS2.png","","targets/45.png","indirect","1","26"
"","html-keyboard-response","232","612278","0.0-12.0-0.11","en3mrxlu2g","one_one","1","direct_first","1","er05nd10","0","23","1","1","3","1","","0","1","0","null","","","<div style=""font-size:60px;"">+</div>","null","","","","","","","","","",""
"","html-keyboard-response","233","612378","0.0-12.0-1.11","en3mrxlu2g","one_one","1","direct_first","1","er05nd10","0","23","1","1","3","1","","0","1","0","null","","","<img src = 'category1/GS3.png' width = '100%;'>","null","","","","","","","","","",""
"","html-keyboard-response","234","612657","0.0-12.0-2.11","en3mrxlu2g","one_one","1","direct_first","1","er05nd10","0","23","1","1","3","1","","0","1","0","null","","","<img src = 'targets/28.png' width = '100%;'>","null","","","","","","","","","",""
"","html-keyboard-response","235","613234","0.0-12.0-3.11","en3mrxlu2g","one_one","1","direct_first","1","er05nd10","0","23","1","1","3","1","","0","1","0","576","","","<img src = 'targets/mask.png' width = '100%;'>","68","neg","GS","GSnew","1","category1/GS3.png","","targets/28.png","indirect","0","27"
"","html-keyboard-response","236","614737","0.0-12.0-0.12","en3mrxlu2g","one_one","1","direct_first","1","er05nd10","0","23","1","1","3","1","","0","1","0","null","","","<div style=""font-size:60px;"">+</div>","null","","","","","","","","","",""
"","html-keyboard-response","237","614838","0.0-12.0-1.12","en3mrxlu2g","one_one","1","direct_first","1","er05nd10","0","23","1","1","3","1","","0","1","0","null","","","<img src = 'category3/GS3.png' width = '100%;'>","null","","","","","","","","","",""
"","html-keyboard-response","238","615118","0.0-12.0-2.12","en3mrxlu2g","one_one","1","direct_first","1","er05nd10","0","23","1","1","3","1","","0","1","0","null","","","<img src = 'targets/29.png' width = '100%;'>","null","","","","","","","","","",""
"","html-keyboard-response","239","615885","0.0-12.0-3.12","en3mrxlu2g","one_one","1","direct_first","1","er05nd10","0","23","1","1","3","1","","0","1","0","766","","","<img src = 'targets/mask.png' width = '100%;'>","75","pos","GS","GSnew","3","category3/GS3.png","","targets/29.png","indirect","1","28"
"","html-keyboard-response","240","617398","0.0-12.0-0.13","en3mrxlu2g","one_one","1","direct_first","1","er05nd10","0","23","1","1","3","1","","0","1","0","null","","","<div style=""font-size:60px;"">+</div>","null","","","","","","","","","",""
"","html-keyboard-response","241","617498","0.0-12.0-1.13","en3mrxlu2g","one_one","1","direct_first","1","er05nd10","0","23","1","1","3","1","","0","1","0","null","","","<img src = 'category2/men.png' width = '100%;'>","null","","","","","","","","","",""
"","html-keyboard-response","242","617777","0.0-12.0-2.13","en3mrxlu2g","one_one","1","direct_first","1","er05nd10","0","23","1","1","3","1","","0","1","0","null","","","<img src = 'targets/7.png' width = '100%;'>","null","","","","","","","","","",""
"","html-keyboard-response","243","618452","0.0-12.0-3.13","en3mrxlu2g","one_one","1","direct_first","1","er05nd10","0","23","1","1","3","1","","0","1","0","673","","","<img src = 'targets/mask.png' width = '100%;'>","68","neg","GS","abstract","2","category2/men.png","","targets/7.png","indirect","0","29"
"","html-keyboard-response","244","619978","0.0-12.0-0.14","en3mrxlu2g","one_one","1","direct_first","1","er05nd10","0","23","1","1","3","1","","0","1","0","null","","","<div style=""font-size:60px;"">+</div>","null","","","","","","","","","",""
"","html-keyboard-response","245","620078","0.0-12.0-1.14","en3mrxlu2g","one_one","1","direct_first","1","er05nd10","0","23","1","1","3","1","","0","1","0","null","","","<img src = 'category3/wang.png' width = '100%;'>","null","","","","","","","","","",""
"","html-keyboard-response","246","620357","0.0-12.0-2.14","en3mrxlu2g","one_one","1","direct_first","1","er05nd10","0","23","1","1","3","1","","0","1","0","null","","","<img src = 'targets/6.png' width = '100%;'>","null","","","","","","","","","",""
"","html-keyboard-response","247","620741","0.0-12.0-3.14","en3mrxlu2g","one_one","1","direct_first","1","er05nd10","0","23","1","1","3","1","","0","1","0","381","","","<img src = 'targets/mask.png' width = '100%;'>","75","pos","GS","abstract","3","category3/wang.png","","targets/6.png","indirect","1","30"
"","html-keyboard-response","248","622258","0.0-12.0-0.15","en3mrxlu2g","one_one","1","direct_first","1","er05nd10","0","23","1","1","3","1","","0","1","0","null","","","<div style=""font-size:60px;"">+</div>","null","","","","","","","","","",""
"","html-keyboard-response","249","622357","0.0-12.0-1.15","en3mrxlu2g","one_one","1","direct_first","1","er05nd10","0","23","1","1","3","1","","0","1","0","null","","","<img src = 'category1/ma.png' width = '100%;'>","null","","","","","","","","","",""
"","html-keyboard-response","250","622637","0.0-12.0-2.15","en3mrxlu2g","one_one","1","direct_first","1","er05nd10","0","23","1","1","3","1","","0","1","0","null","","","<img src = 'targets/41.png' width = '100%;'>","null","","","","","","","","","",""
"","html-keyboard-response","251","623165","0.0-12.0-3.15","en3mrxlu2g","one_one","1","direct_first","1","er05nd10","0","23","1","1","3","1","","0","1","0","527","","","<img src = 'targets/mask.png' width = '100%;'>","68","neg","GS","abstract","1","category1/ma.png","","targets/41.png","indirect","0","31"
"","survey-html-form","252","629068","0.0-13.0","en3mrxlu2g","one_one","1","direct_first","1","er05nd10","0","23","1","1","3","1","","0","1","0","5389","","{}","","","","","","","","","","","",""
"","image-slider-response","253","637751","0.0-14.0-0.0","en3mrxlu2g","one_one","1","direct_first","1","er05nd10","0","23","1","1","3","1","","0","1","0","7671","","","","","neg","All","all","2","category2/men_all.png","-22","","all","",""
"","image-slider-response","254","643838","0.0-14.0-0.1","en3mrxlu2g","one_one","1","direct_first","1","er05nd10","0","23","1","1","3","1","","0","1","0","6084","","","","","neg","All","all","1","category1/ma_all.png","-36","","all","",""
"","image-slider-response","255","649576","0.0-14.0-0.2","en3mrxlu2g","one_one","1","direct_first","1","er05nd10","0","23","1","1","3","1","","0","1","0","5735","","","","","pos","All","all","4","category4/lin_all.png","33","","all","",""
"","image-slider-response","256","654464","0.0-14.0-0.3","en3mrxlu2g","one_one","1","direct_first","1","er05nd10","0","23","1","1","3","1","","0","1","0","4887","","","","","pos","All","all","3","category3/wang_all.png","34","","all","",""
"","survey-text","257","658027","0.0-15.0","en3mrxlu2g","one_one","1","direct_first","1","er05nd10","0","23","1","1","3","1","","0","1","0","3559","","{""comment"":""""}","","","","","","","","","","","",""
"","survey-html-form","258","673233","0.0-16.0","en3mrxlu2g","one_one","1","direct_first","1","er05nd10","0","23","1","1","3","1","","0","1","0","15204","","{""hinschauen"":""0"",""ablenkung"":""1"",""gewissenhaft"":""0""}","","","","","","","","","","","",""
