"success","trial_type","trial_index","time_elapsed","internal_node_id","subject","condition","condition_code","measure","measure_code","codeword","gender","age","education","chinese","fach","handedness","comment","hinschauen","ablenkung","gewissenhaft","rt","url","responses","stimulus","key_press","val","type","type_specific","category","cs_selected","response","target","task","indirect","nr_pres"
"true","fullscreen","0","3288","0.0-0.0","j2p3llg9ob","one_one","1","direct_first","1","en06im21","0","21","1","1","3","1","","0","1","0","","","","","","","","","","","","","","",""
"","external-html","1","25627","0.0-1.0","j2p3llg9ob","one_one","1","direct_first","1","en06im21","0","21","1","1","3","1","","0","1","0","22302","text/information.html","","","","","","","","","","","","",""
"","external-html","2","45331","0.0-2.0","j2p3llg9ob","one_one","1","direct_first","1","en06im21","0","21","1","1","3","1","","0","1","0","19654","text/consent.html","","","","","","","","","","","","",""
"","survey-html-form","3","91608","0.0-3.0","j2p3llg9ob","one_one","1","direct_first","1","en06im21","0","21","1","1","3","1","","0","1","0","46276","","{""codeword_enter"":""en06im21""}","","","","","","","","","","","",""
"","survey-html-form","4","111703","0.0-4.0","j2p3llg9ob","one_one","1","direct_first","1","en06im21","0","21","1","1","3","1","","0","1","0","20093","","{""age"":""21"",""education"":""1"",""subject"":""3"",""gender"":""0"",""handedness"":""1"",""chinese"":""1""}","","","","","","","","","","","",""
"","survey-html-form","5","112942","0.0-5.0","j2p3llg9ob","one_one","1","direct_first","1","en06im21","0","21","1","1","3","1","","0","1","0","1237.0000000000146","","{}","","","","","","","","","","","",""
"","html-keyboard-response","6","116948","0.0-6.0-0.0-0.0","j2p3llg9ob","one_one","1","direct_first","1","en06im21","0","21","1","1","3","1","","0","1","0","null","","","<div class = 'row'><div class = 'column'><img src = 'category1/CS9.png' width = '70%;'></div><div class = 'column'><img src = 'usneg/2141.bmp' width = '100%;'></div></div>","null","neg","CS","CS","1","category1/CS9.png","","","","",""
"","html-keyboard-response","7","119453","0.0-6.0-0.0-0.1","j2p3llg9ob","one_one","1","direct_first","1","en06im21","0","21","1","1","3","1","","0","1","0","null","","","<div class = 'row'><div class = 'column'><img src = 'category2/CS6.png' width = '70%;'></div><div class = 'column'><img src = 'uspos/2360.bmp' width = '100%;'></div></div>","null","pos","CS","CS","2","category2/CS6.png","","","","",""
"","html-keyboard-response","8","121958","0.0-6.0-0.0-0.2","j2p3llg9ob","one_one","1","direct_first","1","en06im21","0","21","1","1","3","1","","0","1","0","null","","","<div class = 'row'><div class = 'column'><img src = 'usneg/9415.bmp' width = '100%;'></div><div class = 'column'><img src = 'category4/CS5.png' width = '70%;'></div></div>","null","neg","CS","CS","4","category4/CS5.png","","","","",""
"","html-keyboard-response","9","124463","0.0-6.0-0.0-0.3","j2p3llg9ob","one_one","1","direct_first","1","en06im21","0","21","1","1","3","1","","0","1","0","null","","","<div class = 'row'><div class = 'column'><img src = 'category2/CS6.png' width = '70%;'></div><div class = 'column'><img src = 'uspos/2360.bmp' width = '100%;'></div></div>","null","pos","CS","CS","2","category2/CS6.png","","","","",""
"","html-keyboard-response","10","126968","0.0-6.0-0.0-0.4","j2p3llg9ob","one_one","1","direct_first","1","en06im21","0","21","1","1","3","1","","0","1","0","null","","","<div class = 'row'><div class = 'column'><img src = 'usneg/9415.bmp' width = '100%;'></div><div class = 'column'><img src = 'category4/CS5.png' width = '70%;'></div></div>","null","neg","CS","CS","4","category4/CS5.png","","","","",""
"","html-keyboard-response","11","129472","0.0-6.0-0.0-0.5","j2p3llg9ob","one_one","1","direct_first","1","en06im21","0","21","1","1","3","1","","0","1","0","null","","","<div class = 'row'><div class = 'column'><img src = 'uspos/2360.bmp' width = '100%;'></div><div class = 'column'><img src = 'category2/CS6.png' width = '70%;'></div></div>","null","pos","CS","CS","2","category2/CS6.png","","","","",""
"","html-keyboard-response","12","131977","0.0-6.0-0.0-0.6","j2p3llg9ob","one_one","1","direct_first","1","en06im21","0","21","1","1","3","1","","0","1","0","null","","","<div class = 'row'><div class = 'column'><img src = 'usneg/9415.bmp' width = '100%;'></div><div class = 'column'><img src = 'category4/CS5.png' width = '70%;'></div></div>","null","neg","CS","CS","4","category4/CS5.png","","","","",""
"","html-keyboard-response","13","134482","0.0-6.0-0.0-0.7","j2p3llg9ob","one_one","1","direct_first","1","en06im21","0","21","1","1","3","1","","0","1","0","null","","","<div class = 'row'><div class = 'column'><img src = 'uspos/8350.bmp' width = '100%;'></div><div class = 'column'><img src = 'category3/CS4.png' width = '70%;'></div></div>","null","pos","CS","CS","3","category3/CS4.png","","","","",""
"","html-keyboard-response","14","136986","0.0-6.0-0.0-0.8","j2p3llg9ob","one_one","1","direct_first","1","en06im21","0","21","1","1","3","1","","0","1","0","null","","","<div class = 'row'><div class = 'column'><img src = 'category1/CS9.png' width = '70%;'></div><div class = 'column'><img src = 'usneg/2141.bmp' width = '100%;'></div></div>","null","neg","CS","CS","1","category1/CS9.png","","","","",""
"","html-keyboard-response","15","139491","0.0-6.0-0.0-0.9","j2p3llg9ob","one_one","1","direct_first","1","en06im21","0","21","1","1","3","1","","0","1","0","null","","","<div class = 'row'><div class = 'column'><img src = 'usneg/9415.bmp' width = '100%;'></div><div class = 'column'><img src = 'category4/CS5.png' width = '70%;'></div></div>","null","neg","CS","CS","4","category4/CS5.png","","","","",""
"","html-keyboard-response","16","141996","0.0-6.0-0.0-0.10","j2p3llg9ob","one_one","1","direct_first","1","en06im21","0","21","1","1","3","1","","0","1","0","null","","","<div class = 'row'><div class = 'column'><img src = 'uspos/2360.bmp' width = '100%;'></div><div class = 'column'><img src = 'category2/CS6.png' width = '70%;'></div></div>","null","pos","CS","CS","2","category2/CS6.png","","","","",""
"","html-keyboard-response","17","144501","0.0-6.0-0.0-0.11","j2p3llg9ob","one_one","1","direct_first","1","en06im21","0","21","1","1","3","1","","0","1","0","null","","","<div class = 'row'><div class = 'column'><img src = 'usneg/2141.bmp' width = '100%;'></div><div class = 'column'><img src = 'category1/CS9.png' width = '70%;'></div></div>","null","neg","CS","CS","1","category1/CS9.png","","","","",""
"","html-keyboard-response","18","147006","0.0-6.0-0.0-0.12","j2p3llg9ob","one_one","1","direct_first","1","en06im21","0","21","1","1","3","1","","0","1","0","null","","","<div class = 'row'><div class = 'column'><img src = 'category3/CS4.png' width = '70%;'></div><div class = 'column'><img src = 'uspos/8350.bmp' width = '100%;'></div></div>","null","pos","CS","CS","3","category3/CS4.png","","","","",""
"","html-keyboard-response","19","149511","0.0-6.0-0.0-0.13","j2p3llg9ob","one_one","1","direct_first","1","en06im21","0","21","1","1","3","1","","0","1","0","null","","","<div class = 'row'><div class = 'column'><img src = 'category1/CS9.png' width = '70%;'></div><div class = 'column'><img src = 'usneg/2141.bmp' width = '100%;'></div></div>","null","neg","CS","CS","1","category1/CS9.png","","","","",""
"","html-keyboard-response","20","152016","0.0-6.0-0.0-0.14","j2p3llg9ob","one_one","1","direct_first","1","en06im21","0","21","1","1","3","1","","0","1","0","null","","","<div class = 'row'><div class = 'column'><img src = 'uspos/8350.bmp' width = '100%;'></div><div class = 'column'><img src = 'category3/CS4.png' width = '70%;'></div></div>","null","pos","CS","CS","3","category3/CS4.png","","","","",""
"","html-keyboard-response","21","154521","0.0-6.0-0.0-0.15","j2p3llg9ob","one_one","1","direct_first","1","en06im21","0","21","1","1","3","1","","0","1","0","null","","","<div class = 'row'><div class = 'column'><img src = 'category2/CS6.png' width = '70%;'></div><div class = 'column'><img src = 'uspos/2360.bmp' width = '100%;'></div></div>","null","pos","CS","CS","2","category2/CS6.png","","","","",""
"","html-keyboard-response","22","157026","0.0-6.0-0.0-0.16","j2p3llg9ob","one_one","1","direct_first","1","en06im21","0","21","1","1","3","1","","0","1","0","null","","","<div class = 'row'><div class = 'column'><img src = 'category3/CS4.png' width = '70%;'></div><div class = 'column'><img src = 'uspos/8350.bmp' width = '100%;'></div></div>","null","pos","CS","CS","3","category3/CS4.png","","","","",""
"","html-keyboard-response","23","159531","0.0-6.0-0.0-0.17","j2p3llg9ob","one_one","1","direct_first","1","en06im21","0","21","1","1","3","1","","0","1","0","null","","","<div class = 'row'><div class = 'column'><img src = 'usneg/2141.bmp' width = '100%;'></div><div class = 'column'><img src = 'category1/CS9.png' width = '70%;'></div></div>","null","neg","CS","CS","1","category1/CS9.png","","","","",""
"","html-keyboard-response","24","162036","0.0-6.0-0.0-0.18","j2p3llg9ob","one_one","1","direct_first","1","en06im21","0","21","1","1","3","1","","0","1","0","null","","","<div class = 'row'><div class = 'column'><img src = 'usneg/9415.bmp' width = '100%;'></div><div class = 'column'><img src = 'category4/CS5.png' width = '70%;'></div></div>","null","neg","CS","CS","4","category4/CS5.png","","","","",""
"","html-keyboard-response","25","164538","0.0-6.0-0.0-0.19","j2p3llg9ob","one_one","1","direct_first","1","en06im21","0","21","1","1","3","1","","0","1","0","null","","","<div class = 'row'><div class = 'column'><img src = 'category3/CS4.png' width = '70%;'></div><div class = 'column'><img src = 'uspos/8350.bmp' width = '100%;'></div></div>","null","pos","CS","CS","3","category3/CS4.png","","","","",""
"","survey-html-form","26","167420","0.0-6.0-1.0","j2p3llg9ob","one_one","1","direct_first","1","en06im21","0","21","1","1","3","1","","0","1","0","2376.000000000029","","{}","","","","","","","","","","","",""
"","html-keyboard-response","27","171424","0.0-6.0-2.0-0.0","j2p3llg9ob","one_one","1","direct_first","1","en06im21","0","21","1","1","3","1","","0","1","0","null","","","<div class = 'row'><div class = 'column'><img src = 'uspos/2360.bmp' width = '100%;'></div><div class = 'column'><img src = 'category2/CS6.png' width = '70%;'></div></div>","null","pos","CS","CS","2","category2/CS6.png","","","","",""
"","html-keyboard-response","28","173928","0.0-6.0-2.0-0.1","j2p3llg9ob","one_one","1","direct_first","1","en06im21","0","21","1","1","3","1","","0","1","0","null","","","<div class = 'row'><div class = 'column'><img src = 'category3/CS4.png' width = '70%;'></div><div class = 'column'><img src = 'uspos/8350.bmp' width = '100%;'></div></div>","null","pos","CS","CS","3","category3/CS4.png","","","","",""
"","html-keyboard-response","29","176433","0.0-6.0-2.0-0.2","j2p3llg9ob","one_one","1","direct_first","1","en06im21","0","21","1","1","3","1","","0","1","0","null","","","<div class = 'row'><div class = 'column'><img src = 'category2/CS6.png' width = '70%;'></div><div class = 'column'><img src = 'uspos/2360.bmp' width = '100%;'></div></div>","null","pos","CS","CS","2","category2/CS6.png","","","","",""
"","html-keyboard-response","30","178938","0.0-6.0-2.0-0.3","j2p3llg9ob","one_one","1","direct_first","1","en06im21","0","21","1","1","3","1","","0","1","0","null","","","<div class = 'row'><div class = 'column'><img src = 'usneg/9415.bmp' width = '100%;'></div><div class = 'column'><img src = 'category4/CS5.png' width = '70%;'></div></div>","null","neg","CS","CS","4","category4/CS5.png","","","","",""
"","html-keyboard-response","31","181443","0.0-6.0-2.0-0.4","j2p3llg9ob","one_one","1","direct_first","1","en06im21","0","21","1","1","3","1","","0","1","0","null","","","<div class = 'row'><div class = 'column'><img src = 'category3/CS4.png' width = '70%;'></div><div class = 'column'><img src = 'uspos/8350.bmp' width = '100%;'></div></div>","null","pos","CS","CS","3","category3/CS4.png","","","","",""
"","html-keyboard-response","32","183948","0.0-6.0-2.0-0.5","j2p3llg9ob","one_one","1","direct_first","1","en06im21","0","21","1","1","3","1","","0","1","0","null","","","<div class = 'row'><div class = 'column'><img src = 'category4/CS5.png' width = '70%;'></div><div class = 'column'><img src = 'usneg/9415.bmp' width = '100%;'></div></div>","null","neg","CS","CS","4","category4/CS5.png","","","","",""
"","html-keyboard-response","33","186453","0.0-6.0-2.0-0.6","j2p3llg9ob","one_one","1","direct_first","1","en06im21","0","21","1","1","3","1","","0","1","0","null","","","<div class = 'row'><div class = 'column'><img src = 'category2/CS6.png' width = '70%;'></div><div class = 'column'><img src = 'uspos/2360.bmp' width = '100%;'></div></div>","null","pos","CS","CS","2","category2/CS6.png","","","","",""
"","html-keyboard-response","34","188957","0.0-6.0-2.0-0.7","j2p3llg9ob","one_one","1","direct_first","1","en06im21","0","21","1","1","3","1","","0","1","0","null","","","<div class = 'row'><div class = 'column'><img src = 'category4/CS5.png' width = '70%;'></div><div class = 'column'><img src = 'usneg/9415.bmp' width = '100%;'></div></div>","null","neg","CS","CS","4","category4/CS5.png","","","","",""
"","html-keyboard-response","35","191461","0.0-6.0-2.0-0.8","j2p3llg9ob","one_one","1","direct_first","1","en06im21","0","21","1","1","3","1","","0","1","0","null","","","<div class = 'row'><div class = 'column'><img src = 'usneg/2141.bmp' width = '100%;'></div><div class = 'column'><img src = 'category1/CS9.png' width = '70%;'></div></div>","null","neg","CS","CS","1","category1/CS9.png","","","","",""
"","html-keyboard-response","36","193966","0.0-6.0-2.0-0.9","j2p3llg9ob","one_one","1","direct_first","1","en06im21","0","21","1","1","3","1","","0","1","0","null","","","<div class = 'row'><div class = 'column'><img src = 'usneg/9415.bmp' width = '100%;'></div><div class = 'column'><img src = 'category4/CS5.png' width = '70%;'></div></div>","null","neg","CS","CS","4","category4/CS5.png","","","","",""
"","html-keyboard-response","37","196471","0.0-6.0-2.0-0.10","j2p3llg9ob","one_one","1","direct_first","1","en06im21","0","21","1","1","3","1","","0","1","0","null","","","<div class = 'row'><div class = 'column'><img src = 'usneg/2141.bmp' width = '100%;'></div><div class = 'column'><img src = 'category1/CS9.png' width = '70%;'></div></div>","null","neg","CS","CS","1","category1/CS9.png","","","","",""
"","html-keyboard-response","38","198976","0.0-6.0-2.0-0.11","j2p3llg9ob","one_one","1","direct_first","1","en06im21","0","21","1","1","3","1","","0","1","0","null","","","<div class = 'row'><div class = 'column'><img src = 'uspos/2360.bmp' width = '100%;'></div><div class = 'column'><img src = 'category2/CS6.png' width = '70%;'></div></div>","null","pos","CS","CS","2","category2/CS6.png","","","","",""
"","html-keyboard-response","39","201480","0.0-6.0-2.0-0.12","j2p3llg9ob","one_one","1","direct_first","1","en06im21","0","21","1","1","3","1","","0","1","0","null","","","<div class = 'row'><div class = 'column'><img src = 'category3/CS4.png' width = '70%;'></div><div class = 'column'><img src = 'uspos/8350.bmp' width = '100%;'></div></div>","null","pos","CS","CS","3","category3/CS4.png","","","","",""
"","html-keyboard-response","40","203985","0.0-6.0-2.0-0.13","j2p3llg9ob","one_one","1","direct_first","1","en06im21","0","21","1","1","3","1","","0","1","0","null","","","<div class = 'row'><div class = 'column'><img src = 'usneg/2141.bmp' width = '100%;'></div><div class = 'column'><img src = 'category1/CS9.png' width = '70%;'></div></div>","null","neg","CS","CS","1","category1/CS9.png","","","","",""
"","html-keyboard-response","41","206490","0.0-6.0-2.0-0.14","j2p3llg9ob","one_one","1","direct_first","1","en06im21","0","21","1","1","3","1","","0","1","0","null","","","<div class = 'row'><div class = 'column'><img src = 'category3/CS4.png' width = '70%;'></div><div class = 'column'><img src = 'uspos/8350.bmp' width = '100%;'></div></div>","null","pos","CS","CS","3","category3/CS4.png","","","","",""
"","html-keyboard-response","42","208995","0.0-6.0-2.0-0.15","j2p3llg9ob","one_one","1","direct_first","1","en06im21","0","21","1","1","3","1","","0","1","0","null","","","<div class = 'row'><div class = 'column'><img src = 'category4/CS5.png' width = '70%;'></div><div class = 'column'><img src = 'usneg/9415.bmp' width = '100%;'></div></div>","null","neg","CS","CS","4","category4/CS5.png","","","","",""
"","html-keyboard-response","43","211500","0.0-6.0-2.0-0.16","j2p3llg9ob","one_one","1","direct_first","1","en06im21","0","21","1","1","3","1","","0","1","0","null","","","<div class = 'row'><div class = 'column'><img src = 'category1/CS9.png' width = '70%;'></div><div class = 'column'><img src = 'usneg/2141.bmp' width = '100%;'></div></div>","null","neg","CS","CS","1","category1/CS9.png","","","","",""
"","html-keyboard-response","44","214005","0.0-6.0-2.0-0.17","j2p3llg9ob","one_one","1","direct_first","1","en06im21","0","21","1","1","3","1","","0","1","0","null","","","<div class = 'row'><div class = 'column'><img src = 'uspos/8350.bmp' width = '100%;'></div><div class = 'column'><img src = 'category3/CS4.png' width = '70%;'></div></div>","null","pos","CS","CS","3","category3/CS4.png","","","","",""
"","html-keyboard-response","45","216510","0.0-6.0-2.0-0.18","j2p3llg9ob","one_one","1","direct_first","1","en06im21","0","21","1","1","3","1","","0","1","0","null","","","<div class = 'row'><div class = 'column'><img src = 'uspos/2360.bmp' width = '100%;'></div><div class = 'column'><img src = 'category2/CS6.png' width = '70%;'></div></div>","null","pos","CS","CS","2","category2/CS6.png","","","","",""
"","html-keyboard-response","46","219014","0.0-6.0-2.0-0.19","j2p3llg9ob","one_one","1","direct_first","1","en06im21","0","21","1","1","3","1","","0","1","0","null","","","<div class = 'row'><div class = 'column'><img src = 'category1/CS9.png' width = '70%;'></div><div class = 'column'><img src = 'usneg/2141.bmp' width = '100%;'></div></div>","null","neg","CS","CS","1","category1/CS9.png","","","","",""
"","survey-html-form","47","251363","0.0-6.0-3.0","j2p3llg9ob","one_one","1","direct_first","1","en06im21","0","21","1","1","3","1","","0","1","0","31846","","{}","","","","","","","","","","","",""
"","html-keyboard-response","48","255366","0.0-6.0-4.0-0.0","j2p3llg9ob","one_one","1","direct_first","1","en06im21","0","21","1","1","3","1","","0","1","0","null","","","<div class = 'row'><div class = 'column'><img src = 'category4/CS5.png' width = '70%;'></div><div class = 'column'><img src = 'usneg/9415.bmp' width = '100%;'></div></div>","null","neg","CS","CS","4","category4/CS5.png","","","","",""
"","html-keyboard-response","49","257871","0.0-6.0-4.0-0.1","j2p3llg9ob","one_one","1","direct_first","1","en06im21","0","21","1","1","3","1","","0","1","0","null","","","<div class = 'row'><div class = 'column'><img src = 'uspos/2360.bmp' width = '100%;'></div><div class = 'column'><img src = 'category2/CS6.png' width = '70%;'></div></div>","null","pos","CS","CS","2","category2/CS6.png","","","","",""
"","html-keyboard-response","50","260376","0.0-6.0-4.0-0.2","j2p3llg9ob","one_one","1","direct_first","1","en06im21","0","21","1","1","3","1","","0","1","0","null","","","<div class = 'row'><div class = 'column'><img src = 'category4/CS5.png' width = '70%;'></div><div class = 'column'><img src = 'usneg/9415.bmp' width = '100%;'></div></div>","null","neg","CS","CS","4","category4/CS5.png","","","","",""
"","html-keyboard-response","51","262881","0.0-6.0-4.0-0.3","j2p3llg9ob","one_one","1","direct_first","1","en06im21","0","21","1","1","3","1","","0","1","0","null","","","<div class = 'row'><div class = 'column'><img src = 'category3/CS4.png' width = '70%;'></div><div class = 'column'><img src = 'uspos/8350.bmp' width = '100%;'></div></div>","null","pos","CS","CS","3","category3/CS4.png","","","","",""
"","html-keyboard-response","52","265386","0.0-6.0-4.0-0.4","j2p3llg9ob","one_one","1","direct_first","1","en06im21","0","21","1","1","3","1","","0","1","0","null","","","<div class = 'row'><div class = 'column'><img src = 'category1/CS9.png' width = '70%;'></div><div class = 'column'><img src = 'usneg/2141.bmp' width = '100%;'></div></div>","null","neg","CS","CS","1","category1/CS9.png","","","","",""
"","html-keyboard-response","53","267891","0.0-6.0-4.0-0.5","j2p3llg9ob","one_one","1","direct_first","1","en06im21","0","21","1","1","3","1","","0","1","0","null","","","<div class = 'row'><div class = 'column'><img src = 'uspos/2360.bmp' width = '100%;'></div><div class = 'column'><img src = 'category2/CS6.png' width = '70%;'></div></div>","null","pos","CS","CS","2","category2/CS6.png","","","","",""
"","html-keyboard-response","54","270396","0.0-6.0-4.0-0.6","j2p3llg9ob","one_one","1","direct_first","1","en06im21","0","21","1","1","3","1","","0","1","0","null","","","<div class = 'row'><div class = 'column'><img src = 'category1/CS9.png' width = '70%;'></div><div class = 'column'><img src = 'usneg/2141.bmp' width = '100%;'></div></div>","null","neg","CS","CS","1","category1/CS9.png","","","","",""
"","html-keyboard-response","55","272901","0.0-6.0-4.0-0.7","j2p3llg9ob","one_one","1","direct_first","1","en06im21","0","21","1","1","3","1","","0","1","0","null","","","<div class = 'row'><div class = 'column'><img src = 'category3/CS4.png' width = '70%;'></div><div class = 'column'><img src = 'uspos/8350.bmp' width = '100%;'></div></div>","null","pos","CS","CS","3","category3/CS4.png","","","","",""
"","html-keyboard-response","56","275408","0.0-6.0-4.0-0.8","j2p3llg9ob","one_one","1","direct_first","1","en06im21","0","21","1","1","3","1","","0","1","0","null","","","<div class = 'row'><div class = 'column'><img src = 'category1/CS9.png' width = '70%;'></div><div class = 'column'><img src = 'usneg/2141.bmp' width = '100%;'></div></div>","null","neg","CS","CS","1","category1/CS9.png","","","","",""
"","html-keyboard-response","57","277914","0.0-6.0-4.0-0.9","j2p3llg9ob","one_one","1","direct_first","1","en06im21","0","21","1","1","3","1","","0","1","0","null","","","<div class = 'row'><div class = 'column'><img src = 'category2/CS6.png' width = '70%;'></div><div class = 'column'><img src = 'uspos/2360.bmp' width = '100%;'></div></div>","null","pos","CS","CS","2","category2/CS6.png","","","","",""
"","html-keyboard-response","58","280419","0.0-6.0-4.0-0.10","j2p3llg9ob","one_one","1","direct_first","1","en06im21","0","21","1","1","3","1","","0","1","0","null","","","<div class = 'row'><div class = 'column'><img src = 'usneg/9415.bmp' width = '100%;'></div><div class = 'column'><img src = 'category4/CS5.png' width = '70%;'></div></div>","null","neg","CS","CS","4","category4/CS5.png","","","","",""
"","html-keyboard-response","59","282924","0.0-6.0-4.0-0.11","j2p3llg9ob","one_one","1","direct_first","1","en06im21","0","21","1","1","3","1","","0","1","0","null","","","<div class = 'row'><div class = 'column'><img src = 'uspos/2360.bmp' width = '100%;'></div><div class = 'column'><img src = 'category2/CS6.png' width = '70%;'></div></div>","null","pos","CS","CS","2","category2/CS6.png","","","","",""
"","html-keyboard-response","60","285431","0.0-6.0-4.0-0.12","j2p3llg9ob","one_one","1","direct_first","1","en06im21","0","21","1","1","3","1","","0","1","0","null","","","<div class = 'row'><div class = 'column'><img src = 'uspos/8350.bmp' width = '100%;'></div><div class = 'column'><img src = 'category3/CS4.png' width = '70%;'></div></div>","null","pos","CS","CS","3","category3/CS4.png","","","","",""
"","html-keyboard-response","61","287936","0.0-6.0-4.0-0.13","j2p3llg9ob","one_one","1","direct_first","1","en06im21","0","21","1","1","3","1","","0","1","0","null","","","<div class = 'row'><div class = 'column'><img src = 'usneg/2141.bmp' width = '100%;'></div><div class = 'column'><img src = 'category1/CS9.png' width = '70%;'></div></div>","null","neg","CS","CS","1","category1/CS9.png","","","","",""
"","html-keyboard-response","62","290441","0.0-6.0-4.0-0.14","j2p3llg9ob","one_one","1","direct_first","1","en06im21","0","21","1","1","3","1","","0","1","0","null","","","<div class = 'row'><div class = 'column'><img src = 'category3/CS4.png' width = '70%;'></div><div class = 'column'><img src = 'uspos/8350.bmp' width = '100%;'></div></div>","null","pos","CS","CS","3","category3/CS4.png","","","","",""
"","html-keyboard-response","63","292946","0.0-6.0-4.0-0.15","j2p3llg9ob","one_one","1","direct_first","1","en06im21","0","21","1","1","3","1","","0","1","0","null","","","<div class = 'row'><div class = 'column'><img src = 'usneg/9415.bmp' width = '100%;'></div><div class = 'column'><img src = 'category4/CS5.png' width = '70%;'></div></div>","null","neg","CS","CS","4","category4/CS5.png","","","","",""
"","html-keyboard-response","64","295451","0.0-6.0-4.0-0.16","j2p3llg9ob","one_one","1","direct_first","1","en06im21","0","21","1","1","3","1","","0","1","0","null","","","<div class = 'row'><div class = 'column'><img src = 'category1/CS9.png' width = '70%;'></div><div class = 'column'><img src = 'usneg/2141.bmp' width = '100%;'></div></div>","null","neg","CS","CS","1","category1/CS9.png","","","","",""
"","html-keyboard-response","65","297957","0.0-6.0-4.0-0.17","j2p3llg9ob","one_one","1","direct_first","1","en06im21","0","21","1","1","3","1","","0","1","0","null","","","<div class = 'row'><div class = 'column'><img src = 'uspos/2360.bmp' width = '100%;'></div><div class = 'column'><img src = 'category2/CS6.png' width = '70%;'></div></div>","null","pos","CS","CS","2","category2/CS6.png","","","","",""
"","html-keyboard-response","66","300464","0.0-6.0-4.0-0.18","j2p3llg9ob","one_one","1","direct_first","1","en06im21","0","21","1","1","3","1","","0","1","0","null","","","<div class = 'row'><div class = 'column'><img src = 'category4/CS5.png' width = '70%;'></div><div class = 'column'><img src = 'usneg/9415.bmp' width = '100%;'></div></div>","null","neg","CS","CS","4","category4/CS5.png","","","","",""
"","html-keyboard-response","67","302969","0.0-6.0-4.0-0.19","j2p3llg9ob","one_one","1","direct_first","1","en06im21","0","21","1","1","3","1","","0","1","0","null","","","<div class = 'row'><div class = 'column'><img src = 'uspos/8350.bmp' width = '100%;'></div><div class = 'column'><img src = 'category3/CS4.png' width = '70%;'></div></div>","null","pos","CS","CS","3","category3/CS4.png","","","","",""
"","survey-html-form","68","305432","0.0-6.0-5.0","j2p3llg9ob","one_one","1","direct_first","1","en06im21","0","21","1","1","3","1","","0","1","0","1961","","{}","","","","","","","","","","","",""
"","html-keyboard-response","69","309437","0.0-6.0-6.0-0.0","j2p3llg9ob","one_one","1","direct_first","1","en06im21","0","21","1","1","3","1","","0","1","0","null","","","<div class = 'row'><div class = 'column'><img src = 'uspos/2360.bmp' width = '100%;'></div><div class = 'column'><img src = 'category2/CS6.png' width = '70%;'></div></div>","null","pos","CS","CS","2","category2/CS6.png","","","","",""
"","html-keyboard-response","70","311942","0.0-6.0-6.0-0.1","j2p3llg9ob","one_one","1","direct_first","1","en06im21","0","21","1","1","3","1","","0","1","0","null","","","<div class = 'row'><div class = 'column'><img src = 'category4/CS5.png' width = '70%;'></div><div class = 'column'><img src = 'usneg/9415.bmp' width = '100%;'></div></div>","null","neg","CS","CS","4","category4/CS5.png","","","","",""
"","html-keyboard-response","71","314447","0.0-6.0-6.0-0.2","j2p3llg9ob","one_one","1","direct_first","1","en06im21","0","21","1","1","3","1","","0","1","0","null","","","<div class = 'row'><div class = 'column'><img src = 'usneg/2141.bmp' width = '100%;'></div><div class = 'column'><img src = 'category1/CS9.png' width = '70%;'></div></div>","null","neg","CS","CS","1","category1/CS9.png","","","","",""
"","html-keyboard-response","72","316952","0.0-6.0-6.0-0.3","j2p3llg9ob","one_one","1","direct_first","1","en06im21","0","21","1","1","3","1","","0","1","0","null","","","<div class = 'row'><div class = 'column'><img src = 'uspos/2360.bmp' width = '100%;'></div><div class = 'column'><img src = 'category2/CS6.png' width = '70%;'></div></div>","null","pos","CS","CS","2","category2/CS6.png","","","","",""
"","html-keyboard-response","73","319457","0.0-6.0-6.0-0.4","j2p3llg9ob","one_one","1","direct_first","1","en06im21","0","21","1","1","3","1","","0","1","0","null","","","<div class = 'row'><div class = 'column'><img src = 'usneg/9415.bmp' width = '100%;'></div><div class = 'column'><img src = 'category4/CS5.png' width = '70%;'></div></div>","null","neg","CS","CS","4","category4/CS5.png","","","","",""
"","html-keyboard-response","74","321962","0.0-6.0-6.0-0.5","j2p3llg9ob","one_one","1","direct_first","1","en06im21","0","21","1","1","3","1","","0","1","0","null","","","<div class = 'row'><div class = 'column'><img src = 'uspos/8350.bmp' width = '100%;'></div><div class = 'column'><img src = 'category3/CS4.png' width = '70%;'></div></div>","null","pos","CS","CS","3","category3/CS4.png","","","","",""
"","html-keyboard-response","75","324469","0.0-6.0-6.0-0.6","j2p3llg9ob","one_one","1","direct_first","1","en06im21","0","21","1","1","3","1","","0","1","0","null","","","<div class = 'row'><div class = 'column'><img src = 'usneg/9415.bmp' width = '100%;'></div><div class = 'column'><img src = 'category4/CS5.png' width = '70%;'></div></div>","null","neg","CS","CS","4","category4/CS5.png","","","","",""
"","html-keyboard-response","76","326974","0.0-6.0-6.0-0.7","j2p3llg9ob","one_one","1","direct_first","1","en06im21","0","21","1","1","3","1","","0","1","0","null","","","<div class = 'row'><div class = 'column'><img src = 'uspos/2360.bmp' width = '100%;'></div><div class = 'column'><img src = 'category2/CS6.png' width = '70%;'></div></div>","null","pos","CS","CS","2","category2/CS6.png","","","","",""
"","html-keyboard-response","77","329479","0.0-6.0-6.0-0.8","j2p3llg9ob","one_one","1","direct_first","1","en06im21","0","21","1","1","3","1","","0","1","0","null","","","<div class = 'row'><div class = 'column'><img src = 'usneg/9415.bmp' width = '100%;'></div><div class = 'column'><img src = 'category4/CS5.png' width = '70%;'></div></div>","null","neg","CS","CS","4","category4/CS5.png","","","","",""
"","html-keyboard-response","78","331986","0.0-6.0-6.0-0.9","j2p3llg9ob","one_one","1","direct_first","1","en06im21","0","21","1","1","3","1","","0","1","0","null","","","<div class = 'row'><div class = 'column'><img src = 'uspos/2360.bmp' width = '100%;'></div><div class = 'column'><img src = 'category2/CS6.png' width = '70%;'></div></div>","null","pos","CS","CS","2","category2/CS6.png","","","","",""
"","html-keyboard-response","79","334491","0.0-6.0-6.0-0.10","j2p3llg9ob","one_one","1","direct_first","1","en06im21","0","21","1","1","3","1","","0","1","0","null","","","<div class = 'row'><div class = 'column'><img src = 'category1/CS9.png' width = '70%;'></div><div class = 'column'><img src = 'usneg/2141.bmp' width = '100%;'></div></div>","null","neg","CS","CS","1","category1/CS9.png","","","","",""
"","html-keyboard-response","80","336996","0.0-6.0-6.0-0.11","j2p3llg9ob","one_one","1","direct_first","1","en06im21","0","21","1","1","3","1","","0","1","0","null","","","<div class = 'row'><div class = 'column'><img src = 'category3/CS4.png' width = '70%;'></div><div class = 'column'><img src = 'uspos/8350.bmp' width = '100%;'></div></div>","null","pos","CS","CS","3","category3/CS4.png","","","","",""
"","html-keyboard-response","81","339501","0.0-6.0-6.0-0.12","j2p3llg9ob","one_one","1","direct_first","1","en06im21","0","21","1","1","3","1","","0","1","0","null","","","<div class = 'row'><div class = 'column'><img src = 'usneg/9415.bmp' width = '100%;'></div><div class = 'column'><img src = 'category4/CS5.png' width = '70%;'></div></div>","null","neg","CS","CS","4","category4/CS5.png","","","","",""
"","html-keyboard-response","82","342005","0.0-6.0-6.0-0.13","j2p3llg9ob","one_one","1","direct_first","1","en06im21","0","21","1","1","3","1","","0","1","0","null","","","<div class = 'row'><div class = 'column'><img src = 'usneg/2141.bmp' width = '100%;'></div><div class = 'column'><img src = 'category1/CS9.png' width = '70%;'></div></div>","null","neg","CS","CS","1","category1/CS9.png","","","","",""
"","html-keyboard-response","83","344511","0.0-6.0-6.0-0.14","j2p3llg9ob","one_one","1","direct_first","1","en06im21","0","21","1","1","3","1","","0","1","0","null","","","<div class = 'row'><div class = 'column'><img src = 'category3/CS4.png' width = '70%;'></div><div class = 'column'><img src = 'uspos/8350.bmp' width = '100%;'></div></div>","null","pos","CS","CS","3","category3/CS4.png","","","","",""
"","html-keyboard-response","84","347016","0.0-6.0-6.0-0.15","j2p3llg9ob","one_one","1","direct_first","1","en06im21","0","21","1","1","3","1","","0","1","0","null","","","<div class = 'row'><div class = 'column'><img src = 'category2/CS6.png' width = '70%;'></div><div class = 'column'><img src = 'uspos/2360.bmp' width = '100%;'></div></div>","null","pos","CS","CS","2","category2/CS6.png","","","","",""
"","html-keyboard-response","85","349523","0.0-6.0-6.0-0.16","j2p3llg9ob","one_one","1","direct_first","1","en06im21","0","21","1","1","3","1","","0","1","0","null","","","<div class = 'row'><div class = 'column'><img src = 'category3/CS4.png' width = '70%;'></div><div class = 'column'><img src = 'uspos/8350.bmp' width = '100%;'></div></div>","null","pos","CS","CS","3","category3/CS4.png","","","","",""
"","html-keyboard-response","86","352029","0.0-6.0-6.0-0.17","j2p3llg9ob","one_one","1","direct_first","1","en06im21","0","21","1","1","3","1","","0","1","0","null","","","<div class = 'row'><div class = 'column'><img src = 'category1/CS9.png' width = '70%;'></div><div class = 'column'><img src = 'usneg/2141.bmp' width = '100%;'></div></div>","null","neg","CS","CS","1","category1/CS9.png","","","","",""
"","html-keyboard-response","87","354534","0.0-6.0-6.0-0.18","j2p3llg9ob","one_one","1","direct_first","1","en06im21","0","21","1","1","3","1","","0","1","0","null","","","<div class = 'row'><div class = 'column'><img src = 'category3/CS4.png' width = '70%;'></div><div class = 'column'><img src = 'uspos/8350.bmp' width = '100%;'></div></div>","null","pos","CS","CS","3","category3/CS4.png","","","","",""
"","html-keyboard-response","88","357040","0.0-6.0-6.0-0.19","j2p3llg9ob","one_one","1","direct_first","1","en06im21","0","21","1","1","3","1","","0","1","0","null","","","<div class = 'row'><div class = 'column'><img src = 'usneg/2141.bmp' width = '100%;'></div><div class = 'column'><img src = 'category1/CS9.png' width = '70%;'></div></div>","null","neg","CS","CS","1","category1/CS9.png","","","","",""
"","survey-html-form","89","373990","0.0-7.0","j2p3llg9ob","one_one","1","direct_first","1","en06im21","0","21","1","1","3","1","","0","1","0","16447","","{}","","","","","","","","","","","",""
"","image-slider-response","90","382707","0.0-8.0-0.0","j2p3llg9ob","one_one","1","direct_first","1","en06im21","0","21","1","1","3","1","","0","1","0","6713","","","","","pos","GS","abstract","2","category2/men.png","-46","targets/10.png","direct","",""
"","image-slider-response","91","385468","0.0-8.0-0.1","j2p3llg9ob","one_one","1","direct_first","1","en06im21","0","21","1","1","3","1","","0","1","0","2760","","","","","pos","GS","GSold","2","category2/CS2.png","-68","targets/29.png","direct","",""
"","image-slider-response","92","390630","0.0-8.0-0.2","j2p3llg9ob","one_one","1","direct_first","1","en06im21","0","21","1","1","3","1","","0","1","0","5158","","","","","neg","GS","GSold","1","category1/CS4.png","4","targets/38.png","direct","",""
"","image-slider-response","93","394261","0.0-8.0-0.3","j2p3llg9ob","one_one","1","direct_first","1","en06im21","0","21","1","1","3","1","","0","1","0","3629","","","","","neg","GS","GSold","4","category4/CS6.png","4","targets/24.png","direct","",""
"","image-slider-response","94","396952","0.0-8.0-0.4","j2p3llg9ob","one_one","1","direct_first","1","en06im21","0","21","1","1","3","1","","0","1","0","2689","","","","","pos","GS","GSnew","2","category2/GS1.png","-15","targets/16.png","direct","",""
"","image-slider-response","95","399530","0.0-8.0-0.5","j2p3llg9ob","one_one","1","direct_first","1","en06im21","0","21","1","1","3","1","","0","1","0","2575.999999999942","","","","","pos","GS","GSold","2","category2/CS10.png","27","targets/11.png","direct","",""
"","image-slider-response","96","402518","0.0-8.0-0.6","j2p3llg9ob","one_one","1","direct_first","1","en06im21","0","21","1","1","3","1","","0","1","0","2986","","","","","pos","CS","CS","3","category3/CS4.png","64","targets/45.png","direct","",""
"","image-slider-response","97","407038","0.0-8.0-0.7","j2p3llg9ob","one_one","1","direct_first","1","en06im21","0","21","1","1","3","1","","0","1","0","4518.000000000058","","","","","neg","CS","CS","4","category4/CS5.png","82","targets/14.png","direct","",""
"","image-slider-response","98","411678","0.0-8.0-0.8","j2p3llg9ob","one_one","1","direct_first","1","en06im21","0","21","1","1","3","1","","0","1","0","4638","","","","","pos","GS","GSnew","2","category2/GS3.png","-13","targets/32.png","direct","",""
"","image-slider-response","99","414425","0.0-8.0-0.9","j2p3llg9ob","one_one","1","direct_first","1","en06im21","0","21","1","1","3","1","","0","1","0","2747","","","","","pos","GS","GSnew","3","category3/GS2.png","-95","targets/27.png","direct","",""
"","image-slider-response","100","416758","0.0-8.0-0.10","j2p3llg9ob","one_one","1","direct_first","1","en06im21","0","21","1","1","3","1","","0","1","0","2331","","","","","pos","GS","GSnew","3","category3/GS1.png","-61","targets/47.png","direct","",""
"","image-slider-response","101","419128","0.0-8.0-0.11","j2p3llg9ob","one_one","1","direct_first","1","en06im21","0","21","1","1","3","1","","0","1","0","2369","","","","","pos","GS","GSold","3","category3/CS5.png","41","targets/19.png","direct","",""
"","image-slider-response","102","421595","0.0-8.0-0.12","j2p3llg9ob","one_one","1","direct_first","1","en06im21","0","21","1","1","3","1","","0","1","0","2466","","","","","pos","GS","GSold","3","category3/CS3.png","-24","targets/44.png","direct","",""
"","image-slider-response","103","423920","0.0-8.0-0.13","j2p3llg9ob","one_one","1","direct_first","1","en06im21","0","21","1","1","3","1","","0","1","0","2323","","","","","pos","GS","GSnew","3","category3/GS3.png","-59","targets/4.png","direct","",""
"","image-slider-response","104","426488","0.0-8.0-0.14","j2p3llg9ob","one_one","1","direct_first","1","en06im21","0","21","1","1","3","1","","0","1","0","2566","","","","","pos","GS","abstract","3","category3/wang.png","63","targets/25.png","direct","",""
"","image-slider-response","105","430047","0.0-8.0-0.15","j2p3llg9ob","one_one","1","direct_first","1","en06im21","0","21","1","1","3","1","","0","1","0","3557.999999999942","","","","","neg","GS","GSnew","1","category1/GS3.png","2","targets/23.png","direct","",""
"","image-slider-response","106","432691","0.0-8.0-0.16","j2p3llg9ob","one_one","1","direct_first","1","en06im21","0","21","1","1","3","1","","0","1","0","2642","","","","","pos","CS","CS","2","category2/CS6.png","-40","targets/9.png","direct","",""
"","image-slider-response","107","435613","0.0-8.0-0.17","j2p3llg9ob","one_one","1","direct_first","1","en06im21","0","21","1","1","3","1","","0","1","0","2921","","","","","neg","GS","GSold","4","category4/CS1.png","92","targets/48.png","direct","",""
"","image-slider-response","108","438353","0.0-8.0-0.18","j2p3llg9ob","one_one","1","direct_first","1","en06im21","0","21","1","1","3","1","","0","1","0","2736","","","","","neg","GS","GSnew","4","category4/GS2.png","-65","targets/17.png","direct","",""
"","image-slider-response","109","441041","0.0-8.0-0.19","j2p3llg9ob","one_one","1","direct_first","1","en06im21","0","21","1","1","3","1","","0","1","0","2685","","","","","pos","GS","GSold","2","category2/CS1.png","-75","targets/42.png","direct","",""
"","image-slider-response","110","444184","0.0-8.0-0.20","j2p3llg9ob","one_one","1","direct_first","1","en06im21","0","21","1","1","3","1","","0","1","0","3140","","","","","neg","CS","CS","1","category1/CS9.png","8","targets/36.png","direct","",""
"","image-slider-response","111","446395","0.0-8.0-0.21","j2p3llg9ob","one_one","1","direct_first","1","en06im21","0","21","1","1","3","1","","0","1","0","2208.999999999942","","","","","neg","GS","GSold","4","category4/CS7.png","-58","targets/28.png","direct","",""
"","image-slider-response","112","448654","0.0-8.0-0.22","j2p3llg9ob","one_one","1","direct_first","1","en06im21","0","21","1","1","3","1","","0","1","0","2258","","","","","pos","GS","GSold","3","category3/CS6.png","-89","targets/18.png","direct","",""
"","image-slider-response","113","451579","0.0-8.0-0.23","j2p3llg9ob","one_one","1","direct_first","1","en06im21","0","21","1","1","3","1","","0","1","0","2923","","","","","neg","GS","GSnew","4","category4/GS3.png","21","targets/46.png","direct","",""
"","image-slider-response","114","455144","0.0-8.0-0.24","j2p3llg9ob","one_one","1","direct_first","1","en06im21","0","21","1","1","3","1","","0","1","0","3562.000000000058","","","","","neg","GS","abstract","4","category4/lin.png","81","targets/21.png","direct","",""
"","image-slider-response","115","457607","0.0-8.0-0.25","j2p3llg9ob","one_one","1","direct_first","1","en06im21","0","21","1","1","3","1","","0","1","0","2461","","","","","neg","GS","GSold","1","category1/CS7.png","-69","targets/40.png","direct","",""
"","image-slider-response","116","460193","0.0-8.0-0.26","j2p3llg9ob","one_one","1","direct_first","1","en06im21","0","21","1","1","3","1","","0","1","0","2584","","","","","pos","GS","GSnew","2","category2/GS2.png","-45","targets/26.png","direct","",""
"","image-slider-response","117","462489","0.0-8.0-0.27","j2p3llg9ob","one_one","1","direct_first","1","en06im21","0","21","1","1","3","1","","0","1","0","2291","","","","","neg","GS","GSold","1","category1/CS3.png","-78","targets/5.png","direct","",""
"","image-slider-response","118","464523","0.0-8.0-0.28","j2p3llg9ob","one_one","1","direct_first","1","en06im21","0","21","1","1","3","1","","0","1","0","2032","","","","","neg","GS","GSnew","1","category1/GS2.png","-19","targets/13.png","direct","",""
"","image-slider-response","119","467633","0.0-8.0-0.29","j2p3llg9ob","one_one","1","direct_first","1","en06im21","0","21","1","1","3","1","","0","1","0","3107.999999999942","","","","","neg","GS","GSnew","1","category1/GS1.png","21","targets/2.png","direct","",""
"","image-slider-response","120","469969","0.0-8.0-0.30","j2p3llg9ob","one_one","1","direct_first","1","en06im21","0","21","1","1","3","1","","0","1","0","2334","","","","","neg","GS","abstract","1","category1/ma.png","70","targets/39.png","direct","",""
"","image-slider-response","121","472859","0.0-8.0-0.31","j2p3llg9ob","one_one","1","direct_first","1","en06im21","0","21","1","1","3","1","","0","1","0","2888.000000000058","","","","","neg","GS","GSnew","4","category4/GS1.png","41","targets/30.png","direct","",""
"","html-keyboard-response","122","511188","0.0-9.0","j2p3llg9ob","one_one","1","direct_first","1","en06im21","0","21","1","1","3","1","","0","1","0","38326","","","<p>Sie sehen nun die chinesischen Zeichen nur ganz kurz. Danach sehen Sie die jeweilige Aussprache der Zeichen als Silbe auf dem Bildschrim. Ihre Aufgabe ist es, für jede Silbe anzugeben, ob diese etwas angenehmes, oder unangenehmes bedeuten könnte. Verlassen Sie sich hier vor allem auf Ihre Intuition.<br><br>Die Zeichen werden nur zur Orientierung dargestellt, beachten Sie sie deshalb nicht. Konzentrieren Sie sich vor allem auf die Silben. <br>Reagieren Sie mit folgenden zwei Tasten: <br><br><b>'D' </b> wenn die Silbe etwas <b>unangenehmes</b> bedeuten könnte. <br><b>'K'</b> wenn die Silbe etwas <b>angenehmes</b> bedeuten könnte. <br><br>Bitte legen Sie nun den Zeigefinger der linken Hand auf die Taste 'D' und den Zeigefinger der rechten Hand auf die Taste 'K'. <br>Reagieren Sie auf jede Silbe so schnell wie möglich. Uns interessiert Ihre spontane Reaktion. <br> <br> <br>Drücken Sie 'D' oder 'K', um die nächste Aufgabe zu starten. </p>","75","","","","","","","","","",""
"","html-keyboard-response","123","514192","0.0-10.0-0.0","j2p3llg9ob","one_one","1","direct_first","1","en06im21","0","21","1","1","3","1","","0","1","0","null","","","<div style=""font-size:60px;"">+</div>","null","","","","","","","","","",""
"","html-keyboard-response","124","514285","0.0-10.0-1.0","j2p3llg9ob","one_one","1","direct_first","1","en06im21","0","21","1","1","3","1","","0","1","0","null","","","<img src = 'category1/CS3.png' width = '100%;'>","null","","","","","","","","","",""
"","html-keyboard-response","125","514538","0.0-10.0-2.0","j2p3llg9ob","one_one","1","direct_first","1","en06im21","0","21","1","1","3","1","","0","1","0","null","","","<img src = 'targets/5.png' width = '100%;'>","null","","","","","","","","","",""
"","html-keyboard-response","126","518687","0.0-10.0-3.0","j2p3llg9ob","one_one","1","direct_first","1","en06im21","0","21","1","1","3","1","","0","1","0","4145.999999999942","","","<img src = 'targets/mask.png' width = '100%;'>","75","neg","GS","GSold","1","category1/CS3.png","","targets/5.png","indirect","1","0"
"","html-keyboard-response","127","520193","0.0-10.0-0.1","j2p3llg9ob","one_one","1","direct_first","1","en06im21","0","21","1","1","3","1","","0","1","0","null","","","<div style=""font-size:60px;"">+</div>","null","","","","","","","","","",""
"","html-keyboard-response","128","520285","0.0-10.0-1.1","j2p3llg9ob","one_one","1","direct_first","1","en06im21","0","21","1","1","3","1","","0","1","0","null","","","<img src = 'category2/CS1.png' width = '100%;'>","null","","","","","","","","","",""
"","html-keyboard-response","129","520538","0.0-10.0-2.1","j2p3llg9ob","one_one","1","direct_first","1","en06im21","0","21","1","1","3","1","","0","1","0","null","","","<img src = 'targets/42.png' width = '100%;'>","null","","","","","","","","","",""
"","html-keyboard-response","130","522585","0.0-10.0-3.1","j2p3llg9ob","one_one","1","direct_first","1","en06im21","0","21","1","1","3","1","","0","1","0","2045","","","<img src = 'targets/mask.png' width = '100%;'>","75","pos","GS","GSold","2","category2/CS1.png","","targets/42.png","indirect","1","1"
"","html-keyboard-response","131","524093","0.0-10.0-0.2","j2p3llg9ob","one_one","1","direct_first","1","en06im21","0","21","1","1","3","1","","0","1","0","null","","","<div style=""font-size:60px;"">+</div>","null","","","","","","","","","",""
"","html-keyboard-response","132","524185","0.0-10.0-1.2","j2p3llg9ob","one_one","1","direct_first","1","en06im21","0","21","1","1","3","1","","0","1","0","null","","","<img src = 'category2/CS2.png' width = '100%;'>","null","","","","","","","","","",""
"","html-keyboard-response","133","524437","0.0-10.0-2.2","j2p3llg9ob","one_one","1","direct_first","1","en06im21","0","21","1","1","3","1","","0","1","0","null","","","<img src = 'targets/29.png' width = '100%;'>","null","","","","","","","","","",""
"","html-keyboard-response","134","525178","0.0-10.0-3.2","j2p3llg9ob","one_one","1","direct_first","1","en06im21","0","21","1","1","3","1","","0","1","0","738","","","<img src = 'targets/mask.png' width = '100%;'>","68","pos","GS","GSold","2","category2/CS2.png","","targets/29.png","indirect","0","2"
"","html-keyboard-response","135","526682","0.0-10.0-0.3","j2p3llg9ob","one_one","1","direct_first","1","en06im21","0","21","1","1","3","1","","0","1","0","null","","","<div style=""font-size:60px;"">+</div>","null","","","","","","","","","",""
"","html-keyboard-response","136","526774","0.0-10.0-1.3","j2p3llg9ob","one_one","1","direct_first","1","en06im21","0","21","1","1","3","1","","0","1","0","null","","","<img src = 'category1/CS7.png' width = '100%;'>","null","","","","","","","","","",""
"","html-keyboard-response","137","527026","0.0-10.0-2.3","j2p3llg9ob","one_one","1","direct_first","1","en06im21","0","21","1","1","3","1","","0","1","0","null","","","<img src = 'targets/40.png' width = '100%;'>","null","","","","","","","","","",""
"","html-keyboard-response","138","528041","0.0-10.0-3.3","j2p3llg9ob","one_one","1","direct_first","1","en06im21","0","21","1","1","3","1","","0","1","0","1013","","","<img src = 'targets/mask.png' width = '100%;'>","68","neg","GS","GSold","1","category1/CS7.png","","targets/40.png","indirect","0","3"
"","html-keyboard-response","139","529546","0.0-10.0-0.4","j2p3llg9ob","one_one","1","direct_first","1","en06im21","0","21","1","1","3","1","","0","1","0","null","","","<div style=""font-size:60px;"">+</div>","null","","","","","","","","","",""
"","html-keyboard-response","140","529638","0.0-10.0-1.4","j2p3llg9ob","one_one","1","direct_first","1","en06im21","0","21","1","1","3","1","","0","1","0","null","","","<img src = 'category4/CS7.png' width = '100%;'>","null","","","","","","","","","",""
"","html-keyboard-response","141","529891","0.0-10.0-2.4","j2p3llg9ob","one_one","1","direct_first","1","en06im21","0","21","1","1","3","1","","0","1","0","null","","","<img src = 'targets/28.png' width = '100%;'>","null","","","","","","","","","",""
"","html-keyboard-response","142","530705","0.0-10.0-3.4","j2p3llg9ob","one_one","1","direct_first","1","en06im21","0","21","1","1","3","1","","0","1","0","811","","","<img src = 'targets/mask.png' width = '100%;'>","68","neg","GS","GSold","4","category4/CS7.png","","targets/28.png","indirect","0","4"
"","html-keyboard-response","143","532210","0.0-10.0-0.5","j2p3llg9ob","one_one","1","direct_first","1","en06im21","0","21","1","1","3","1","","0","1","0","null","","","<div style=""font-size:60px;"">+</div>","null","","","","","","","","","",""
"","html-keyboard-response","144","532302","0.0-10.0-1.5","j2p3llg9ob","one_one","1","direct_first","1","en06im21","0","21","1","1","3","1","","0","1","0","null","","","<img src = 'category1/CS4.png' width = '100%;'>","null","","","","","","","","","",""
"","html-keyboard-response","145","532555","0.0-10.0-2.5","j2p3llg9ob","one_one","1","direct_first","1","en06im21","0","21","1","1","3","1","","0","1","0","null","","","<img src = 'targets/38.png' width = '100%;'>","null","","","","","","","","","",""
"","html-keyboard-response","146","533809","0.0-10.0-3.5","j2p3llg9ob","one_one","1","direct_first","1","en06im21","0","21","1","1","3","1","","0","1","0","1251","","","<img src = 'targets/mask.png' width = '100%;'>","75","neg","GS","GSold","1","category1/CS4.png","","targets/38.png","indirect","1","5"
"","html-keyboard-response","147","535313","0.0-10.0-0.6","j2p3llg9ob","one_one","1","direct_first","1","en06im21","0","21","1","1","3","1","","0","1","0","null","","","<div style=""font-size:60px;"">+</div>","null","","","","","","","","","",""
"","html-keyboard-response","148","535405","0.0-10.0-1.6","j2p3llg9ob","one_one","1","direct_first","1","en06im21","0","21","1","1","3","1","","0","1","0","null","","","<img src = 'category3/CS6.png' width = '100%;'>","null","","","","","","","","","",""
"","html-keyboard-response","149","535658","0.0-10.0-2.6","j2p3llg9ob","one_one","1","direct_first","1","en06im21","0","21","1","1","3","1","","0","1","0","null","","","<img src = 'targets/18.png' width = '100%;'>","null","","","","","","","","","",""
"","html-keyboard-response","150","536553","0.0-10.0-3.6","j2p3llg9ob","one_one","1","direct_first","1","en06im21","0","21","1","1","3","1","","0","1","0","892.9999999998836","","","<img src = 'targets/mask.png' width = '100%;'>","68","pos","GS","GSold","3","category3/CS6.png","","targets/18.png","indirect","0","6"
"","html-keyboard-response","151","538058","0.0-10.0-0.7","j2p3llg9ob","one_one","1","direct_first","1","en06im21","0","21","1","1","3","1","","0","1","0","null","","","<div style=""font-size:60px;"">+</div>","null","","","","","","","","","",""
"","html-keyboard-response","152","538150","0.0-10.0-1.7","j2p3llg9ob","one_one","1","direct_first","1","en06im21","0","21","1","1","3","1","","0","1","0","null","","","<img src = 'category4/CS6.png' width = '100%;'>","null","","","","","","","","","",""
"","html-keyboard-response","153","538404","0.0-10.0-2.7","j2p3llg9ob","one_one","1","direct_first","1","en06im21","0","21","1","1","3","1","","0","1","0","null","","","<img src = 'targets/24.png' width = '100%;'>","null","","","","","","","","","",""
"","html-keyboard-response","154","539401","0.0-10.0-3.7","j2p3llg9ob","one_one","1","direct_first","1","en06im21","0","21","1","1","3","1","","0","1","0","995","","","<img src = 'targets/mask.png' width = '100%;'>","68","neg","GS","GSold","4","category4/CS6.png","","targets/24.png","indirect","0","7"
"","html-keyboard-response","155","540906","0.0-10.0-0.8","j2p3llg9ob","one_one","1","direct_first","1","en06im21","0","21","1","1","3","1","","0","1","0","null","","","<div style=""font-size:60px;"">+</div>","null","","","","","","","","","",""
"","html-keyboard-response","156","540998","0.0-10.0-1.8","j2p3llg9ob","one_one","1","direct_first","1","en06im21","0","21","1","1","3","1","","0","1","0","null","","","<img src = 'category3/CS5.png' width = '100%;'>","null","","","","","","","","","",""
"","html-keyboard-response","157","541251","0.0-10.0-2.8","j2p3llg9ob","one_one","1","direct_first","1","en06im21","0","21","1","1","3","1","","0","1","0","null","","","<img src = 'targets/19.png' width = '100%;'>","null","","","","","","","","","",""
"","html-keyboard-response","158","542145","0.0-10.0-3.8","j2p3llg9ob","one_one","1","direct_first","1","en06im21","0","21","1","1","3","1","","0","1","0","892","","","<img src = 'targets/mask.png' width = '100%;'>","75","pos","GS","GSold","3","category3/CS5.png","","targets/19.png","indirect","1","8"
"","html-keyboard-response","159","543650","0.0-10.0-0.9","j2p3llg9ob","one_one","1","direct_first","1","en06im21","0","21","1","1","3","1","","0","1","0","null","","","<div style=""font-size:60px;"">+</div>","null","","","","","","","","","",""
"","html-keyboard-response","160","543745","0.0-10.0-1.9","j2p3llg9ob","one_one","1","direct_first","1","en06im21","0","21","1","1","3","1","","0","1","0","null","","","<img src = 'category1/CS9.png' width = '100%;'>","null","","","","","","","","","",""
"","html-keyboard-response","161","543998","0.0-10.0-2.9","j2p3llg9ob","one_one","1","direct_first","1","en06im21","0","21","1","1","3","1","","0","1","0","null","","","<img src = 'targets/36.png' width = '100%;'>","null","","","","","","","","","",""
"","html-keyboard-response","162","545217","0.0-10.0-3.9","j2p3llg9ob","one_one","1","direct_first","1","en06im21","0","21","1","1","3","1","","0","1","0","1217","","","<img src = 'targets/mask.png' width = '100%;'>","75","neg","CS","CS","1","category1/CS9.png","","targets/36.png","indirect","1","9"
"","html-keyboard-response","163","546722","0.0-10.0-0.10","j2p3llg9ob","one_one","1","direct_first","1","en06im21","0","21","1","1","3","1","","0","1","0","null","","","<div style=""font-size:60px;"">+</div>","null","","","","","","","","","",""
"","html-keyboard-response","164","546814","0.0-10.0-1.10","j2p3llg9ob","one_one","1","direct_first","1","en06im21","0","21","1","1","3","1","","0","1","0","null","","","<img src = 'category2/CS10.png' width = '100%;'>","null","","","","","","","","","",""
"","html-keyboard-response","165","547066","0.0-10.0-2.10","j2p3llg9ob","one_one","1","direct_first","1","en06im21","0","21","1","1","3","1","","0","1","0","null","","","<img src = 'targets/11.png' width = '100%;'>","null","","","","","","","","","",""
"","html-keyboard-response","166","547601","0.0-10.0-3.10","j2p3llg9ob","one_one","1","direct_first","1","en06im21","0","21","1","1","3","1","","0","1","0","532","","","<img src = 'targets/mask.png' width = '100%;'>","75","pos","GS","GSold","2","category2/CS10.png","","targets/11.png","indirect","1","10"
"","html-keyboard-response","167","549106","0.0-10.0-0.11","j2p3llg9ob","one_one","1","direct_first","1","en06im21","0","21","1","1","3","1","","0","1","0","null","","","<div style=""font-size:60px;"">+</div>","null","","","","","","","","","",""
"","html-keyboard-response","168","549198","0.0-10.0-1.11","j2p3llg9ob","one_one","1","direct_first","1","en06im21","0","21","1","1","3","1","","0","1","0","null","","","<img src = 'category4/CS5.png' width = '100%;'>","null","","","","","","","","","",""
"","html-keyboard-response","169","549451","0.0-10.0-2.11","j2p3llg9ob","one_one","1","direct_first","1","en06im21","0","21","1","1","3","1","","0","1","0","null","","","<img src = 'targets/14.png' width = '100%;'>","null","","","","","","","","","",""
"","html-keyboard-response","170","550257","0.0-10.0-3.11","j2p3llg9ob","one_one","1","direct_first","1","en06im21","0","21","1","1","3","1","","0","1","0","803.9999999998836","","","<img src = 'targets/mask.png' width = '100%;'>","75","neg","CS","CS","4","category4/CS5.png","","targets/14.png","indirect","1","11"
"","html-keyboard-response","171","551761","0.0-10.0-0.12","j2p3llg9ob","one_one","1","direct_first","1","en06im21","0","21","1","1","3","1","","0","1","0","null","","","<div style=""font-size:60px;"">+</div>","null","","","","","","","","","",""
"","html-keyboard-response","172","551853","0.0-10.0-1.12","j2p3llg9ob","one_one","1","direct_first","1","en06im21","0","21","1","1","3","1","","0","1","0","null","","","<img src = 'category3/CS4.png' width = '100%;'>","null","","","","","","","","","",""
"","html-keyboard-response","173","552107","0.0-10.0-2.12","j2p3llg9ob","one_one","1","direct_first","1","en06im21","0","21","1","1","3","1","","0","1","0","null","","","<img src = 'targets/45.png' width = '100%;'>","null","","","","","","","","","",""
"","html-keyboard-response","174","552881","0.0-10.0-3.12","j2p3llg9ob","one_one","1","direct_first","1","en06im21","0","21","1","1","3","1","","0","1","0","772.0000000001164","","","<img src = 'targets/mask.png' width = '100%;'>","75","pos","CS","CS","3","category3/CS4.png","","targets/45.png","indirect","1","12"
"","html-keyboard-response","175","554386","0.0-10.0-0.13","j2p3llg9ob","one_one","1","direct_first","1","en06im21","0","21","1","1","3","1","","0","1","0","null","","","<div style=""font-size:60px;"">+</div>","null","","","","","","","","","",""
"","html-keyboard-response","176","554480","0.0-10.0-1.13","j2p3llg9ob","one_one","1","direct_first","1","en06im21","0","21","1","1","3","1","","0","1","0","null","","","<img src = 'category4/CS1.png' width = '100%;'>","null","","","","","","","","","",""
"","html-keyboard-response","177","554734","0.0-10.0-2.13","j2p3llg9ob","one_one","1","direct_first","1","en06im21","0","21","1","1","3","1","","0","1","0","null","","","<img src = 'targets/48.png' width = '100%;'>","null","","","","","","","","","",""
"","html-keyboard-response","178","555281","0.0-10.0-3.13","j2p3llg9ob","one_one","1","direct_first","1","en06im21","0","21","1","1","3","1","","0","1","0","545","","","<img src = 'targets/mask.png' width = '100%;'>","75","neg","GS","GSold","4","category4/CS1.png","","targets/48.png","indirect","1","13"
"","html-keyboard-response","179","556786","0.0-10.0-0.14","j2p3llg9ob","one_one","1","direct_first","1","en06im21","0","21","1","1","3","1","","0","1","0","null","","","<div style=""font-size:60px;"">+</div>","null","","","","","","","","","",""
"","html-keyboard-response","180","556878","0.0-10.0-1.14","j2p3llg9ob","one_one","1","direct_first","1","en06im21","0","21","1","1","3","1","","0","1","0","null","","","<img src = 'category2/CS6.png' width = '100%;'>","null","","","","","","","","","",""
"","html-keyboard-response","181","557130","0.0-10.0-2.14","j2p3llg9ob","one_one","1","direct_first","1","en06im21","0","21","1","1","3","1","","0","1","0","null","","","<img src = 'targets/9.png' width = '100%;'>","null","","","","","","","","","",""
"","html-keyboard-response","182","557745","0.0-10.0-3.14","j2p3llg9ob","one_one","1","direct_first","1","en06im21","0","21","1","1","3","1","","0","1","0","613","","","<img src = 'targets/mask.png' width = '100%;'>","75","pos","CS","CS","2","category2/CS6.png","","targets/9.png","indirect","1","14"
"","html-keyboard-response","183","559250","0.0-10.0-0.15","j2p3llg9ob","one_one","1","direct_first","1","en06im21","0","21","1","1","3","1","","0","1","0","null","","","<div style=""font-size:60px;"">+</div>","null","","","","","","","","","",""
"","html-keyboard-response","184","559342","0.0-10.0-1.15","j2p3llg9ob","one_one","1","direct_first","1","en06im21","0","21","1","1","3","1","","0","1","0","null","","","<img src = 'category3/CS3.png' width = '100%;'>","null","","","","","","","","","",""
"","html-keyboard-response","185","559595","0.0-10.0-2.15","j2p3llg9ob","one_one","1","direct_first","1","en06im21","0","21","1","1","3","1","","0","1","0","null","","","<img src = 'targets/44.png' width = '100%;'>","null","","","","","","","","","",""
"","html-keyboard-response","186","560049","0.0-10.0-3.15","j2p3llg9ob","one_one","1","direct_first","1","en06im21","0","21","1","1","3","1","","0","1","0","452","","","<img src = 'targets/mask.png' width = '100%;'>","75","pos","GS","GSold","3","category3/CS3.png","","targets/44.png","indirect","1","15"
"","survey-html-form","187","563340","0.0-11.0","j2p3llg9ob","one_one","1","direct_first","1","en06im21","0","21","1","1","3","1","","0","1","0","2788","","{}","","","","","","","","","","","",""
"","html-keyboard-response","188","566345","0.0-12.0-0.0","j2p3llg9ob","one_one","1","direct_first","1","en06im21","0","21","1","1","3","1","","0","1","0","null","","","<div style=""font-size:60px;"">+</div>","null","","","","","","","","","",""
"","html-keyboard-response","189","566437","0.0-12.0-1.0","j2p3llg9ob","one_one","1","direct_first","1","en06im21","0","21","1","1","3","1","","0","1","0","null","","","<img src = 'category1/GS3.png' width = '100%;'>","null","","","","","","","","","",""
"","html-keyboard-response","190","566690","0.0-12.0-2.0","j2p3llg9ob","one_one","1","direct_first","1","en06im21","0","21","1","1","3","1","","0","1","0","null","","","<img src = 'targets/23.png' width = '100%;'>","null","","","","","","","","","",""
"","html-keyboard-response","191","567573","0.0-12.0-3.0","j2p3llg9ob","one_one","1","direct_first","1","en06im21","0","21","1","1","3","1","","0","1","0","880","","","<img src = 'targets/mask.png' width = '100%;'>","68","neg","GS","GSnew","1","category1/GS3.png","","targets/23.png","indirect","0","16"
"","html-keyboard-response","192","569077","0.0-12.0-0.1","j2p3llg9ob","one_one","1","direct_first","1","en06im21","0","21","1","1","3","1","","0","1","0","null","","","<div style=""font-size:60px;"">+</div>","null","","","","","","","","","",""
"","html-keyboard-response","193","569171","0.0-12.0-1.1","j2p3llg9ob","one_one","1","direct_first","1","en06im21","0","21","1","1","3","1","","0","1","0","null","","","<img src = 'category3/GS3.png' width = '100%;'>","null","","","","","","","","","",""
"","html-keyboard-response","194","569424","0.0-12.0-2.1","j2p3llg9ob","one_one","1","direct_first","1","en06im21","0","21","1","1","3","1","","0","1","0","null","","","<img src = 'targets/4.png' width = '100%;'>","null","","","","","","","","","",""
"","html-keyboard-response","195","569964","0.0-12.0-3.1","j2p3llg9ob","one_one","1","direct_first","1","en06im21","0","21","1","1","3","1","","0","1","0","537","","","<img src = 'targets/mask.png' width = '100%;'>","75","pos","GS","GSnew","3","category3/GS3.png","","targets/4.png","indirect","1","17"
"","html-keyboard-response","196","571468","0.0-12.0-0.2","j2p3llg9ob","one_one","1","direct_first","1","en06im21","0","21","1","1","3","1","","0","1","0","null","","","<div style=""font-size:60px;"">+</div>","null","","","","","","","","","",""
"","html-keyboard-response","197","571560","0.0-12.0-1.2","j2p3llg9ob","one_one","1","direct_first","1","en06im21","0","21","1","1","3","1","","0","1","0","null","","","<img src = 'category4/GS3.png' width = '100%;'>","null","","","","","","","","","",""
"","html-keyboard-response","198","571813","0.0-12.0-2.2","j2p3llg9ob","one_one","1","direct_first","1","en06im21","0","21","1","1","3","1","","0","1","0","null","","","<img src = 'targets/46.png' width = '100%;'>","null","","","","","","","","","",""
"","html-keyboard-response","199","572372","0.0-12.0-3.2","j2p3llg9ob","one_one","1","direct_first","1","en06im21","0","21","1","1","3","1","","0","1","0","556","","","<img src = 'targets/mask.png' width = '100%;'>","75","neg","GS","GSnew","4","category4/GS3.png","","targets/46.png","indirect","1","18"
"","html-keyboard-response","200","573877","0.0-12.0-0.3","j2p3llg9ob","one_one","1","direct_first","1","en06im21","0","21","1","1","3","1","","0","1","0","null","","","<div style=""font-size:60px;"">+</div>","null","","","","","","","","","",""
"","html-keyboard-response","201","573969","0.0-12.0-1.3","j2p3llg9ob","one_one","1","direct_first","1","en06im21","0","21","1","1","3","1","","0","1","0","null","","","<img src = 'category4/lin.png' width = '100%;'>","null","","","","","","","","","",""
"","html-keyboard-response","202","574222","0.0-12.0-2.3","j2p3llg9ob","one_one","1","direct_first","1","en06im21","0","21","1","1","3","1","","0","1","0","null","","","<img src = 'targets/21.png' width = '100%;'>","null","","","","","","","","","",""
"","html-keyboard-response","203","575124","0.0-12.0-3.3","j2p3llg9ob","one_one","1","direct_first","1","en06im21","0","21","1","1","3","1","","0","1","0","900","","","<img src = 'targets/mask.png' width = '100%;'>","75","neg","GS","abstract","4","category4/lin.png","","targets/21.png","indirect","1","19"
"","html-keyboard-response","204","576629","0.0-12.0-0.4","j2p3llg9ob","one_one","1","direct_first","1","en06im21","0","21","1","1","3","1","","0","1","0","null","","","<div style=""font-size:60px;"">+</div>","null","","","","","","","","","",""
"","html-keyboard-response","205","576721","0.0-12.0-1.4","j2p3llg9ob","one_one","1","direct_first","1","en06im21","0","21","1","1","3","1","","0","1","0","null","","","<img src = 'category2/men.png' width = '100%;'>","null","","","","","","","","","",""
"","html-keyboard-response","206","576974","0.0-12.0-2.4","j2p3llg9ob","one_one","1","direct_first","1","en06im21","0","21","1","1","3","1","","0","1","0","null","","","<img src = 'targets/10.png' width = '100%;'>","null","","","","","","","","","",""
"","html-keyboard-response","207","577684","0.0-12.0-3.4","j2p3llg9ob","one_one","1","direct_first","1","en06im21","0","21","1","1","3","1","","0","1","0","707","","","<img src = 'targets/mask.png' width = '100%;'>","75","pos","GS","abstract","2","category2/men.png","","targets/10.png","indirect","1","20"
"","html-keyboard-response","208","579187","0.0-12.0-0.5","j2p3llg9ob","one_one","1","direct_first","1","en06im21","0","21","1","1","3","1","","0","1","0","null","","","<div style=""font-size:60px;"">+</div>","null","","","","","","","","","",""
"","html-keyboard-response","209","579279","0.0-12.0-1.5","j2p3llg9ob","one_one","1","direct_first","1","en06im21","0","21","1","1","3","1","","0","1","0","null","","","<img src = 'category1/GS2.png' width = '100%;'>","null","","","","","","","","","",""
"","html-keyboard-response","210","579532","0.0-12.0-2.5","j2p3llg9ob","one_one","1","direct_first","1","en06im21","0","21","1","1","3","1","","0","1","0","null","","","<img src = 'targets/13.png' width = '100%;'>","null","","","","","","","","","",""
"","html-keyboard-response","211","580428","0.0-12.0-3.5","j2p3llg9ob","one_one","1","direct_first","1","en06im21","0","21","1","1","3","1","","0","1","0","892.9999999998836","","","<img src = 'targets/mask.png' width = '100%;'>","75","neg","GS","GSnew","1","category1/GS2.png","","targets/13.png","indirect","1","21"
"","html-keyboard-response","212","581932","0.0-12.0-0.6","j2p3llg9ob","one_one","1","direct_first","1","en06im21","0","21","1","1","3","1","","0","1","0","null","","","<div style=""font-size:60px;"">+</div>","null","","","","","","","","","",""
"","html-keyboard-response","213","582024","0.0-12.0-1.6","j2p3llg9ob","one_one","1","direct_first","1","en06im21","0","21","1","1","3","1","","0","1","0","null","","","<img src = 'category4/GS1.png' width = '100%;'>","null","","","","","","","","","",""
"","html-keyboard-response","214","582277","0.0-12.0-2.6","j2p3llg9ob","one_one","1","direct_first","1","en06im21","0","21","1","1","3","1","","0","1","0","null","","","<img src = 'targets/30.png' width = '100%;'>","null","","","","","","","","","",""
"","html-keyboard-response","215","582756","0.0-12.0-3.6","j2p3llg9ob","one_one","1","direct_first","1","en06im21","0","21","1","1","3","1","","0","1","0","476.9999999998836","","","<img src = 'targets/mask.png' width = '100%;'>","68","neg","GS","GSnew","4","category4/GS1.png","","targets/30.png","indirect","0","22"
"","html-keyboard-response","216","584261","0.0-12.0-0.7","j2p3llg9ob","one_one","1","direct_first","1","en06im21","0","21","1","1","3","1","","0","1","0","null","","","<div style=""font-size:60px;"">+</div>","null","","","","","","","","","",""
"","html-keyboard-response","217","584355","0.0-12.0-1.7","j2p3llg9ob","one_one","1","direct_first","1","en06im21","0","21","1","1","3","1","","0","1","0","null","","","<img src = 'category1/GS1.png' width = '100%;'>","null","","","","","","","","","",""
"","html-keyboard-response","218","584609","0.0-12.0-2.7","j2p3llg9ob","one_one","1","direct_first","1","en06im21","0","21","1","1","3","1","","0","1","0","null","","","<img src = 'targets/2.png' width = '100%;'>","null","","","","","","","","","",""
"","html-keyboard-response","219","585556","0.0-12.0-3.7","j2p3llg9ob","one_one","1","direct_first","1","en06im21","0","21","1","1","3","1","","0","1","0","944","","","<img src = 'targets/mask.png' width = '100%;'>","68","neg","GS","GSnew","1","category1/GS1.png","","targets/2.png","indirect","0","23"
"","html-keyboard-response","220","587061","0.0-12.0-0.8","j2p3llg9ob","one_one","1","direct_first","1","en06im21","0","21","1","1","3","1","","0","1","0","null","","","<div style=""font-size:60px;"">+</div>","null","","","","","","","","","",""
"","html-keyboard-response","221","587153","0.0-12.0-1.8","j2p3llg9ob","one_one","1","direct_first","1","en06im21","0","21","1","1","3","1","","0","1","0","null","","","<img src = 'category2/GS3.png' width = '100%;'>","null","","","","","","","","","",""
"","html-keyboard-response","222","587406","0.0-12.0-2.8","j2p3llg9ob","one_one","1","direct_first","1","en06im21","0","21","1","1","3","1","","0","1","0","null","","","<img src = 'targets/32.png' width = '100%;'>","null","","","","","","","","","",""
"","html-keyboard-response","223","588052","0.0-12.0-3.8","j2p3llg9ob","one_one","1","direct_first","1","en06im21","0","21","1","1","3","1","","0","1","0","644","","","<img src = 'targets/mask.png' width = '100%;'>","68","pos","GS","GSnew","2","category2/GS3.png","","targets/32.png","indirect","0","24"
"","html-keyboard-response","224","589555","0.0-12.0-0.9","j2p3llg9ob","one_one","1","direct_first","1","en06im21","0","21","1","1","3","1","","0","1","0","null","","","<div style=""font-size:60px;"">+</div>","null","","","","","","","","","",""
"","html-keyboard-response","225","589648","0.0-12.0-1.9","j2p3llg9ob","one_one","1","direct_first","1","en06im21","0","21","1","1","3","1","","0","1","0","null","","","<img src = 'category3/wang.png' width = '100%;'>","null","","","","","","","","","",""
"","html-keyboard-response","226","589900","0.0-12.0-2.9","j2p3llg9ob","one_one","1","direct_first","1","en06im21","0","21","1","1","3","1","","0","1","0","null","","","<img src = 'targets/25.png' width = '100%;'>","null","","","","","","","","","",""
"","html-keyboard-response","227","590780","0.0-12.0-3.9","j2p3llg9ob","one_one","1","direct_first","1","en06im21","0","21","1","1","3","1","","0","1","0","876.0000000001164","","","<img src = 'targets/mask.png' width = '100%;'>","75","pos","GS","abstract","3","category3/wang.png","","targets/25.png","indirect","1","25"
"","html-keyboard-response","228","592284","0.0-12.0-0.10","j2p3llg9ob","one_one","1","direct_first","1","en06im21","0","21","1","1","3","1","","0","1","0","null","","","<div style=""font-size:60px;"">+</div>","null","","","","","","","","","",""
"","html-keyboard-response","229","592376","0.0-12.0-1.10","j2p3llg9ob","one_one","1","direct_first","1","en06im21","0","21","1","1","3","1","","0","1","0","null","","","<img src = 'category3/GS2.png' width = '100%;'>","null","","","","","","","","","",""
"","html-keyboard-response","230","592629","0.0-12.0-2.10","j2p3llg9ob","one_one","1","direct_first","1","en06im21","0","21","1","1","3","1","","0","1","0","null","","","<img src = 'targets/27.png' width = '100%;'>","null","","","","","","","","","",""
"","html-keyboard-response","231","593435","0.0-12.0-3.10","j2p3llg9ob","one_one","1","direct_first","1","en06im21","0","21","1","1","3","1","","0","1","0","804","","","<img src = 'targets/mask.png' width = '100%;'>","75","pos","GS","GSnew","3","category3/GS2.png","","targets/27.png","indirect","1","26"
"","html-keyboard-response","232","594940","0.0-12.0-0.11","j2p3llg9ob","one_one","1","direct_first","1","en06im21","0","21","1","1","3","1","","0","1","0","null","","","<div style=""font-size:60px;"">+</div>","null","","","","","","","","","",""
"","html-keyboard-response","233","595031","0.0-12.0-1.11","j2p3llg9ob","one_one","1","direct_first","1","en06im21","0","21","1","1","3","1","","0","1","0","null","","","<img src = 'category4/GS2.png' width = '100%;'>","null","","","","","","","","","",""
"","html-keyboard-response","234","595284","0.0-12.0-2.11","j2p3llg9ob","one_one","1","direct_first","1","en06im21","0","21","1","1","3","1","","0","1","0","null","","","<img src = 'targets/17.png' width = '100%;'>","null","","","","","","","","","",""
"","html-keyboard-response","235","596012","0.0-12.0-3.11","j2p3llg9ob","one_one","1","direct_first","1","en06im21","0","21","1","1","3","1","","0","1","0","723","","","<img src = 'targets/mask.png' width = '100%;'>","68","neg","GS","GSnew","4","category4/GS2.png","","targets/17.png","indirect","0","27"
"","html-keyboard-response","236","597517","0.0-12.0-0.12","j2p3llg9ob","one_one","1","direct_first","1","en06im21","0","21","1","1","3","1","","0","1","0","null","","","<div style=""font-size:60px;"">+</div>","null","","","","","","","","","",""
"","html-keyboard-response","237","597609","0.0-12.0-1.12","j2p3llg9ob","one_one","1","direct_first","1","en06im21","0","21","1","1","3","1","","0","1","0","null","","","<img src = 'category1/ma.png' width = '100%;'>","null","","","","","","","","","",""
"","html-keyboard-response","238","597863","0.0-12.0-2.12","j2p3llg9ob","one_one","1","direct_first","1","en06im21","0","21","1","1","3","1","","0","1","0","null","","","<img src = 'targets/39.png' width = '100%;'>","null","","","","","","","","","",""
"","html-keyboard-response","239","598555","0.0-12.0-3.12","j2p3llg9ob","one_one","1","direct_first","1","en06im21","0","21","1","1","3","1","","0","1","0","690","","","<img src = 'targets/mask.png' width = '100%;'>","75","neg","GS","abstract","1","category1/ma.png","","targets/39.png","indirect","1","28"
"","html-keyboard-response","240","600060","0.0-12.0-0.13","j2p3llg9ob","one_one","1","direct_first","1","en06im21","0","21","1","1","3","1","","0","1","0","null","","","<div style=""font-size:60px;"">+</div>","null","","","","","","","","","",""
"","html-keyboard-response","241","600151","0.0-12.0-1.13","j2p3llg9ob","one_one","1","direct_first","1","en06im21","0","21","1","1","3","1","","0","1","0","null","","","<img src = 'category3/GS1.png' width = '100%;'>","null","","","","","","","","","",""
"","html-keyboard-response","242","600405","0.0-12.0-2.13","j2p3llg9ob","one_one","1","direct_first","1","en06im21","0","21","1","1","3","1","","0","1","0","null","","","<img src = 'targets/47.png' width = '100%;'>","null","","","","","","","","","",""
"","html-keyboard-response","243","601075","0.0-12.0-3.13","j2p3llg9ob","one_one","1","direct_first","1","en06im21","0","21","1","1","3","1","","0","1","0","668","","","<img src = 'targets/mask.png' width = '100%;'>","68","pos","GS","GSnew","3","category3/GS1.png","","targets/47.png","indirect","0","29"
"","html-keyboard-response","244","602580","0.0-12.0-0.14","j2p3llg9ob","one_one","1","direct_first","1","en06im21","0","21","1","1","3","1","","0","1","0","null","","","<div style=""font-size:60px;"">+</div>","null","","","","","","","","","",""
"","html-keyboard-response","245","602672","0.0-12.0-1.14","j2p3llg9ob","one_one","1","direct_first","1","en06im21","0","21","1","1","3","1","","0","1","0","null","","","<img src = 'category2/GS2.png' width = '100%;'>","null","","","","","","","","","",""
"","html-keyboard-response","246","602925","0.0-12.0-2.14","j2p3llg9ob","one_one","1","direct_first","1","en06im21","0","21","1","1","3","1","","0","1","0","null","","","<img src = 'targets/26.png' width = '100%;'>","null","","","","","","","","","",""
"","html-keyboard-response","247","603619","0.0-12.0-3.14","j2p3llg9ob","one_one","1","direct_first","1","en06im21","0","21","1","1","3","1","","0","1","0","690.9999999998836","","","<img src = 'targets/mask.png' width = '100%;'>","68","pos","GS","GSnew","2","category2/GS2.png","","targets/26.png","indirect","0","30"
"","html-keyboard-response","248","605124","0.0-12.0-0.15","j2p3llg9ob","one_one","1","direct_first","1","en06im21","0","21","1","1","3","1","","0","1","0","null","","","<div style=""font-size:60px;"">+</div>","null","","","","","","","","","",""
"","html-keyboard-response","249","605216","0.0-12.0-1.15","j2p3llg9ob","one_one","1","direct_first","1","en06im21","0","21","1","1","3","1","","0","1","0","null","","","<img src = 'category2/GS1.png' width = '100%;'>","null","","","","","","","","","",""
"","html-keyboard-response","250","605468","0.0-12.0-2.15","j2p3llg9ob","one_one","1","direct_first","1","en06im21","0","21","1","1","3","1","","0","1","0","null","","","<img src = 'targets/16.png' width = '100%;'>","null","","","","","","","","","",""
"","html-keyboard-response","251","606203","0.0-12.0-3.15","j2p3llg9ob","one_one","1","direct_first","1","en06im21","0","21","1","1","3","1","","0","1","0","733","","","<img src = 'targets/mask.png' width = '100%;'>","68","pos","GS","GSnew","2","category2/GS1.png","","targets/16.png","indirect","0","31"
"","survey-html-form","252","613010","0.0-13.0","j2p3llg9ob","one_one","1","direct_first","1","en06im21","0","21","1","1","3","1","","0","1","0","6302.999999999884","","{}","","","","","","","","","","","",""
"","image-slider-response","253","620803","0.0-14.0-0.0","j2p3llg9ob","one_one","1","direct_first","1","en06im21","0","21","1","1","3","1","","0","1","0","6791","","","","","neg","All","all","4","category4/lin_all.png","-17","","all","",""
"","image-slider-response","254","623326","0.0-14.0-0.1","j2p3llg9ob","one_one","1","direct_first","1","en06im21","0","21","1","1","3","1","","0","1","0","2520.0000000001164","","","","","pos","All","all","3","category3/wang_all.png","-69","","all","",""
"","image-slider-response","255","626573","0.0-14.0-0.2","j2p3llg9ob","one_one","1","direct_first","1","en06im21","0","21","1","1","3","1","","0","1","0","3246","","","","","neg","All","all","1","category1/ma_all.png","-90","","all","",""
"","image-slider-response","256","629417","0.0-14.0-0.3","j2p3llg9ob","one_one","1","direct_first","1","en06im21","0","21","1","1","3","1","","0","1","0","2839.9999999998836","","","","","pos","All","all","2","category2/men_all.png","100","","all","",""
"","survey-text","257","633619","0.0-15.0","j2p3llg9ob","one_one","1","direct_first","1","en06im21","0","21","1","1","3","1","","0","1","0","4199","","{""comment"":""""}","","","","","","","","","","","",""
"","survey-html-form","258","648548","0.0-16.0","j2p3llg9ob","one_one","1","direct_first","1","en06im21","0","21","1","1","3","1","","0","1","0","14927","","{""hinschauen"":""0"",""ablenkung"":""1"",""gewissenhaft"":""0""}","","","","","","","","","","","",""
