"success","trial_type","trial_index","time_elapsed","internal_node_id","subject","condition","condition_code","measure","measure_code","codeword","gender","age","education","chinese","fach","handedness","comment","hinschauen","ablenkung","gewissenhaft","rt","url","responses","stimulus","key_press","val","type","type_specific","category","cs_selected","response","target","task","indirect","nr_pres"
"true","fullscreen","0","3958","0.0-0.0","0xo6h201o3","one_one","1","direct_first","1","io08pe23","0","28","1","1","3","1","","0","1","0","","","","","","","","","","","","","","",""
"","external-html","1","21690","0.0-1.0","0xo6h201o3","one_one","1","direct_first","1","io08pe23","0","28","1","1","3","1","","0","1","0","17683.16000001505","text/information.html","","","","","","","","","","","","",""
"","external-html","2","35165","0.0-2.0","0xo6h201o3","one_one","1","direct_first","1","io08pe23","0","28","1","1","3","1","","0","1","0","13359.599999850616","text/consent.html","","","","","","","","","","","","",""
"","survey-html-form","3","106913","0.0-3.0","0xo6h201o3","one_one","1","direct_first","1","io08pe23","0","28","1","1","3","1","","0","1","0","71740.46500003897","","{""codeword_enter"":""io08pe23""}","","","","","","","","","","","",""
"","survey-html-form","4","128081","0.0-4.0","0xo6h201o3","one_one","1","direct_first","1","io08pe23","0","28","1","1","3","1","","0","1","0","21157.92499994859","","{""age"":""28"",""education"":""1"",""subject"":""3"",""gender"":""0"",""handedness"":""1"",""chinese"":""1""}","","","","","","","","","","","",""
"","survey-html-form","5","147988","0.0-5.0","0xo6h201o3","one_one","1","direct_first","1","io08pe23","0","28","1","1","3","1","","0","1","0","19898.03500007838","","{}","","","","","","","","","","","",""
"","html-keyboard-response","6","152001","0.0-6.0-0.0-0.0","0xo6h201o3","one_one","1","direct_first","1","io08pe23","0","28","1","1","3","1","","0","1","0","null","","","<div class = 'row'><div class = 'column'><img src = 'category2/CS8.png' width = '70%;'></div><div class = 'column'><img src = 'uspos/2160.bmp' width = '100%;'></div></div>","null","pos","CS","CS","2","category2/CS8.png","","","","",""
"","html-keyboard-response","7","154518","0.0-6.0-0.0-0.1","0xo6h201o3","one_one","1","direct_first","1","io08pe23","0","28","1","1","3","1","","0","1","0","null","","","<div class = 'row'><div class = 'column'><img src = 'category3/CS7.png' width = '70%;'></div><div class = 'column'><img src = 'uspos/2058.bmp' width = '100%;'></div></div>","null","pos","CS","CS","3","category3/CS7.png","","","","",""
"","html-keyboard-response","8","157036","0.0-6.0-0.0-0.2","0xo6h201o3","one_one","1","direct_first","1","io08pe23","0","28","1","1","3","1","","0","1","0","null","","","<div class = 'row'><div class = 'column'><img src = 'uspos/2160.bmp' width = '100%;'></div><div class = 'column'><img src = 'category2/CS8.png' width = '70%;'></div></div>","null","pos","CS","CS","2","category2/CS8.png","","","","",""
"","html-keyboard-response","9","159562","0.0-6.0-0.0-0.3","0xo6h201o3","one_one","1","direct_first","1","io08pe23","0","28","1","1","3","1","","0","1","0","null","","","<div class = 'row'><div class = 'column'><img src = 'usneg/9181.bmp' width = '100%;'></div><div class = 'column'><img src = 'category4/CS9.png' width = '70%;'></div></div>","null","neg","CS","CS","4","category4/CS9.png","","","","",""
"","html-keyboard-response","10","162087","0.0-6.0-0.0-0.4","0xo6h201o3","one_one","1","direct_first","1","io08pe23","0","28","1","1","3","1","","0","1","0","null","","","<div class = 'row'><div class = 'column'><img src = 'usneg/7380.bmp' width = '100%;'></div><div class = 'column'><img src = 'category1/CS2.png' width = '70%;'></div></div>","null","neg","CS","CS","1","category1/CS2.png","","","","",""
"","html-keyboard-response","11","164601","0.0-6.0-0.0-0.5","0xo6h201o3","one_one","1","direct_first","1","io08pe23","0","28","1","1","3","1","","0","1","0","null","","","<div class = 'row'><div class = 'column'><img src = 'uspos/2160.bmp' width = '100%;'></div><div class = 'column'><img src = 'category2/CS8.png' width = '70%;'></div></div>","null","pos","CS","CS","2","category2/CS8.png","","","","",""
"","html-keyboard-response","12","167116","0.0-6.0-0.0-0.6","0xo6h201o3","one_one","1","direct_first","1","io08pe23","0","28","1","1","3","1","","0","1","0","null","","","<div class = 'row'><div class = 'column'><img src = 'category1/CS2.png' width = '70%;'></div><div class = 'column'><img src = 'usneg/7380.bmp' width = '100%;'></div></div>","null","neg","CS","CS","1","category1/CS2.png","","","","",""
"","html-keyboard-response","13","169641","0.0-6.0-0.0-0.7","0xo6h201o3","one_one","1","direct_first","1","io08pe23","0","28","1","1","3","1","","0","1","0","null","","","<div class = 'row'><div class = 'column'><img src = 'category4/CS9.png' width = '70%;'></div><div class = 'column'><img src = 'usneg/9181.bmp' width = '100%;'></div></div>","null","neg","CS","CS","4","category4/CS9.png","","","","",""
"","html-keyboard-response","14","172160","0.0-6.0-0.0-0.8","0xo6h201o3","one_one","1","direct_first","1","io08pe23","0","28","1","1","3","1","","0","1","0","null","","","<div class = 'row'><div class = 'column'><img src = 'uspos/2058.bmp' width = '100%;'></div><div class = 'column'><img src = 'category3/CS7.png' width = '70%;'></div></div>","null","pos","CS","CS","3","category3/CS7.png","","","","",""
"","html-keyboard-response","15","174673","0.0-6.0-0.0-0.9","0xo6h201o3","one_one","1","direct_first","1","io08pe23","0","28","1","1","3","1","","0","1","0","null","","","<div class = 'row'><div class = 'column'><img src = 'uspos/2160.bmp' width = '100%;'></div><div class = 'column'><img src = 'category2/CS8.png' width = '70%;'></div></div>","null","pos","CS","CS","2","category2/CS8.png","","","","",""
"","html-keyboard-response","16","177193","0.0-6.0-0.0-0.10","0xo6h201o3","one_one","1","direct_first","1","io08pe23","0","28","1","1","3","1","","0","1","0","null","","","<div class = 'row'><div class = 'column'><img src = 'uspos/2058.bmp' width = '100%;'></div><div class = 'column'><img src = 'category3/CS7.png' width = '70%;'></div></div>","null","pos","CS","CS","3","category3/CS7.png","","","","",""
"","html-keyboard-response","17","179717","0.0-6.0-0.0-0.11","0xo6h201o3","one_one","1","direct_first","1","io08pe23","0","28","1","1","3","1","","0","1","0","null","","","<div class = 'row'><div class = 'column'><img src = 'category2/CS8.png' width = '70%;'></div><div class = 'column'><img src = 'uspos/2160.bmp' width = '100%;'></div></div>","null","pos","CS","CS","2","category2/CS8.png","","","","",""
"","html-keyboard-response","18","182237","0.0-6.0-0.0-0.12","0xo6h201o3","one_one","1","direct_first","1","io08pe23","0","28","1","1","3","1","","0","1","0","null","","","<div class = 'row'><div class = 'column'><img src = 'category1/CS2.png' width = '70%;'></div><div class = 'column'><img src = 'usneg/7380.bmp' width = '100%;'></div></div>","null","neg","CS","CS","1","category1/CS2.png","","","","",""
"","html-keyboard-response","19","184747","0.0-6.0-0.0-0.13","0xo6h201o3","one_one","1","direct_first","1","io08pe23","0","28","1","1","3","1","","0","1","0","null","","","<div class = 'row'><div class = 'column'><img src = 'category4/CS9.png' width = '70%;'></div><div class = 'column'><img src = 'usneg/9181.bmp' width = '100%;'></div></div>","null","neg","CS","CS","4","category4/CS9.png","","","","",""
"","html-keyboard-response","20","187253","0.0-6.0-0.0-0.14","0xo6h201o3","one_one","1","direct_first","1","io08pe23","0","28","1","1","3","1","","0","1","0","null","","","<div class = 'row'><div class = 'column'><img src = 'uspos/2058.bmp' width = '100%;'></div><div class = 'column'><img src = 'category3/CS7.png' width = '70%;'></div></div>","null","pos","CS","CS","3","category3/CS7.png","","","","",""
"","html-keyboard-response","21","189765","0.0-6.0-0.0-0.15","0xo6h201o3","one_one","1","direct_first","1","io08pe23","0","28","1","1","3","1","","0","1","0","null","","","<div class = 'row'><div class = 'column'><img src = 'category4/CS9.png' width = '70%;'></div><div class = 'column'><img src = 'usneg/9181.bmp' width = '100%;'></div></div>","null","neg","CS","CS","4","category4/CS9.png","","","","",""
"","html-keyboard-response","22","192284","0.0-6.0-0.0-0.16","0xo6h201o3","one_one","1","direct_first","1","io08pe23","0","28","1","1","3","1","","0","1","0","null","","","<div class = 'row'><div class = 'column'><img src = 'category1/CS2.png' width = '70%;'></div><div class = 'column'><img src = 'usneg/7380.bmp' width = '100%;'></div></div>","null","neg","CS","CS","1","category1/CS2.png","","","","",""
"","html-keyboard-response","23","194811","0.0-6.0-0.0-0.17","0xo6h201o3","one_one","1","direct_first","1","io08pe23","0","28","1","1","3","1","","0","1","0","null","","","<div class = 'row'><div class = 'column'><img src = 'usneg/9181.bmp' width = '100%;'></div><div class = 'column'><img src = 'category4/CS9.png' width = '70%;'></div></div>","null","neg","CS","CS","4","category4/CS9.png","","","","",""
"","html-keyboard-response","24","197330","0.0-6.0-0.0-0.18","0xo6h201o3","one_one","1","direct_first","1","io08pe23","0","28","1","1","3","1","","0","1","0","null","","","<div class = 'row'><div class = 'column'><img src = 'category1/CS2.png' width = '70%;'></div><div class = 'column'><img src = 'usneg/7380.bmp' width = '100%;'></div></div>","null","neg","CS","CS","1","category1/CS2.png","","","","",""
"","html-keyboard-response","25","199858","0.0-6.0-0.0-0.19","0xo6h201o3","one_one","1","direct_first","1","io08pe23","0","28","1","1","3","1","","0","1","0","null","","","<div class = 'row'><div class = 'column'><img src = 'uspos/2058.bmp' width = '100%;'></div><div class = 'column'><img src = 'category3/CS7.png' width = '70%;'></div></div>","null","pos","CS","CS","3","category3/CS7.png","","","","",""
"","survey-html-form","26","210668","0.0-6.0-1.0","0xo6h201o3","one_one","1","direct_first","1","io08pe23","0","28","1","1","3","1","","0","1","0","10303.665000014007","","{}","","","","","","","","","","","",""
"","html-keyboard-response","27","214694","0.0-6.0-2.0-0.0","0xo6h201o3","one_one","1","direct_first","1","io08pe23","0","28","1","1","3","1","","0","1","0","null","","","<div class = 'row'><div class = 'column'><img src = 'usneg/9181.bmp' width = '100%;'></div><div class = 'column'><img src = 'category4/CS9.png' width = '70%;'></div></div>","null","neg","CS","CS","4","category4/CS9.png","","","","",""
"","html-keyboard-response","28","217210","0.0-6.0-2.0-0.1","0xo6h201o3","one_one","1","direct_first","1","io08pe23","0","28","1","1","3","1","","0","1","0","null","","","<div class = 'row'><div class = 'column'><img src = 'category1/CS2.png' width = '70%;'></div><div class = 'column'><img src = 'usneg/7380.bmp' width = '100%;'></div></div>","null","neg","CS","CS","1","category1/CS2.png","","","","",""
"","html-keyboard-response","29","219722","0.0-6.0-2.0-0.2","0xo6h201o3","one_one","1","direct_first","1","io08pe23","0","28","1","1","3","1","","0","1","0","null","","","<div class = 'row'><div class = 'column'><img src = 'category2/CS8.png' width = '70%;'></div><div class = 'column'><img src = 'uspos/2160.bmp' width = '100%;'></div></div>","null","pos","CS","CS","2","category2/CS8.png","","","","",""
"","html-keyboard-response","30","222229","0.0-6.0-2.0-0.3","0xo6h201o3","one_one","1","direct_first","1","io08pe23","0","28","1","1","3","1","","0","1","0","null","","","<div class = 'row'><div class = 'column'><img src = 'category4/CS9.png' width = '70%;'></div><div class = 'column'><img src = 'usneg/9181.bmp' width = '100%;'></div></div>","null","neg","CS","CS","4","category4/CS9.png","","","","",""
"","html-keyboard-response","31","224749","0.0-6.0-2.0-0.4","0xo6h201o3","one_one","1","direct_first","1","io08pe23","0","28","1","1","3","1","","0","1","0","null","","","<div class = 'row'><div class = 'column'><img src = 'uspos/2160.bmp' width = '100%;'></div><div class = 'column'><img src = 'category2/CS8.png' width = '70%;'></div></div>","null","pos","CS","CS","2","category2/CS8.png","","","","",""
"","html-keyboard-response","32","227275","0.0-6.0-2.0-0.5","0xo6h201o3","one_one","1","direct_first","1","io08pe23","0","28","1","1","3","1","","0","1","0","null","","","<div class = 'row'><div class = 'column'><img src = 'usneg/7380.bmp' width = '100%;'></div><div class = 'column'><img src = 'category1/CS2.png' width = '70%;'></div></div>","null","neg","CS","CS","1","category1/CS2.png","","","","",""
"","html-keyboard-response","33","229799","0.0-6.0-2.0-0.6","0xo6h201o3","one_one","1","direct_first","1","io08pe23","0","28","1","1","3","1","","0","1","0","null","","","<div class = 'row'><div class = 'column'><img src = 'category2/CS8.png' width = '70%;'></div><div class = 'column'><img src = 'uspos/2160.bmp' width = '100%;'></div></div>","null","pos","CS","CS","2","category2/CS8.png","","","","",""
"","html-keyboard-response","34","232324","0.0-6.0-2.0-0.7","0xo6h201o3","one_one","1","direct_first","1","io08pe23","0","28","1","1","3","1","","0","1","0","null","","","<div class = 'row'><div class = 'column'><img src = 'usneg/7380.bmp' width = '100%;'></div><div class = 'column'><img src = 'category1/CS2.png' width = '70%;'></div></div>","null","neg","CS","CS","1","category1/CS2.png","","","","",""
"","html-keyboard-response","35","234837","0.0-6.0-2.0-0.8","0xo6h201o3","one_one","1","direct_first","1","io08pe23","0","28","1","1","3","1","","0","1","0","null","","","<div class = 'row'><div class = 'column'><img src = 'category3/CS7.png' width = '70%;'></div><div class = 'column'><img src = 'uspos/2058.bmp' width = '100%;'></div></div>","null","pos","CS","CS","3","category3/CS7.png","","","","",""
"","html-keyboard-response","36","237346","0.0-6.0-2.0-0.9","0xo6h201o3","one_one","1","direct_first","1","io08pe23","0","28","1","1","3","1","","0","1","0","null","","","<div class = 'row'><div class = 'column'><img src = 'category4/CS9.png' width = '70%;'></div><div class = 'column'><img src = 'usneg/9181.bmp' width = '100%;'></div></div>","null","neg","CS","CS","4","category4/CS9.png","","","","",""
"","html-keyboard-response","37","239851","0.0-6.0-2.0-0.10","0xo6h201o3","one_one","1","direct_first","1","io08pe23","0","28","1","1","3","1","","0","1","0","null","","","<div class = 'row'><div class = 'column'><img src = 'category1/CS2.png' width = '70%;'></div><div class = 'column'><img src = 'usneg/7380.bmp' width = '100%;'></div></div>","null","neg","CS","CS","1","category1/CS2.png","","","","",""
"","html-keyboard-response","38","242364","0.0-6.0-2.0-0.11","0xo6h201o3","one_one","1","direct_first","1","io08pe23","0","28","1","1","3","1","","0","1","0","null","","","<div class = 'row'><div class = 'column'><img src = 'category3/CS7.png' width = '70%;'></div><div class = 'column'><img src = 'uspos/2058.bmp' width = '100%;'></div></div>","null","pos","CS","CS","3","category3/CS7.png","","","","",""
"","html-keyboard-response","39","244891","0.0-6.0-2.0-0.12","0xo6h201o3","one_one","1","direct_first","1","io08pe23","0","28","1","1","3","1","","0","1","0","null","","","<div class = 'row'><div class = 'column'><img src = 'category4/CS9.png' width = '70%;'></div><div class = 'column'><img src = 'usneg/9181.bmp' width = '100%;'></div></div>","null","neg","CS","CS","4","category4/CS9.png","","","","",""
"","html-keyboard-response","40","247414","0.0-6.0-2.0-0.13","0xo6h201o3","one_one","1","direct_first","1","io08pe23","0","28","1","1","3","1","","0","1","0","null","","","<div class = 'row'><div class = 'column'><img src = 'uspos/2160.bmp' width = '100%;'></div><div class = 'column'><img src = 'category2/CS8.png' width = '70%;'></div></div>","null","pos","CS","CS","2","category2/CS8.png","","","","",""
"","html-keyboard-response","41","249929","0.0-6.0-2.0-0.14","0xo6h201o3","one_one","1","direct_first","1","io08pe23","0","28","1","1","3","1","","0","1","0","null","","","<div class = 'row'><div class = 'column'><img src = 'category3/CS7.png' width = '70%;'></div><div class = 'column'><img src = 'uspos/2058.bmp' width = '100%;'></div></div>","null","pos","CS","CS","3","category3/CS7.png","","","","",""
"","html-keyboard-response","42","252439","0.0-6.0-2.0-0.15","0xo6h201o3","one_one","1","direct_first","1","io08pe23","0","28","1","1","3","1","","0","1","0","null","","","<div class = 'row'><div class = 'column'><img src = 'category2/CS8.png' width = '70%;'></div><div class = 'column'><img src = 'uspos/2160.bmp' width = '100%;'></div></div>","null","pos","CS","CS","2","category2/CS8.png","","","","",""
"","html-keyboard-response","43","254959","0.0-6.0-2.0-0.16","0xo6h201o3","one_one","1","direct_first","1","io08pe23","0","28","1","1","3","1","","0","1","0","null","","","<div class = 'row'><div class = 'column'><img src = 'category4/CS9.png' width = '70%;'></div><div class = 'column'><img src = 'usneg/9181.bmp' width = '100%;'></div></div>","null","neg","CS","CS","4","category4/CS9.png","","","","",""
"","html-keyboard-response","44","257486","0.0-6.0-2.0-0.17","0xo6h201o3","one_one","1","direct_first","1","io08pe23","0","28","1","1","3","1","","0","1","0","null","","","<div class = 'row'><div class = 'column'><img src = 'category3/CS7.png' width = '70%;'></div><div class = 'column'><img src = 'uspos/2058.bmp' width = '100%;'></div></div>","null","pos","CS","CS","3","category3/CS7.png","","","","",""
"","html-keyboard-response","45","260007","0.0-6.0-2.0-0.18","0xo6h201o3","one_one","1","direct_first","1","io08pe23","0","28","1","1","3","1","","0","1","0","null","","","<div class = 'row'><div class = 'column'><img src = 'usneg/7380.bmp' width = '100%;'></div><div class = 'column'><img src = 'category1/CS2.png' width = '70%;'></div></div>","null","neg","CS","CS","1","category1/CS2.png","","","","",""
"","html-keyboard-response","46","262515","0.0-6.0-2.0-0.19","0xo6h201o3","one_one","1","direct_first","1","io08pe23","0","28","1","1","3","1","","0","1","0","null","","","<div class = 'row'><div class = 'column'><img src = 'category3/CS7.png' width = '70%;'></div><div class = 'column'><img src = 'uspos/2058.bmp' width = '100%;'></div></div>","null","pos","CS","CS","3","category3/CS7.png","","","","",""
"","survey-html-form","47","855686","0.0-6.0-3.0","0xo6h201o3","one_one","1","direct_first","1","io08pe23","0","28","1","1","3","1","","0","1","0","592666.7650002055","","{}","","","","","","","","","","","",""
"","html-keyboard-response","48","859699","0.0-6.0-4.0-0.0","0xo6h201o3","one_one","1","direct_first","1","io08pe23","0","28","1","1","3","1","","0","1","0","null","","","<div class = 'row'><div class = 'column'><img src = 'category1/CS2.png' width = '70%;'></div><div class = 'column'><img src = 'usneg/7380.bmp' width = '100%;'></div></div>","null","neg","CS","CS","1","category1/CS2.png","","","","",""
"","html-keyboard-response","49","862206","0.0-6.0-4.0-0.1","0xo6h201o3","one_one","1","direct_first","1","io08pe23","0","28","1","1","3","1","","0","1","0","null","","","<div class = 'row'><div class = 'column'><img src = 'category3/CS7.png' width = '70%;'></div><div class = 'column'><img src = 'uspos/2058.bmp' width = '100%;'></div></div>","null","pos","CS","CS","3","category3/CS7.png","","","","",""
"","html-keyboard-response","50","864711","0.0-6.0-4.0-0.2","0xo6h201o3","one_one","1","direct_first","1","io08pe23","0","28","1","1","3","1","","0","1","0","null","","","<div class = 'row'><div class = 'column'><img src = 'usneg/7380.bmp' width = '100%;'></div><div class = 'column'><img src = 'category1/CS2.png' width = '70%;'></div></div>","null","neg","CS","CS","1","category1/CS2.png","","","","",""
"","html-keyboard-response","51","867225","0.0-6.0-4.0-0.3","0xo6h201o3","one_one","1","direct_first","1","io08pe23","0","28","1","1","3","1","","0","1","0","null","","","<div class = 'row'><div class = 'column'><img src = 'usneg/9181.bmp' width = '100%;'></div><div class = 'column'><img src = 'category4/CS9.png' width = '70%;'></div></div>","null","neg","CS","CS","4","category4/CS9.png","","","","",""
"","html-keyboard-response","52","869748","0.0-6.0-4.0-0.4","0xo6h201o3","one_one","1","direct_first","1","io08pe23","0","28","1","1","3","1","","0","1","0","null","","","<div class = 'row'><div class = 'column'><img src = 'category2/CS8.png' width = '70%;'></div><div class = 'column'><img src = 'uspos/2160.bmp' width = '100%;'></div></div>","null","pos","CS","CS","2","category2/CS8.png","","","","",""
"","html-keyboard-response","53","872266","0.0-6.0-4.0-0.5","0xo6h201o3","one_one","1","direct_first","1","io08pe23","0","28","1","1","3","1","","0","1","0","null","","","<div class = 'row'><div class = 'column'><img src = 'category3/CS7.png' width = '70%;'></div><div class = 'column'><img src = 'uspos/2058.bmp' width = '100%;'></div></div>","null","pos","CS","CS","3","category3/CS7.png","","","","",""
"","html-keyboard-response","54","874779","0.0-6.0-4.0-0.6","0xo6h201o3","one_one","1","direct_first","1","io08pe23","0","28","1","1","3","1","","0","1","0","null","","","<div class = 'row'><div class = 'column'><img src = 'usneg/7380.bmp' width = '100%;'></div><div class = 'column'><img src = 'category1/CS2.png' width = '70%;'></div></div>","null","neg","CS","CS","1","category1/CS2.png","","","","",""
"","html-keyboard-response","55","877287","0.0-6.0-4.0-0.7","0xo6h201o3","one_one","1","direct_first","1","io08pe23","0","28","1","1","3","1","","0","1","0","null","","","<div class = 'row'><div class = 'column'><img src = 'category2/CS8.png' width = '70%;'></div><div class = 'column'><img src = 'uspos/2160.bmp' width = '100%;'></div></div>","null","pos","CS","CS","2","category2/CS8.png","","","","",""
"","html-keyboard-response","56","879816","0.0-6.0-4.0-0.8","0xo6h201o3","one_one","1","direct_first","1","io08pe23","0","28","1","1","3","1","","0","1","0","null","","","<div class = 'row'><div class = 'column'><img src = 'category3/CS7.png' width = '70%;'></div><div class = 'column'><img src = 'uspos/2058.bmp' width = '100%;'></div></div>","null","pos","CS","CS","3","category3/CS7.png","","","","",""
"","html-keyboard-response","57","882332","0.0-6.0-4.0-0.9","0xo6h201o3","one_one","1","direct_first","1","io08pe23","0","28","1","1","3","1","","0","1","0","null","","","<div class = 'row'><div class = 'column'><img src = 'uspos/2160.bmp' width = '100%;'></div><div class = 'column'><img src = 'category2/CS8.png' width = '70%;'></div></div>","null","pos","CS","CS","2","category2/CS8.png","","","","",""
"","html-keyboard-response","58","884854","0.0-6.0-4.0-0.10","0xo6h201o3","one_one","1","direct_first","1","io08pe23","0","28","1","1","3","1","","0","1","0","null","","","<div class = 'row'><div class = 'column'><img src = 'usneg/7380.bmp' width = '100%;'></div><div class = 'column'><img src = 'category1/CS2.png' width = '70%;'></div></div>","null","neg","CS","CS","1","category1/CS2.png","","","","",""
"","html-keyboard-response","59","887380","0.0-6.0-4.0-0.11","0xo6h201o3","one_one","1","direct_first","1","io08pe23","0","28","1","1","3","1","","0","1","0","null","","","<div class = 'row'><div class = 'column'><img src = 'category4/CS9.png' width = '70%;'></div><div class = 'column'><img src = 'usneg/9181.bmp' width = '100%;'></div></div>","null","neg","CS","CS","4","category4/CS9.png","","","","",""
"","html-keyboard-response","60","889902","0.0-6.0-4.0-0.12","0xo6h201o3","one_one","1","direct_first","1","io08pe23","0","28","1","1","3","1","","0","1","0","null","","","<div class = 'row'><div class = 'column'><img src = 'category3/CS7.png' width = '70%;'></div><div class = 'column'><img src = 'uspos/2058.bmp' width = '100%;'></div></div>","null","pos","CS","CS","3","category3/CS7.png","","","","",""
"","html-keyboard-response","61","892421","0.0-6.0-4.0-0.13","0xo6h201o3","one_one","1","direct_first","1","io08pe23","0","28","1","1","3","1","","0","1","0","null","","","<div class = 'row'><div class = 'column'><img src = 'usneg/7380.bmp' width = '100%;'></div><div class = 'column'><img src = 'category1/CS2.png' width = '70%;'></div></div>","null","neg","CS","CS","1","category1/CS2.png","","","","",""
"","html-keyboard-response","62","894944","0.0-6.0-4.0-0.14","0xo6h201o3","one_one","1","direct_first","1","io08pe23","0","28","1","1","3","1","","0","1","0","null","","","<div class = 'row'><div class = 'column'><img src = 'uspos/2058.bmp' width = '100%;'></div><div class = 'column'><img src = 'category3/CS7.png' width = '70%;'></div></div>","null","pos","CS","CS","3","category3/CS7.png","","","","",""
"","html-keyboard-response","63","897456","0.0-6.0-4.0-0.15","0xo6h201o3","one_one","1","direct_first","1","io08pe23","0","28","1","1","3","1","","0","1","0","null","","","<div class = 'row'><div class = 'column'><img src = 'category4/CS9.png' width = '70%;'></div><div class = 'column'><img src = 'usneg/9181.bmp' width = '100%;'></div></div>","null","neg","CS","CS","4","category4/CS9.png","","","","",""
"","html-keyboard-response","64","899974","0.0-6.0-4.0-0.16","0xo6h201o3","one_one","1","direct_first","1","io08pe23","0","28","1","1","3","1","","0","1","0","null","","","<div class = 'row'><div class = 'column'><img src = 'uspos/2160.bmp' width = '100%;'></div><div class = 'column'><img src = 'category2/CS8.png' width = '70%;'></div></div>","null","pos","CS","CS","2","category2/CS8.png","","","","",""
"","html-keyboard-response","65","902498","0.0-6.0-4.0-0.17","0xo6h201o3","one_one","1","direct_first","1","io08pe23","0","28","1","1","3","1","","0","1","0","null","","","<div class = 'row'><div class = 'column'><img src = 'usneg/9181.bmp' width = '100%;'></div><div class = 'column'><img src = 'category4/CS9.png' width = '70%;'></div></div>","null","neg","CS","CS","4","category4/CS9.png","","","","",""
"","html-keyboard-response","66","905021","0.0-6.0-4.0-0.18","0xo6h201o3","one_one","1","direct_first","1","io08pe23","0","28","1","1","3","1","","0","1","0","null","","","<div class = 'row'><div class = 'column'><img src = 'uspos/2160.bmp' width = '100%;'></div><div class = 'column'><img src = 'category2/CS8.png' width = '70%;'></div></div>","null","pos","CS","CS","2","category2/CS8.png","","","","",""
"","html-keyboard-response","67","907546","0.0-6.0-4.0-0.19","0xo6h201o3","one_one","1","direct_first","1","io08pe23","0","28","1","1","3","1","","0","1","0","null","","","<div class = 'row'><div class = 'column'><img src = 'usneg/9181.bmp' width = '100%;'></div><div class = 'column'><img src = 'category4/CS9.png' width = '70%;'></div></div>","null","neg","CS","CS","4","category4/CS9.png","","","","",""
"","survey-html-form","68","910761","0.0-6.0-5.0","0xo6h201o3","one_one","1","direct_first","1","io08pe23","0","28","1","1","3","1","","0","1","0","2709.3950000125915","","{}","","","","","","","","","","","",""
"","html-keyboard-response","69","914778","0.0-6.0-6.0-0.0","0xo6h201o3","one_one","1","direct_first","1","io08pe23","0","28","1","1","3","1","","0","1","0","null","","","<div class = 'row'><div class = 'column'><img src = 'category1/CS2.png' width = '70%;'></div><div class = 'column'><img src = 'usneg/7380.bmp' width = '100%;'></div></div>","null","neg","CS","CS","1","category1/CS2.png","","","","",""
"","html-keyboard-response","70","917285","0.0-6.0-6.0-0.1","0xo6h201o3","one_one","1","direct_first","1","io08pe23","0","28","1","1","3","1","","0","1","0","null","","","<div class = 'row'><div class = 'column'><img src = 'uspos/2160.bmp' width = '100%;'></div><div class = 'column'><img src = 'category2/CS8.png' width = '70%;'></div></div>","null","pos","CS","CS","2","category2/CS8.png","","","","",""
"","html-keyboard-response","71","919811","0.0-6.0-6.0-0.2","0xo6h201o3","one_one","1","direct_first","1","io08pe23","0","28","1","1","3","1","","0","1","0","null","","","<div class = 'row'><div class = 'column'><img src = 'uspos/2058.bmp' width = '100%;'></div><div class = 'column'><img src = 'category3/CS7.png' width = '70%;'></div></div>","null","pos","CS","CS","3","category3/CS7.png","","","","",""
"","html-keyboard-response","72","922343","0.0-6.0-6.0-0.3","0xo6h201o3","one_one","1","direct_first","1","io08pe23","0","28","1","1","3","1","","0","1","0","null","","","<div class = 'row'><div class = 'column'><img src = 'usneg/7380.bmp' width = '100%;'></div><div class = 'column'><img src = 'category1/CS2.png' width = '70%;'></div></div>","null","neg","CS","CS","1","category1/CS2.png","","","","",""
"","html-keyboard-response","73","924857","0.0-6.0-6.0-0.4","0xo6h201o3","one_one","1","direct_first","1","io08pe23","0","28","1","1","3","1","","0","1","0","null","","","<div class = 'row'><div class = 'column'><img src = 'usneg/9181.bmp' width = '100%;'></div><div class = 'column'><img src = 'category4/CS9.png' width = '70%;'></div></div>","null","neg","CS","CS","4","category4/CS9.png","","","","",""
"","html-keyboard-response","74","927378","0.0-6.0-6.0-0.5","0xo6h201o3","one_one","1","direct_first","1","io08pe23","0","28","1","1","3","1","","0","1","0","null","","","<div class = 'row'><div class = 'column'><img src = 'uspos/2160.bmp' width = '100%;'></div><div class = 'column'><img src = 'category2/CS8.png' width = '70%;'></div></div>","null","pos","CS","CS","2","category2/CS8.png","","","","",""
"","html-keyboard-response","75","929887","0.0-6.0-6.0-0.6","0xo6h201o3","one_one","1","direct_first","1","io08pe23","0","28","1","1","3","1","","0","1","0","null","","","<div class = 'row'><div class = 'column'><img src = 'category1/CS2.png' width = '70%;'></div><div class = 'column'><img src = 'usneg/7380.bmp' width = '100%;'></div></div>","null","neg","CS","CS","1","category1/CS2.png","","","","",""
"","html-keyboard-response","76","932407","0.0-6.0-6.0-0.7","0xo6h201o3","one_one","1","direct_first","1","io08pe23","0","28","1","1","3","1","","0","1","0","null","","","<div class = 'row'><div class = 'column'><img src = 'uspos/2160.bmp' width = '100%;'></div><div class = 'column'><img src = 'category2/CS8.png' width = '70%;'></div></div>","null","pos","CS","CS","2","category2/CS8.png","","","","",""
"","html-keyboard-response","77","934931","0.0-6.0-6.0-0.8","0xo6h201o3","one_one","1","direct_first","1","io08pe23","0","28","1","1","3","1","","0","1","0","null","","","<div class = 'row'><div class = 'column'><img src = 'usneg/7380.bmp' width = '100%;'></div><div class = 'column'><img src = 'category1/CS2.png' width = '70%;'></div></div>","null","neg","CS","CS","1","category1/CS2.png","","","","",""
"","html-keyboard-response","78","937447","0.0-6.0-6.0-0.9","0xo6h201o3","one_one","1","direct_first","1","io08pe23","0","28","1","1","3","1","","0","1","0","null","","","<div class = 'row'><div class = 'column'><img src = 'uspos/2058.bmp' width = '100%;'></div><div class = 'column'><img src = 'category3/CS7.png' width = '70%;'></div></div>","null","pos","CS","CS","3","category3/CS7.png","","","","",""
"","html-keyboard-response","79","939975","0.0-6.0-6.0-0.10","0xo6h201o3","one_one","1","direct_first","1","io08pe23","0","28","1","1","3","1","","0","1","0","null","","","<div class = 'row'><div class = 'column'><img src = 'usneg/9181.bmp' width = '100%;'></div><div class = 'column'><img src = 'category4/CS9.png' width = '70%;'></div></div>","null","neg","CS","CS","4","category4/CS9.png","","","","",""
"","html-keyboard-response","80","942491","0.0-6.0-6.0-0.11","0xo6h201o3","one_one","1","direct_first","1","io08pe23","0","28","1","1","3","1","","0","1","0","null","","","<div class = 'row'><div class = 'column'><img src = 'uspos/2058.bmp' width = '100%;'></div><div class = 'column'><img src = 'category3/CS7.png' width = '70%;'></div></div>","null","pos","CS","CS","3","category3/CS7.png","","","","",""
"","html-keyboard-response","81","945006","0.0-6.0-6.0-0.12","0xo6h201o3","one_one","1","direct_first","1","io08pe23","0","28","1","1","3","1","","0","1","0","null","","","<div class = 'row'><div class = 'column'><img src = 'usneg/9181.bmp' width = '100%;'></div><div class = 'column'><img src = 'category4/CS9.png' width = '70%;'></div></div>","null","neg","CS","CS","4","category4/CS9.png","","","","",""
"","html-keyboard-response","82","947515","0.0-6.0-6.0-0.13","0xo6h201o3","one_one","1","direct_first","1","io08pe23","0","28","1","1","3","1","","0","1","0","null","","","<div class = 'row'><div class = 'column'><img src = 'category2/CS8.png' width = '70%;'></div><div class = 'column'><img src = 'uspos/2160.bmp' width = '100%;'></div></div>","null","pos","CS","CS","2","category2/CS8.png","","","","",""
"","html-keyboard-response","83","950034","0.0-6.0-6.0-0.14","0xo6h201o3","one_one","1","direct_first","1","io08pe23","0","28","1","1","3","1","","0","1","0","null","","","<div class = 'row'><div class = 'column'><img src = 'uspos/2058.bmp' width = '100%;'></div><div class = 'column'><img src = 'category3/CS7.png' width = '70%;'></div></div>","null","pos","CS","CS","3","category3/CS7.png","","","","",""
"","html-keyboard-response","84","952543","0.0-6.0-6.0-0.15","0xo6h201o3","one_one","1","direct_first","1","io08pe23","0","28","1","1","3","1","","0","1","0","null","","","<div class = 'row'><div class = 'column'><img src = 'usneg/9181.bmp' width = '100%;'></div><div class = 'column'><img src = 'category4/CS9.png' width = '70%;'></div></div>","null","neg","CS","CS","4","category4/CS9.png","","","","",""
"","html-keyboard-response","85","955063","0.0-6.0-6.0-0.16","0xo6h201o3","one_one","1","direct_first","1","io08pe23","0","28","1","1","3","1","","0","1","0","null","","","<div class = 'row'><div class = 'column'><img src = 'category3/CS7.png' width = '70%;'></div><div class = 'column'><img src = 'uspos/2058.bmp' width = '100%;'></div></div>","null","pos","CS","CS","3","category3/CS7.png","","","","",""
"","html-keyboard-response","86","957577","0.0-6.0-6.0-0.17","0xo6h201o3","one_one","1","direct_first","1","io08pe23","0","28","1","1","3","1","","0","1","0","null","","","<div class = 'row'><div class = 'column'><img src = 'category2/CS8.png' width = '70%;'></div><div class = 'column'><img src = 'uspos/2160.bmp' width = '100%;'></div></div>","null","pos","CS","CS","2","category2/CS8.png","","","","",""
"","html-keyboard-response","87","960100","0.0-6.0-6.0-0.18","0xo6h201o3","one_one","1","direct_first","1","io08pe23","0","28","1","1","3","1","","0","1","0","null","","","<div class = 'row'><div class = 'column'><img src = 'usneg/9181.bmp' width = '100%;'></div><div class = 'column'><img src = 'category4/CS9.png' width = '70%;'></div></div>","null","neg","CS","CS","4","category4/CS9.png","","","","",""
"","html-keyboard-response","88","962609","0.0-6.0-6.0-0.19","0xo6h201o3","one_one","1","direct_first","1","io08pe23","0","28","1","1","3","1","","0","1","0","null","","","<div class = 'row'><div class = 'column'><img src = 'category1/CS2.png' width = '70%;'></div><div class = 'column'><img src = 'usneg/7380.bmp' width = '100%;'></div></div>","null","neg","CS","CS","1","category1/CS2.png","","","","",""
"","survey-html-form","89","974082","0.0-7.0","0xo6h201o3","one_one","1","direct_first","1","io08pe23","0","28","1","1","3","1","","0","1","0","10970.850000157952","","{}","","","","","","","","","","","",""
"","image-slider-response","90","986576","0.0-8.0-0.0","0xo6h201o3","one_one","1","direct_first","1","io08pe23","0","28","1","1","3","1","","0","1","0","10489.22499991022","","","","","pos","GS","abstract","2","category2/men.png","91","targets/7.png","direct","",""
"","image-slider-response","91","990798","0.0-8.0-0.1","0xo6h201o3","one_one","1","direct_first","1","io08pe23","0","28","1","1","3","1","","0","1","0","4219.350000144914","","","","","pos","GS","GSnew","3","category3/GS1.png","92","targets/10.png","direct","",""
"","image-slider-response","92","997823","0.0-8.0-0.2","0xo6h201o3","one_one","1","direct_first","1","io08pe23","0","28","1","1","3","1","","0","1","0","7023.190000094473","","","","","pos","GS","GSold","3","category3/CS4.png","90","targets/47.png","direct","",""
"","image-slider-response","93","1002770","0.0-8.0-0.3","0xo6h201o3","one_one","1","direct_first","1","io08pe23","0","28","1","1","3","1","","0","1","0","4945.839999942109","","","","","pos","GS","GSold","3","category3/CS8.png","88","targets/44.png","direct","",""
"","image-slider-response","94","1006841","0.0-8.0-0.4","0xo6h201o3","one_one","1","direct_first","1","io08pe23","0","28","1","1","3","1","","0","1","0","4068.6899998690933","","","","","neg","GS","GSold","1","category1/CS6.png","-53","targets/48.png","direct","",""
"","image-slider-response","95","1010924","0.0-8.0-0.5","0xo6h201o3","one_one","1","direct_first","1","io08pe23","0","28","1","1","3","1","","0","1","0","4081.1649998649955","","","","","pos","GS","abstract","3","category3/wang.png","65","targets/33.png","direct","",""
"","image-slider-response","96","1014648","0.0-8.0-0.6","0xo6h201o3","one_one","1","direct_first","1","io08pe23","0","28","1","1","3","1","","0","1","0","3721.8250001315027","","","","","neg","CS","CS","4","category4/CS9.png","-82","targets/46.png","direct","",""
"","image-slider-response","97","1018659","0.0-8.0-0.7","0xo6h201o3","one_one","1","direct_first","1","io08pe23","0","28","1","1","3","1","","0","1","0","4009.580000070855","","","","","neg","GS","GSold","4","category4/CS8.png","-37","targets/28.png","direct","",""
"","image-slider-response","98","1027283","0.0-8.0-0.8","0xo6h201o3","one_one","1","direct_first","1","io08pe23","0","28","1","1","3","1","","0","1","0","8622.800000011921","","","","","neg","GS","GSnew","1","category1/GS3.png","-58","targets/16.png","direct","",""
"","image-slider-response","99","1032351","0.0-8.0-0.9","0xo6h201o3","one_one","1","direct_first","1","io08pe23","0","28","1","1","3","1","","0","1","0","5065.65500004217","","","","","neg","GS","GSnew","4","category4/GS2.png","78","targets/17.png","direct","",""
"","image-slider-response","100","1039336","0.0-8.0-0.10","0xo6h201o3","one_one","1","direct_first","1","io08pe23","0","28","1","1","3","1","","0","1","0","6982.165000168607","","","","","neg","CS","CS","1","category1/CS2.png","-98","targets/6.png","direct","",""
"","image-slider-response","101","1043270","0.0-8.0-0.11","0xo6h201o3","one_one","1","direct_first","1","io08pe23","0","28","1","1","3","1","","0","1","0","3932.4000000488013","","","","","neg","GS","abstract","1","category1/ma.png","3","targets/8.png","direct","",""
"","image-slider-response","102","1048145","0.0-8.0-0.12","0xo6h201o3","one_one","1","direct_first","1","io08pe23","0","28","1","1","3","1","","0","1","0","4873.930000001565","","","","","pos","GS","GSnew","3","category3/GS2.png","49","targets/25.png","direct","",""
"","image-slider-response","103","1052048","0.0-8.0-0.13","0xo6h201o3","one_one","1","direct_first","1","io08pe23","0","28","1","1","3","1","","0","1","0","3901.134999934584","","","","","pos","CS","CS","3","category3/CS7.png","59","targets/34.png","direct","",""
"","image-slider-response","104","1056266","0.0-8.0-0.14","0xo6h201o3","one_one","1","direct_first","1","io08pe23","0","28","1","1","3","1","","0","1","0","4216.155000030994","","","","","neg","GS","GSold","4","category4/CS2.png","-52","targets/43.png","direct","",""
"","image-slider-response","105","1059184","0.0-8.0-0.15","0xo6h201o3","one_one","1","direct_first","1","io08pe23","0","28","1","1","3","1","","0","1","0","2916.0050000064075","","","","","pos","GS","GSold","2","category2/CS5.png","70","targets/11.png","direct","",""
"","image-slider-response","106","1062511","0.0-8.0-0.16","0xo6h201o3","one_one","1","direct_first","1","io08pe23","0","28","1","1","3","1","","0","1","0","3325.0899999402463","","","","","neg","GS","GSnew","1","category1/GS2.png","2","targets/20.png","direct","",""
"","image-slider-response","107","1066930","0.0-8.0-0.17","0xo6h201o3","one_one","1","direct_first","1","io08pe23","0","28","1","1","3","1","","0","1","0","4417.4250001087785","","","","","neg","GS","GSnew","1","category1/GS1.png","16","targets/4.png","direct","",""
"","image-slider-response","108","1070068","0.0-8.0-0.18","0xo6h201o3","one_one","1","direct_first","1","io08pe23","0","28","1","1","3","1","","0","1","0","3134.960000170395","","","","","pos","CS","CS","2","category2/CS8.png","79","targets/32.png","direct","",""
"","image-slider-response","109","1073694","0.0-8.0-0.19","0xo6h201o3","one_one","1","direct_first","1","io08pe23","0","28","1","1","3","1","","0","1","0","3625.4050000570714","","","","","pos","GS","GSnew","2","category2/GS1.png","-19","targets/27.png","direct","",""
"","image-slider-response","110","1076385","0.0-8.0-0.20","0xo6h201o3","one_one","1","direct_first","1","io08pe23","0","28","1","1","3","1","","0","1","0","2688.4949998930097","","","","","pos","GS","GSnew","3","category3/GS3.png","21","targets/2.png","direct","",""
"","image-slider-response","111","1079531","0.0-8.0-0.21","0xo6h201o3","one_one","1","direct_first","1","io08pe23","0","28","1","1","3","1","","0","1","0","3145.195000106469","","","","","pos","GS","GSold","2","category2/CS9.png","55","targets/22.png","direct","",""
"","image-slider-response","112","1082822","0.0-8.0-0.22","0xo6h201o3","one_one","1","direct_first","1","io08pe23","0","28","1","1","3","1","","0","1","0","3288.5749998968095","","","","","pos","GS","GSold","3","category3/CS6.png","-46","targets/38.png","direct","",""
"","image-slider-response","113","1086256","0.0-8.0-0.23","0xo6h201o3","one_one","1","direct_first","1","io08pe23","0","28","1","1","3","1","","0","1","0","3432.455000001937","","","","","pos","GS","GSnew","2","category2/GS2.png","-6","targets/3.png","direct","",""
"","image-slider-response","114","1089463","0.0-8.0-0.24","0xo6h201o3","one_one","1","direct_first","1","io08pe23","0","28","1","1","3","1","","0","1","0","3205.1299999002367","","","","","neg","GS","GSold","1","category1/CS10.png","-52","targets/45.png","direct","",""
"","image-slider-response","115","1092345","0.0-8.0-0.25","0xo6h201o3","one_one","1","direct_first","1","io08pe23","0","28","1","1","3","1","","0","1","0","2880.8199998456985","","","","","neg","GS","abstract","4","category4/lin.png","-50","targets/42.png","direct","",""
"","image-slider-response","116","1095778","0.0-8.0-0.26","0xo6h201o3","one_one","1","direct_first","1","io08pe23","0","28","1","1","3","1","","0","1","0","3431.834999937564","","","","","neg","GS","GSnew","4","category4/GS1.png","-95","targets/23.png","direct","",""
"","image-slider-response","117","1098505","0.0-8.0-0.27","0xo6h201o3","one_one","1","direct_first","1","io08pe23","0","28","1","1","3","1","","0","1","0","2724.864999996498","","","","","pos","GS","GSnew","2","category2/GS3.png","78","targets/5.png","direct","",""
"","image-slider-response","118","1101278","0.0-8.0-0.28","0xo6h201o3","one_one","1","direct_first","1","io08pe23","0","28","1","1","3","1","","0","1","0","2771.78500010632","","","","","neg","GS","GSold","1","category1/CS5.png","-75","targets/19.png","direct","",""
"","image-slider-response","119","1104413","0.0-8.0-0.29","0xo6h201o3","one_one","1","direct_first","1","io08pe23","0","28","1","1","3","1","","0","1","0","3132.884999969974","","","","","neg","GS","GSnew","4","category4/GS3.png","-23","targets/15.png","direct","",""
"","image-slider-response","120","1107043","0.0-8.0-0.30","0xo6h201o3","one_one","1","direct_first","1","io08pe23","0","28","1","1","3","1","","0","1","0","2628.1850000377744","","","","","neg","GS","GSold","4","category4/CS7.png","-51","targets/31.png","direct","",""
"","image-slider-response","121","1110045","0.0-8.0-0.31","0xo6h201o3","one_one","1","direct_first","1","io08pe23","0","28","1","1","3","1","","0","1","0","3000.715000089258","","","","","pos","GS","GSold","2","category2/CS1.png","83","targets/35.png","direct","",""
"","html-keyboard-response","122","1139586","0.0-9.0","0xo6h201o3","one_one","1","direct_first","1","io08pe23","0","28","1","1","3","1","","0","1","0","29539.31999998167","","","<p>Sie sehen nun die chinesischen Zeichen nur ganz kurz. Danach sehen Sie die jeweilige Aussprache der Zeichen als Silbe auf dem Bildschrim. Ihre Aufgabe ist es, für jede Silbe anzugeben, ob diese etwas angenehmes, oder unangenehmes bedeuten könnte. Verlassen Sie sich hier vor allem auf Ihre Intuition.<br><br>Die Zeichen werden nur zur Orientierung dargestellt, beachten Sie sie deshalb nicht. Konzentrieren Sie sich vor allem auf die Silben. <br>Reagieren Sie mit folgenden zwei Tasten: <br><br><b>'D' </b> wenn die Silbe etwas <b>unangenehmes</b> bedeuten könnte. <br><b>'K'</b> wenn die Silbe etwas <b>angenehmes</b> bedeuten könnte. <br><br>Bitte legen Sie nun den Zeigefinger der linken Hand auf die Taste 'D' und den Zeigefinger der rechten Hand auf die Taste 'K'. <br>Reagieren Sie auf jede Silbe so schnell wie möglich. Uns interessiert Ihre spontane Reaktion. <br> <br> <br>Drücken Sie 'D' oder 'K', um die nächste Aufgabe zu starten. </p>","68","","","","","","","","","",""
"","html-keyboard-response","123","1142595","0.0-10.0-0.0","0xo6h201o3","one_one","1","direct_first","1","io08pe23","0","28","1","1","3","1","","0","1","0","null","","","<div style=""font-size:60px;"">+</div>","null","","","","","","","","","",""
"","html-keyboard-response","124","1142689","0.0-10.0-1.0","0xo6h201o3","one_one","1","direct_first","1","io08pe23","0","28","1","1","3","1","","0","1","0","null","","","<img src = 'category3/CS6.png' width = '100%;'>","null","","","","","","","","","",""
"","html-keyboard-response","125","1142958","0.0-10.0-2.0","0xo6h201o3","one_one","1","direct_first","1","io08pe23","0","28","1","1","3","1","","0","1","0","null","","","<img src = 'targets/38.png' width = '100%;'>","null","","","","","","","","","",""
"","html-keyboard-response","126","1150746","0.0-10.0-3.0","0xo6h201o3","one_one","1","direct_first","1","io08pe23","0","28","1","1","3","1","","0","1","0","7785.820000106469","","","<img src = 'targets/mask.png' width = '100%;'>","75","pos","GS","GSold","3","category3/CS6.png","","targets/38.png","indirect","1","0"
"","html-keyboard-response","127","1152255","0.0-10.0-0.1","0xo6h201o3","one_one","1","direct_first","1","io08pe23","0","28","1","1","3","1","","0","1","0","null","","","<div style=""font-size:60px;"">+</div>","null","","","","","","","","","",""
"","html-keyboard-response","128","1152348","0.0-10.0-1.1","0xo6h201o3","one_one","1","direct_first","1","io08pe23","0","28","1","1","3","1","","0","1","0","null","","","<img src = 'category2/CS5.png' width = '100%;'>","null","","","","","","","","","",""
"","html-keyboard-response","129","1152630","0.0-10.0-2.1","0xo6h201o3","one_one","1","direct_first","1","io08pe23","0","28","1","1","3","1","","0","1","0","null","","","<img src = 'targets/11.png' width = '100%;'>","null","","","","","","","","","",""
"","html-keyboard-response","130","1154301","0.0-10.0-3.1","0xo6h201o3","one_one","1","direct_first","1","io08pe23","0","28","1","1","3","1","","0","1","0","1669.1649998538196","","","<img src = 'targets/mask.png' width = '100%;'>","68","pos","GS","GSold","2","category2/CS5.png","","targets/11.png","indirect","0","1"
"","html-keyboard-response","131","1155825","0.0-10.0-0.2","0xo6h201o3","one_one","1","direct_first","1","io08pe23","0","28","1","1","3","1","","0","1","0","null","","","<div style=""font-size:60px;"">+</div>","null","","","","","","","","","",""
"","html-keyboard-response","132","1155918","0.0-10.0-1.2","0xo6h201o3","one_one","1","direct_first","1","io08pe23","0","28","1","1","3","1","","0","1","0","null","","","<img src = 'category3/CS7.png' width = '100%;'>","null","","","","","","","","","",""
"","html-keyboard-response","133","1156183","0.0-10.0-2.2","0xo6h201o3","one_one","1","direct_first","1","io08pe23","0","28","1","1","3","1","","0","1","0","null","","","<img src = 'targets/34.png' width = '100%;'>","null","","","","","","","","","",""
"","html-keyboard-response","134","1158510","0.0-10.0-3.2","0xo6h201o3","one_one","1","direct_first","1","io08pe23","0","28","1","1","3","1","","0","1","0","2323.844999773428","","","<img src = 'targets/mask.png' width = '100%;'>","75","pos","CS","CS","3","category3/CS7.png","","targets/34.png","indirect","1","2"
"","html-keyboard-response","135","1160022","0.0-10.0-0.3","0xo6h201o3","one_one","1","direct_first","1","io08pe23","0","28","1","1","3","1","","0","1","0","null","","","<div style=""font-size:60px;"">+</div>","null","","","","","","","","","",""
"","html-keyboard-response","136","1160115","0.0-10.0-1.3","0xo6h201o3","one_one","1","direct_first","1","io08pe23","0","28","1","1","3","1","","0","1","0","null","","","<img src = 'category3/CS4.png' width = '100%;'>","null","","","","","","","","","",""
"","html-keyboard-response","137","1160395","0.0-10.0-2.3","0xo6h201o3","one_one","1","direct_first","1","io08pe23","0","28","1","1","3","1","","0","1","0","null","","","<img src = 'targets/47.png' width = '100%;'>","null","","","","","","","","","",""
"","html-keyboard-response","138","1161797","0.0-10.0-3.3","0xo6h201o3","one_one","1","direct_first","1","io08pe23","0","28","1","1","3","1","","0","1","0","1398.0950000695884","","","<img src = 'targets/mask.png' width = '100%;'>","68","pos","GS","GSold","3","category3/CS4.png","","targets/47.png","indirect","0","3"
"","html-keyboard-response","139","1163314","0.0-10.0-0.4","0xo6h201o3","one_one","1","direct_first","1","io08pe23","0","28","1","1","3","1","","0","1","0","null","","","<div style=""font-size:60px;"">+</div>","null","","","","","","","","","",""
"","html-keyboard-response","140","1163407","0.0-10.0-1.4","0xo6h201o3","one_one","1","direct_first","1","io08pe23","0","28","1","1","3","1","","0","1","0","null","","","<img src = 'category2/CS1.png' width = '100%;'>","null","","","","","","","","","",""
"","html-keyboard-response","141","1163686","0.0-10.0-2.4","0xo6h201o3","one_one","1","direct_first","1","io08pe23","0","28","1","1","3","1","","0","1","0","null","","","<img src = 'targets/35.png' width = '100%;'>","null","","","","","","","","","",""
"","html-keyboard-response","142","1164628","0.0-10.0-3.4","0xo6h201o3","one_one","1","direct_first","1","io08pe23","0","28","1","1","3","1","","0","1","0","939.6249998826534","","","<img src = 'targets/mask.png' width = '100%;'>","75","pos","GS","GSold","2","category2/CS1.png","","targets/35.png","indirect","1","4"
"","html-keyboard-response","143","1166144","0.0-10.0-0.5","0xo6h201o3","one_one","1","direct_first","1","io08pe23","0","28","1","1","3","1","","0","1","0","null","","","<div style=""font-size:60px;"">+</div>","null","","","","","","","","","",""
"","html-keyboard-response","144","1166237","0.0-10.0-1.5","0xo6h201o3","one_one","1","direct_first","1","io08pe23","0","28","1","1","3","1","","0","1","0","null","","","<img src = 'category4/CS7.png' width = '100%;'>","null","","","","","","","","","",""
"","html-keyboard-response","145","1166515","0.0-10.0-2.5","0xo6h201o3","one_one","1","direct_first","1","io08pe23","0","28","1","1","3","1","","0","1","0","null","","","<img src = 'targets/31.png' width = '100%;'>","null","","","","","","","","","",""
"","html-keyboard-response","146","1167425","0.0-10.0-3.5","0xo6h201o3","one_one","1","direct_first","1","io08pe23","0","28","1","1","3","1","","0","1","0","906.554999994114","","","<img src = 'targets/mask.png' width = '100%;'>","75","neg","GS","GSold","4","category4/CS7.png","","targets/31.png","indirect","1","5"
"","html-keyboard-response","147","1168943","0.0-10.0-0.6","0xo6h201o3","one_one","1","direct_first","1","io08pe23","0","28","1","1","3","1","","0","1","0","null","","","<div style=""font-size:60px;"">+</div>","null","","","","","","","","","",""
"","html-keyboard-response","148","1169036","0.0-10.0-1.6","0xo6h201o3","one_one","1","direct_first","1","io08pe23","0","28","1","1","3","1","","0","1","0","null","","","<img src = 'category2/CS9.png' width = '100%;'>","null","","","","","","","","","",""
"","html-keyboard-response","149","1169314","0.0-10.0-2.6","0xo6h201o3","one_one","1","direct_first","1","io08pe23","0","28","1","1","3","1","","0","1","0","null","","","<img src = 'targets/22.png' width = '100%;'>","null","","","","","","","","","",""
"","html-keyboard-response","150","1170434","0.0-10.0-3.6","0xo6h201o3","one_one","1","direct_first","1","io08pe23","0","28","1","1","3","1","","0","1","0","1117.179999826476","","","<img src = 'targets/mask.png' width = '100%;'>","68","pos","GS","GSold","2","category2/CS9.png","","targets/22.png","indirect","0","6"
"","html-keyboard-response","151","1171944","0.0-10.0-0.7","0xo6h201o3","one_one","1","direct_first","1","io08pe23","0","28","1","1","3","1","","0","1","0","null","","","<div style=""font-size:60px;"">+</div>","null","","","","","","","","","",""
"","html-keyboard-response","152","1172038","0.0-10.0-1.7","0xo6h201o3","one_one","1","direct_first","1","io08pe23","0","28","1","1","3","1","","0","1","0","null","","","<img src = 'category1/CS10.png' width = '100%;'>","null","","","","","","","","","",""
"","html-keyboard-response","153","1172303","0.0-10.0-2.7","0xo6h201o3","one_one","1","direct_first","1","io08pe23","0","28","1","1","3","1","","0","1","0","null","","","<img src = 'targets/45.png' width = '100%;'>","null","","","","","","","","","",""
"","html-keyboard-response","154","1173113","0.0-10.0-3.7","0xo6h201o3","one_one","1","direct_first","1","io08pe23","0","28","1","1","3","1","","0","1","0","806.3950000796467","","","<img src = 'targets/mask.png' width = '100%;'>","68","neg","GS","GSold","1","category1/CS10.png","","targets/45.png","indirect","0","7"
"","html-keyboard-response","155","1174629","0.0-10.0-0.8","0xo6h201o3","one_one","1","direct_first","1","io08pe23","0","28","1","1","3","1","","0","1","0","null","","","<div style=""font-size:60px;"">+</div>","null","","","","","","","","","",""
"","html-keyboard-response","156","1174722","0.0-10.0-1.8","0xo6h201o3","one_one","1","direct_first","1","io08pe23","0","28","1","1","3","1","","0","1","0","null","","","<img src = 'category1/CS6.png' width = '100%;'>","null","","","","","","","","","",""
"","html-keyboard-response","157","1174989","0.0-10.0-2.8","0xo6h201o3","one_one","1","direct_first","1","io08pe23","0","28","1","1","3","1","","0","1","0","null","","","<img src = 'targets/48.png' width = '100%;'>","null","","","","","","","","","",""
"","html-keyboard-response","158","1176788","0.0-10.0-3.8","0xo6h201o3","one_one","1","direct_first","1","io08pe23","0","28","1","1","3","1","","0","1","0","1796.9149998389184","","","<img src = 'targets/mask.png' width = '100%;'>","75","neg","GS","GSold","1","category1/CS6.png","","targets/48.png","indirect","1","8"
"","html-keyboard-response","159","1178312","0.0-10.0-0.9","0xo6h201o3","one_one","1","direct_first","1","io08pe23","0","28","1","1","3","1","","0","1","0","null","","","<div style=""font-size:60px;"">+</div>","null","","","","","","","","","",""
"","html-keyboard-response","160","1178405","0.0-10.0-1.9","0xo6h201o3","one_one","1","direct_first","1","io08pe23","0","28","1","1","3","1","","0","1","0","null","","","<img src = 'category4/CS2.png' width = '100%;'>","null","","","","","","","","","",""
"","html-keyboard-response","161","1178657","0.0-10.0-2.9","0xo6h201o3","one_one","1","direct_first","1","io08pe23","0","28","1","1","3","1","","0","1","0","null","","","<img src = 'targets/43.png' width = '100%;'>","null","","","","","","","","","",""
"","html-keyboard-response","162","1182062","0.0-10.0-3.9","0xo6h201o3","one_one","1","direct_first","1","io08pe23","0","28","1","1","3","1","","0","1","0","3401.869999943301","","","<img src = 'targets/mask.png' width = '100%;'>","75","neg","GS","GSold","4","category4/CS2.png","","targets/43.png","indirect","1","9"
"","html-keyboard-response","163","1183577","0.0-10.0-0.10","0xo6h201o3","one_one","1","direct_first","1","io08pe23","0","28","1","1","3","1","","0","1","0","null","","","<div style=""font-size:60px;"">+</div>","null","","","","","","","","","",""
"","html-keyboard-response","164","1183670","0.0-10.0-1.10","0xo6h201o3","one_one","1","direct_first","1","io08pe23","0","28","1","1","3","1","","0","1","0","null","","","<img src = 'category4/CS8.png' width = '100%;'>","null","","","","","","","","","",""
"","html-keyboard-response","165","1183936","0.0-10.0-2.10","0xo6h201o3","one_one","1","direct_first","1","io08pe23","0","28","1","1","3","1","","0","1","0","null","","","<img src = 'targets/28.png' width = '100%;'>","null","","","","","","","","","",""
"","html-keyboard-response","166","1185314","0.0-10.0-3.10","0xo6h201o3","one_one","1","direct_first","1","io08pe23","0","28","1","1","3","1","","0","1","0","1375.620000064373","","","<img src = 'targets/mask.png' width = '100%;'>","75","neg","GS","GSold","4","category4/CS8.png","","targets/28.png","indirect","1","10"
"","html-keyboard-response","167","1186827","0.0-10.0-0.11","0xo6h201o3","one_one","1","direct_first","1","io08pe23","0","28","1","1","3","1","","0","1","0","null","","","<div style=""font-size:60px;"">+</div>","null","","","","","","","","","",""
"","html-keyboard-response","168","1186919","0.0-10.0-1.11","0xo6h201o3","one_one","1","direct_first","1","io08pe23","0","28","1","1","3","1","","0","1","0","null","","","<img src = 'category1/CS2.png' width = '100%;'>","null","","","","","","","","","",""
"","html-keyboard-response","169","1187172","0.0-10.0-2.11","0xo6h201o3","one_one","1","direct_first","1","io08pe23","0","28","1","1","3","1","","0","1","0","null","","","<img src = 'targets/6.png' width = '100%;'>","null","","","","","","","","","",""
"","html-keyboard-response","170","1187906","0.0-10.0-3.11","0xo6h201o3","one_one","1","direct_first","1","io08pe23","0","28","1","1","3","1","","0","1","0","731.3900000881404","","","<img src = 'targets/mask.png' width = '100%;'>","68","neg","CS","CS","1","category1/CS2.png","","targets/6.png","indirect","0","11"
"","html-keyboard-response","171","1189422","0.0-10.0-0.12","0xo6h201o3","one_one","1","direct_first","1","io08pe23","0","28","1","1","3","1","","0","1","0","null","","","<div style=""font-size:60px;"">+</div>","null","","","","","","","","","",""
"","html-keyboard-response","172","1189514","0.0-10.0-1.12","0xo6h201o3","one_one","1","direct_first","1","io08pe23","0","28","1","1","3","1","","0","1","0","null","","","<img src = 'category4/CS9.png' width = '100%;'>","null","","","","","","","","","",""
"","html-keyboard-response","173","1189794","0.0-10.0-2.12","0xo6h201o3","one_one","1","direct_first","1","io08pe23","0","28","1","1","3","1","","0","1","0","null","","","<img src = 'targets/46.png' width = '100%;'>","null","","","","","","","","","",""
"","html-keyboard-response","174","1190731","0.0-10.0-3.12","0xo6h201o3","one_one","1","direct_first","1","io08pe23","0","28","1","1","3","1","","0","1","0","934.5250001642853","","","<img src = 'targets/mask.png' width = '100%;'>","75","neg","CS","CS","4","category4/CS9.png","","targets/46.png","indirect","1","12"
"","html-keyboard-response","175","1192240","0.0-10.0-0.13","0xo6h201o3","one_one","1","direct_first","1","io08pe23","0","28","1","1","3","1","","0","1","0","null","","","<div style=""font-size:60px;"">+</div>","null","","","","","","","","","",""
"","html-keyboard-response","176","1192332","0.0-10.0-1.13","0xo6h201o3","one_one","1","direct_first","1","io08pe23","0","28","1","1","3","1","","0","1","0","null","","","<img src = 'category2/CS8.png' width = '100%;'>","null","","","","","","","","","",""
"","html-keyboard-response","177","1192611","0.0-10.0-2.13","0xo6h201o3","one_one","1","direct_first","1","io08pe23","0","28","1","1","3","1","","0","1","0","null","","","<img src = 'targets/32.png' width = '100%;'>","null","","","","","","","","","",""
"","html-keyboard-response","178","1193297","0.0-10.0-3.13","0xo6h201o3","one_one","1","direct_first","1","io08pe23","0","28","1","1","3","1","","0","1","0","682.9299998935312","","","<img src = 'targets/mask.png' width = '100%;'>","75","pos","CS","CS","2","category2/CS8.png","","targets/32.png","indirect","1","13"
"","html-keyboard-response","179","1194811","0.0-10.0-0.14","0xo6h201o3","one_one","1","direct_first","1","io08pe23","0","28","1","1","3","1","","0","1","0","null","","","<div style=""font-size:60px;"">+</div>","null","","","","","","","","","",""
"","html-keyboard-response","180","1194904","0.0-10.0-1.14","0xo6h201o3","one_one","1","direct_first","1","io08pe23","0","28","1","1","3","1","","0","1","0","null","","","<img src = 'category1/CS5.png' width = '100%;'>","null","","","","","","","","","",""
"","html-keyboard-response","181","1195156","0.0-10.0-2.14","0xo6h201o3","one_one","1","direct_first","1","io08pe23","0","28","1","1","3","1","","0","1","0","null","","","<img src = 'targets/19.png' width = '100%;'>","null","","","","","","","","","",""
"","html-keyboard-response","182","1196509","0.0-10.0-3.14","0xo6h201o3","one_one","1","direct_first","1","io08pe23","0","28","1","1","3","1","","0","1","0","1350.1299999188632","","","<img src = 'targets/mask.png' width = '100%;'>","75","neg","GS","GSold","1","category1/CS5.png","","targets/19.png","indirect","1","14"
"","html-keyboard-response","183","1198022","0.0-10.0-0.15","0xo6h201o3","one_one","1","direct_first","1","io08pe23","0","28","1","1","3","1","","0","1","0","null","","","<div style=""font-size:60px;"">+</div>","null","","","","","","","","","",""
"","html-keyboard-response","184","1198114","0.0-10.0-1.15","0xo6h201o3","one_one","1","direct_first","1","io08pe23","0","28","1","1","3","1","","0","1","0","null","","","<img src = 'category3/CS8.png' width = '100%;'>","null","","","","","","","","","",""
"","html-keyboard-response","185","1198367","0.0-10.0-2.15","0xo6h201o3","one_one","1","direct_first","1","io08pe23","0","28","1","1","3","1","","0","1","0","null","","","<img src = 'targets/44.png' width = '100%;'>","null","","","","","","","","","",""
"","html-keyboard-response","186","1199399","0.0-10.0-3.15","0xo6h201o3","one_one","1","direct_first","1","io08pe23","0","28","1","1","3","1","","0","1","0","1028.5000000149012","","","<img src = 'targets/mask.png' width = '100%;'>","75","pos","GS","GSold","3","category3/CS8.png","","targets/44.png","indirect","1","15"
"","survey-html-form","187","1202642","0.0-11.0","0xo6h201o3","one_one","1","direct_first","1","io08pe23","0","28","1","1","3","1","","0","1","0","2741.565000033006","","{}","","","","","","","","","","","",""
"","html-keyboard-response","188","1205653","0.0-12.0-0.0","0xo6h201o3","one_one","1","direct_first","1","io08pe23","0","28","1","1","3","1","","0","1","0","null","","","<div style=""font-size:60px;"">+</div>","null","","","","","","","","","",""
"","html-keyboard-response","189","1205745","0.0-12.0-1.0","0xo6h201o3","one_one","1","direct_first","1","io08pe23","0","28","1","1","3","1","","0","1","0","null","","","<img src = 'category2/GS2.png' width = '100%;'>","null","","","","","","","","","",""
"","html-keyboard-response","190","1206010","0.0-12.0-2.0","0xo6h201o3","one_one","1","direct_first","1","io08pe23","0","28","1","1","3","1","","0","1","0","null","","","<img src = 'targets/3.png' width = '100%;'>","null","","","","","","","","","",""
"","html-keyboard-response","191","1206809","0.0-12.0-3.0","0xo6h201o3","one_one","1","direct_first","1","io08pe23","0","28","1","1","3","1","","0","1","0","796.5150000527501","","","<img src = 'targets/mask.png' width = '100%;'>","68","pos","GS","GSnew","2","category2/GS2.png","","targets/3.png","indirect","0","16"
"","html-keyboard-response","192","1208330","0.0-12.0-0.1","0xo6h201o3","one_one","1","direct_first","1","io08pe23","0","28","1","1","3","1","","0","1","0","null","","","<div style=""font-size:60px;"">+</div>","null","","","","","","","","","",""
"","html-keyboard-response","193","1208422","0.0-12.0-1.1","0xo6h201o3","one_one","1","direct_first","1","io08pe23","0","28","1","1","3","1","","0","1","0","null","","","<img src = 'category4/GS3.png' width = '100%;'>","null","","","","","","","","","",""
"","html-keyboard-response","194","1208688","0.0-12.0-2.1","0xo6h201o3","one_one","1","direct_first","1","io08pe23","0","28","1","1","3","1","","0","1","0","null","","","<img src = 'targets/15.png' width = '100%;'>","null","","","","","","","","","",""
"","html-keyboard-response","195","1209235","0.0-12.0-3.1","0xo6h201o3","one_one","1","direct_first","1","io08pe23","0","28","1","1","3","1","","0","1","0","545.2350000850856","","","<img src = 'targets/mask.png' width = '100%;'>","68","neg","GS","GSnew","4","category4/GS3.png","","targets/15.png","indirect","0","17"
"","html-keyboard-response","196","1210761","0.0-12.0-0.2","0xo6h201o3","one_one","1","direct_first","1","io08pe23","0","28","1","1","3","1","","0","1","0","null","","","<div style=""font-size:60px;"">+</div>","null","","","","","","","","","",""
"","html-keyboard-response","197","1210854","0.0-12.0-1.2","0xo6h201o3","one_one","1","direct_first","1","io08pe23","0","28","1","1","3","1","","0","1","0","null","","","<img src = 'category1/ma.png' width = '100%;'>","null","","","","","","","","","",""
"","html-keyboard-response","198","1211107","0.0-12.0-2.2","0xo6h201o3","one_one","1","direct_first","1","io08pe23","0","28","1","1","3","1","","0","1","0","null","","","<img src = 'targets/8.png' width = '100%;'>","null","","","","","","","","","",""
"","html-keyboard-response","199","1211909","0.0-12.0-3.2","0xo6h201o3","one_one","1","direct_first","1","io08pe23","0","28","1","1","3","1","","0","1","0","799.1349999792874","","","<img src = 'targets/mask.png' width = '100%;'>","75","neg","GS","abstract","1","category1/ma.png","","targets/8.png","indirect","1","18"
"","html-keyboard-response","200","1213423","0.0-12.0-0.3","0xo6h201o3","one_one","1","direct_first","1","io08pe23","0","28","1","1","3","1","","0","1","0","null","","","<div style=""font-size:60px;"">+</div>","null","","","","","","","","","",""
"","html-keyboard-response","201","1213516","0.0-12.0-1.3","0xo6h201o3","one_one","1","direct_first","1","io08pe23","0","28","1","1","3","1","","0","1","0","null","","","<img src = 'category4/GS2.png' width = '100%;'>","null","","","","","","","","","",""
"","html-keyboard-response","202","1213780","0.0-12.0-2.3","0xo6h201o3","one_one","1","direct_first","1","io08pe23","0","28","1","1","3","1","","0","1","0","null","","","<img src = 'targets/17.png' width = '100%;'>","null","","","","","","","","","",""
"","html-keyboard-response","203","1215531","0.0-12.0-3.3","0xo6h201o3","one_one","1","direct_first","1","io08pe23","0","28","1","1","3","1","","0","1","0","1749.3449999019504","","","<img src = 'targets/mask.png' width = '100%;'>","68","neg","GS","GSnew","4","category4/GS2.png","","targets/17.png","indirect","0","19"
"","html-keyboard-response","204","1217038","0.0-12.0-0.4","0xo6h201o3","one_one","1","direct_first","1","io08pe23","0","28","1","1","3","1","","0","1","0","null","","","<div style=""font-size:60px;"">+</div>","null","","","","","","","","","",""
"","html-keyboard-response","205","1217130","0.0-12.0-1.4","0xo6h201o3","one_one","1","direct_first","1","io08pe23","0","28","1","1","3","1","","0","1","0","null","","","<img src = 'category3/GS2.png' width = '100%;'>","null","","","","","","","","","",""
"","html-keyboard-response","206","1217408","0.0-12.0-2.4","0xo6h201o3","one_one","1","direct_first","1","io08pe23","0","28","1","1","3","1","","0","1","0","null","","","<img src = 'targets/25.png' width = '100%;'>","null","","","","","","","","","",""
"","html-keyboard-response","207","1218899","0.0-12.0-3.4","0xo6h201o3","one_one","1","direct_first","1","io08pe23","0","28","1","1","3","1","","0","1","0","1489.1500000376254","","","<img src = 'targets/mask.png' width = '100%;'>","75","pos","GS","GSnew","3","category3/GS2.png","","targets/25.png","indirect","1","20"
"","html-keyboard-response","208","1220421","0.0-12.0-0.5","0xo6h201o3","one_one","1","direct_first","1","io08pe23","0","28","1","1","3","1","","0","1","0","null","","","<div style=""font-size:60px;"">+</div>","null","","","","","","","","","",""
"","html-keyboard-response","209","1220513","0.0-12.0-1.5","0xo6h201o3","one_one","1","direct_first","1","io08pe23","0","28","1","1","3","1","","0","1","0","null","","","<img src = 'category1/GS1.png' width = '100%;'>","null","","","","","","","","","",""
"","html-keyboard-response","210","1220765","0.0-12.0-2.5","0xo6h201o3","one_one","1","direct_first","1","io08pe23","0","28","1","1","3","1","","0","1","0","null","","","<img src = 'targets/4.png' width = '100%;'>","null","","","","","","","","","",""
"","html-keyboard-response","211","1221908","0.0-12.0-3.5","0xo6h201o3","one_one","1","direct_first","1","io08pe23","0","28","1","1","3","1","","0","1","0","1140.804999973625","","","<img src = 'targets/mask.png' width = '100%;'>","75","neg","GS","GSnew","1","category1/GS1.png","","targets/4.png","indirect","1","21"
"","html-keyboard-response","212","1223424","0.0-12.0-0.6","0xo6h201o3","one_one","1","direct_first","1","io08pe23","0","28","1","1","3","1","","0","1","0","null","","","<div style=""font-size:60px;"">+</div>","null","","","","","","","","","",""
"","html-keyboard-response","213","1223517","0.0-12.0-1.6","0xo6h201o3","one_one","1","direct_first","1","io08pe23","0","28","1","1","3","1","","0","1","0","null","","","<img src = 'category4/lin.png' width = '100%;'>","null","","","","","","","","","",""
"","html-keyboard-response","214","1223784","0.0-12.0-2.6","0xo6h201o3","one_one","1","direct_first","1","io08pe23","0","28","1","1","3","1","","0","1","0","null","","","<img src = 'targets/42.png' width = '100%;'>","null","","","","","","","","","",""
"","html-keyboard-response","215","1224965","0.0-12.0-3.6","0xo6h201o3","one_one","1","direct_first","1","io08pe23","0","28","1","1","3","1","","0","1","0","1178.3350000623614","","","<img src = 'targets/mask.png' width = '100%;'>","68","neg","GS","abstract","4","category4/lin.png","","targets/42.png","indirect","0","22"
"","html-keyboard-response","216","1226487","0.0-12.0-0.7","0xo6h201o3","one_one","1","direct_first","1","io08pe23","0","28","1","1","3","1","","0","1","0","null","","","<div style=""font-size:60px;"">+</div>","null","","","","","","","","","",""
"","html-keyboard-response","217","1226579","0.0-12.0-1.7","0xo6h201o3","one_one","1","direct_first","1","io08pe23","0","28","1","1","3","1","","0","1","0","null","","","<img src = 'category1/GS2.png' width = '100%;'>","null","","","","","","","","","",""
"","html-keyboard-response","218","1226843","0.0-12.0-2.7","0xo6h201o3","one_one","1","direct_first","1","io08pe23","0","28","1","1","3","1","","0","1","0","null","","","<img src = 'targets/20.png' width = '100%;'>","null","","","","","","","","","",""
"","html-keyboard-response","219","1228153","0.0-12.0-3.7","0xo6h201o3","one_one","1","direct_first","1","io08pe23","0","28","1","1","3","1","","0","1","0","1306.3250000122935","","","<img src = 'targets/mask.png' width = '100%;'>","68","neg","GS","GSnew","1","category1/GS2.png","","targets/20.png","indirect","0","23"
"","html-keyboard-response","220","1229656","0.0-12.0-0.8","0xo6h201o3","one_one","1","direct_first","1","io08pe23","0","28","1","1","3","1","","0","1","0","null","","","<div style=""font-size:60px;"">+</div>","null","","","","","","","","","",""
"","html-keyboard-response","221","1229748","0.0-12.0-1.8","0xo6h201o3","one_one","1","direct_first","1","io08pe23","0","28","1","1","3","1","","0","1","0","null","","","<img src = 'category2/men.png' width = '100%;'>","null","","","","","","","","","",""
"","html-keyboard-response","222","1230005","0.0-12.0-2.8","0xo6h201o3","one_one","1","direct_first","1","io08pe23","0","28","1","1","3","1","","0","1","0","null","","","<img src = 'targets/7.png' width = '100%;'>","null","","","","","","","","","",""
"","html-keyboard-response","223","1230782","0.0-12.0-3.8","0xo6h201o3","one_one","1","direct_first","1","io08pe23","0","28","1","1","3","1","","0","1","0","773.530000122264","","","<img src = 'targets/mask.png' width = '100%;'>","75","pos","GS","abstract","2","category2/men.png","","targets/7.png","indirect","1","24"
"","html-keyboard-response","224","1232300","0.0-12.0-0.9","0xo6h201o3","one_one","1","direct_first","1","io08pe23","0","28","1","1","3","1","","0","1","0","null","","","<div style=""font-size:60px;"">+</div>","null","","","","","","","","","",""
"","html-keyboard-response","225","1232392","0.0-12.0-1.9","0xo6h201o3","one_one","1","direct_first","1","io08pe23","0","28","1","1","3","1","","0","1","0","null","","","<img src = 'category3/GS3.png' width = '100%;'>","null","","","","","","","","","",""
"","html-keyboard-response","226","1232656","0.0-12.0-2.9","0xo6h201o3","one_one","1","direct_first","1","io08pe23","0","28","1","1","3","1","","0","1","0","null","","","<img src = 'targets/2.png' width = '100%;'>","null","","","","","","","","","",""
"","html-keyboard-response","227","1233335","0.0-12.0-3.9","0xo6h201o3","one_one","1","direct_first","1","io08pe23","0","28","1","1","3","1","","0","1","0","675.8499999996275","","","<img src = 'targets/mask.png' width = '100%;'>","68","pos","GS","GSnew","3","category3/GS3.png","","targets/2.png","indirect","0","25"
"","html-keyboard-response","228","1234847","0.0-12.0-0.10","0xo6h201o3","one_one","1","direct_first","1","io08pe23","0","28","1","1","3","1","","0","1","0","null","","","<div style=""font-size:60px;"">+</div>","null","","","","","","","","","",""
"","html-keyboard-response","229","1234942","0.0-12.0-1.10","0xo6h201o3","one_one","1","direct_first","1","io08pe23","0","28","1","1","3","1","","0","1","0","null","","","<img src = 'category2/GS3.png' width = '100%;'>","null","","","","","","","","","",""
"","html-keyboard-response","230","1235194","0.0-12.0-2.10","0xo6h201o3","one_one","1","direct_first","1","io08pe23","0","28","1","1","3","1","","0","1","0","null","","","<img src = 'targets/5.png' width = '100%;'>","null","","","","","","","","","",""
"","html-keyboard-response","231","1236128","0.0-12.0-3.10","0xo6h201o3","one_one","1","direct_first","1","io08pe23","0","28","1","1","3","1","","0","1","0","931.5949999727309","","","<img src = 'targets/mask.png' width = '100%;'>","68","pos","GS","GSnew","2","category2/GS3.png","","targets/5.png","indirect","0","26"
"","html-keyboard-response","232","1237652","0.0-12.0-0.11","0xo6h201o3","one_one","1","direct_first","1","io08pe23","0","28","1","1","3","1","","0","1","0","null","","","<div style=""font-size:60px;"">+</div>","null","","","","","","","","","",""
"","html-keyboard-response","233","1237745","0.0-12.0-1.11","0xo6h201o3","one_one","1","direct_first","1","io08pe23","0","28","1","1","3","1","","0","1","0","null","","","<img src = 'category4/GS1.png' width = '100%;'>","null","","","","","","","","","",""
"","html-keyboard-response","234","1238026","0.0-12.0-2.11","0xo6h201o3","one_one","1","direct_first","1","io08pe23","0","28","1","1","3","1","","0","1","0","null","","","<img src = 'targets/23.png' width = '100%;'>","null","","","","","","","","","",""
"","html-keyboard-response","235","1238608","0.0-12.0-3.11","0xo6h201o3","one_one","1","direct_first","1","io08pe23","0","28","1","1","3","1","","0","1","0","579.2900000233203","","","<img src = 'targets/mask.png' width = '100%;'>","75","neg","GS","GSnew","4","category4/GS1.png","","targets/23.png","indirect","1","27"
"","html-keyboard-response","236","1240131","0.0-12.0-0.12","0xo6h201o3","one_one","1","direct_first","1","io08pe23","0","28","1","1","3","1","","0","1","0","null","","","<div style=""font-size:60px;"">+</div>","null","","","","","","","","","",""
"","html-keyboard-response","237","1240223","0.0-12.0-1.12","0xo6h201o3","one_one","1","direct_first","1","io08pe23","0","28","1","1","3","1","","0","1","0","null","","","<img src = 'category1/GS3.png' width = '100%;'>","null","","","","","","","","","",""
"","html-keyboard-response","238","1240501","0.0-12.0-2.12","0xo6h201o3","one_one","1","direct_first","1","io08pe23","0","28","1","1","3","1","","0","1","0","null","","","<img src = 'targets/16.png' width = '100%;'>","null","","","","","","","","","",""
"","html-keyboard-response","239","1241155","0.0-12.0-3.12","0xo6h201o3","one_one","1","direct_first","1","io08pe23","0","28","1","1","3","1","","0","1","0","651.8849998246878","","","<img src = 'targets/mask.png' width = '100%;'>","75","neg","GS","GSnew","1","category1/GS3.png","","targets/16.png","indirect","1","28"
"","html-keyboard-response","240","1242686","0.0-12.0-0.13","0xo6h201o3","one_one","1","direct_first","1","io08pe23","0","28","1","1","3","1","","0","1","0","null","","","<div style=""font-size:60px;"">+</div>","null","","","","","","","","","",""
"","html-keyboard-response","241","1242779","0.0-12.0-1.13","0xo6h201o3","one_one","1","direct_first","1","io08pe23","0","28","1","1","3","1","","0","1","0","null","","","<img src = 'category3/GS1.png' width = '100%;'>","null","","","","","","","","","",""
"","html-keyboard-response","242","1243044","0.0-12.0-2.13","0xo6h201o3","one_one","1","direct_first","1","io08pe23","0","28","1","1","3","1","","0","1","0","null","","","<img src = 'targets/10.png' width = '100%;'>","null","","","","","","","","","",""
"","html-keyboard-response","243","1243778","0.0-12.0-3.13","0xo6h201o3","one_one","1","direct_first","1","io08pe23","0","28","1","1","3","1","","0","1","0","731.8249999079853","","","<img src = 'targets/mask.png' width = '100%;'>","75","pos","GS","GSnew","3","category3/GS1.png","","targets/10.png","indirect","1","29"
"","html-keyboard-response","244","1245282","0.0-12.0-0.14","0xo6h201o3","one_one","1","direct_first","1","io08pe23","0","28","1","1","3","1","","0","1","0","null","","","<div style=""font-size:60px;"">+</div>","null","","","","","","","","","",""
"","html-keyboard-response","245","1245375","0.0-12.0-1.14","0xo6h201o3","one_one","1","direct_first","1","io08pe23","0","28","1","1","3","1","","0","1","0","null","","","<img src = 'category2/GS1.png' width = '100%;'>","null","","","","","","","","","",""
"","html-keyboard-response","246","1245641","0.0-12.0-2.14","0xo6h201o3","one_one","1","direct_first","1","io08pe23","0","28","1","1","3","1","","0","1","0","null","","","<img src = 'targets/27.png' width = '100%;'>","null","","","","","","","","","",""
"","html-keyboard-response","247","1246181","0.0-12.0-3.14","0xo6h201o3","one_one","1","direct_first","1","io08pe23","0","28","1","1","3","1","","0","1","0","537.9349999129772","","","<img src = 'targets/mask.png' width = '100%;'>","75","pos","GS","GSnew","2","category2/GS1.png","","targets/27.png","indirect","1","30"
"","html-keyboard-response","248","1247709","0.0-12.0-0.15","0xo6h201o3","one_one","1","direct_first","1","io08pe23","0","28","1","1","3","1","","0","1","0","null","","","<div style=""font-size:60px;"">+</div>","null","","","","","","","","","",""
"","html-keyboard-response","249","1247803","0.0-12.0-1.15","0xo6h201o3","one_one","1","direct_first","1","io08pe23","0","28","1","1","3","1","","0","1","0","null","","","<img src = 'category3/wang.png' width = '100%;'>","null","","","","","","","","","",""
"","html-keyboard-response","250","1248072","0.0-12.0-2.15","0xo6h201o3","one_one","1","direct_first","1","io08pe23","0","28","1","1","3","1","","0","1","0","null","","","<img src = 'targets/33.png' width = '100%;'>","null","","","","","","","","","",""
"","html-keyboard-response","251","1248439","0.0-12.0-3.15","0xo6h201o3","one_one","1","direct_first","1","io08pe23","0","28","1","1","3","1","","0","1","0","363.52499993517995","","","<img src = 'targets/mask.png' width = '100%;'>","68","pos","GS","abstract","3","category3/wang.png","","targets/33.png","indirect","0","31"
"","survey-html-form","252","1254877","0.0-13.0","0xo6h201o3","one_one","1","direct_first","1","io08pe23","0","28","1","1","3","1","","0","1","0","5930.9249999932945","","{}","","","","","","","","","","","",""
"","image-slider-response","253","1259384","0.0-14.0-0.0","0xo6h201o3","one_one","1","direct_first","1","io08pe23","0","28","1","1","3","1","","0","1","0","3497.7100000251085","","","","","pos","All","all","3","category3/wang_all.png","77","","all","",""
"","image-slider-response","254","1262447","0.0-14.0-0.1","0xo6h201o3","one_one","1","direct_first","1","io08pe23","0","28","1","1","3","1","","0","1","0","3061.1499999649823","","","","","neg","All","all","4","category4/lin_all.png","26","","all","",""
"","image-slider-response","255","1266326","0.0-14.0-0.2","0xo6h201o3","one_one","1","direct_first","1","io08pe23","0","28","1","1","3","1","","0","1","0","3877.4500000290573","","","","","pos","All","all","2","category2/men_all.png","64","","all","",""
"","image-slider-response","256","1270301","0.0-14.0-0.3","0xo6h201o3","one_one","1","direct_first","1","io08pe23","0","28","1","1","3","1","","0","1","0","3973.435000050813","","","","","neg","All","all","1","category1/ma_all.png","-51","","all","",""
"","survey-text","257","1278252","0.0-15.0","0xo6h201o3","one_one","1","direct_first","1","io08pe23","0","28","1","1","3","1","","0","1","0","7940.109999850392","","{""comment"":""""}","","","","","","","","","","","",""
"","survey-html-form","258","1372255","0.0-16.0","0xo6h201o3","one_one","1","direct_first","1","io08pe23","0","28","1","1","3","1","","0","1","0","93999.30000002496","","{""hinschauen"":""0"",""ablenkung"":""1"",""gewissenhaft"":""0""}","","","","","","","","","","","",""
