"success","trial_type","trial_index","time_elapsed","internal_node_id","subject","condition","condition_code","measure","measure_code","codeword","gender","age","education","chinese","fach","handedness","comment","hinschauen","ablenkung","gewissenhaft","rt","url","responses","stimulus","key_press","val","type","type_specific","category","cs_selected","target","indirect","task","nr_pres","response"
"true","fullscreen","0","11611","0.0-0.0","3knv5n39nn","one_one","1","indirect_first","0","in06rg08","1","21","1","1","3","1","Mir selber ist aufgefallen, dass rundliche Symbole eher angenehm sind und eckige eher unangenehm sind.","0","1","0","","","","","","","","","","","","","","",""
"","external-html","1","36817","0.0-1.0","3knv5n39nn","one_one","1","indirect_first","0","in06rg08","1","21","1","1","3","1","Mir selber ist aufgefallen, dass rundliche Symbole eher angenehm sind und eckige eher unangenehm sind.","0","1","0","24967.320000054315","text/information.html","","","","","","","","","","","","",""
"","external-html","2","58905","0.0-2.0","3knv5n39nn","one_one","1","indirect_first","0","in06rg08","1","21","1","1","3","1","Mir selber ist aufgefallen, dass rundliche Symbole eher angenehm sind und eckige eher unangenehm sind.","0","1","0","21967.30999997817","text/consent.html","","","","","","","","","","","","",""
"","survey-html-form","3","139410","0.0-3.0","3knv5n39nn","one_one","1","indirect_first","0","in06rg08","1","21","1","1","3","1","Mir selber ist aufgefallen, dass rundliche Symbole eher angenehm sind und eckige eher unangenehm sind.","0","1","0","80504.27999999374","","{""codeword_enter"":""in06rg08""}","","","","","","","","","","","",""
"","survey-html-form","4","162363","0.0-4.0","3knv5n39nn","one_one","1","indirect_first","0","in06rg08","1","21","1","1","3","1","Mir selber ist aufgefallen, dass rundliche Symbole eher angenehm sind und eckige eher unangenehm sind.","0","1","0","22948.164999950677","","{""age"":""21"",""education"":""1"",""subject"":""3"",""gender"":""1"",""handedness"":""1"",""chinese"":""1""}","","","","","","","","","","","",""
"","survey-html-form","5","176214","0.0-5.0","3knv5n39nn","one_one","1","indirect_first","0","in06rg08","1","21","1","1","3","1","Mir selber ist aufgefallen, dass rundliche Symbole eher angenehm sind und eckige eher unangenehm sind.","0","1","0","13845.84499988705","","{}","","","","","","","","","","","",""
"","html-keyboard-response","6","180219","0.0-6.0-0.0-0.0","3knv5n39nn","one_one","1","indirect_first","0","in06rg08","1","21","1","1","3","1","Mir selber ist aufgefallen, dass rundliche Symbole eher angenehm sind und eckige eher unangenehm sind.","0","1","0","null","","","<div class = 'row'><div class = 'column'><img src = 'uspos/2311.bmp' width = '100%;'></div><div class = 'column'><img src = 'category2/CS10.png' width = '70%;'></div></div>","null","pos","CS","CS","2","category2/CS10.png","","","","",""
"","html-keyboard-response","7","182722","0.0-6.0-0.0-0.1","3knv5n39nn","one_one","1","indirect_first","0","in06rg08","1","21","1","1","3","1","Mir selber ist aufgefallen, dass rundliche Symbole eher angenehm sind und eckige eher unangenehm sind.","0","1","0","null","","","<div class = 'row'><div class = 'column'><img src = 'usneg/2750.bmp' width = '100%;'></div><div class = 'column'><img src = 'category3/CS7.png' width = '70%;'></div></div>","null","neg","CS","CS","3","category3/CS7.png","","","","",""
"","html-keyboard-response","8","185224","0.0-6.0-0.0-0.2","3knv5n39nn","one_one","1","indirect_first","0","in06rg08","1","21","1","1","3","1","Mir selber ist aufgefallen, dass rundliche Symbole eher angenehm sind und eckige eher unangenehm sind.","0","1","0","null","","","<div class = 'row'><div class = 'column'><img src = 'category1/CS8.png' width = '70%;'></div><div class = 'column'><img src = 'uspos/2030.bmp' width = '100%;'></div></div>","null","pos","CS","CS","1","category1/CS8.png","","","","",""
"","html-keyboard-response","9","187726","0.0-6.0-0.0-0.3","3knv5n39nn","one_one","1","indirect_first","0","in06rg08","1","21","1","1","3","1","Mir selber ist aufgefallen, dass rundliche Symbole eher angenehm sind und eckige eher unangenehm sind.","0","1","0","null","","","<div class = 'row'><div class = 'column'><img src = 'category2/CS10.png' width = '70%;'></div><div class = 'column'><img src = 'uspos/2311.bmp' width = '100%;'></div></div>","null","pos","CS","CS","2","category2/CS10.png","","","","",""
"","html-keyboard-response","10","190230","0.0-6.0-0.0-0.4","3knv5n39nn","one_one","1","indirect_first","0","in06rg08","1","21","1","1","3","1","Mir selber ist aufgefallen, dass rundliche Symbole eher angenehm sind und eckige eher unangenehm sind.","0","1","0","null","","","<div class = 'row'><div class = 'column'><img src = 'category3/CS7.png' width = '70%;'></div><div class = 'column'><img src = 'usneg/2750.bmp' width = '100%;'></div></div>","null","neg","CS","CS","3","category3/CS7.png","","","","",""
"","html-keyboard-response","11","192733","0.0-6.0-0.0-0.5","3knv5n39nn","one_one","1","indirect_first","0","in06rg08","1","21","1","1","3","1","Mir selber ist aufgefallen, dass rundliche Symbole eher angenehm sind und eckige eher unangenehm sind.","0","1","0","null","","","<div class = 'row'><div class = 'column'><img src = 'category2/CS10.png' width = '70%;'></div><div class = 'column'><img src = 'uspos/2311.bmp' width = '100%;'></div></div>","null","pos","CS","CS","2","category2/CS10.png","","","","",""
"","html-keyboard-response","12","195235","0.0-6.0-0.0-0.6","3knv5n39nn","one_one","1","indirect_first","0","in06rg08","1","21","1","1","3","1","Mir selber ist aufgefallen, dass rundliche Symbole eher angenehm sind und eckige eher unangenehm sind.","0","1","0","null","","","<div class = 'row'><div class = 'column'><img src = 'category4/CS8.png' width = '70%;'></div><div class = 'column'><img src = 'usneg/9180.bmp' width = '100%;'></div></div>","null","neg","CS","CS","4","category4/CS8.png","","","","",""
"","html-keyboard-response","13","197738","0.0-6.0-0.0-0.7","3knv5n39nn","one_one","1","indirect_first","0","in06rg08","1","21","1","1","3","1","Mir selber ist aufgefallen, dass rundliche Symbole eher angenehm sind und eckige eher unangenehm sind.","0","1","0","null","","","<div class = 'row'><div class = 'column'><img src = 'category1/CS8.png' width = '70%;'></div><div class = 'column'><img src = 'uspos/2030.bmp' width = '100%;'></div></div>","null","pos","CS","CS","1","category1/CS8.png","","","","",""
"","html-keyboard-response","14","200242","0.0-6.0-0.0-0.8","3knv5n39nn","one_one","1","indirect_first","0","in06rg08","1","21","1","1","3","1","Mir selber ist aufgefallen, dass rundliche Symbole eher angenehm sind und eckige eher unangenehm sind.","0","1","0","null","","","<div class = 'row'><div class = 'column'><img src = 'category4/CS8.png' width = '70%;'></div><div class = 'column'><img src = 'usneg/9180.bmp' width = '100%;'></div></div>","null","neg","CS","CS","4","category4/CS8.png","","","","",""
"","html-keyboard-response","15","202745","0.0-6.0-0.0-0.9","3knv5n39nn","one_one","1","indirect_first","0","in06rg08","1","21","1","1","3","1","Mir selber ist aufgefallen, dass rundliche Symbole eher angenehm sind und eckige eher unangenehm sind.","0","1","0","null","","","<div class = 'row'><div class = 'column'><img src = 'category2/CS10.png' width = '70%;'></div><div class = 'column'><img src = 'uspos/2311.bmp' width = '100%;'></div></div>","null","pos","CS","CS","2","category2/CS10.png","","","","",""
"","html-keyboard-response","16","205247","0.0-6.0-0.0-0.10","3knv5n39nn","one_one","1","indirect_first","0","in06rg08","1","21","1","1","3","1","Mir selber ist aufgefallen, dass rundliche Symbole eher angenehm sind und eckige eher unangenehm sind.","0","1","0","null","","","<div class = 'row'><div class = 'column'><img src = 'usneg/9180.bmp' width = '100%;'></div><div class = 'column'><img src = 'category4/CS8.png' width = '70%;'></div></div>","null","neg","CS","CS","4","category4/CS8.png","","","","",""
"","html-keyboard-response","17","207748","0.0-6.0-0.0-0.11","3knv5n39nn","one_one","1","indirect_first","0","in06rg08","1","21","1","1","3","1","Mir selber ist aufgefallen, dass rundliche Symbole eher angenehm sind und eckige eher unangenehm sind.","0","1","0","null","","","<div class = 'row'><div class = 'column'><img src = 'category3/CS7.png' width = '70%;'></div><div class = 'column'><img src = 'usneg/2750.bmp' width = '100%;'></div></div>","null","neg","CS","CS","3","category3/CS7.png","","","","",""
"","html-keyboard-response","18","210253","0.0-6.0-0.0-0.12","3knv5n39nn","one_one","1","indirect_first","0","in06rg08","1","21","1","1","3","1","Mir selber ist aufgefallen, dass rundliche Symbole eher angenehm sind und eckige eher unangenehm sind.","0","1","0","null","","","<div class = 'row'><div class = 'column'><img src = 'category1/CS8.png' width = '70%;'></div><div class = 'column'><img src = 'uspos/2030.bmp' width = '100%;'></div></div>","null","pos","CS","CS","1","category1/CS8.png","","","","",""
"","html-keyboard-response","19","212756","0.0-6.0-0.0-0.13","3knv5n39nn","one_one","1","indirect_first","0","in06rg08","1","21","1","1","3","1","Mir selber ist aufgefallen, dass rundliche Symbole eher angenehm sind und eckige eher unangenehm sind.","0","1","0","null","","","<div class = 'row'><div class = 'column'><img src = 'usneg/9180.bmp' width = '100%;'></div><div class = 'column'><img src = 'category4/CS8.png' width = '70%;'></div></div>","null","neg","CS","CS","4","category4/CS8.png","","","","",""
"","html-keyboard-response","20","215259","0.0-6.0-0.0-0.14","3knv5n39nn","one_one","1","indirect_first","0","in06rg08","1","21","1","1","3","1","Mir selber ist aufgefallen, dass rundliche Symbole eher angenehm sind und eckige eher unangenehm sind.","0","1","0","null","","","<div class = 'row'><div class = 'column'><img src = 'uspos/2030.bmp' width = '100%;'></div><div class = 'column'><img src = 'category1/CS8.png' width = '70%;'></div></div>","null","pos","CS","CS","1","category1/CS8.png","","","","",""
"","html-keyboard-response","21","217762","0.0-6.0-0.0-0.15","3knv5n39nn","one_one","1","indirect_first","0","in06rg08","1","21","1","1","3","1","Mir selber ist aufgefallen, dass rundliche Symbole eher angenehm sind und eckige eher unangenehm sind.","0","1","0","null","","","<div class = 'row'><div class = 'column'><img src = 'uspos/2311.bmp' width = '100%;'></div><div class = 'column'><img src = 'category2/CS10.png' width = '70%;'></div></div>","null","pos","CS","CS","2","category2/CS10.png","","","","",""
"","html-keyboard-response","22","220265","0.0-6.0-0.0-0.16","3knv5n39nn","one_one","1","indirect_first","0","in06rg08","1","21","1","1","3","1","Mir selber ist aufgefallen, dass rundliche Symbole eher angenehm sind und eckige eher unangenehm sind.","0","1","0","null","","","<div class = 'row'><div class = 'column'><img src = 'category3/CS7.png' width = '70%;'></div><div class = 'column'><img src = 'usneg/2750.bmp' width = '100%;'></div></div>","null","neg","CS","CS","3","category3/CS7.png","","","","",""
"","html-keyboard-response","23","222769","0.0-6.0-0.0-0.17","3knv5n39nn","one_one","1","indirect_first","0","in06rg08","1","21","1","1","3","1","Mir selber ist aufgefallen, dass rundliche Symbole eher angenehm sind und eckige eher unangenehm sind.","0","1","0","null","","","<div class = 'row'><div class = 'column'><img src = 'category1/CS8.png' width = '70%;'></div><div class = 'column'><img src = 'uspos/2030.bmp' width = '100%;'></div></div>","null","pos","CS","CS","1","category1/CS8.png","","","","",""
"","html-keyboard-response","24","225271","0.0-6.0-0.0-0.18","3knv5n39nn","one_one","1","indirect_first","0","in06rg08","1","21","1","1","3","1","Mir selber ist aufgefallen, dass rundliche Symbole eher angenehm sind und eckige eher unangenehm sind.","0","1","0","null","","","<div class = 'row'><div class = 'column'><img src = 'usneg/2750.bmp' width = '100%;'></div><div class = 'column'><img src = 'category3/CS7.png' width = '70%;'></div></div>","null","neg","CS","CS","3","category3/CS7.png","","","","",""
"","html-keyboard-response","25","227774","0.0-6.0-0.0-0.19","3knv5n39nn","one_one","1","indirect_first","0","in06rg08","1","21","1","1","3","1","Mir selber ist aufgefallen, dass rundliche Symbole eher angenehm sind und eckige eher unangenehm sind.","0","1","0","null","","","<div class = 'row'><div class = 'column'><img src = 'usneg/9180.bmp' width = '100%;'></div><div class = 'column'><img src = 'category4/CS8.png' width = '70%;'></div></div>","null","neg","CS","CS","4","category4/CS8.png","","","","",""
"","survey-html-form","26","232365","0.0-6.0-1.0","3knv5n39nn","one_one","1","indirect_first","0","in06rg08","1","21","1","1","3","1","Mir selber ist aufgefallen, dass rundliche Symbole eher angenehm sind und eckige eher unangenehm sind.","0","1","0","4089.4150000531226","","{}","","","","","","","","","","","",""
"","html-keyboard-response","27","236369","0.0-6.0-2.0-0.0","3knv5n39nn","one_one","1","indirect_first","0","in06rg08","1","21","1","1","3","1","Mir selber ist aufgefallen, dass rundliche Symbole eher angenehm sind und eckige eher unangenehm sind.","0","1","0","null","","","<div class = 'row'><div class = 'column'><img src = 'category1/CS8.png' width = '70%;'></div><div class = 'column'><img src = 'uspos/2030.bmp' width = '100%;'></div></div>","null","pos","CS","CS","1","category1/CS8.png","","","","",""
"","html-keyboard-response","28","238872","0.0-6.0-2.0-0.1","3knv5n39nn","one_one","1","indirect_first","0","in06rg08","1","21","1","1","3","1","Mir selber ist aufgefallen, dass rundliche Symbole eher angenehm sind und eckige eher unangenehm sind.","0","1","0","null","","","<div class = 'row'><div class = 'column'><img src = 'usneg/2750.bmp' width = '100%;'></div><div class = 'column'><img src = 'category3/CS7.png' width = '70%;'></div></div>","null","neg","CS","CS","3","category3/CS7.png","","","","",""
"","html-keyboard-response","29","241374","0.0-6.0-2.0-0.2","3knv5n39nn","one_one","1","indirect_first","0","in06rg08","1","21","1","1","3","1","Mir selber ist aufgefallen, dass rundliche Symbole eher angenehm sind und eckige eher unangenehm sind.","0","1","0","null","","","<div class = 'row'><div class = 'column'><img src = 'uspos/2311.bmp' width = '100%;'></div><div class = 'column'><img src = 'category2/CS10.png' width = '70%;'></div></div>","null","pos","CS","CS","2","category2/CS10.png","","","","",""
"","html-keyboard-response","30","243876","0.0-6.0-2.0-0.3","3knv5n39nn","one_one","1","indirect_first","0","in06rg08","1","21","1","1","3","1","Mir selber ist aufgefallen, dass rundliche Symbole eher angenehm sind und eckige eher unangenehm sind.","0","1","0","null","","","<div class = 'row'><div class = 'column'><img src = 'usneg/9180.bmp' width = '100%;'></div><div class = 'column'><img src = 'category4/CS8.png' width = '70%;'></div></div>","null","neg","CS","CS","4","category4/CS8.png","","","","",""
"","html-keyboard-response","31","246381","0.0-6.0-2.0-0.4","3knv5n39nn","one_one","1","indirect_first","0","in06rg08","1","21","1","1","3","1","Mir selber ist aufgefallen, dass rundliche Symbole eher angenehm sind und eckige eher unangenehm sind.","0","1","0","null","","","<div class = 'row'><div class = 'column'><img src = 'category2/CS10.png' width = '70%;'></div><div class = 'column'><img src = 'uspos/2311.bmp' width = '100%;'></div></div>","null","pos","CS","CS","2","category2/CS10.png","","","","",""
"","html-keyboard-response","32","248884","0.0-6.0-2.0-0.5","3knv5n39nn","one_one","1","indirect_first","0","in06rg08","1","21","1","1","3","1","Mir selber ist aufgefallen, dass rundliche Symbole eher angenehm sind und eckige eher unangenehm sind.","0","1","0","null","","","<div class = 'row'><div class = 'column'><img src = 'category4/CS8.png' width = '70%;'></div><div class = 'column'><img src = 'usneg/9180.bmp' width = '100%;'></div></div>","null","neg","CS","CS","4","category4/CS8.png","","","","",""
"","html-keyboard-response","33","251386","0.0-6.0-2.0-0.6","3knv5n39nn","one_one","1","indirect_first","0","in06rg08","1","21","1","1","3","1","Mir selber ist aufgefallen, dass rundliche Symbole eher angenehm sind und eckige eher unangenehm sind.","0","1","0","null","","","<div class = 'row'><div class = 'column'><img src = 'category2/CS10.png' width = '70%;'></div><div class = 'column'><img src = 'uspos/2311.bmp' width = '100%;'></div></div>","null","pos","CS","CS","2","category2/CS10.png","","","","",""
"","html-keyboard-response","34","253888","0.0-6.0-2.0-0.7","3knv5n39nn","one_one","1","indirect_first","0","in06rg08","1","21","1","1","3","1","Mir selber ist aufgefallen, dass rundliche Symbole eher angenehm sind und eckige eher unangenehm sind.","0","1","0","null","","","<div class = 'row'><div class = 'column'><img src = 'category3/CS7.png' width = '70%;'></div><div class = 'column'><img src = 'usneg/2750.bmp' width = '100%;'></div></div>","null","neg","CS","CS","3","category3/CS7.png","","","","",""
"","html-keyboard-response","35","256392","0.0-6.0-2.0-0.8","3knv5n39nn","one_one","1","indirect_first","0","in06rg08","1","21","1","1","3","1","Mir selber ist aufgefallen, dass rundliche Symbole eher angenehm sind und eckige eher unangenehm sind.","0","1","0","null","","","<div class = 'row'><div class = 'column'><img src = 'category1/CS8.png' width = '70%;'></div><div class = 'column'><img src = 'uspos/2030.bmp' width = '100%;'></div></div>","null","pos","CS","CS","1","category1/CS8.png","","","","",""
"","html-keyboard-response","36","258896","0.0-6.0-2.0-0.9","3knv5n39nn","one_one","1","indirect_first","0","in06rg08","1","21","1","1","3","1","Mir selber ist aufgefallen, dass rundliche Symbole eher angenehm sind und eckige eher unangenehm sind.","0","1","0","null","","","<div class = 'row'><div class = 'column'><img src = 'category3/CS7.png' width = '70%;'></div><div class = 'column'><img src = 'usneg/2750.bmp' width = '100%;'></div></div>","null","neg","CS","CS","3","category3/CS7.png","","","","",""
"","html-keyboard-response","37","261398","0.0-6.0-2.0-0.10","3knv5n39nn","one_one","1","indirect_first","0","in06rg08","1","21","1","1","3","1","Mir selber ist aufgefallen, dass rundliche Symbole eher angenehm sind und eckige eher unangenehm sind.","0","1","0","null","","","<div class = 'row'><div class = 'column'><img src = 'uspos/2030.bmp' width = '100%;'></div><div class = 'column'><img src = 'category1/CS8.png' width = '70%;'></div></div>","null","pos","CS","CS","1","category1/CS8.png","","","","",""
"","html-keyboard-response","38","263902","0.0-6.0-2.0-0.11","3knv5n39nn","one_one","1","indirect_first","0","in06rg08","1","21","1","1","3","1","Mir selber ist aufgefallen, dass rundliche Symbole eher angenehm sind und eckige eher unangenehm sind.","0","1","0","null","","","<div class = 'row'><div class = 'column'><img src = 'usneg/2750.bmp' width = '100%;'></div><div class = 'column'><img src = 'category3/CS7.png' width = '70%;'></div></div>","null","neg","CS","CS","3","category3/CS7.png","","","","",""
"","html-keyboard-response","39","266405","0.0-6.0-2.0-0.12","3knv5n39nn","one_one","1","indirect_first","0","in06rg08","1","21","1","1","3","1","Mir selber ist aufgefallen, dass rundliche Symbole eher angenehm sind und eckige eher unangenehm sind.","0","1","0","null","","","<div class = 'row'><div class = 'column'><img src = 'uspos/2311.bmp' width = '100%;'></div><div class = 'column'><img src = 'category2/CS10.png' width = '70%;'></div></div>","null","pos","CS","CS","2","category2/CS10.png","","","","",""
"","html-keyboard-response","40","268907","0.0-6.0-2.0-0.13","3knv5n39nn","one_one","1","indirect_first","0","in06rg08","1","21","1","1","3","1","Mir selber ist aufgefallen, dass rundliche Symbole eher angenehm sind und eckige eher unangenehm sind.","0","1","0","null","","","<div class = 'row'><div class = 'column'><img src = 'category3/CS7.png' width = '70%;'></div><div class = 'column'><img src = 'usneg/2750.bmp' width = '100%;'></div></div>","null","neg","CS","CS","3","category3/CS7.png","","","","",""
"","html-keyboard-response","41","271409","0.0-6.0-2.0-0.14","3knv5n39nn","one_one","1","indirect_first","0","in06rg08","1","21","1","1","3","1","Mir selber ist aufgefallen, dass rundliche Symbole eher angenehm sind und eckige eher unangenehm sind.","0","1","0","null","","","<div class = 'row'><div class = 'column'><img src = 'usneg/9180.bmp' width = '100%;'></div><div class = 'column'><img src = 'category4/CS8.png' width = '70%;'></div></div>","null","neg","CS","CS","4","category4/CS8.png","","","","",""
"","html-keyboard-response","42","273912","0.0-6.0-2.0-0.15","3knv5n39nn","one_one","1","indirect_first","0","in06rg08","1","21","1","1","3","1","Mir selber ist aufgefallen, dass rundliche Symbole eher angenehm sind und eckige eher unangenehm sind.","0","1","0","null","","","<div class = 'row'><div class = 'column'><img src = 'category1/CS8.png' width = '70%;'></div><div class = 'column'><img src = 'uspos/2030.bmp' width = '100%;'></div></div>","null","pos","CS","CS","1","category1/CS8.png","","","","",""
"","html-keyboard-response","43","276417","0.0-6.0-2.0-0.16","3knv5n39nn","one_one","1","indirect_first","0","in06rg08","1","21","1","1","3","1","Mir selber ist aufgefallen, dass rundliche Symbole eher angenehm sind und eckige eher unangenehm sind.","0","1","0","null","","","<div class = 'row'><div class = 'column'><img src = 'category4/CS8.png' width = '70%;'></div><div class = 'column'><img src = 'usneg/9180.bmp' width = '100%;'></div></div>","null","neg","CS","CS","4","category4/CS8.png","","","","",""
"","html-keyboard-response","44","278919","0.0-6.0-2.0-0.17","3knv5n39nn","one_one","1","indirect_first","0","in06rg08","1","21","1","1","3","1","Mir selber ist aufgefallen, dass rundliche Symbole eher angenehm sind und eckige eher unangenehm sind.","0","1","0","null","","","<div class = 'row'><div class = 'column'><img src = 'category2/CS10.png' width = '70%;'></div><div class = 'column'><img src = 'uspos/2311.bmp' width = '100%;'></div></div>","null","pos","CS","CS","2","category2/CS10.png","","","","",""
"","html-keyboard-response","45","281421","0.0-6.0-2.0-0.18","3knv5n39nn","one_one","1","indirect_first","0","in06rg08","1","21","1","1","3","1","Mir selber ist aufgefallen, dass rundliche Symbole eher angenehm sind und eckige eher unangenehm sind.","0","1","0","null","","","<div class = 'row'><div class = 'column'><img src = 'usneg/9180.bmp' width = '100%;'></div><div class = 'column'><img src = 'category4/CS8.png' width = '70%;'></div></div>","null","neg","CS","CS","4","category4/CS8.png","","","","",""
"","html-keyboard-response","46","283925","0.0-6.0-2.0-0.19","3knv5n39nn","one_one","1","indirect_first","0","in06rg08","1","21","1","1","3","1","Mir selber ist aufgefallen, dass rundliche Symbole eher angenehm sind und eckige eher unangenehm sind.","0","1","0","null","","","<div class = 'row'><div class = 'column'><img src = 'uspos/2030.bmp' width = '100%;'></div><div class = 'column'><img src = 'category1/CS8.png' width = '70%;'></div></div>","null","pos","CS","CS","1","category1/CS8.png","","","","",""
"","survey-html-form","47","289889","0.0-6.0-3.0","3knv5n39nn","one_one","1","indirect_first","0","in06rg08","1","21","1","1","3","1","Mir selber ist aufgefallen, dass rundliche Symbole eher angenehm sind und eckige eher unangenehm sind.","0","1","0","5461.674999911338","","{}","","","","","","","","","","","",""
"","html-keyboard-response","48","293892","0.0-6.0-4.0-0.0","3knv5n39nn","one_one","1","indirect_first","0","in06rg08","1","21","1","1","3","1","Mir selber ist aufgefallen, dass rundliche Symbole eher angenehm sind und eckige eher unangenehm sind.","0","1","0","null","","","<div class = 'row'><div class = 'column'><img src = 'category4/CS8.png' width = '70%;'></div><div class = 'column'><img src = 'usneg/9180.bmp' width = '100%;'></div></div>","null","neg","CS","CS","4","category4/CS8.png","","","","",""
"","html-keyboard-response","49","296395","0.0-6.0-4.0-0.1","3knv5n39nn","one_one","1","indirect_first","0","in06rg08","1","21","1","1","3","1","Mir selber ist aufgefallen, dass rundliche Symbole eher angenehm sind und eckige eher unangenehm sind.","0","1","0","null","","","<div class = 'row'><div class = 'column'><img src = 'uspos/2311.bmp' width = '100%;'></div><div class = 'column'><img src = 'category2/CS10.png' width = '70%;'></div></div>","null","pos","CS","CS","2","category2/CS10.png","","","","",""
"","html-keyboard-response","50","298897","0.0-6.0-4.0-0.2","3knv5n39nn","one_one","1","indirect_first","0","in06rg08","1","21","1","1","3","1","Mir selber ist aufgefallen, dass rundliche Symbole eher angenehm sind und eckige eher unangenehm sind.","0","1","0","null","","","<div class = 'row'><div class = 'column'><img src = 'uspos/2030.bmp' width = '100%;'></div><div class = 'column'><img src = 'category1/CS8.png' width = '70%;'></div></div>","null","pos","CS","CS","1","category1/CS8.png","","","","",""
"","html-keyboard-response","51","301400","0.0-6.0-4.0-0.3","3knv5n39nn","one_one","1","indirect_first","0","in06rg08","1","21","1","1","3","1","Mir selber ist aufgefallen, dass rundliche Symbole eher angenehm sind und eckige eher unangenehm sind.","0","1","0","null","","","<div class = 'row'><div class = 'column'><img src = 'usneg/2750.bmp' width = '100%;'></div><div class = 'column'><img src = 'category3/CS7.png' width = '70%;'></div></div>","null","neg","CS","CS","3","category3/CS7.png","","","","",""
"","html-keyboard-response","52","303904","0.0-6.0-4.0-0.4","3knv5n39nn","one_one","1","indirect_first","0","in06rg08","1","21","1","1","3","1","Mir selber ist aufgefallen, dass rundliche Symbole eher angenehm sind und eckige eher unangenehm sind.","0","1","0","null","","","<div class = 'row'><div class = 'column'><img src = 'usneg/9180.bmp' width = '100%;'></div><div class = 'column'><img src = 'category4/CS8.png' width = '70%;'></div></div>","null","neg","CS","CS","4","category4/CS8.png","","","","",""
"","html-keyboard-response","53","306406","0.0-6.0-4.0-0.5","3knv5n39nn","one_one","1","indirect_first","0","in06rg08","1","21","1","1","3","1","Mir selber ist aufgefallen, dass rundliche Symbole eher angenehm sind und eckige eher unangenehm sind.","0","1","0","null","","","<div class = 'row'><div class = 'column'><img src = 'uspos/2311.bmp' width = '100%;'></div><div class = 'column'><img src = 'category2/CS10.png' width = '70%;'></div></div>","null","pos","CS","CS","2","category2/CS10.png","","","","",""
"","html-keyboard-response","54","308909","0.0-6.0-4.0-0.6","3knv5n39nn","one_one","1","indirect_first","0","in06rg08","1","21","1","1","3","1","Mir selber ist aufgefallen, dass rundliche Symbole eher angenehm sind und eckige eher unangenehm sind.","0","1","0","null","","","<div class = 'row'><div class = 'column'><img src = 'category4/CS8.png' width = '70%;'></div><div class = 'column'><img src = 'usneg/9180.bmp' width = '100%;'></div></div>","null","neg","CS","CS","4","category4/CS8.png","","","","",""
"","html-keyboard-response","55","311412","0.0-6.0-4.0-0.7","3knv5n39nn","one_one","1","indirect_first","0","in06rg08","1","21","1","1","3","1","Mir selber ist aufgefallen, dass rundliche Symbole eher angenehm sind und eckige eher unangenehm sind.","0","1","0","null","","","<div class = 'row'><div class = 'column'><img src = 'usneg/2750.bmp' width = '100%;'></div><div class = 'column'><img src = 'category3/CS7.png' width = '70%;'></div></div>","null","neg","CS","CS","3","category3/CS7.png","","","","",""
"","html-keyboard-response","56","313915","0.0-6.0-4.0-0.8","3knv5n39nn","one_one","1","indirect_first","0","in06rg08","1","21","1","1","3","1","Mir selber ist aufgefallen, dass rundliche Symbole eher angenehm sind und eckige eher unangenehm sind.","0","1","0","null","","","<div class = 'row'><div class = 'column'><img src = 'uspos/2030.bmp' width = '100%;'></div><div class = 'column'><img src = 'category1/CS8.png' width = '70%;'></div></div>","null","pos","CS","CS","1","category1/CS8.png","","","","",""
"","html-keyboard-response","57","316418","0.0-6.0-4.0-0.9","3knv5n39nn","one_one","1","indirect_first","0","in06rg08","1","21","1","1","3","1","Mir selber ist aufgefallen, dass rundliche Symbole eher angenehm sind und eckige eher unangenehm sind.","0","1","0","null","","","<div class = 'row'><div class = 'column'><img src = 'uspos/2311.bmp' width = '100%;'></div><div class = 'column'><img src = 'category2/CS10.png' width = '70%;'></div></div>","null","pos","CS","CS","2","category2/CS10.png","","","","",""
"","html-keyboard-response","58","318920","0.0-6.0-4.0-0.10","3knv5n39nn","one_one","1","indirect_first","0","in06rg08","1","21","1","1","3","1","Mir selber ist aufgefallen, dass rundliche Symbole eher angenehm sind und eckige eher unangenehm sind.","0","1","0","null","","","<div class = 'row'><div class = 'column'><img src = 'category3/CS7.png' width = '70%;'></div><div class = 'column'><img src = 'usneg/2750.bmp' width = '100%;'></div></div>","null","neg","CS","CS","3","category3/CS7.png","","","","",""
"","html-keyboard-response","59","321422","0.0-6.0-4.0-0.11","3knv5n39nn","one_one","1","indirect_first","0","in06rg08","1","21","1","1","3","1","Mir selber ist aufgefallen, dass rundliche Symbole eher angenehm sind und eckige eher unangenehm sind.","0","1","0","null","","","<div class = 'row'><div class = 'column'><img src = 'uspos/2030.bmp' width = '100%;'></div><div class = 'column'><img src = 'category1/CS8.png' width = '70%;'></div></div>","null","pos","CS","CS","1","category1/CS8.png","","","","",""
"","html-keyboard-response","60","323926","0.0-6.0-4.0-0.12","3knv5n39nn","one_one","1","indirect_first","0","in06rg08","1","21","1","1","3","1","Mir selber ist aufgefallen, dass rundliche Symbole eher angenehm sind und eckige eher unangenehm sind.","0","1","0","null","","","<div class = 'row'><div class = 'column'><img src = 'category4/CS8.png' width = '70%;'></div><div class = 'column'><img src = 'usneg/9180.bmp' width = '100%;'></div></div>","null","neg","CS","CS","4","category4/CS8.png","","","","",""
"","html-keyboard-response","61","326428","0.0-6.0-4.0-0.13","3knv5n39nn","one_one","1","indirect_first","0","in06rg08","1","21","1","1","3","1","Mir selber ist aufgefallen, dass rundliche Symbole eher angenehm sind und eckige eher unangenehm sind.","0","1","0","null","","","<div class = 'row'><div class = 'column'><img src = 'category3/CS7.png' width = '70%;'></div><div class = 'column'><img src = 'usneg/2750.bmp' width = '100%;'></div></div>","null","neg","CS","CS","3","category3/CS7.png","","","","",""
"","html-keyboard-response","62","328930","0.0-6.0-4.0-0.14","3knv5n39nn","one_one","1","indirect_first","0","in06rg08","1","21","1","1","3","1","Mir selber ist aufgefallen, dass rundliche Symbole eher angenehm sind und eckige eher unangenehm sind.","0","1","0","null","","","<div class = 'row'><div class = 'column'><img src = 'uspos/2311.bmp' width = '100%;'></div><div class = 'column'><img src = 'category2/CS10.png' width = '70%;'></div></div>","null","pos","CS","CS","2","category2/CS10.png","","","","",""
"","html-keyboard-response","63","331433","0.0-6.0-4.0-0.15","3knv5n39nn","one_one","1","indirect_first","0","in06rg08","1","21","1","1","3","1","Mir selber ist aufgefallen, dass rundliche Symbole eher angenehm sind und eckige eher unangenehm sind.","0","1","0","null","","","<div class = 'row'><div class = 'column'><img src = 'uspos/2030.bmp' width = '100%;'></div><div class = 'column'><img src = 'category1/CS8.png' width = '70%;'></div></div>","null","pos","CS","CS","1","category1/CS8.png","","","","",""
"","html-keyboard-response","64","333938","0.0-6.0-4.0-0.16","3knv5n39nn","one_one","1","indirect_first","0","in06rg08","1","21","1","1","3","1","Mir selber ist aufgefallen, dass rundliche Symbole eher angenehm sind und eckige eher unangenehm sind.","0","1","0","null","","","<div class = 'row'><div class = 'column'><img src = 'usneg/9180.bmp' width = '100%;'></div><div class = 'column'><img src = 'category4/CS8.png' width = '70%;'></div></div>","null","neg","CS","CS","4","category4/CS8.png","","","","",""
"","html-keyboard-response","65","336440","0.0-6.0-4.0-0.17","3knv5n39nn","one_one","1","indirect_first","0","in06rg08","1","21","1","1","3","1","Mir selber ist aufgefallen, dass rundliche Symbole eher angenehm sind und eckige eher unangenehm sind.","0","1","0","null","","","<div class = 'row'><div class = 'column'><img src = 'category3/CS7.png' width = '70%;'></div><div class = 'column'><img src = 'usneg/2750.bmp' width = '100%;'></div></div>","null","neg","CS","CS","3","category3/CS7.png","","","","",""
"","html-keyboard-response","66","338943","0.0-6.0-4.0-0.18","3knv5n39nn","one_one","1","indirect_first","0","in06rg08","1","21","1","1","3","1","Mir selber ist aufgefallen, dass rundliche Symbole eher angenehm sind und eckige eher unangenehm sind.","0","1","0","null","","","<div class = 'row'><div class = 'column'><img src = 'category1/CS8.png' width = '70%;'></div><div class = 'column'><img src = 'uspos/2030.bmp' width = '100%;'></div></div>","null","pos","CS","CS","1","category1/CS8.png","","","","",""
"","html-keyboard-response","67","341445","0.0-6.0-4.0-0.19","3knv5n39nn","one_one","1","indirect_first","0","in06rg08","1","21","1","1","3","1","Mir selber ist aufgefallen, dass rundliche Symbole eher angenehm sind und eckige eher unangenehm sind.","0","1","0","null","","","<div class = 'row'><div class = 'column'><img src = 'category2/CS10.png' width = '70%;'></div><div class = 'column'><img src = 'uspos/2311.bmp' width = '100%;'></div></div>","null","pos","CS","CS","2","category2/CS10.png","","","","",""
"","survey-html-form","68","342842","0.0-6.0-5.0","3knv5n39nn","one_one","1","indirect_first","0","in06rg08","1","21","1","1","3","1","Mir selber ist aufgefallen, dass rundliche Symbole eher angenehm sind und eckige eher unangenehm sind.","0","1","0","894.1300001461059","","{}","","","","","","","","","","","",""
"","html-keyboard-response","69","346846","0.0-6.0-6.0-0.0","3knv5n39nn","one_one","1","indirect_first","0","in06rg08","1","21","1","1","3","1","Mir selber ist aufgefallen, dass rundliche Symbole eher angenehm sind und eckige eher unangenehm sind.","0","1","0","null","","","<div class = 'row'><div class = 'column'><img src = 'category1/CS8.png' width = '70%;'></div><div class = 'column'><img src = 'uspos/2030.bmp' width = '100%;'></div></div>","null","pos","CS","CS","1","category1/CS8.png","","","","",""
"","html-keyboard-response","70","349350","0.0-6.0-6.0-0.1","3knv5n39nn","one_one","1","indirect_first","0","in06rg08","1","21","1","1","3","1","Mir selber ist aufgefallen, dass rundliche Symbole eher angenehm sind und eckige eher unangenehm sind.","0","1","0","null","","","<div class = 'row'><div class = 'column'><img src = 'category3/CS7.png' width = '70%;'></div><div class = 'column'><img src = 'usneg/2750.bmp' width = '100%;'></div></div>","null","neg","CS","CS","3","category3/CS7.png","","","","",""
"","html-keyboard-response","71","351853","0.0-6.0-6.0-0.2","3knv5n39nn","one_one","1","indirect_first","0","in06rg08","1","21","1","1","3","1","Mir selber ist aufgefallen, dass rundliche Symbole eher angenehm sind und eckige eher unangenehm sind.","0","1","0","null","","","<div class = 'row'><div class = 'column'><img src = 'category4/CS8.png' width = '70%;'></div><div class = 'column'><img src = 'usneg/9180.bmp' width = '100%;'></div></div>","null","neg","CS","CS","4","category4/CS8.png","","","","",""
"","html-keyboard-response","72","354358","0.0-6.0-6.0-0.3","3knv5n39nn","one_one","1","indirect_first","0","in06rg08","1","21","1","1","3","1","Mir selber ist aufgefallen, dass rundliche Symbole eher angenehm sind und eckige eher unangenehm sind.","0","1","0","null","","","<div class = 'row'><div class = 'column'><img src = 'category2/CS10.png' width = '70%;'></div><div class = 'column'><img src = 'uspos/2311.bmp' width = '100%;'></div></div>","null","pos","CS","CS","2","category2/CS10.png","","","","",""
"","html-keyboard-response","73","356861","0.0-6.0-6.0-0.4","3knv5n39nn","one_one","1","indirect_first","0","in06rg08","1","21","1","1","3","1","Mir selber ist aufgefallen, dass rundliche Symbole eher angenehm sind und eckige eher unangenehm sind.","0","1","0","null","","","<div class = 'row'><div class = 'column'><img src = 'usneg/2750.bmp' width = '100%;'></div><div class = 'column'><img src = 'category3/CS7.png' width = '70%;'></div></div>","null","neg","CS","CS","3","category3/CS7.png","","","","",""
"","html-keyboard-response","74","359363","0.0-6.0-6.0-0.5","3knv5n39nn","one_one","1","indirect_first","0","in06rg08","1","21","1","1","3","1","Mir selber ist aufgefallen, dass rundliche Symbole eher angenehm sind und eckige eher unangenehm sind.","0","1","0","null","","","<div class = 'row'><div class = 'column'><img src = 'usneg/9180.bmp' width = '100%;'></div><div class = 'column'><img src = 'category4/CS8.png' width = '70%;'></div></div>","null","neg","CS","CS","4","category4/CS8.png","","","","",""
"","html-keyboard-response","75","361865","0.0-6.0-6.0-0.6","3knv5n39nn","one_one","1","indirect_first","0","in06rg08","1","21","1","1","3","1","Mir selber ist aufgefallen, dass rundliche Symbole eher angenehm sind und eckige eher unangenehm sind.","0","1","0","null","","","<div class = 'row'><div class = 'column'><img src = 'uspos/2311.bmp' width = '100%;'></div><div class = 'column'><img src = 'category2/CS10.png' width = '70%;'></div></div>","null","pos","CS","CS","2","category2/CS10.png","","","","",""
"","html-keyboard-response","76","364368","0.0-6.0-6.0-0.7","3knv5n39nn","one_one","1","indirect_first","0","in06rg08","1","21","1","1","3","1","Mir selber ist aufgefallen, dass rundliche Symbole eher angenehm sind und eckige eher unangenehm sind.","0","1","0","null","","","<div class = 'row'><div class = 'column'><img src = 'usneg/2750.bmp' width = '100%;'></div><div class = 'column'><img src = 'category3/CS7.png' width = '70%;'></div></div>","null","neg","CS","CS","3","category3/CS7.png","","","","",""
"","html-keyboard-response","77","366870","0.0-6.0-6.0-0.8","3knv5n39nn","one_one","1","indirect_first","0","in06rg08","1","21","1","1","3","1","Mir selber ist aufgefallen, dass rundliche Symbole eher angenehm sind und eckige eher unangenehm sind.","0","1","0","null","","","<div class = 'row'><div class = 'column'><img src = 'category1/CS8.png' width = '70%;'></div><div class = 'column'><img src = 'uspos/2030.bmp' width = '100%;'></div></div>","null","pos","CS","CS","1","category1/CS8.png","","","","",""
"","html-keyboard-response","78","369373","0.0-6.0-6.0-0.9","3knv5n39nn","one_one","1","indirect_first","0","in06rg08","1","21","1","1","3","1","Mir selber ist aufgefallen, dass rundliche Symbole eher angenehm sind und eckige eher unangenehm sind.","0","1","0","null","","","<div class = 'row'><div class = 'column'><img src = 'category2/CS10.png' width = '70%;'></div><div class = 'column'><img src = 'uspos/2311.bmp' width = '100%;'></div></div>","null","pos","CS","CS","2","category2/CS10.png","","","","",""
"","html-keyboard-response","79","371875","0.0-6.0-6.0-0.10","3knv5n39nn","one_one","1","indirect_first","0","in06rg08","1","21","1","1","3","1","Mir selber ist aufgefallen, dass rundliche Symbole eher angenehm sind und eckige eher unangenehm sind.","0","1","0","null","","","<div class = 'row'><div class = 'column'><img src = 'usneg/9180.bmp' width = '100%;'></div><div class = 'column'><img src = 'category4/CS8.png' width = '70%;'></div></div>","null","neg","CS","CS","4","category4/CS8.png","","","","",""
"","html-keyboard-response","80","374379","0.0-6.0-6.0-0.11","3knv5n39nn","one_one","1","indirect_first","0","in06rg08","1","21","1","1","3","1","Mir selber ist aufgefallen, dass rundliche Symbole eher angenehm sind und eckige eher unangenehm sind.","0","1","0","null","","","<div class = 'row'><div class = 'column'><img src = 'category1/CS8.png' width = '70%;'></div><div class = 'column'><img src = 'uspos/2030.bmp' width = '100%;'></div></div>","null","pos","CS","CS","1","category1/CS8.png","","","","",""
"","html-keyboard-response","81","376881","0.0-6.0-6.0-0.12","3knv5n39nn","one_one","1","indirect_first","0","in06rg08","1","21","1","1","3","1","Mir selber ist aufgefallen, dass rundliche Symbole eher angenehm sind und eckige eher unangenehm sind.","0","1","0","null","","","<div class = 'row'><div class = 'column'><img src = 'category3/CS7.png' width = '70%;'></div><div class = 'column'><img src = 'usneg/2750.bmp' width = '100%;'></div></div>","null","neg","CS","CS","3","category3/CS7.png","","","","",""
"","html-keyboard-response","82","379384","0.0-6.0-6.0-0.13","3knv5n39nn","one_one","1","indirect_first","0","in06rg08","1","21","1","1","3","1","Mir selber ist aufgefallen, dass rundliche Symbole eher angenehm sind und eckige eher unangenehm sind.","0","1","0","null","","","<div class = 'row'><div class = 'column'><img src = 'category2/CS10.png' width = '70%;'></div><div class = 'column'><img src = 'uspos/2311.bmp' width = '100%;'></div></div>","null","pos","CS","CS","2","category2/CS10.png","","","","",""
"","html-keyboard-response","83","381887","0.0-6.0-6.0-0.14","3knv5n39nn","one_one","1","indirect_first","0","in06rg08","1","21","1","1","3","1","Mir selber ist aufgefallen, dass rundliche Symbole eher angenehm sind und eckige eher unangenehm sind.","0","1","0","null","","","<div class = 'row'><div class = 'column'><img src = 'category4/CS8.png' width = '70%;'></div><div class = 'column'><img src = 'usneg/9180.bmp' width = '100%;'></div></div>","null","neg","CS","CS","4","category4/CS8.png","","","","",""
"","html-keyboard-response","84","384390","0.0-6.0-6.0-0.15","3knv5n39nn","one_one","1","indirect_first","0","in06rg08","1","21","1","1","3","1","Mir selber ist aufgefallen, dass rundliche Symbole eher angenehm sind und eckige eher unangenehm sind.","0","1","0","null","","","<div class = 'row'><div class = 'column'><img src = 'category1/CS8.png' width = '70%;'></div><div class = 'column'><img src = 'uspos/2030.bmp' width = '100%;'></div></div>","null","pos","CS","CS","1","category1/CS8.png","","","","",""
"","html-keyboard-response","85","386892","0.0-6.0-6.0-0.16","3knv5n39nn","one_one","1","indirect_first","0","in06rg08","1","21","1","1","3","1","Mir selber ist aufgefallen, dass rundliche Symbole eher angenehm sind und eckige eher unangenehm sind.","0","1","0","null","","","<div class = 'row'><div class = 'column'><img src = 'category2/CS10.png' width = '70%;'></div><div class = 'column'><img src = 'uspos/2311.bmp' width = '100%;'></div></div>","null","pos","CS","CS","2","category2/CS10.png","","","","",""
"","html-keyboard-response","86","389395","0.0-6.0-6.0-0.17","3knv5n39nn","one_one","1","indirect_first","0","in06rg08","1","21","1","1","3","1","Mir selber ist aufgefallen, dass rundliche Symbole eher angenehm sind und eckige eher unangenehm sind.","0","1","0","null","","","<div class = 'row'><div class = 'column'><img src = 'usneg/2750.bmp' width = '100%;'></div><div class = 'column'><img src = 'category3/CS7.png' width = '70%;'></div></div>","null","neg","CS","CS","3","category3/CS7.png","","","","",""
"","html-keyboard-response","87","391898","0.0-6.0-6.0-0.18","3knv5n39nn","one_one","1","indirect_first","0","in06rg08","1","21","1","1","3","1","Mir selber ist aufgefallen, dass rundliche Symbole eher angenehm sind und eckige eher unangenehm sind.","0","1","0","null","","","<div class = 'row'><div class = 'column'><img src = 'usneg/9180.bmp' width = '100%;'></div><div class = 'column'><img src = 'category4/CS8.png' width = '70%;'></div></div>","null","neg","CS","CS","4","category4/CS8.png","","","","",""
"","html-keyboard-response","88","394401","0.0-6.0-6.0-0.19","3knv5n39nn","one_one","1","indirect_first","0","in06rg08","1","21","1","1","3","1","Mir selber ist aufgefallen, dass rundliche Symbole eher angenehm sind und eckige eher unangenehm sind.","0","1","0","null","","","<div class = 'row'><div class = 'column'><img src = 'uspos/2030.bmp' width = '100%;'></div><div class = 'column'><img src = 'category1/CS8.png' width = '70%;'></div></div>","null","pos","CS","CS","1","category1/CS8.png","","","","",""
"","html-keyboard-response","89","447495","0.0-7.0","3knv5n39nn","one_one","1","indirect_first","0","in06rg08","1","21","1","1","3","1","Mir selber ist aufgefallen, dass rundliche Symbole eher angenehm sind und eckige eher unangenehm sind.","0","1","0","52593.32000021823","","","<p>Sie sehen nun die chinesischen Zeichen nur ganz kurz. Danach sehen Sie die jeweilige Aussprache der Zeichen als Silbe auf dem Bildschrim. Ihre Aufgabe ist es, für jede Silbe anzugeben, ob diese etwas angenehmes, oder unangenehmes bedeuten könnte. Verlassen Sie sich hier vor allem auf Ihre Intuition.<br><br>Die Zeichen werden nur zur Orientierung dargestellt, beachten Sie sie deshalb nicht. Konzentrieren Sie sich vor allem auf die Silben. <br>Reagieren Sie mit folgenden zwei Tasten: <br><br><b>'D' </b> wenn die Silbe etwas <b>unangenehmes</b> bedeuten könnte. <br><b>'K'</b> wenn die Silbe etwas <b>angenehmes</b> bedeuten könnte. <br><br>Bitte legen Sie nun den Zeigefinger der linken Hand auf die Taste 'D' und den Zeigefinger der rechten Hand auf die Taste 'K'. <br>Reagieren Sie auf jede Silbe so schnell wie möglich. Uns interessiert Ihre spontane Reaktion. <br> <br> <br>Drücken Sie 'D' oder 'K', um die nächste Aufgabe zu starten. </p>","75","","","","","","","","","",""
"","html-keyboard-response","90","450498","0.0-8.0-0.0","3knv5n39nn","one_one","1","indirect_first","0","in06rg08","1","21","1","1","3","1","Mir selber ist aufgefallen, dass rundliche Symbole eher angenehm sind und eckige eher unangenehm sind.","0","1","0","null","","","<div style=""font-size:60px;"">+</div>","null","","","","","","","","","",""
"","html-keyboard-response","91","450589","0.0-8.0-1.0","3knv5n39nn","one_one","1","indirect_first","0","in06rg08","1","21","1","1","3","1","Mir selber ist aufgefallen, dass rundliche Symbole eher angenehm sind und eckige eher unangenehm sind.","0","1","0","null","","","<img src = 'category2/CS5.png' width = '100%;'>","null","","","","","","","","","",""
"","html-keyboard-response","92","450842","0.0-8.0-2.0","3knv5n39nn","one_one","1","indirect_first","0","in06rg08","1","21","1","1","3","1","Mir selber ist aufgefallen, dass rundliche Symbole eher angenehm sind und eckige eher unangenehm sind.","0","1","0","null","","","<img src = 'targets/35.png' width = '100%;'>","null","","","","","","","","","",""
"","html-keyboard-response","93","451473","0.0-8.0-3.0","3knv5n39nn","one_one","1","indirect_first","0","in06rg08","1","21","1","1","3","1","Mir selber ist aufgefallen, dass rundliche Symbole eher angenehm sind und eckige eher unangenehm sind.","0","1","0","630.0700001884252","","","<img src = 'targets/mask.png' width = '100%;'>","68","pos","GS","GSold","2","category2/CS5.png","targets/35.png","0","indirect","0",""
"","html-keyboard-response","94","452974","0.0-8.0-0.1","3knv5n39nn","one_one","1","indirect_first","0","in06rg08","1","21","1","1","3","1","Mir selber ist aufgefallen, dass rundliche Symbole eher angenehm sind und eckige eher unangenehm sind.","0","1","0","null","","","<div style=""font-size:60px;"">+</div>","null","","","","","","","","","",""
"","html-keyboard-response","95","453066","0.0-8.0-1.1","3knv5n39nn","one_one","1","indirect_first","0","in06rg08","1","21","1","1","3","1","Mir selber ist aufgefallen, dass rundliche Symbole eher angenehm sind und eckige eher unangenehm sind.","0","1","0","null","","","<img src = 'category4/CS10.png' width = '100%;'>","null","","","","","","","","","",""
"","html-keyboard-response","96","453319","0.0-8.0-2.1","3knv5n39nn","one_one","1","indirect_first","0","in06rg08","1","21","1","1","3","1","Mir selber ist aufgefallen, dass rundliche Symbole eher angenehm sind und eckige eher unangenehm sind.","0","1","0","null","","","<img src = 'targets/7.png' width = '100%;'>","null","","","","","","","","","",""
"","html-keyboard-response","97","454252","0.0-8.0-3.1","3knv5n39nn","one_one","1","indirect_first","0","in06rg08","1","21","1","1","3","1","Mir selber ist aufgefallen, dass rundliche Symbole eher angenehm sind und eckige eher unangenehm sind.","0","1","0","932.4199999682605","","","<img src = 'targets/mask.png' width = '100%;'>","75","neg","GS","GSold","4","category4/CS10.png","targets/7.png","1","indirect","1",""
"","html-keyboard-response","98","455754","0.0-8.0-0.2","3knv5n39nn","one_one","1","indirect_first","0","in06rg08","1","21","1","1","3","1","Mir selber ist aufgefallen, dass rundliche Symbole eher angenehm sind und eckige eher unangenehm sind.","0","1","0","null","","","<div style=""font-size:60px;"">+</div>","null","","","","","","","","","",""
"","html-keyboard-response","99","455846","0.0-8.0-1.2","3knv5n39nn","one_one","1","indirect_first","0","in06rg08","1","21","1","1","3","1","Mir selber ist aufgefallen, dass rundliche Symbole eher angenehm sind und eckige eher unangenehm sind.","0","1","0","null","","","<img src = 'category3/CS3.png' width = '100%;'>","null","","","","","","","","","",""
"","html-keyboard-response","100","456097","0.0-8.0-2.2","3knv5n39nn","one_one","1","indirect_first","0","in06rg08","1","21","1","1","3","1","Mir selber ist aufgefallen, dass rundliche Symbole eher angenehm sind und eckige eher unangenehm sind.","0","1","0","null","","","<img src = 'targets/15.png' width = '100%;'>","null","","","","","","","","","",""
"","html-keyboard-response","101","456552","0.0-8.0-3.2","3knv5n39nn","one_one","1","indirect_first","0","in06rg08","1","21","1","1","3","1","Mir selber ist aufgefallen, dass rundliche Symbole eher angenehm sind und eckige eher unangenehm sind.","0","1","0","454.22499999403954","","","<img src = 'targets/mask.png' width = '100%;'>","68","neg","GS","GSold","3","category3/CS3.png","targets/15.png","0","indirect","2",""
"","html-keyboard-response","102","458055","0.0-8.0-0.3","3knv5n39nn","one_one","1","indirect_first","0","in06rg08","1","21","1","1","3","1","Mir selber ist aufgefallen, dass rundliche Symbole eher angenehm sind und eckige eher unangenehm sind.","0","1","0","null","","","<div style=""font-size:60px;"">+</div>","null","","","","","","","","","",""
"","html-keyboard-response","103","458146","0.0-8.0-1.3","3knv5n39nn","one_one","1","indirect_first","0","in06rg08","1","21","1","1","3","1","Mir selber ist aufgefallen, dass rundliche Symbole eher angenehm sind und eckige eher unangenehm sind.","0","1","0","null","","","<img src = 'category1/CS8.png' width = '100%;'>","null","","","","","","","","","",""
"","html-keyboard-response","104","458397","0.0-8.0-2.3","3knv5n39nn","one_one","1","indirect_first","0","in06rg08","1","21","1","1","3","1","Mir selber ist aufgefallen, dass rundliche Symbole eher angenehm sind und eckige eher unangenehm sind.","0","1","0","null","","","<img src = 'targets/44.png' width = '100%;'>","null","","","","","","","","","",""
"","html-keyboard-response","105","459012","0.0-8.0-3.3","3knv5n39nn","one_one","1","indirect_first","0","in06rg08","1","21","1","1","3","1","Mir selber ist aufgefallen, dass rundliche Symbole eher angenehm sind und eckige eher unangenehm sind.","0","1","0","614.754999987781","","","<img src = 'targets/mask.png' width = '100%;'>","75","pos","CS","CS","1","category1/CS8.png","targets/44.png","1","indirect","3",""
"","html-keyboard-response","106","460514","0.0-8.0-0.4","3knv5n39nn","one_one","1","indirect_first","0","in06rg08","1","21","1","1","3","1","Mir selber ist aufgefallen, dass rundliche Symbole eher angenehm sind und eckige eher unangenehm sind.","0","1","0","null","","","<div style=""font-size:60px;"">+</div>","null","","","","","","","","","",""
"","html-keyboard-response","107","460606","0.0-8.0-1.4","3knv5n39nn","one_one","1","indirect_first","0","in06rg08","1","21","1","1","3","1","Mir selber ist aufgefallen, dass rundliche Symbole eher angenehm sind und eckige eher unangenehm sind.","0","1","0","null","","","<img src = 'category1/CS5.png' width = '100%;'>","null","","","","","","","","","",""
"","html-keyboard-response","108","460858","0.0-8.0-2.4","3knv5n39nn","one_one","1","indirect_first","0","in06rg08","1","21","1","1","3","1","Mir selber ist aufgefallen, dass rundliche Symbole eher angenehm sind und eckige eher unangenehm sind.","0","1","0","null","","","<img src = 'targets/16.png' width = '100%;'>","null","","","","","","","","","",""
"","html-keyboard-response","109","461262","0.0-8.0-3.4","3knv5n39nn","one_one","1","indirect_first","0","in06rg08","1","21","1","1","3","1","Mir selber ist aufgefallen, dass rundliche Symbole eher angenehm sind und eckige eher unangenehm sind.","0","1","0","403.2199999783188","","","<img src = 'targets/mask.png' width = '100%;'>","75","pos","GS","GSold","1","category1/CS5.png","targets/16.png","1","indirect","4",""
"","html-keyboard-response","110","462765","0.0-8.0-0.5","3knv5n39nn","one_one","1","indirect_first","0","in06rg08","1","21","1","1","3","1","Mir selber ist aufgefallen, dass rundliche Symbole eher angenehm sind und eckige eher unangenehm sind.","0","1","0","null","","","<div style=""font-size:60px;"">+</div>","null","","","","","","","","","",""
"","html-keyboard-response","111","462856","0.0-8.0-1.5","3knv5n39nn","one_one","1","indirect_first","0","in06rg08","1","21","1","1","3","1","Mir selber ist aufgefallen, dass rundliche Symbole eher angenehm sind und eckige eher unangenehm sind.","0","1","0","null","","","<img src = 'category1/CS7.png' width = '100%;'>","null","","","","","","","","","",""
"","html-keyboard-response","112","463107","0.0-8.0-2.5","3knv5n39nn","one_one","1","indirect_first","0","in06rg08","1","21","1","1","3","1","Mir selber ist aufgefallen, dass rundliche Symbole eher angenehm sind und eckige eher unangenehm sind.","0","1","0","null","","","<img src = 'targets/45.png' width = '100%;'>","null","","","","","","","","","",""
"","html-keyboard-response","113","463693","0.0-8.0-3.5","3knv5n39nn","one_one","1","indirect_first","0","in06rg08","1","21","1","1","3","1","Mir selber ist aufgefallen, dass rundliche Symbole eher angenehm sind und eckige eher unangenehm sind.","0","1","0","584.4900000374764","","","<img src = 'targets/mask.png' width = '100%;'>","68","pos","GS","GSold","1","category1/CS7.png","targets/45.png","0","indirect","5",""
"","html-keyboard-response","114","465195","0.0-8.0-0.6","3knv5n39nn","one_one","1","indirect_first","0","in06rg08","1","21","1","1","3","1","Mir selber ist aufgefallen, dass rundliche Symbole eher angenehm sind und eckige eher unangenehm sind.","0","1","0","null","","","<div style=""font-size:60px;"">+</div>","null","","","","","","","","","",""
"","html-keyboard-response","115","465287","0.0-8.0-1.6","3knv5n39nn","one_one","1","indirect_first","0","in06rg08","1","21","1","1","3","1","Mir selber ist aufgefallen, dass rundliche Symbole eher angenehm sind und eckige eher unangenehm sind.","0","1","0","null","","","<img src = 'category3/CS6.png' width = '100%;'>","null","","","","","","","","","",""
"","html-keyboard-response","116","465539","0.0-8.0-2.6","3knv5n39nn","one_one","1","indirect_first","0","in06rg08","1","21","1","1","3","1","Mir selber ist aufgefallen, dass rundliche Symbole eher angenehm sind und eckige eher unangenehm sind.","0","1","0","null","","","<img src = 'targets/5.png' width = '100%;'>","null","","","","","","","","","",""
"","html-keyboard-response","117","466052","0.0-8.0-3.6","3knv5n39nn","one_one","1","indirect_first","0","in06rg08","1","21","1","1","3","1","Mir selber ist aufgefallen, dass rundliche Symbole eher angenehm sind und eckige eher unangenehm sind.","0","1","0","512.445000000298","","","<img src = 'targets/mask.png' width = '100%;'>","75","neg","GS","GSold","3","category3/CS6.png","targets/5.png","1","indirect","6",""
"","html-keyboard-response","118","467554","0.0-8.0-0.7","3knv5n39nn","one_one","1","indirect_first","0","in06rg08","1","21","1","1","3","1","Mir selber ist aufgefallen, dass rundliche Symbole eher angenehm sind und eckige eher unangenehm sind.","0","1","0","null","","","<div style=""font-size:60px;"">+</div>","null","","","","","","","","","",""
"","html-keyboard-response","119","467646","0.0-8.0-1.7","3knv5n39nn","one_one","1","indirect_first","0","in06rg08","1","21","1","1","3","1","Mir selber ist aufgefallen, dass rundliche Symbole eher angenehm sind und eckige eher unangenehm sind.","0","1","0","null","","","<img src = 'category3/CS7.png' width = '100%;'>","null","","","","","","","","","",""
"","html-keyboard-response","120","467899","0.0-8.0-2.7","3knv5n39nn","one_one","1","indirect_first","0","in06rg08","1","21","1","1","3","1","Mir selber ist aufgefallen, dass rundliche Symbole eher angenehm sind und eckige eher unangenehm sind.","0","1","0","null","","","<img src = 'targets/34.png' width = '100%;'>","null","","","","","","","","","",""
"","html-keyboard-response","121","468452","0.0-8.0-3.7","3knv5n39nn","one_one","1","indirect_first","0","in06rg08","1","21","1","1","3","1","Mir selber ist aufgefallen, dass rundliche Symbole eher angenehm sind und eckige eher unangenehm sind.","0","1","0","552.6349998544902","","","<img src = 'targets/mask.png' width = '100%;'>","68","neg","CS","CS","3","category3/CS7.png","targets/34.png","0","indirect","7",""
"","html-keyboard-response","122","469954","0.0-8.0-0.8","3knv5n39nn","one_one","1","indirect_first","0","in06rg08","1","21","1","1","3","1","Mir selber ist aufgefallen, dass rundliche Symbole eher angenehm sind und eckige eher unangenehm sind.","0","1","0","null","","","<div style=""font-size:60px;"">+</div>","null","","","","","","","","","",""
"","html-keyboard-response","123","470045","0.0-8.0-1.8","3knv5n39nn","one_one","1","indirect_first","0","in06rg08","1","21","1","1","3","1","Mir selber ist aufgefallen, dass rundliche Symbole eher angenehm sind und eckige eher unangenehm sind.","0","1","0","null","","","<img src = 'category1/CS1.png' width = '100%;'>","null","","","","","","","","","",""
"","html-keyboard-response","124","470298","0.0-8.0-2.8","3knv5n39nn","one_one","1","indirect_first","0","in06rg08","1","21","1","1","3","1","Mir selber ist aufgefallen, dass rundliche Symbole eher angenehm sind und eckige eher unangenehm sind.","0","1","0","null","","","<img src = 'targets/37.png' width = '100%;'>","null","","","","","","","","","",""
"","html-keyboard-response","125","470722","0.0-8.0-3.8","3knv5n39nn","one_one","1","indirect_first","0","in06rg08","1","21","1","1","3","1","Mir selber ist aufgefallen, dass rundliche Symbole eher angenehm sind und eckige eher unangenehm sind.","0","1","0","423.8199999090284","","","<img src = 'targets/mask.png' width = '100%;'>","75","pos","GS","GSold","1","category1/CS1.png","targets/37.png","1","indirect","8",""
"","html-keyboard-response","126","472224","0.0-8.0-0.9","3knv5n39nn","one_one","1","indirect_first","0","in06rg08","1","21","1","1","3","1","Mir selber ist aufgefallen, dass rundliche Symbole eher angenehm sind und eckige eher unangenehm sind.","0","1","0","null","","","<div style=""font-size:60px;"">+</div>","null","","","","","","","","","",""
"","html-keyboard-response","127","472315","0.0-8.0-1.9","3knv5n39nn","one_one","1","indirect_first","0","in06rg08","1","21","1","1","3","1","Mir selber ist aufgefallen, dass rundliche Symbole eher angenehm sind und eckige eher unangenehm sind.","0","1","0","null","","","<img src = 'category2/CS2.png' width = '100%;'>","null","","","","","","","","","",""
"","html-keyboard-response","128","472567","0.0-8.0-2.9","3knv5n39nn","one_one","1","indirect_first","0","in06rg08","1","21","1","1","3","1","Mir selber ist aufgefallen, dass rundliche Symbole eher angenehm sind und eckige eher unangenehm sind.","0","1","0","null","","","<img src = 'targets/27.png' width = '100%;'>","null","","","","","","","","","",""
"","html-keyboard-response","129","473102","0.0-8.0-3.9","3knv5n39nn","one_one","1","indirect_first","0","in06rg08","1","21","1","1","3","1","Mir selber ist aufgefallen, dass rundliche Symbole eher angenehm sind und eckige eher unangenehm sind.","0","1","0","534.8149999044836","","","<img src = 'targets/mask.png' width = '100%;'>","68","pos","GS","GSold","2","category2/CS2.png","targets/27.png","0","indirect","9",""
"","html-keyboard-response","130","474604","0.0-8.0-0.10","3knv5n39nn","one_one","1","indirect_first","0","in06rg08","1","21","1","1","3","1","Mir selber ist aufgefallen, dass rundliche Symbole eher angenehm sind und eckige eher unangenehm sind.","0","1","0","null","","","<div style=""font-size:60px;"">+</div>","null","","","","","","","","","",""
"","html-keyboard-response","131","474696","0.0-8.0-1.10","3knv5n39nn","one_one","1","indirect_first","0","in06rg08","1","21","1","1","3","1","Mir selber ist aufgefallen, dass rundliche Symbole eher angenehm sind und eckige eher unangenehm sind.","0","1","0","null","","","<img src = 'category3/CS1.png' width = '100%;'>","null","","","","","","","","","",""
"","html-keyboard-response","132","474948","0.0-8.0-2.10","3knv5n39nn","one_one","1","indirect_first","0","in06rg08","1","21","1","1","3","1","Mir selber ist aufgefallen, dass rundliche Symbole eher angenehm sind und eckige eher unangenehm sind.","0","1","0","null","","","<img src = 'targets/43.png' width = '100%;'>","null","","","","","","","","","",""
"","html-keyboard-response","133","475333","0.0-8.0-3.10","3knv5n39nn","one_one","1","indirect_first","0","in06rg08","1","21","1","1","3","1","Mir selber ist aufgefallen, dass rundliche Symbole eher angenehm sind und eckige eher unangenehm sind.","0","1","0","383.97999992594123","","","<img src = 'targets/mask.png' width = '100%;'>","75","neg","GS","GSold","3","category3/CS1.png","targets/43.png","1","indirect","10",""
"","html-keyboard-response","134","476835","0.0-8.0-0.11","3knv5n39nn","one_one","1","indirect_first","0","in06rg08","1","21","1","1","3","1","Mir selber ist aufgefallen, dass rundliche Symbole eher angenehm sind und eckige eher unangenehm sind.","0","1","0","null","","","<div style=""font-size:60px;"">+</div>","null","","","","","","","","","",""
"","html-keyboard-response","135","476927","0.0-8.0-1.11","3knv5n39nn","one_one","1","indirect_first","0","in06rg08","1","21","1","1","3","1","Mir selber ist aufgefallen, dass rundliche Symbole eher angenehm sind und eckige eher unangenehm sind.","0","1","0","null","","","<img src = 'category4/CS7.png' width = '100%;'>","null","","","","","","","","","",""
"","html-keyboard-response","136","477178","0.0-8.0-2.11","3knv5n39nn","one_one","1","indirect_first","0","in06rg08","1","21","1","1","3","1","Mir selber ist aufgefallen, dass rundliche Symbole eher angenehm sind und eckige eher unangenehm sind.","0","1","0","null","","","<img src = 'targets/33.png' width = '100%;'>","null","","","","","","","","","",""
"","html-keyboard-response","137","477902","0.0-8.0-3.11","3knv5n39nn","one_one","1","indirect_first","0","in06rg08","1","21","1","1","3","1","Mir selber ist aufgefallen, dass rundliche Symbole eher angenehm sind und eckige eher unangenehm sind.","0","1","0","723.255000077188","","","<img src = 'targets/mask.png' width = '100%;'>","68","neg","GS","GSold","4","category4/CS7.png","targets/33.png","0","indirect","11",""
"","html-keyboard-response","138","479404","0.0-8.0-0.12","3knv5n39nn","one_one","1","indirect_first","0","in06rg08","1","21","1","1","3","1","Mir selber ist aufgefallen, dass rundliche Symbole eher angenehm sind und eckige eher unangenehm sind.","0","1","0","null","","","<div style=""font-size:60px;"">+</div>","null","","","","","","","","","",""
"","html-keyboard-response","139","479496","0.0-8.0-1.12","3knv5n39nn","one_one","1","indirect_first","0","in06rg08","1","21","1","1","3","1","Mir selber ist aufgefallen, dass rundliche Symbole eher angenehm sind und eckige eher unangenehm sind.","0","1","0","null","","","<img src = 'category2/CS10.png' width = '100%;'>","null","","","","","","","","","",""
"","html-keyboard-response","140","479748","0.0-8.0-2.12","3knv5n39nn","one_one","1","indirect_first","0","in06rg08","1","21","1","1","3","1","Mir selber ist aufgefallen, dass rundliche Symbole eher angenehm sind und eckige eher unangenehm sind.","0","1","0","null","","","<img src = 'targets/11.png' width = '100%;'>","null","","","","","","","","","",""
"","html-keyboard-response","141","480232","0.0-8.0-3.12","3knv5n39nn","one_one","1","indirect_first","0","in06rg08","1","21","1","1","3","1","Mir selber ist aufgefallen, dass rundliche Symbole eher angenehm sind und eckige eher unangenehm sind.","0","1","0","483.7650000117719","","","<img src = 'targets/mask.png' width = '100%;'>","68","pos","CS","CS","2","category2/CS10.png","targets/11.png","0","indirect","12",""
"","html-keyboard-response","142","481734","0.0-8.0-0.13","3knv5n39nn","one_one","1","indirect_first","0","in06rg08","1","21","1","1","3","1","Mir selber ist aufgefallen, dass rundliche Symbole eher angenehm sind und eckige eher unangenehm sind.","0","1","0","null","","","<div style=""font-size:60px;"">+</div>","null","","","","","","","","","",""
"","html-keyboard-response","143","481826","0.0-8.0-1.13","3knv5n39nn","one_one","1","indirect_first","0","in06rg08","1","21","1","1","3","1","Mir selber ist aufgefallen, dass rundliche Symbole eher angenehm sind und eckige eher unangenehm sind.","0","1","0","null","","","<img src = 'category2/CS4.png' width = '100%;'>","null","","","","","","","","","",""
"","html-keyboard-response","144","482077","0.0-8.0-2.13","3knv5n39nn","one_one","1","indirect_first","0","in06rg08","1","21","1","1","3","1","Mir selber ist aufgefallen, dass rundliche Symbole eher angenehm sind und eckige eher unangenehm sind.","0","1","0","null","","","<img src = 'targets/10.png' width = '100%;'>","null","","","","","","","","","",""
"","html-keyboard-response","145","482592","0.0-8.0-3.13","3knv5n39nn","one_one","1","indirect_first","0","in06rg08","1","21","1","1","3","1","Mir selber ist aufgefallen, dass rundliche Symbole eher angenehm sind und eckige eher unangenehm sind.","0","1","0","514.1650000587106","","","<img src = 'targets/mask.png' width = '100%;'>","68","pos","GS","GSold","2","category2/CS4.png","targets/10.png","0","indirect","13",""
"","html-keyboard-response","146","484095","0.0-8.0-0.14","3knv5n39nn","one_one","1","indirect_first","0","in06rg08","1","21","1","1","3","1","Mir selber ist aufgefallen, dass rundliche Symbole eher angenehm sind und eckige eher unangenehm sind.","0","1","0","null","","","<div style=""font-size:60px;"">+</div>","null","","","","","","","","","",""
"","html-keyboard-response","147","484187","0.0-8.0-1.14","3knv5n39nn","one_one","1","indirect_first","0","in06rg08","1","21","1","1","3","1","Mir selber ist aufgefallen, dass rundliche Symbole eher angenehm sind und eckige eher unangenehm sind.","0","1","0","null","","","<img src = 'category4/CS5.png' width = '100%;'>","null","","","","","","","","","",""
"","html-keyboard-response","148","484439","0.0-8.0-2.14","3knv5n39nn","one_one","1","indirect_first","0","in06rg08","1","21","1","1","3","1","Mir selber ist aufgefallen, dass rundliche Symbole eher angenehm sind und eckige eher unangenehm sind.","0","1","0","null","","","<img src = 'targets/26.png' width = '100%;'>","null","","","","","","","","","",""
"","html-keyboard-response","149","485062","0.0-8.0-3.14","3knv5n39nn","one_one","1","indirect_first","0","in06rg08","1","21","1","1","3","1","Mir selber ist aufgefallen, dass rundliche Symbole eher angenehm sind und eckige eher unangenehm sind.","0","1","0","622.4299999885261","","","<img src = 'targets/mask.png' width = '100%;'>","68","neg","GS","GSold","4","category4/CS5.png","targets/26.png","0","indirect","14",""
"","html-keyboard-response","150","486565","0.0-8.0-0.15","3knv5n39nn","one_one","1","indirect_first","0","in06rg08","1","21","1","1","3","1","Mir selber ist aufgefallen, dass rundliche Symbole eher angenehm sind und eckige eher unangenehm sind.","0","1","0","null","","","<div style=""font-size:60px;"">+</div>","null","","","","","","","","","",""
"","html-keyboard-response","151","486657","0.0-8.0-1.15","3knv5n39nn","one_one","1","indirect_first","0","in06rg08","1","21","1","1","3","1","Mir selber ist aufgefallen, dass rundliche Symbole eher angenehm sind und eckige eher unangenehm sind.","0","1","0","null","","","<img src = 'category4/CS8.png' width = '100%;'>","null","","","","","","","","","",""
"","html-keyboard-response","152","486909","0.0-8.0-2.15","3knv5n39nn","one_one","1","indirect_first","0","in06rg08","1","21","1","1","3","1","Mir selber ist aufgefallen, dass rundliche Symbole eher angenehm sind und eckige eher unangenehm sind.","0","1","0","null","","","<img src = 'targets/22.png' width = '100%;'>","null","","","","","","","","","",""
"","html-keyboard-response","153","487403","0.0-8.0-3.15","3knv5n39nn","one_one","1","indirect_first","0","in06rg08","1","21","1","1","3","1","Mir selber ist aufgefallen, dass rundliche Symbole eher angenehm sind und eckige eher unangenehm sind.","0","1","0","492.57500004023314","","","<img src = 'targets/mask.png' width = '100%;'>","68","neg","CS","CS","4","category4/CS8.png","targets/22.png","0","indirect","15",""
"","survey-html-form","154","491290","0.0-9.0","3knv5n39nn","one_one","1","indirect_first","0","in06rg08","1","21","1","1","3","1","Mir selber ist aufgefallen, dass rundliche Symbole eher angenehm sind und eckige eher unangenehm sind.","0","1","0","3385.6099999975413","","{}","","","","","","","","","","","",""
"","html-keyboard-response","155","494293","0.0-10.0-0.0","3knv5n39nn","one_one","1","indirect_first","0","in06rg08","1","21","1","1","3","1","Mir selber ist aufgefallen, dass rundliche Symbole eher angenehm sind und eckige eher unangenehm sind.","0","1","0","null","","","<div style=""font-size:60px;"">+</div>","null","","","","","","","","","",""
"","html-keyboard-response","156","494384","0.0-10.0-1.0","3knv5n39nn","one_one","1","indirect_first","0","in06rg08","1","21","1","1","3","1","Mir selber ist aufgefallen, dass rundliche Symbole eher angenehm sind und eckige eher unangenehm sind.","0","1","0","null","","","<img src = 'category1/GS1.png' width = '100%;'>","null","","","","","","","","","",""
"","html-keyboard-response","157","494636","0.0-10.0-2.0","3knv5n39nn","one_one","1","indirect_first","0","in06rg08","1","21","1","1","3","1","Mir selber ist aufgefallen, dass rundliche Symbole eher angenehm sind und eckige eher unangenehm sind.","0","1","0","null","","","<img src = 'targets/12.png' width = '100%;'>","null","","","","","","","","","",""
"","html-keyboard-response","158","494852","0.0-10.0-3.0","3knv5n39nn","one_one","1","indirect_first","0","in06rg08","1","21","1","1","3","1","Mir selber ist aufgefallen, dass rundliche Symbole eher angenehm sind und eckige eher unangenehm sind.","0","1","0","215.00000008381903","","","<img src = 'targets/mask.png' width = '100%;'>","68","pos","GS","GSnew","1","category1/GS1.png","targets/12.png","0","indirect","16",""
"","html-keyboard-response","159","496355","0.0-10.0-0.1","3knv5n39nn","one_one","1","indirect_first","0","in06rg08","1","21","1","1","3","1","Mir selber ist aufgefallen, dass rundliche Symbole eher angenehm sind und eckige eher unangenehm sind.","0","1","0","null","","","<div style=""font-size:60px;"">+</div>","null","","","","","","","","","",""
"","html-keyboard-response","160","496446","0.0-10.0-1.1","3knv5n39nn","one_one","1","indirect_first","0","in06rg08","1","21","1","1","3","1","Mir selber ist aufgefallen, dass rundliche Symbole eher angenehm sind und eckige eher unangenehm sind.","0","1","0","null","","","<img src = 'category4/lin.png' width = '100%;'>","null","","","","","","","","","",""
"","html-keyboard-response","161","496700","0.0-10.0-2.1","3knv5n39nn","one_one","1","indirect_first","0","in06rg08","1","21","1","1","3","1","Mir selber ist aufgefallen, dass rundliche Symbole eher angenehm sind und eckige eher unangenehm sind.","0","1","0","null","","","<img src = 'targets/36.png' width = '100%;'>","null","","","","","","","","","",""
"","html-keyboard-response","162","497022","0.0-10.0-3.1","3knv5n39nn","one_one","1","indirect_first","0","in06rg08","1","21","1","1","3","1","Mir selber ist aufgefallen, dass rundliche Symbole eher angenehm sind und eckige eher unangenehm sind.","0","1","0","321.70999981462955","","","<img src = 'targets/mask.png' width = '100%;'>","75","neg","GS","abstract","4","category4/lin.png","targets/36.png","1","indirect","17",""
"","html-keyboard-response","163","498525","0.0-10.0-0.2","3knv5n39nn","one_one","1","indirect_first","0","in06rg08","1","21","1","1","3","1","Mir selber ist aufgefallen, dass rundliche Symbole eher angenehm sind und eckige eher unangenehm sind.","0","1","0","null","","","<div style=""font-size:60px;"">+</div>","null","","","","","","","","","",""
"","html-keyboard-response","164","498617","0.0-10.0-1.2","3knv5n39nn","one_one","1","indirect_first","0","in06rg08","1","21","1","1","3","1","Mir selber ist aufgefallen, dass rundliche Symbole eher angenehm sind und eckige eher unangenehm sind.","0","1","0","null","","","<img src = 'category3/GS1.png' width = '100%;'>","null","","","","","","","","","",""
"","html-keyboard-response","165","498868","0.0-10.0-2.2","3knv5n39nn","one_one","1","indirect_first","0","in06rg08","1","21","1","1","3","1","Mir selber ist aufgefallen, dass rundliche Symbole eher angenehm sind und eckige eher unangenehm sind.","0","1","0","null","","","<img src = 'targets/31.png' width = '100%;'>","null","","","","","","","","","",""
"","html-keyboard-response","166","499133","0.0-10.0-3.2","3knv5n39nn","one_one","1","indirect_first","0","in06rg08","1","21","1","1","3","1","Mir selber ist aufgefallen, dass rundliche Symbole eher angenehm sind und eckige eher unangenehm sind.","0","1","0","264.2850000411272","","","<img src = 'targets/mask.png' width = '100%;'>","75","neg","GS","GSnew","3","category3/GS1.png","targets/31.png","1","indirect","18",""
"","html-keyboard-response","167","500635","0.0-10.0-0.3","3knv5n39nn","one_one","1","indirect_first","0","in06rg08","1","21","1","1","3","1","Mir selber ist aufgefallen, dass rundliche Symbole eher angenehm sind und eckige eher unangenehm sind.","0","1","0","null","","","<div style=""font-size:60px;"">+</div>","null","","","","","","","","","",""
"","html-keyboard-response","168","500725","0.0-10.0-1.3","3knv5n39nn","one_one","1","indirect_first","0","in06rg08","1","21","1","1","3","1","Mir selber ist aufgefallen, dass rundliche Symbole eher angenehm sind und eckige eher unangenehm sind.","0","1","0","null","","","<img src = 'category1/ma.png' width = '100%;'>","null","","","","","","","","","",""
"","html-keyboard-response","169","500978","0.0-10.0-2.3","3knv5n39nn","one_one","1","indirect_first","0","in06rg08","1","21","1","1","3","1","Mir selber ist aufgefallen, dass rundliche Symbole eher angenehm sind und eckige eher unangenehm sind.","0","1","0","null","","","<img src = 'targets/8.png' width = '100%;'>","null","","","","","","","","","",""
"","html-keyboard-response","170","501583","0.0-10.0-3.3","3knv5n39nn","one_one","1","indirect_first","0","in06rg08","1","21","1","1","3","1","Mir selber ist aufgefallen, dass rundliche Symbole eher angenehm sind und eckige eher unangenehm sind.","0","1","0","604.1599998716265","","","<img src = 'targets/mask.png' width = '100%;'>","68","pos","GS","abstract","1","category1/ma.png","targets/8.png","0","indirect","19",""
"","html-keyboard-response","171","503085","0.0-10.0-0.4","3knv5n39nn","one_one","1","indirect_first","0","in06rg08","1","21","1","1","3","1","Mir selber ist aufgefallen, dass rundliche Symbole eher angenehm sind und eckige eher unangenehm sind.","0","1","0","null","","","<div style=""font-size:60px;"">+</div>","null","","","","","","","","","",""
"","html-keyboard-response","172","503177","0.0-10.0-1.4","3knv5n39nn","one_one","1","indirect_first","0","in06rg08","1","21","1","1","3","1","Mir selber ist aufgefallen, dass rundliche Symbole eher angenehm sind und eckige eher unangenehm sind.","0","1","0","null","","","<img src = 'category2/men.png' width = '100%;'>","null","","","","","","","","","",""
"","html-keyboard-response","173","503428","0.0-10.0-2.4","3knv5n39nn","one_one","1","indirect_first","0","in06rg08","1","21","1","1","3","1","Mir selber ist aufgefallen, dass rundliche Symbole eher angenehm sind und eckige eher unangenehm sind.","0","1","0","null","","","<img src = 'targets/29.png' width = '100%;'>","null","","","","","","","","","",""
"","html-keyboard-response","174","503913","0.0-10.0-3.4","3knv5n39nn","one_one","1","indirect_first","0","in06rg08","1","21","1","1","3","1","Mir selber ist aufgefallen, dass rundliche Symbole eher angenehm sind und eckige eher unangenehm sind.","0","1","0","483.68499986827374","","","<img src = 'targets/mask.png' width = '100%;'>","75","pos","GS","abstract","2","category2/men.png","targets/29.png","1","indirect","20",""
"","html-keyboard-response","175","505415","0.0-10.0-0.5","3knv5n39nn","one_one","1","indirect_first","0","in06rg08","1","21","1","1","3","1","Mir selber ist aufgefallen, dass rundliche Symbole eher angenehm sind und eckige eher unangenehm sind.","0","1","0","null","","","<div style=""font-size:60px;"">+</div>","null","","","","","","","","","",""
"","html-keyboard-response","176","505507","0.0-10.0-1.5","3knv5n39nn","one_one","1","indirect_first","0","in06rg08","1","21","1","1","3","1","Mir selber ist aufgefallen, dass rundliche Symbole eher angenehm sind und eckige eher unangenehm sind.","0","1","0","null","","","<img src = 'category1/GS3.png' width = '100%;'>","null","","","","","","","","","",""
"","html-keyboard-response","177","505759","0.0-10.0-2.5","3knv5n39nn","one_one","1","indirect_first","0","in06rg08","1","21","1","1","3","1","Mir selber ist aufgefallen, dass rundliche Symbole eher angenehm sind und eckige eher unangenehm sind.","0","1","0","null","","","<img src = 'targets/42.png' width = '100%;'>","null","","","","","","","","","",""
"","html-keyboard-response","178","506443","0.0-10.0-3.5","3knv5n39nn","one_one","1","indirect_first","0","in06rg08","1","21","1","1","3","1","Mir selber ist aufgefallen, dass rundliche Symbole eher angenehm sind und eckige eher unangenehm sind.","0","1","0","682.9850000794977","","","<img src = 'targets/mask.png' width = '100%;'>","75","pos","GS","GSnew","1","category1/GS3.png","targets/42.png","1","indirect","21",""
"","html-keyboard-response","179","507946","0.0-10.0-0.6","3knv5n39nn","one_one","1","indirect_first","0","in06rg08","1","21","1","1","3","1","Mir selber ist aufgefallen, dass rundliche Symbole eher angenehm sind und eckige eher unangenehm sind.","0","1","0","null","","","<div style=""font-size:60px;"">+</div>","null","","","","","","","","","",""
"","html-keyboard-response","180","508038","0.0-10.0-1.6","3knv5n39nn","one_one","1","indirect_first","0","in06rg08","1","21","1","1","3","1","Mir selber ist aufgefallen, dass rundliche Symbole eher angenehm sind und eckige eher unangenehm sind.","0","1","0","null","","","<img src = 'category3/GS2.png' width = '100%;'>","null","","","","","","","","","",""
"","html-keyboard-response","181","508289","0.0-10.0-2.6","3knv5n39nn","one_one","1","indirect_first","0","in06rg08","1","21","1","1","3","1","Mir selber ist aufgefallen, dass rundliche Symbole eher angenehm sind und eckige eher unangenehm sind.","0","1","0","null","","","<img src = 'targets/13.png' width = '100%;'>","null","","","","","","","","","",""
"","html-keyboard-response","182","508843","0.0-10.0-3.6","3knv5n39nn","one_one","1","indirect_first","0","in06rg08","1","21","1","1","3","1","Mir selber ist aufgefallen, dass rundliche Symbole eher angenehm sind und eckige eher unangenehm sind.","0","1","0","552.6199999731034","","","<img src = 'targets/mask.png' width = '100%;'>","68","neg","GS","GSnew","3","category3/GS2.png","targets/13.png","0","indirect","22",""
"","html-keyboard-response","183","510344","0.0-10.0-0.7","3knv5n39nn","one_one","1","indirect_first","0","in06rg08","1","21","1","1","3","1","Mir selber ist aufgefallen, dass rundliche Symbole eher angenehm sind und eckige eher unangenehm sind.","0","1","0","null","","","<div style=""font-size:60px;"">+</div>","null","","","","","","","","","",""
"","html-keyboard-response","184","510435","0.0-10.0-1.7","3knv5n39nn","one_one","1","indirect_first","0","in06rg08","1","21","1","1","3","1","Mir selber ist aufgefallen, dass rundliche Symbole eher angenehm sind und eckige eher unangenehm sind.","0","1","0","null","","","<img src = 'category4/GS2.png' width = '100%;'>","null","","","","","","","","","",""
"","html-keyboard-response","185","510688","0.0-10.0-2.7","3knv5n39nn","one_one","1","indirect_first","0","in06rg08","1","21","1","1","3","1","Mir selber ist aufgefallen, dass rundliche Symbole eher angenehm sind und eckige eher unangenehm sind.","0","1","0","null","","","<img src = 'targets/30.png' width = '100%;'>","null","","","","","","","","","",""
"","html-keyboard-response","186","510963","0.0-10.0-3.7","3knv5n39nn","one_one","1","indirect_first","0","in06rg08","1","21","1","1","3","1","Mir selber ist aufgefallen, dass rundliche Symbole eher angenehm sind und eckige eher unangenehm sind.","0","1","0","274.415000109002","","","<img src = 'targets/mask.png' width = '100%;'>","68","neg","GS","GSnew","4","category4/GS2.png","targets/30.png","0","indirect","23",""
"","html-keyboard-response","187","512465","0.0-10.0-0.8","3knv5n39nn","one_one","1","indirect_first","0","in06rg08","1","21","1","1","3","1","Mir selber ist aufgefallen, dass rundliche Symbole eher angenehm sind und eckige eher unangenehm sind.","0","1","0","null","","","<div style=""font-size:60px;"">+</div>","null","","","","","","","","","",""
"","html-keyboard-response","188","512557","0.0-10.0-1.8","3knv5n39nn","one_one","1","indirect_first","0","in06rg08","1","21","1","1","3","1","Mir selber ist aufgefallen, dass rundliche Symbole eher angenehm sind und eckige eher unangenehm sind.","0","1","0","null","","","<img src = 'category1/GS2.png' width = '100%;'>","null","","","","","","","","","",""
"","html-keyboard-response","189","512809","0.0-10.0-2.8","3knv5n39nn","one_one","1","indirect_first","0","in06rg08","1","21","1","1","3","1","Mir selber ist aufgefallen, dass rundliche Symbole eher angenehm sind und eckige eher unangenehm sind.","0","1","0","null","","","<img src = 'targets/19.png' width = '100%;'>","null","","","","","","","","","",""
"","html-keyboard-response","190","513293","0.0-10.0-3.8","3knv5n39nn","one_one","1","indirect_first","0","in06rg08","1","21","1","1","3","1","Mir selber ist aufgefallen, dass rundliche Symbole eher angenehm sind und eckige eher unangenehm sind.","0","1","0","482.5550001114607","","","<img src = 'targets/mask.png' width = '100%;'>","75","pos","GS","GSnew","1","category1/GS2.png","targets/19.png","1","indirect","24",""
"","html-keyboard-response","191","514795","0.0-10.0-0.9","3knv5n39nn","one_one","1","indirect_first","0","in06rg08","1","21","1","1","3","1","Mir selber ist aufgefallen, dass rundliche Symbole eher angenehm sind und eckige eher unangenehm sind.","0","1","0","null","","","<div style=""font-size:60px;"">+</div>","null","","","","","","","","","",""
"","html-keyboard-response","192","514887","0.0-10.0-1.9","3knv5n39nn","one_one","1","indirect_first","0","in06rg08","1","21","1","1","3","1","Mir selber ist aufgefallen, dass rundliche Symbole eher angenehm sind und eckige eher unangenehm sind.","0","1","0","null","","","<img src = 'category4/GS1.png' width = '100%;'>","null","","","","","","","","","",""
"","html-keyboard-response","193","515138","0.0-10.0-2.9","3knv5n39nn","one_one","1","indirect_first","0","in06rg08","1","21","1","1","3","1","Mir selber ist aufgefallen, dass rundliche Symbole eher angenehm sind und eckige eher unangenehm sind.","0","1","0","null","","","<img src = 'targets/25.png' width = '100%;'>","null","","","","","","","","","",""
"","html-keyboard-response","194","515652","0.0-10.0-3.9","3knv5n39nn","one_one","1","indirect_first","0","in06rg08","1","21","1","1","3","1","Mir selber ist aufgefallen, dass rundliche Symbole eher angenehm sind und eckige eher unangenehm sind.","0","1","0","513.7250002007931","","","<img src = 'targets/mask.png' width = '100%;'>","68","neg","GS","GSnew","4","category4/GS1.png","targets/25.png","0","indirect","25",""
"","html-keyboard-response","195","517155","0.0-10.0-0.10","3knv5n39nn","one_one","1","indirect_first","0","in06rg08","1","21","1","1","3","1","Mir selber ist aufgefallen, dass rundliche Symbole eher angenehm sind und eckige eher unangenehm sind.","0","1","0","null","","","<div style=""font-size:60px;"">+</div>","null","","","","","","","","","",""
"","html-keyboard-response","196","517246","0.0-10.0-1.10","3knv5n39nn","one_one","1","indirect_first","0","in06rg08","1","21","1","1","3","1","Mir selber ist aufgefallen, dass rundliche Symbole eher angenehm sind und eckige eher unangenehm sind.","0","1","0","null","","","<img src = 'category3/GS3.png' width = '100%;'>","null","","","","","","","","","",""
"","html-keyboard-response","197","517499","0.0-10.0-2.10","3knv5n39nn","one_one","1","indirect_first","0","in06rg08","1","21","1","1","3","1","Mir selber ist aufgefallen, dass rundliche Symbole eher angenehm sind und eckige eher unangenehm sind.","0","1","0","null","","","<img src = 'targets/6.png' width = '100%;'>","null","","","","","","","","","",""
"","html-keyboard-response","198","517674","0.0-10.0-3.10","3knv5n39nn","one_one","1","indirect_first","0","in06rg08","1","21","1","1","3","1","Mir selber ist aufgefallen, dass rundliche Symbole eher angenehm sind und eckige eher unangenehm sind.","0","1","0","174.80499995872378","","","<img src = 'targets/mask.png' width = '100%;'>","68","neg","GS","GSnew","3","category3/GS3.png","targets/6.png","0","indirect","26",""
"","html-keyboard-response","199","519176","0.0-10.0-0.11","3knv5n39nn","one_one","1","indirect_first","0","in06rg08","1","21","1","1","3","1","Mir selber ist aufgefallen, dass rundliche Symbole eher angenehm sind und eckige eher unangenehm sind.","0","1","0","null","","","<div style=""font-size:60px;"">+</div>","null","","","","","","","","","",""
"","html-keyboard-response","200","519268","0.0-10.0-1.11","3knv5n39nn","one_one","1","indirect_first","0","in06rg08","1","21","1","1","3","1","Mir selber ist aufgefallen, dass rundliche Symbole eher angenehm sind und eckige eher unangenehm sind.","0","1","0","null","","","<img src = 'category2/GS2.png' width = '100%;'>","null","","","","","","","","","",""
"","html-keyboard-response","201","519520","0.0-10.0-2.11","3knv5n39nn","one_one","1","indirect_first","0","in06rg08","1","21","1","1","3","1","Mir selber ist aufgefallen, dass rundliche Symbole eher angenehm sind und eckige eher unangenehm sind.","0","1","0","null","","","<img src = 'targets/47.png' width = '100%;'>","null","","","","","","","","","",""
"","html-keyboard-response","202","520023","0.0-10.0-3.11","3knv5n39nn","one_one","1","indirect_first","0","in06rg08","1","21","1","1","3","1","Mir selber ist aufgefallen, dass rundliche Symbole eher angenehm sind und eckige eher unangenehm sind.","0","1","0","501.5150001272559","","","<img src = 'targets/mask.png' width = '100%;'>","68","pos","GS","GSnew","2","category2/GS2.png","targets/47.png","0","indirect","27",""
"","html-keyboard-response","203","521525","0.0-10.0-0.12","3knv5n39nn","one_one","1","indirect_first","0","in06rg08","1","21","1","1","3","1","Mir selber ist aufgefallen, dass rundliche Symbole eher angenehm sind und eckige eher unangenehm sind.","0","1","0","null","","","<div style=""font-size:60px;"">+</div>","null","","","","","","","","","",""
"","html-keyboard-response","204","521617","0.0-10.0-1.12","3knv5n39nn","one_one","1","indirect_first","0","in06rg08","1","21","1","1","3","1","Mir selber ist aufgefallen, dass rundliche Symbole eher angenehm sind und eckige eher unangenehm sind.","0","1","0","null","","","<img src = 'category3/wang.png' width = '100%;'>","null","","","","","","","","","",""
"","html-keyboard-response","205","521869","0.0-10.0-2.12","3knv5n39nn","one_one","1","indirect_first","0","in06rg08","1","21","1","1","3","1","Mir selber ist aufgefallen, dass rundliche Symbole eher angenehm sind und eckige eher unangenehm sind.","0","1","0","null","","","<img src = 'targets/21.png' width = '100%;'>","null","","","","","","","","","",""
"","html-keyboard-response","206","522524","0.0-10.0-3.12","3knv5n39nn","one_one","1","indirect_first","0","in06rg08","1","21","1","1","3","1","Mir selber ist aufgefallen, dass rundliche Symbole eher angenehm sind und eckige eher unangenehm sind.","0","1","0","654.3300000485033","","","<img src = 'targets/mask.png' width = '100%;'>","75","neg","GS","abstract","3","category3/wang.png","targets/21.png","1","indirect","28",""
"","html-keyboard-response","207","524026","0.0-10.0-0.13","3knv5n39nn","one_one","1","indirect_first","0","in06rg08","1","21","1","1","3","1","Mir selber ist aufgefallen, dass rundliche Symbole eher angenehm sind und eckige eher unangenehm sind.","0","1","0","null","","","<div style=""font-size:60px;"">+</div>","null","","","","","","","","","",""
"","html-keyboard-response","208","524118","0.0-10.0-1.13","3knv5n39nn","one_one","1","indirect_first","0","in06rg08","1","21","1","1","3","1","Mir selber ist aufgefallen, dass rundliche Symbole eher angenehm sind und eckige eher unangenehm sind.","0","1","0","null","","","<img src = 'category4/GS3.png' width = '100%;'>","null","","","","","","","","","",""
"","html-keyboard-response","209","524370","0.0-10.0-2.13","3knv5n39nn","one_one","1","indirect_first","0","in06rg08","1","21","1","1","3","1","Mir selber ist aufgefallen, dass rundliche Symbole eher angenehm sind und eckige eher unangenehm sind.","0","1","0","null","","","<img src = 'targets/46.png' width = '100%;'>","null","","","","","","","","","",""
"","html-keyboard-response","210","525284","0.0-10.0-3.13","3knv5n39nn","one_one","1","indirect_first","0","in06rg08","1","21","1","1","3","1","Mir selber ist aufgefallen, dass rundliche Symbole eher angenehm sind und eckige eher unangenehm sind.","0","1","0","912.609999999404","","","<img src = 'targets/mask.png' width = '100%;'>","68","neg","GS","GSnew","4","category4/GS3.png","targets/46.png","0","indirect","29",""
"","html-keyboard-response","211","526786","0.0-10.0-0.14","3knv5n39nn","one_one","1","indirect_first","0","in06rg08","1","21","1","1","3","1","Mir selber ist aufgefallen, dass rundliche Symbole eher angenehm sind und eckige eher unangenehm sind.","0","1","0","null","","","<div style=""font-size:60px;"">+</div>","null","","","","","","","","","",""
"","html-keyboard-response","212","526878","0.0-10.0-1.14","3knv5n39nn","one_one","1","indirect_first","0","in06rg08","1","21","1","1","3","1","Mir selber ist aufgefallen, dass rundliche Symbole eher angenehm sind und eckige eher unangenehm sind.","0","1","0","null","","","<img src = 'category2/GS3.png' width = '100%;'>","null","","","","","","","","","",""
"","html-keyboard-response","213","527129","0.0-10.0-2.14","3knv5n39nn","one_one","1","indirect_first","0","in06rg08","1","21","1","1","3","1","Mir selber ist aufgefallen, dass rundliche Symbole eher angenehm sind und eckige eher unangenehm sind.","0","1","0","null","","","<img src = 'targets/20.png' width = '100%;'>","null","","","","","","","","","",""
"","html-keyboard-response","214","527683","0.0-10.0-3.14","3knv5n39nn","one_one","1","indirect_first","0","in06rg08","1","21","1","1","3","1","Mir selber ist aufgefallen, dass rundliche Symbole eher angenehm sind und eckige eher unangenehm sind.","0","1","0","553.5550001077354","","","<img src = 'targets/mask.png' width = '100%;'>","68","pos","GS","GSnew","2","category2/GS3.png","targets/20.png","0","indirect","30",""
"","html-keyboard-response","215","529186","0.0-10.0-0.15","3knv5n39nn","one_one","1","indirect_first","0","in06rg08","1","21","1","1","3","1","Mir selber ist aufgefallen, dass rundliche Symbole eher angenehm sind und eckige eher unangenehm sind.","0","1","0","null","","","<div style=""font-size:60px;"">+</div>","null","","","","","","","","","",""
"","html-keyboard-response","216","529278","0.0-10.0-1.15","3knv5n39nn","one_one","1","indirect_first","0","in06rg08","1","21","1","1","3","1","Mir selber ist aufgefallen, dass rundliche Symbole eher angenehm sind und eckige eher unangenehm sind.","0","1","0","null","","","<img src = 'category2/GS1.png' width = '100%;'>","null","","","","","","","","","",""
"","html-keyboard-response","217","529530","0.0-10.0-2.15","3knv5n39nn","one_one","1","indirect_first","0","in06rg08","1","21","1","1","3","1","Mir selber ist aufgefallen, dass rundliche Symbole eher angenehm sind und eckige eher unangenehm sind.","0","1","0","null","","","<img src = 'targets/24.png' width = '100%;'>","null","","","","","","","","","",""
"","html-keyboard-response","218","529824","0.0-10.0-3.15","3knv5n39nn","one_one","1","indirect_first","0","in06rg08","1","21","1","1","3","1","Mir selber ist aufgefallen, dass rundliche Symbole eher angenehm sind und eckige eher unangenehm sind.","0","1","0","292.55999997258186","","","<img src = 'targets/mask.png' width = '100%;'>","75","pos","GS","GSnew","2","category2/GS1.png","targets/24.png","1","indirect","31",""
"","survey-html-form","219","543960","0.0-11.0","3knv5n39nn","one_one","1","indirect_first","0","in06rg08","1","21","1","1","3","1","Mir selber ist aufgefallen, dass rundliche Symbole eher angenehm sind und eckige eher unangenehm sind.","0","1","0","13635.359999956563","","{}","","","","","","","","","","","",""
"","image-slider-response","220","554009","0.0-12.0-0.0","3knv5n39nn","one_one","1","indirect_first","0","in06rg08","1","21","1","1","3","1","Mir selber ist aufgefallen, dass rundliche Symbole eher angenehm sind und eckige eher unangenehm sind.","0","1","0","8045.395000139251","","","","","neg","GS","GSold","4","category4/CS10.png","targets/7.png","","direct","","43"
"","image-slider-response","221","558592","0.0-12.0-0.1","3knv5n39nn","one_one","1","indirect_first","0","in06rg08","1","21","1","1","3","1","Mir selber ist aufgefallen, dass rundliche Symbole eher angenehm sind und eckige eher unangenehm sind.","0","1","0","4581.934999907389","","","","","neg","GS","GSold","3","category3/CS3.png","targets/15.png","","direct","","-43"
"","image-slider-response","222","560896","0.0-12.0-0.2","3knv5n39nn","one_one","1","indirect_first","0","in06rg08","1","21","1","1","3","1","Mir selber ist aufgefallen, dass rundliche Symbole eher angenehm sind und eckige eher unangenehm sind.","0","1","0","2302.8700000140816","","","","","neg","GS","GSold","4","category4/CS5.png","targets/26.png","","direct","","53"
"","image-slider-response","223","563216","0.0-12.0-0.3","3knv5n39nn","one_one","1","indirect_first","0","in06rg08","1","21","1","1","3","1","Mir selber ist aufgefallen, dass rundliche Symbole eher angenehm sind und eckige eher unangenehm sind.","0","1","0","2318.9450001809746","","","","","pos","GS","abstract","1","category1/ma.png","targets/8.png","","direct","","-63"
"","image-slider-response","224","567800","0.0-12.0-0.4","3knv5n39nn","one_one","1","indirect_first","0","in06rg08","1","21","1","1","3","1","Mir selber ist aufgefallen, dass rundliche Symbole eher angenehm sind und eckige eher unangenehm sind.","0","1","0","4582.519999938086","","","","","pos","CS","CS","1","category1/CS8.png","targets/44.png","","direct","","88"
"","image-slider-response","225","571352","0.0-12.0-0.5","3knv5n39nn","one_one","1","indirect_first","0","in06rg08","1","21","1","1","3","1","Mir selber ist aufgefallen, dass rundliche Symbole eher angenehm sind und eckige eher unangenehm sind.","0","1","0","3550.645000068471","","","","","pos","GS","abstract","2","category2/men.png","targets/29.png","","direct","","73"
"","image-slider-response","226","574232","0.0-12.0-0.6","3knv5n39nn","one_one","1","indirect_first","0","in06rg08","1","21","1","1","3","1","Mir selber ist aufgefallen, dass rundliche Symbole eher angenehm sind und eckige eher unangenehm sind.","0","1","0","2879.0250001475215","","","","","pos","GS","GSold","1","category1/CS1.png","targets/37.png","","direct","","87"
"","image-slider-response","227","576904","0.0-12.0-0.7","3knv5n39nn","one_one","1","indirect_first","0","in06rg08","1","21","1","1","3","1","Mir selber ist aufgefallen, dass rundliche Symbole eher angenehm sind und eckige eher unangenehm sind.","0","1","0","2669.88499998115","","","","","neg","CS","CS","4","category4/CS8.png","targets/22.png","","direct","","91"
"","image-slider-response","228","578840","0.0-12.0-0.8","3knv5n39nn","one_one","1","indirect_first","0","in06rg08","1","21","1","1","3","1","Mir selber ist aufgefallen, dass rundliche Symbole eher angenehm sind und eckige eher unangenehm sind.","0","1","0","1935.2700000163168","","","","","pos","GS","GSold","2","category2/CS2.png","targets/27.png","","direct","","91"
"","image-slider-response","229","581127","0.0-12.0-0.9","3knv5n39nn","one_one","1","indirect_first","0","in06rg08","1","21","1","1","3","1","Mir selber ist aufgefallen, dass rundliche Symbole eher angenehm sind und eckige eher unangenehm sind.","0","1","0","2286.4000000990927","","","","","neg","CS","CS","3","category3/CS7.png","targets/34.png","","direct","","-100"
"","image-slider-response","230","584288","0.0-12.0-0.10","3knv5n39nn","one_one","1","indirect_first","0","in06rg08","1","21","1","1","3","1","Mir selber ist aufgefallen, dass rundliche Symbole eher angenehm sind und eckige eher unangenehm sind.","0","1","0","3159.260000102222","","","","","pos","GS","GSnew","1","category1/GS1.png","targets/12.png","","direct","","-92"
"","image-slider-response","231","587704","0.0-12.0-0.11","3knv5n39nn","one_one","1","indirect_first","0","in06rg08","1","21","1","1","3","1","Mir selber ist aufgefallen, dass rundliche Symbole eher angenehm sind und eckige eher unangenehm sind.","0","1","0","3415.0650000665337","","","","","neg","GS","GSold","3","category3/CS6.png","targets/5.png","","direct","","-74"
"","image-slider-response","232","590248","0.0-12.0-0.12","3knv5n39nn","one_one","1","indirect_first","0","in06rg08","1","21","1","1","3","1","Mir selber ist aufgefallen, dass rundliche Symbole eher angenehm sind und eckige eher unangenehm sind.","0","1","0","2542.4999999813735","","","","","neg","GS","GSold","3","category3/CS1.png","targets/43.png","","direct","","-71"
"","image-slider-response","233","592464","0.0-12.0-0.13","3knv5n39nn","one_one","1","indirect_first","0","in06rg08","1","21","1","1","3","1","Mir selber ist aufgefallen, dass rundliche Symbole eher angenehm sind und eckige eher unangenehm sind.","0","1","0","2214.5549999549985","","","","","pos","GS","GSold","2","category2/CS4.png","targets/10.png","","direct","","76"
"","image-slider-response","234","594744","0.0-12.0-0.14","3knv5n39nn","one_one","1","indirect_first","0","in06rg08","1","21","1","1","3","1","Mir selber ist aufgefallen, dass rundliche Symbole eher angenehm sind und eckige eher unangenehm sind.","0","1","0","2278.7800000514835","","","","","neg","GS","GSold","4","category4/CS7.png","targets/33.png","","direct","","47"
"","image-slider-response","235","597656","0.0-12.0-0.15","3knv5n39nn","one_one","1","indirect_first","0","in06rg08","1","21","1","1","3","1","Mir selber ist aufgefallen, dass rundliche Symbole eher angenehm sind und eckige eher unangenehm sind.","0","1","0","2911.1949999351054","","","","","neg","GS","GSnew","4","category4/GS1.png","targets/25.png","","direct","","-6"
"","image-slider-response","236","600695","0.0-12.0-0.16","3knv5n39nn","one_one","1","indirect_first","0","in06rg08","1","21","1","1","3","1","Mir selber ist aufgefallen, dass rundliche Symbole eher angenehm sind und eckige eher unangenehm sind.","0","1","0","3038.494999986142","","","","","pos","GS","GSnew","2","category2/GS3.png","targets/20.png","","direct","","51"
