"success","trial_type","trial_index","time_elapsed","internal_node_id","subject","condition","condition_code","measure","measure_code","codeword","gender","age","education","chinese","fach","handedness","comment","hinschauen","ablenkung","gewissenhaft","rt","url","responses","stimulus","key_press","val","type","type_specific","category","cs_selected","target","indirect","task","nr_pres","response"
"true","fullscreen","0","4257","0.0-0.0","kk8bumaocj","many_one","0","indirect_first","0","er03an16","1","19","1","1","3","1","","0","1","0","","","","","","","","","","","","","","",""
"","external-html","1","71852","0.0-1.0","kk8bumaocj","many_one","0","indirect_first","0","er03an16","1","19","1","1","3","1","","0","1","0","67406.16000024602","text/information.html","","","","","","","","","","","","",""
"","external-html","2","78129","0.0-2.0","kk8bumaocj","many_one","0","indirect_first","0","er03an16","1","19","1","1","3","1","","0","1","0","6096.390000078827","text/consent.html","","","","","","","","","","","","",""
"","survey-html-form","3","121488","0.0-3.0","kk8bumaocj","many_one","0","indirect_first","0","er03an16","1","19","1","1","3","1","","0","1","0","43356.13500000909","","{""codeword_enter"":""er03an16""}","","","","","","","","","","","",""
"","survey-html-form","4","142429","0.0-4.0","kk8bumaocj","many_one","0","indirect_first","0","er03an16","1","19","1","1","3","1","","0","1","0","20935.835000127554","","{""age"":""19"",""education"":""1"",""subject"":""3"",""gender"":""1"",""handedness"":""1"",""chinese"":""1""}","","","","","","","","","","","",""
"","survey-html-form","5","145500","0.0-5.0","kk8bumaocj","many_one","0","indirect_first","0","er03an16","1","19","1","1","3","1","","0","1","0","3067.2349999658763","","{}","","","","","","","","","","","",""
"","html-keyboard-response","6","149524","0.0-6.0-0.0-0.0","kk8bumaocj","many_one","0","indirect_first","0","er03an16","1","19","1","1","3","1","","0","1","0","null","","","<div class = 'row'><div class = 'column'><img src = 'usneg/6838.bmp' width = '100%;'></div><div class = 'column'><img src = 'category1/CS7.png' width = '70%;'></div></div>","null","neg","CS","CS","1","category1/CS7.png","","","","",""
"","html-keyboard-response","7","152054","0.0-6.0-0.0-0.1","kk8bumaocj","many_one","0","indirect_first","0","er03an16","1","19","1","1","3","1","","0","1","0","null","","","<div class = 'row'><div class = 'column'><img src = 'usneg/9280.bmp' width = '100%;'></div><div class = 'column'><img src = 'category2/CS1.png' width = '70%;'></div></div>","null","neg","CS","CS","2","category2/CS1.png","","","","",""
"","html-keyboard-response","8","154558","0.0-6.0-0.0-0.2","kk8bumaocj","many_one","0","indirect_first","0","er03an16","1","19","1","1","3","1","","0","1","0","null","","","<div class = 'row'><div class = 'column'><img src = 'category4/CS9.png' width = '70%;'></div><div class = 'column'><img src = 'uspos/2360.bmp' width = '100%;'></div></div>","null","pos","CS","CS","4","category4/CS9.png","","","","",""
"","html-keyboard-response","9","157062","0.0-6.0-0.0-0.3","kk8bumaocj","many_one","0","indirect_first","0","er03an16","1","19","1","1","3","1","","0","1","0","null","","","<div class = 'row'><div class = 'column'><img src = 'category3/CS6.png' width = '70%;'></div><div class = 'column'><img src = 'uspos/2550.bmp' width = '100%;'></div></div>","null","pos","CS","CS","3","category3/CS6.png","","","","",""
"","html-keyboard-response","10","159593","0.0-6.0-0.0-0.4","kk8bumaocj","many_one","0","indirect_first","0","er03an16","1","19","1","1","3","1","","0","1","0","null","","","<div class = 'row'><div class = 'column'><img src = 'uspos/1460.bmp' width = '100%;'></div><div class = 'column'><img src = 'category4/CS8.png' width = '70%;'></div></div>","null","pos","CS","CS","4","category4/CS8.png","","","","",""
"","html-keyboard-response","11","162116","0.0-6.0-0.0-0.5","kk8bumaocj","many_one","0","indirect_first","0","er03an16","1","19","1","1","3","1","","0","1","0","null","","","<div class = 'row'><div class = 'column'><img src = 'usneg/3160.bmp' width = '100%;'></div><div class = 'column'><img src = 'category2/CS6.png' width = '70%;'></div></div>","null","neg","CS","CS","2","category2/CS6.png","","","","",""
"","html-keyboard-response","12","164632","0.0-6.0-0.0-0.6","kk8bumaocj","many_one","0","indirect_first","0","er03an16","1","19","1","1","3","1","","0","1","0","null","","","<div class = 'row'><div class = 'column'><img src = 'usneg/9920.bmp' width = '100%;'></div><div class = 'column'><img src = 'category1/CS2.png' width = '70%;'></div></div>","null","neg","CS","CS","1","category1/CS2.png","","","","",""
"","html-keyboard-response","13","167148","0.0-6.0-0.0-0.7","kk8bumaocj","many_one","0","indirect_first","0","er03an16","1","19","1","1","3","1","","0","1","0","null","","","<div class = 'row'><div class = 'column'><img src = 'usneg/9182.bmp' width = '100%;'></div><div class = 'column'><img src = 'category2/CS10.png' width = '70%;'></div></div>","null","neg","CS","CS","2","category2/CS10.png","","","","",""
"","html-keyboard-response","14","169653","0.0-6.0-0.0-0.8","kk8bumaocj","many_one","0","indirect_first","0","er03an16","1","19","1","1","3","1","","0","1","0","null","","","<div class = 'row'><div class = 'column'><img src = 'uspos/2311.bmp' width = '100%;'></div><div class = 'column'><img src = 'category3/CS1.png' width = '70%;'></div></div>","null","pos","CS","CS","3","category3/CS1.png","","","","",""
"","html-keyboard-response","15","172158","0.0-6.0-0.0-0.9","kk8bumaocj","many_one","0","indirect_first","0","er03an16","1","19","1","1","3","1","","0","1","0","null","","","<div class = 'row'><div class = 'column'><img src = 'usneg/2900.bmp' width = '100%;'></div><div class = 'column'><img src = 'category1/CS5.png' width = '70%;'></div></div>","null","neg","CS","CS","1","category1/CS5.png","","","","",""
"","html-keyboard-response","16","174679","0.0-6.0-0.0-0.10","kk8bumaocj","many_one","0","indirect_first","0","er03an16","1","19","1","1","3","1","","0","1","0","null","","","<div class = 'row'><div class = 'column'><img src = 'uspos/5621.bmp' width = '100%;'></div><div class = 'column'><img src = 'category4/CS2.png' width = '70%;'></div></div>","null","pos","CS","CS","4","category4/CS2.png","","","","",""
"","html-keyboard-response","17","177195","0.0-6.0-0.0-0.11","kk8bumaocj","many_one","0","indirect_first","0","er03an16","1","19","1","1","3","1","","0","1","0","null","","","<div class = 'row'><div class = 'column'><img src = 'uspos/2040.bmp' width = '100%;'></div><div class = 'column'><img src = 'category4/CS4.png' width = '70%;'></div></div>","null","pos","CS","CS","4","category4/CS4.png","","","","",""
"","html-keyboard-response","18","179710","0.0-6.0-0.0-0.12","kk8bumaocj","many_one","0","indirect_first","0","er03an16","1","19","1","1","3","1","","0","1","0","null","","","<div class = 'row'><div class = 'column'><img src = 'category2/CS4.png' width = '70%;'></div><div class = 'column'><img src = 'usneg/6212.bmp' width = '100%;'></div></div>","null","neg","CS","CS","2","category2/CS4.png","","","","",""
"","html-keyboard-response","19","182225","0.0-6.0-0.0-0.13","kk8bumaocj","many_one","0","indirect_first","0","er03an16","1","19","1","1","3","1","","0","1","0","null","","","<div class = 'row'><div class = 'column'><img src = 'category4/CS3.png' width = '70%;'></div><div class = 'column'><img src = 'uspos/2341.bmp' width = '100%;'></div></div>","null","pos","CS","CS","4","category4/CS3.png","","","","",""
"","html-keyboard-response","20","184741","0.0-6.0-0.0-0.14","kk8bumaocj","many_one","0","indirect_first","0","er03an16","1","19","1","1","3","1","","0","1","0","null","","","<div class = 'row'><div class = 'column'><img src = 'category2/CS5.png' width = '70%;'></div><div class = 'column'><img src = 'usneg/9041.bmp' width = '100%;'></div></div>","null","neg","CS","CS","2","category2/CS5.png","","","","",""
"","html-keyboard-response","21","187245","0.0-6.0-0.0-0.15","kk8bumaocj","many_one","0","indirect_first","0","er03an16","1","19","1","1","3","1","","0","1","0","null","","","<div class = 'row'><div class = 'column'><img src = 'category3/CS4.png' width = '70%;'></div><div class = 'column'><img src = 'uspos/1340.bmp' width = '100%;'></div></div>","null","pos","CS","CS","3","category3/CS4.png","","","","",""
"","html-keyboard-response","22","189757","0.0-6.0-0.0-0.16","kk8bumaocj","many_one","0","indirect_first","0","er03an16","1","19","1","1","3","1","","0","1","0","null","","","<div class = 'row'><div class = 'column'><img src = 'category3/CS2.png' width = '70%;'></div><div class = 'column'><img src = 'uspos/7325.bmp' width = '100%;'></div></div>","null","pos","CS","CS","3","category3/CS2.png","","","","",""
"","html-keyboard-response","23","192273","0.0-6.0-0.0-0.17","kk8bumaocj","many_one","0","indirect_first","0","er03an16","1","19","1","1","3","1","","0","1","0","null","","","<div class = 'row'><div class = 'column'><img src = 'usneg/2750.bmp' width = '100%;'></div><div class = 'column'><img src = 'category1/CS4.png' width = '70%;'></div></div>","null","neg","CS","CS","1","category1/CS4.png","","","","",""
"","html-keyboard-response","24","194788","0.0-6.0-0.0-0.18","kk8bumaocj","many_one","0","indirect_first","0","er03an16","1","19","1","1","3","1","","0","1","0","null","","","<div class = 'row'><div class = 'column'><img src = 'category3/CS8.png' width = '70%;'></div><div class = 'column'><img src = 'uspos/2160.bmp' width = '100%;'></div></div>","null","pos","CS","CS","3","category3/CS8.png","","","","",""
"","html-keyboard-response","25","197292","0.0-6.0-0.0-0.19","kk8bumaocj","many_one","0","indirect_first","0","er03an16","1","19","1","1","3","1","","0","1","0","null","","","<div class = 'row'><div class = 'column'><img src = 'usneg/6570.1.bmp' width = '100%;'></div><div class = 'column'><img src = 'category1/CS1.png' width = '70%;'></div></div>","null","neg","CS","CS","1","category1/CS1.png","","","","",""
"","survey-html-form","26","200019","0.0-6.0-1.0","kk8bumaocj","many_one","0","indirect_first","0","er03an16","1","19","1","1","3","1","","0","1","0","2224.340000189841","","{}","","","","","","","","","","","",""
"","html-keyboard-response","27","204050","0.0-6.0-2.0-0.0","kk8bumaocj","many_one","0","indirect_first","0","er03an16","1","19","1","1","3","1","","0","1","0","null","","","<div class = 'row'><div class = 'column'><img src = 'uspos/2040.bmp' width = '100%;'></div><div class = 'column'><img src = 'category4/CS4.png' width = '70%;'></div></div>","null","pos","CS","CS","4","category4/CS4.png","","","","",""
"","html-keyboard-response","28","206569","0.0-6.0-2.0-0.1","kk8bumaocj","many_one","0","indirect_first","0","er03an16","1","19","1","1","3","1","","0","1","0","null","","","<div class = 'row'><div class = 'column'><img src = 'usneg/2750.bmp' width = '100%;'></div><div class = 'column'><img src = 'category1/CS4.png' width = '70%;'></div></div>","null","neg","CS","CS","1","category1/CS4.png","","","","",""
"","html-keyboard-response","29","209085","0.0-6.0-2.0-0.2","kk8bumaocj","many_one","0","indirect_first","0","er03an16","1","19","1","1","3","1","","0","1","0","null","","","<div class = 'row'><div class = 'column'><img src = 'uspos/2360.bmp' width = '100%;'></div><div class = 'column'><img src = 'category4/CS9.png' width = '70%;'></div></div>","null","pos","CS","CS","4","category4/CS9.png","","","","",""
"","html-keyboard-response","30","211601","0.0-6.0-2.0-0.3","kk8bumaocj","many_one","0","indirect_first","0","er03an16","1","19","1","1","3","1","","0","1","0","null","","","<div class = 'row'><div class = 'column'><img src = 'usneg/2900.bmp' width = '100%;'></div><div class = 'column'><img src = 'category1/CS5.png' width = '70%;'></div></div>","null","neg","CS","CS","1","category1/CS5.png","","","","",""
"","html-keyboard-response","31","214118","0.0-6.0-2.0-0.4","kk8bumaocj","many_one","0","indirect_first","0","er03an16","1","19","1","1","3","1","","0","1","0","null","","","<div class = 'row'><div class = 'column'><img src = 'category2/CS10.png' width = '70%;'></div><div class = 'column'><img src = 'usneg/9182.bmp' width = '100%;'></div></div>","null","neg","CS","CS","2","category2/CS10.png","","","","",""
"","html-keyboard-response","32","216632","0.0-6.0-2.0-0.5","kk8bumaocj","many_one","0","indirect_first","0","er03an16","1","19","1","1","3","1","","0","1","0","null","","","<div class = 'row'><div class = 'column'><img src = 'uspos/2160.bmp' width = '100%;'></div><div class = 'column'><img src = 'category3/CS8.png' width = '70%;'></div></div>","null","pos","CS","CS","3","category3/CS8.png","","","","",""
"","html-keyboard-response","33","219150","0.0-6.0-2.0-0.6","kk8bumaocj","many_one","0","indirect_first","0","er03an16","1","19","1","1","3","1","","0","1","0","null","","","<div class = 'row'><div class = 'column'><img src = 'category3/CS1.png' width = '70%;'></div><div class = 'column'><img src = 'uspos/2311.bmp' width = '100%;'></div></div>","null","pos","CS","CS","3","category3/CS1.png","","","","",""
"","html-keyboard-response","34","221664","0.0-6.0-2.0-0.7","kk8bumaocj","many_one","0","indirect_first","0","er03an16","1","19","1","1","3","1","","0","1","0","null","","","<div class = 'row'><div class = 'column'><img src = 'usneg/6212.bmp' width = '100%;'></div><div class = 'column'><img src = 'category2/CS4.png' width = '70%;'></div></div>","null","neg","CS","CS","2","category2/CS4.png","","","","",""
"","html-keyboard-response","35","224183","0.0-6.0-2.0-0.8","kk8bumaocj","many_one","0","indirect_first","0","er03an16","1","19","1","1","3","1","","0","1","0","null","","","<div class = 'row'><div class = 'column'><img src = 'category2/CS6.png' width = '70%;'></div><div class = 'column'><img src = 'usneg/3160.bmp' width = '100%;'></div></div>","null","neg","CS","CS","2","category2/CS6.png","","","","",""
"","html-keyboard-response","36","226710","0.0-6.0-2.0-0.9","kk8bumaocj","many_one","0","indirect_first","0","er03an16","1","19","1","1","3","1","","0","1","0","null","","","<div class = 'row'><div class = 'column'><img src = 'category2/CS1.png' width = '70%;'></div><div class = 'column'><img src = 'usneg/9280.bmp' width = '100%;'></div></div>","null","neg","CS","CS","2","category2/CS1.png","","","","",""
"","html-keyboard-response","37","229222","0.0-6.0-2.0-0.10","kk8bumaocj","many_one","0","indirect_first","0","er03an16","1","19","1","1","3","1","","0","1","0","null","","","<div class = 'row'><div class = 'column'><img src = 'uspos/5621.bmp' width = '100%;'></div><div class = 'column'><img src = 'category4/CS2.png' width = '70%;'></div></div>","null","pos","CS","CS","4","category4/CS2.png","","","","",""
"","html-keyboard-response","38","231725","0.0-6.0-2.0-0.11","kk8bumaocj","many_one","0","indirect_first","0","er03an16","1","19","1","1","3","1","","0","1","0","null","","","<div class = 'row'><div class = 'column'><img src = 'uspos/7325.bmp' width = '100%;'></div><div class = 'column'><img src = 'category3/CS2.png' width = '70%;'></div></div>","null","pos","CS","CS","3","category3/CS2.png","","","","",""
"","html-keyboard-response","39","234241","0.0-6.0-2.0-0.12","kk8bumaocj","many_one","0","indirect_first","0","er03an16","1","19","1","1","3","1","","0","1","0","null","","","<div class = 'row'><div class = 'column'><img src = 'uspos/1460.bmp' width = '100%;'></div><div class = 'column'><img src = 'category4/CS8.png' width = '70%;'></div></div>","null","pos","CS","CS","4","category4/CS8.png","","","","",""
"","html-keyboard-response","40","236773","0.0-6.0-2.0-0.13","kk8bumaocj","many_one","0","indirect_first","0","er03an16","1","19","1","1","3","1","","0","1","0","null","","","<div class = 'row'><div class = 'column'><img src = 'usneg/6570.1.bmp' width = '100%;'></div><div class = 'column'><img src = 'category1/CS1.png' width = '70%;'></div></div>","null","neg","CS","CS","1","category1/CS1.png","","","","",""
"","html-keyboard-response","41","239277","0.0-6.0-2.0-0.14","kk8bumaocj","many_one","0","indirect_first","0","er03an16","1","19","1","1","3","1","","0","1","0","null","","","<div class = 'row'><div class = 'column'><img src = 'category3/CS6.png' width = '70%;'></div><div class = 'column'><img src = 'uspos/2550.bmp' width = '100%;'></div></div>","null","pos","CS","CS","3","category3/CS6.png","","","","",""
"","html-keyboard-response","42","241784","0.0-6.0-2.0-0.15","kk8bumaocj","many_one","0","indirect_first","0","er03an16","1","19","1","1","3","1","","0","1","0","null","","","<div class = 'row'><div class = 'column'><img src = 'usneg/9920.bmp' width = '100%;'></div><div class = 'column'><img src = 'category1/CS2.png' width = '70%;'></div></div>","null","neg","CS","CS","1","category1/CS2.png","","","","",""
"","html-keyboard-response","43","244303","0.0-6.0-2.0-0.16","kk8bumaocj","many_one","0","indirect_first","0","er03an16","1","19","1","1","3","1","","0","1","0","null","","","<div class = 'row'><div class = 'column'><img src = 'uspos/1340.bmp' width = '100%;'></div><div class = 'column'><img src = 'category3/CS4.png' width = '70%;'></div></div>","null","pos","CS","CS","3","category3/CS4.png","","","","",""
"","html-keyboard-response","44","246821","0.0-6.0-2.0-0.17","kk8bumaocj","many_one","0","indirect_first","0","er03an16","1","19","1","1","3","1","","0","1","0","null","","","<div class = 'row'><div class = 'column'><img src = 'category4/CS3.png' width = '70%;'></div><div class = 'column'><img src = 'uspos/2341.bmp' width = '100%;'></div></div>","null","pos","CS","CS","4","category4/CS3.png","","","","",""
"","html-keyboard-response","45","249326","0.0-6.0-2.0-0.18","kk8bumaocj","many_one","0","indirect_first","0","er03an16","1","19","1","1","3","1","","0","1","0","null","","","<div class = 'row'><div class = 'column'><img src = 'usneg/6838.bmp' width = '100%;'></div><div class = 'column'><img src = 'category1/CS7.png' width = '70%;'></div></div>","null","neg","CS","CS","1","category1/CS7.png","","","","",""
"","html-keyboard-response","46","251831","0.0-6.0-2.0-0.19","kk8bumaocj","many_one","0","indirect_first","0","er03an16","1","19","1","1","3","1","","0","1","0","null","","","<div class = 'row'><div class = 'column'><img src = 'usneg/9041.bmp' width = '100%;'></div><div class = 'column'><img src = 'category2/CS5.png' width = '70%;'></div></div>","null","neg","CS","CS","2","category2/CS5.png","","","","",""
"","survey-html-form","47","254270","0.0-6.0-3.0","kk8bumaocj","many_one","0","indirect_first","0","er03an16","1","19","1","1","3","1","","0","1","0","1925.7149999029934","","{}","","","","","","","","","","","",""
"","html-keyboard-response","48","258288","0.0-6.0-4.0-0.0","kk8bumaocj","many_one","0","indirect_first","0","er03an16","1","19","1","1","3","1","","0","1","0","null","","","<div class = 'row'><div class = 'column'><img src = 'usneg/6212.bmp' width = '100%;'></div><div class = 'column'><img src = 'category2/CS4.png' width = '70%;'></div></div>","null","neg","CS","CS","2","category2/CS4.png","","","","",""
"","html-keyboard-response","49","260804","0.0-6.0-4.0-0.1","kk8bumaocj","many_one","0","indirect_first","0","er03an16","1","19","1","1","3","1","","0","1","0","null","","","<div class = 'row'><div class = 'column'><img src = 'category3/CS1.png' width = '70%;'></div><div class = 'column'><img src = 'uspos/2311.bmp' width = '100%;'></div></div>","null","pos","CS","CS","3","category3/CS1.png","","","","",""
"","html-keyboard-response","50","263308","0.0-6.0-4.0-0.2","kk8bumaocj","many_one","0","indirect_first","0","er03an16","1","19","1","1","3","1","","0","1","0","null","","","<div class = 'row'><div class = 'column'><img src = 'category3/CS8.png' width = '70%;'></div><div class = 'column'><img src = 'uspos/2160.bmp' width = '100%;'></div></div>","null","pos","CS","CS","3","category3/CS8.png","","","","",""
"","html-keyboard-response","51","265826","0.0-6.0-4.0-0.3","kk8bumaocj","many_one","0","indirect_first","0","er03an16","1","19","1","1","3","1","","0","1","0","null","","","<div class = 'row'><div class = 'column'><img src = 'uspos/2040.bmp' width = '100%;'></div><div class = 'column'><img src = 'category4/CS4.png' width = '70%;'></div></div>","null","pos","CS","CS","4","category4/CS4.png","","","","",""
"","html-keyboard-response","52","268329","0.0-6.0-4.0-0.4","kk8bumaocj","many_one","0","indirect_first","0","er03an16","1","19","1","1","3","1","","0","1","0","null","","","<div class = 'row'><div class = 'column'><img src = 'usneg/6570.1.bmp' width = '100%;'></div><div class = 'column'><img src = 'category1/CS1.png' width = '70%;'></div></div>","null","neg","CS","CS","1","category1/CS1.png","","","","",""
"","html-keyboard-response","53","270832","0.0-6.0-4.0-0.5","kk8bumaocj","many_one","0","indirect_first","0","er03an16","1","19","1","1","3","1","","0","1","0","null","","","<div class = 'row'><div class = 'column'><img src = 'category1/CS2.png' width = '70%;'></div><div class = 'column'><img src = 'usneg/9920.bmp' width = '100%;'></div></div>","null","neg","CS","CS","1","category1/CS2.png","","","","",""
"","html-keyboard-response","54","273350","0.0-6.0-4.0-0.6","kk8bumaocj","many_one","0","indirect_first","0","er03an16","1","19","1","1","3","1","","0","1","0","null","","","<div class = 'row'><div class = 'column'><img src = 'uspos/2550.bmp' width = '100%;'></div><div class = 'column'><img src = 'category3/CS6.png' width = '70%;'></div></div>","null","pos","CS","CS","3","category3/CS6.png","","","","",""
"","html-keyboard-response","55","275866","0.0-6.0-4.0-0.7","kk8bumaocj","many_one","0","indirect_first","0","er03an16","1","19","1","1","3","1","","0","1","0","null","","","<div class = 'row'><div class = 'column'><img src = 'category1/CS5.png' width = '70%;'></div><div class = 'column'><img src = 'usneg/2900.bmp' width = '100%;'></div></div>","null","neg","CS","CS","1","category1/CS5.png","","","","",""
"","html-keyboard-response","56","278371","0.0-6.0-4.0-0.8","kk8bumaocj","many_one","0","indirect_first","0","er03an16","1","19","1","1","3","1","","0","1","0","null","","","<div class = 'row'><div class = 'column'><img src = 'category2/CS1.png' width = '70%;'></div><div class = 'column'><img src = 'usneg/9280.bmp' width = '100%;'></div></div>","null","neg","CS","CS","2","category2/CS1.png","","","","",""
"","html-keyboard-response","57","280876","0.0-6.0-4.0-0.9","kk8bumaocj","many_one","0","indirect_first","0","er03an16","1","19","1","1","3","1","","0","1","0","null","","","<div class = 'row'><div class = 'column'><img src = 'category2/CS6.png' width = '70%;'></div><div class = 'column'><img src = 'usneg/3160.bmp' width = '100%;'></div></div>","null","neg","CS","CS","2","category2/CS6.png","","","","",""
"","html-keyboard-response","58","283398","0.0-6.0-4.0-0.10","kk8bumaocj","many_one","0","indirect_first","0","er03an16","1","19","1","1","3","1","","0","1","0","null","","","<div class = 'row'><div class = 'column'><img src = 'category4/CS3.png' width = '70%;'></div><div class = 'column'><img src = 'uspos/2341.bmp' width = '100%;'></div></div>","null","pos","CS","CS","4","category4/CS3.png","","","","",""
"","html-keyboard-response","59","285914","0.0-6.0-4.0-0.11","kk8bumaocj","many_one","0","indirect_first","0","er03an16","1","19","1","1","3","1","","0","1","0","null","","","<div class = 'row'><div class = 'column'><img src = 'category4/CS9.png' width = '70%;'></div><div class = 'column'><img src = 'uspos/2360.bmp' width = '100%;'></div></div>","null","pos","CS","CS","4","category4/CS9.png","","","","",""
"","html-keyboard-response","60","288420","0.0-6.0-4.0-0.12","kk8bumaocj","many_one","0","indirect_first","0","er03an16","1","19","1","1","3","1","","0","1","0","null","","","<div class = 'row'><div class = 'column'><img src = 'uspos/5621.bmp' width = '100%;'></div><div class = 'column'><img src = 'category4/CS2.png' width = '70%;'></div></div>","null","pos","CS","CS","4","category4/CS2.png","","","","",""
"","html-keyboard-response","61","290929","0.0-6.0-4.0-0.13","kk8bumaocj","many_one","0","indirect_first","0","er03an16","1","19","1","1","3","1","","0","1","0","null","","","<div class = 'row'><div class = 'column'><img src = 'usneg/9041.bmp' width = '100%;'></div><div class = 'column'><img src = 'category2/CS5.png' width = '70%;'></div></div>","null","neg","CS","CS","2","category2/CS5.png","","","","",""
"","html-keyboard-response","62","293439","0.0-6.0-4.0-0.14","kk8bumaocj","many_one","0","indirect_first","0","er03an16","1","19","1","1","3","1","","0","1","0","null","","","<div class = 'row'><div class = 'column'><img src = 'category3/CS2.png' width = '70%;'></div><div class = 'column'><img src = 'uspos/7325.bmp' width = '100%;'></div></div>","null","pos","CS","CS","3","category3/CS2.png","","","","",""
"","html-keyboard-response","63","295945","0.0-6.0-4.0-0.15","kk8bumaocj","many_one","0","indirect_first","0","er03an16","1","19","1","1","3","1","","0","1","0","null","","","<div class = 'row'><div class = 'column'><img src = 'uspos/1460.bmp' width = '100%;'></div><div class = 'column'><img src = 'category4/CS8.png' width = '70%;'></div></div>","null","pos","CS","CS","4","category4/CS8.png","","","","",""
"","html-keyboard-response","64","298463","0.0-6.0-4.0-0.16","kk8bumaocj","many_one","0","indirect_first","0","er03an16","1","19","1","1","3","1","","0","1","0","null","","","<div class = 'row'><div class = 'column'><img src = 'category1/CS7.png' width = '70%;'></div><div class = 'column'><img src = 'usneg/6838.bmp' width = '100%;'></div></div>","null","neg","CS","CS","1","category1/CS7.png","","","","",""
"","html-keyboard-response","65","300976","0.0-6.0-4.0-0.17","kk8bumaocj","many_one","0","indirect_first","0","er03an16","1","19","1","1","3","1","","0","1","0","null","","","<div class = 'row'><div class = 'column'><img src = 'usneg/2750.bmp' width = '100%;'></div><div class = 'column'><img src = 'category1/CS4.png' width = '70%;'></div></div>","null","neg","CS","CS","1","category1/CS4.png","","","","",""
"","html-keyboard-response","66","303482","0.0-6.0-4.0-0.18","kk8bumaocj","many_one","0","indirect_first","0","er03an16","1","19","1","1","3","1","","0","1","0","null","","","<div class = 'row'><div class = 'column'><img src = 'usneg/9182.bmp' width = '100%;'></div><div class = 'column'><img src = 'category2/CS10.png' width = '70%;'></div></div>","null","neg","CS","CS","2","category2/CS10.png","","","","",""
"","html-keyboard-response","67","305986","0.0-6.0-4.0-0.19","kk8bumaocj","many_one","0","indirect_first","0","er03an16","1","19","1","1","3","1","","0","1","0","null","","","<div class = 'row'><div class = 'column'><img src = 'category3/CS4.png' width = '70%;'></div><div class = 'column'><img src = 'uspos/1340.bmp' width = '100%;'></div></div>","null","pos","CS","CS","3","category3/CS4.png","","","","",""
"","survey-html-form","68","308438","0.0-6.0-5.0","kk8bumaocj","many_one","0","indirect_first","0","er03an16","1","19","1","1","3","1","","0","1","0","1945.5750002525747","","{}","","","","","","","","","","","",""
"","html-keyboard-response","69","312461","0.0-6.0-6.0-0.0","kk8bumaocj","many_one","0","indirect_first","0","er03an16","1","19","1","1","3","1","","0","1","0","null","","","<div class = 'row'><div class = 'column'><img src = 'category4/CS2.png' width = '70%;'></div><div class = 'column'><img src = 'uspos/5621.bmp' width = '100%;'></div></div>","null","pos","CS","CS","4","category4/CS2.png","","","","",""
"","html-keyboard-response","70","314976","0.0-6.0-6.0-0.1","kk8bumaocj","many_one","0","indirect_first","0","er03an16","1","19","1","1","3","1","","0","1","0","null","","","<div class = 'row'><div class = 'column'><img src = 'uspos/2360.bmp' width = '100%;'></div><div class = 'column'><img src = 'category4/CS9.png' width = '70%;'></div></div>","null","pos","CS","CS","4","category4/CS9.png","","","","",""
"","html-keyboard-response","71","317482","0.0-6.0-6.0-0.2","kk8bumaocj","many_one","0","indirect_first","0","er03an16","1","19","1","1","3","1","","0","1","0","null","","","<div class = 'row'><div class = 'column'><img src = 'usneg/9920.bmp' width = '100%;'></div><div class = 'column'><img src = 'category1/CS2.png' width = '70%;'></div></div>","null","neg","CS","CS","1","category1/CS2.png","","","","",""
"","html-keyboard-response","72","319986","0.0-6.0-6.0-0.3","kk8bumaocj","many_one","0","indirect_first","0","er03an16","1","19","1","1","3","1","","0","1","0","null","","","<div class = 'row'><div class = 'column'><img src = 'usneg/9182.bmp' width = '100%;'></div><div class = 'column'><img src = 'category2/CS10.png' width = '70%;'></div></div>","null","neg","CS","CS","2","category2/CS10.png","","","","",""
"","html-keyboard-response","73","322506","0.0-6.0-6.0-0.4","kk8bumaocj","many_one","0","indirect_first","0","er03an16","1","19","1","1","3","1","","0","1","0","null","","","<div class = 'row'><div class = 'column'><img src = 'usneg/6838.bmp' width = '100%;'></div><div class = 'column'><img src = 'category1/CS7.png' width = '70%;'></div></div>","null","neg","CS","CS","1","category1/CS7.png","","","","",""
"","html-keyboard-response","74","325027","0.0-6.0-6.0-0.5","kk8bumaocj","many_one","0","indirect_first","0","er03an16","1","19","1","1","3","1","","0","1","0","null","","","<div class = 'row'><div class = 'column'><img src = 'uspos/2550.bmp' width = '100%;'></div><div class = 'column'><img src = 'category3/CS6.png' width = '70%;'></div></div>","null","pos","CS","CS","3","category3/CS6.png","","","","",""
"","html-keyboard-response","75","327553","0.0-6.0-6.0-0.6","kk8bumaocj","many_one","0","indirect_first","0","er03an16","1","19","1","1","3","1","","0","1","0","null","","","<div class = 'row'><div class = 'column'><img src = 'category3/CS1.png' width = '70%;'></div><div class = 'column'><img src = 'uspos/2311.bmp' width = '100%;'></div></div>","null","pos","CS","CS","3","category3/CS1.png","","","","",""
"","html-keyboard-response","76","330062","0.0-6.0-6.0-0.7","kk8bumaocj","many_one","0","indirect_first","0","er03an16","1","19","1","1","3","1","","0","1","0","null","","","<div class = 'row'><div class = 'column'><img src = 'uspos/7325.bmp' width = '100%;'></div><div class = 'column'><img src = 'category3/CS2.png' width = '70%;'></div></div>","null","pos","CS","CS","3","category3/CS2.png","","","","",""
"","html-keyboard-response","77","332570","0.0-6.0-6.0-0.8","kk8bumaocj","many_one","0","indirect_first","0","er03an16","1","19","1","1","3","1","","0","1","0","null","","","<div class = 'row'><div class = 'column'><img src = 'usneg/3160.bmp' width = '100%;'></div><div class = 'column'><img src = 'category2/CS6.png' width = '70%;'></div></div>","null","neg","CS","CS","2","category2/CS6.png","","","","",""
"","html-keyboard-response","78","335103","0.0-6.0-6.0-0.9","kk8bumaocj","many_one","0","indirect_first","0","er03an16","1","19","1","1","3","1","","0","1","0","null","","","<div class = 'row'><div class = 'column'><img src = 'usneg/9280.bmp' width = '100%;'></div><div class = 'column'><img src = 'category2/CS1.png' width = '70%;'></div></div>","null","neg","CS","CS","2","category2/CS1.png","","","","",""
"","html-keyboard-response","79","337616","0.0-6.0-6.0-0.10","kk8bumaocj","many_one","0","indirect_first","0","er03an16","1","19","1","1","3","1","","0","1","0","null","","","<div class = 'row'><div class = 'column'><img src = 'usneg/6570.1.bmp' width = '100%;'></div><div class = 'column'><img src = 'category1/CS1.png' width = '70%;'></div></div>","null","neg","CS","CS","1","category1/CS1.png","","","","",""
"","html-keyboard-response","80","340132","0.0-6.0-6.0-0.11","kk8bumaocj","many_one","0","indirect_first","0","er03an16","1","19","1","1","3","1","","0","1","0","null","","","<div class = 'row'><div class = 'column'><img src = 'uspos/1340.bmp' width = '100%;'></div><div class = 'column'><img src = 'category3/CS4.png' width = '70%;'></div></div>","null","pos","CS","CS","3","category3/CS4.png","","","","",""
"","html-keyboard-response","81","342647","0.0-6.0-6.0-0.12","kk8bumaocj","many_one","0","indirect_first","0","er03an16","1","19","1","1","3","1","","0","1","0","null","","","<div class = 'row'><div class = 'column'><img src = 'uspos/2160.bmp' width = '100%;'></div><div class = 'column'><img src = 'category3/CS8.png' width = '70%;'></div></div>","null","pos","CS","CS","3","category3/CS8.png","","","","",""
"","html-keyboard-response","82","345163","0.0-6.0-6.0-0.13","kk8bumaocj","many_one","0","indirect_first","0","er03an16","1","19","1","1","3","1","","0","1","0","null","","","<div class = 'row'><div class = 'column'><img src = 'usneg/9041.bmp' width = '100%;'></div><div class = 'column'><img src = 'category2/CS5.png' width = '70%;'></div></div>","null","neg","CS","CS","2","category2/CS5.png","","","","",""
"","html-keyboard-response","83","347667","0.0-6.0-6.0-0.14","kk8bumaocj","many_one","0","indirect_first","0","er03an16","1","19","1","1","3","1","","0","1","0","null","","","<div class = 'row'><div class = 'column'><img src = 'usneg/2900.bmp' width = '100%;'></div><div class = 'column'><img src = 'category1/CS5.png' width = '70%;'></div></div>","null","neg","CS","CS","1","category1/CS5.png","","","","",""
"","html-keyboard-response","84","350172","0.0-6.0-6.0-0.15","kk8bumaocj","many_one","0","indirect_first","0","er03an16","1","19","1","1","3","1","","0","1","0","null","","","<div class = 'row'><div class = 'column'><img src = 'category1/CS4.png' width = '70%;'></div><div class = 'column'><img src = 'usneg/2750.bmp' width = '100%;'></div></div>","null","neg","CS","CS","1","category1/CS4.png","","","","",""
"","html-keyboard-response","85","352695","0.0-6.0-6.0-0.16","kk8bumaocj","many_one","0","indirect_first","0","er03an16","1","19","1","1","3","1","","0","1","0","null","","","<div class = 'row'><div class = 'column'><img src = 'uspos/1460.bmp' width = '100%;'></div><div class = 'column'><img src = 'category4/CS8.png' width = '70%;'></div></div>","null","pos","CS","CS","4","category4/CS8.png","","","","",""
"","html-keyboard-response","86","355207","0.0-6.0-6.0-0.17","kk8bumaocj","many_one","0","indirect_first","0","er03an16","1","19","1","1","3","1","","0","1","0","null","","","<div class = 'row'><div class = 'column'><img src = 'category4/CS3.png' width = '70%;'></div><div class = 'column'><img src = 'uspos/2341.bmp' width = '100%;'></div></div>","null","pos","CS","CS","4","category4/CS3.png","","","","",""
"","html-keyboard-response","87","357726","0.0-6.0-6.0-0.18","kk8bumaocj","many_one","0","indirect_first","0","er03an16","1","19","1","1","3","1","","0","1","0","null","","","<div class = 'row'><div class = 'column'><img src = 'category4/CS4.png' width = '70%;'></div><div class = 'column'><img src = 'uspos/2040.bmp' width = '100%;'></div></div>","null","pos","CS","CS","4","category4/CS4.png","","","","",""
"","html-keyboard-response","88","360243","0.0-6.0-6.0-0.19","kk8bumaocj","many_one","0","indirect_first","0","er03an16","1","19","1","1","3","1","","0","1","0","null","","","<div class = 'row'><div class = 'column'><img src = 'category2/CS4.png' width = '70%;'></div><div class = 'column'><img src = 'usneg/6212.bmp' width = '100%;'></div></div>","null","neg","CS","CS","2","category2/CS4.png","","","","",""
"","html-keyboard-response","89","390293","0.0-7.0","kk8bumaocj","many_one","0","indirect_first","0","er03an16","1","19","1","1","3","1","","0","1","0","29539.35500001535","","","<p>Sie sehen nun die chinesischen Zeichen nur ganz kurz. Danach sehen Sie die jeweilige Aussprache der Zeichen als Silbe auf dem Bildschrim. Ihre Aufgabe ist es, für jede Silbe anzugeben, ob diese etwas angenehmes, oder unangenehmes bedeuten könnte. Verlassen Sie sich hier vor allem auf Ihre Intuition.<br><br>Die Zeichen werden nur zur Orientierung dargestellt, beachten Sie sie deshalb nicht. Konzentrieren Sie sich vor allem auf die Silben. <br>Reagieren Sie mit folgenden zwei Tasten: <br><br><b>'D' </b> wenn die Silbe etwas <b>unangenehmes</b> bedeuten könnte. <br><b>'K'</b> wenn die Silbe etwas <b>angenehmes</b> bedeuten könnte. <br><br>Bitte legen Sie nun den Zeigefinger der linken Hand auf die Taste 'D' und den Zeigefinger der rechten Hand auf die Taste 'K'. <br>Reagieren Sie auf jede Silbe so schnell wie möglich. Uns interessiert Ihre spontane Reaktion. <br> <br> <br>Drücken Sie 'D' oder 'K', um die nächste Aufgabe zu starten. </p>","75","","","","","","","","","",""
"","html-keyboard-response","90","393304","0.0-8.0-0.0","kk8bumaocj","many_one","0","indirect_first","0","er03an16","1","19","1","1","3","1","","0","1","0","null","","","<div style=""font-size:60px;"">+</div>","null","","","","","","","","","",""
"","html-keyboard-response","91","393396","0.0-8.0-1.0","kk8bumaocj","many_one","0","indirect_first","0","er03an16","1","19","1","1","3","1","","0","1","0","null","","","<img src = 'category3/CS1.png' width = '100%;'>","null","","","","","","","","","",""
"","html-keyboard-response","92","393648","0.0-8.0-2.0","kk8bumaocj","many_one","0","indirect_first","0","er03an16","1","19","1","1","3","1","","0","1","0","null","","","<img src = 'targets/1.png' width = '100%;'>","null","","","","","","","","","",""
"","html-keyboard-response","93","401071","0.0-8.0-3.0","kk8bumaocj","many_one","0","indirect_first","0","er03an16","1","19","1","1","3","1","","0","1","0","7420.9449999034405","","","<img src = 'targets/mask.png' width = '100%;'>","68","pos","CS","CS","3","category3/CS1.png","targets/1.png","0","indirect","0",""
"","html-keyboard-response","94","402584","0.0-8.0-0.1","kk8bumaocj","many_one","0","indirect_first","0","er03an16","1","19","1","1","3","1","","0","1","0","null","","","<div style=""font-size:60px;"">+</div>","null","","","","","","","","","",""
"","html-keyboard-response","95","402678","0.0-8.0-1.1","kk8bumaocj","many_one","0","indirect_first","0","er03an16","1","19","1","1","3","1","","0","1","0","null","","","<img src = 'category3/CS8.png' width = '100%;'>","null","","","","","","","","","",""
"","html-keyboard-response","96","402942","0.0-8.0-2.1","kk8bumaocj","many_one","0","indirect_first","0","er03an16","1","19","1","1","3","1","","0","1","0","null","","","<img src = 'targets/7.png' width = '100%;'>","null","","","","","","","","","",""
"","html-keyboard-response","97","406032","0.0-8.0-3.1","kk8bumaocj","many_one","0","indirect_first","0","er03an16","1","19","1","1","3","1","","0","1","0","3087.824999820441","","","<img src = 'targets/mask.png' width = '100%;'>","68","pos","CS","CS","3","category3/CS8.png","targets/7.png","0","indirect","1",""
"","html-keyboard-response","98","407538","0.0-8.0-0.2","kk8bumaocj","many_one","0","indirect_first","0","er03an16","1","19","1","1","3","1","","0","1","0","null","","","<div style=""font-size:60px;"">+</div>","null","","","","","","","","","",""
"","html-keyboard-response","99","407643","0.0-8.0-1.2","kk8bumaocj","many_one","0","indirect_first","0","er03an16","1","19","1","1","3","1","","0","1","0","null","","","<img src = 'category4/CS4.png' width = '100%;'>","null","","","","","","","","","",""
"","html-keyboard-response","100","407909","0.0-8.0-2.2","kk8bumaocj","many_one","0","indirect_first","0","er03an16","1","19","1","1","3","1","","0","1","0","null","","","<img src = 'targets/9.png' width = '100%;'>","null","","","","","","","","","",""
"","html-keyboard-response","101","411226","0.0-8.0-3.2","kk8bumaocj","many_one","0","indirect_first","0","er03an16","1","19","1","1","3","1","","0","1","0","3314.6399999968708","","","<img src = 'targets/mask.png' width = '100%;'>","75","pos","CS","CS","4","category4/CS4.png","targets/9.png","1","indirect","2",""
"","html-keyboard-response","102","412733","0.0-8.0-0.3","kk8bumaocj","many_one","0","indirect_first","0","er03an16","1","19","1","1","3","1","","0","1","0","null","","","<div style=""font-size:60px;"">+</div>","null","","","","","","","","","",""
"","html-keyboard-response","103","412825","0.0-8.0-1.3","kk8bumaocj","many_one","0","indirect_first","0","er03an16","1","19","1","1","3","1","","0","1","0","null","","","<img src = 'category1/CS7.png' width = '100%;'>","null","","","","","","","","","",""
"","html-keyboard-response","104","413077","0.0-8.0-2.3","kk8bumaocj","many_one","0","indirect_first","0","er03an16","1","19","1","1","3","1","","0","1","0","null","","","<img src = 'targets/4.png' width = '100%;'>","null","","","","","","","","","",""
"","html-keyboard-response","105","414511","0.0-8.0-3.3","kk8bumaocj","many_one","0","indirect_first","0","er03an16","1","19","1","1","3","1","","0","1","0","1431.1699997633696","","","<img src = 'targets/mask.png' width = '100%;'>","75","neg","CS","CS","1","category1/CS7.png","targets/4.png","1","indirect","3",""
"","html-keyboard-response","106","416016","0.0-8.0-0.4","kk8bumaocj","many_one","0","indirect_first","0","er03an16","1","19","1","1","3","1","","0","1","0","null","","","<div style=""font-size:60px;"">+</div>","null","","","","","","","","","",""
"","html-keyboard-response","107","416109","0.0-8.0-1.4","kk8bumaocj","many_one","0","indirect_first","0","er03an16","1","19","1","1","3","1","","0","1","0","null","","","<img src = 'category1/CS2.png' width = '100%;'>","null","","","","","","","","","",""
"","html-keyboard-response","108","416362","0.0-8.0-2.4","kk8bumaocj","many_one","0","indirect_first","0","er03an16","1","19","1","1","3","1","","0","1","0","null","","","<img src = 'targets/3.png' width = '100%;'>","null","","","","","","","","","",""
"","html-keyboard-response","109","418775","0.0-8.0-3.4","kk8bumaocj","many_one","0","indirect_first","0","er03an16","1","19","1","1","3","1","","0","1","0","2410.5350002646446","","","<img src = 'targets/mask.png' width = '100%;'>","68","neg","CS","CS","1","category1/CS2.png","targets/3.png","0","indirect","4",""
"","html-keyboard-response","110","420289","0.0-8.0-0.5","kk8bumaocj","many_one","0","indirect_first","0","er03an16","1","19","1","1","3","1","","0","1","0","null","","","<div style=""font-size:60px;"">+</div>","null","","","","","","","","","",""
"","html-keyboard-response","111","420381","0.0-8.0-1.5","kk8bumaocj","many_one","0","indirect_first","0","er03an16","1","19","1","1","3","1","","0","1","0","null","","","<img src = 'category4/CS7.png' width = '100%;'>","null","","","","","","","","","",""
"","html-keyboard-response","112","420635","0.0-8.0-2.5","kk8bumaocj","many_one","0","indirect_first","0","er03an16","1","19","1","1","3","1","","0","1","0","null","","","<img src = 'targets/17.png' width = '100%;'>","null","","","","","","","","","",""
"","html-keyboard-response","113","421292","0.0-8.0-3.5","kk8bumaocj","many_one","0","indirect_first","0","er03an16","1","19","1","1","3","1","","0","1","0","653.9050000719726","","","<img src = 'targets/mask.png' width = '100%;'>","75","pos","GS","GSold","4","category4/CS7.png","targets/17.png","1","indirect","5",""
"","html-keyboard-response","114","422798","0.0-8.0-0.6","kk8bumaocj","many_one","0","indirect_first","0","er03an16","1","19","1","1","3","1","","0","1","0","null","","","<div style=""font-size:60px;"">+</div>","null","","","","","","","","","",""
"","html-keyboard-response","115","422890","0.0-8.0-1.6","kk8bumaocj","many_one","0","indirect_first","0","er03an16","1","19","1","1","3","1","","0","1","0","null","","","<img src = 'category2/CS10.png' width = '100%;'>","null","","","","","","","","","",""
"","html-keyboard-response","116","423142","0.0-8.0-2.6","kk8bumaocj","many_one","0","indirect_first","0","er03an16","1","19","1","1","3","1","","0","1","0","null","","","<img src = 'targets/14.png' width = '100%;'>","null","","","","","","","","","",""
"","html-keyboard-response","117","423994","0.0-8.0-3.6","kk8bumaocj","many_one","0","indirect_first","0","er03an16","1","19","1","1","3","1","","0","1","0","848.8699998706579","","","<img src = 'targets/mask.png' width = '100%;'>","75","neg","CS","CS","2","category2/CS10.png","targets/14.png","1","indirect","6",""
"","html-keyboard-response","118","425507","0.0-8.0-0.7","kk8bumaocj","many_one","0","indirect_first","0","er03an16","1","19","1","1","3","1","","0","1","0","null","","","<div style=""font-size:60px;"">+</div>","null","","","","","","","","","",""
"","html-keyboard-response","119","425608","0.0-8.0-1.7","kk8bumaocj","many_one","0","indirect_first","0","er03an16","1","19","1","1","3","1","","0","1","0","null","","","<img src = 'category3/CS4.png' width = '100%;'>","null","","","","","","","","","",""
"","html-keyboard-response","120","425874","0.0-8.0-2.7","kk8bumaocj","many_one","0","indirect_first","0","er03an16","1","19","1","1","3","1","","0","1","0","null","","","<img src = 'targets/33.png' width = '100%;'>","null","","","","","","","","","",""
"","html-keyboard-response","121","426579","0.0-8.0-3.7","kk8bumaocj","many_one","0","indirect_first","0","er03an16","1","19","1","1","3","1","","0","1","0","704.4199998490512","","","<img src = 'targets/mask.png' width = '100%;'>","68","pos","CS","CS","3","category3/CS4.png","targets/33.png","0","indirect","7",""
"","html-keyboard-response","122","428096","0.0-8.0-0.8","kk8bumaocj","many_one","0","indirect_first","0","er03an16","1","19","1","1","3","1","","0","1","0","null","","","<div style=""font-size:60px;"">+</div>","null","","","","","","","","","",""
"","html-keyboard-response","123","428192","0.0-8.0-1.8","kk8bumaocj","many_one","0","indirect_first","0","er03an16","1","19","1","1","3","1","","0","1","0","null","","","<img src = 'category2/CS4.png' width = '100%;'>","null","","","","","","","","","",""
"","html-keyboard-response","124","428455","0.0-8.0-2.8","kk8bumaocj","many_one","0","indirect_first","0","er03an16","1","19","1","1","3","1","","0","1","0","null","","","<img src = 'targets/47.png' width = '100%;'>","null","","","","","","","","","",""
"","html-keyboard-response","125","430675","0.0-8.0-3.8","kk8bumaocj","many_one","0","indirect_first","0","er03an16","1","19","1","1","3","1","","0","1","0","2218.83499994874","","","<img src = 'targets/mask.png' width = '100%;'>","68","neg","CS","CS","2","category2/CS4.png","targets/47.png","0","indirect","8",""
"","html-keyboard-response","126","432197","0.0-8.0-0.9","kk8bumaocj","many_one","0","indirect_first","0","er03an16","1","19","1","1","3","1","","0","1","0","null","","","<div style=""font-size:60px;"">+</div>","null","","","","","","","","","",""
"","html-keyboard-response","127","432293","0.0-8.0-1.9","kk8bumaocj","many_one","0","indirect_first","0","er03an16","1","19","1","1","3","1","","0","1","0","null","","","<img src = 'category2/CS1.png' width = '100%;'>","null","","","","","","","","","",""
"","html-keyboard-response","128","432560","0.0-8.0-2.9","kk8bumaocj","many_one","0","indirect_first","0","er03an16","1","19","1","1","3","1","","0","1","0","null","","","<img src = 'targets/6.png' width = '100%;'>","null","","","","","","","","","",""
"","html-keyboard-response","129","433073","0.0-8.0-3.9","kk8bumaocj","many_one","0","indirect_first","0","er03an16","1","19","1","1","3","1","","0","1","0","509.9300001747906","","","<img src = 'targets/mask.png' width = '100%;'>","75","neg","CS","CS","2","category2/CS1.png","targets/6.png","1","indirect","9",""
"","html-keyboard-response","130","434586","0.0-8.0-0.10","kk8bumaocj","many_one","0","indirect_first","0","er03an16","1","19","1","1","3","1","","0","1","0","null","","","<div style=""font-size:60px;"">+</div>","null","","","","","","","","","",""
"","html-keyboard-response","131","434678","0.0-8.0-1.10","kk8bumaocj","many_one","0","indirect_first","0","er03an16","1","19","1","1","3","1","","0","1","0","null","","","<img src = 'category4/CS9.png' width = '100%;'>","null","","","","","","","","","",""
"","html-keyboard-response","132","434940","0.0-8.0-2.10","kk8bumaocj","many_one","0","indirect_first","0","er03an16","1","19","1","1","3","1","","0","1","0","null","","","<img src = 'targets/12.png' width = '100%;'>","null","","","","","","","","","",""
"","html-keyboard-response","133","435621","0.0-8.0-3.10","kk8bumaocj","many_one","0","indirect_first","0","er03an16","1","19","1","1","3","1","","0","1","0","679.9550000578165","","","<img src = 'targets/mask.png' width = '100%;'>","68","pos","CS","CS","4","category4/CS9.png","targets/12.png","0","indirect","10",""
"","html-keyboard-response","134","437129","0.0-8.0-0.11","kk8bumaocj","many_one","0","indirect_first","0","er03an16","1","19","1","1","3","1","","0","1","0","null","","","<div style=""font-size:60px;"">+</div>","null","","","","","","","","","",""
"","html-keyboard-response","135","437225","0.0-8.0-1.11","kk8bumaocj","many_one","0","indirect_first","0","er03an16","1","19","1","1","3","1","","0","1","0","null","","","<img src = 'category1/CS1.png' width = '100%;'>","null","","","","","","","","","",""
"","html-keyboard-response","136","437478","0.0-8.0-2.11","kk8bumaocj","many_one","0","indirect_first","0","er03an16","1","19","1","1","3","1","","0","1","0","null","","","<img src = 'targets/30.png' width = '100%;'>","null","","","","","","","","","",""
"","html-keyboard-response","137","438106","0.0-8.0-3.11","kk8bumaocj","many_one","0","indirect_first","0","er03an16","1","19","1","1","3","1","","0","1","0","626.4300001785159","","","<img src = 'targets/mask.png' width = '100%;'>","68","neg","CS","CS","1","category1/CS1.png","targets/30.png","0","indirect","11",""
"","html-keyboard-response","138","439618","0.0-8.0-0.12","kk8bumaocj","many_one","0","indirect_first","0","er03an16","1","19","1","1","3","1","","0","1","0","null","","","<div style=""font-size:60px;"">+</div>","null","","","","","","","","","",""
"","html-keyboard-response","139","439711","0.0-8.0-1.12","kk8bumaocj","many_one","0","indirect_first","0","er03an16","1","19","1","1","3","1","","0","1","0","null","","","<img src = 'category3/CS6.png' width = '100%;'>","null","","","","","","","","","",""
"","html-keyboard-response","140","439963","0.0-8.0-2.12","kk8bumaocj","many_one","0","indirect_first","0","er03an16","1","19","1","1","3","1","","0","1","0","null","","","<img src = 'targets/43.png' width = '100%;'>","null","","","","","","","","","",""
"","html-keyboard-response","141","440528","0.0-8.0-3.12","kk8bumaocj","many_one","0","indirect_first","0","er03an16","1","19","1","1","3","1","","0","1","0","563.8599996455014","","","<img src = 'targets/mask.png' width = '100%;'>","75","pos","CS","CS","3","category3/CS6.png","targets/43.png","1","indirect","12",""
"","html-keyboard-response","142","442032","0.0-8.0-0.13","kk8bumaocj","many_one","0","indirect_first","0","er03an16","1","19","1","1","3","1","","0","1","0","null","","","<div style=""font-size:60px;"">+</div>","null","","","","","","","","","",""
"","html-keyboard-response","143","442123","0.0-8.0-1.13","kk8bumaocj","many_one","0","indirect_first","0","er03an16","1","19","1","1","3","1","","0","1","0","null","","","<img src = 'category2/CS6.png' width = '100%;'>","null","","","","","","","","","",""
"","html-keyboard-response","144","442389","0.0-8.0-2.13","kk8bumaocj","many_one","0","indirect_first","0","er03an16","1","19","1","1","3","1","","0","1","0","null","","","<img src = 'targets/15.png' width = '100%;'>","null","","","","","","","","","",""
"","html-keyboard-response","145","443785","0.0-8.0-3.13","kk8bumaocj","many_one","0","indirect_first","0","er03an16","1","19","1","1","3","1","","0","1","0","1394.3099998869002","","","<img src = 'targets/mask.png' width = '100%;'>","68","neg","CS","CS","2","category2/CS6.png","targets/15.png","0","indirect","13",""
"","html-keyboard-response","146","445290","0.0-8.0-0.14","kk8bumaocj","many_one","0","indirect_first","0","er03an16","1","19","1","1","3","1","","0","1","0","null","","","<div style=""font-size:60px;"">+</div>","null","","","","","","","","","",""
"","html-keyboard-response","147","445381","0.0-8.0-1.14","kk8bumaocj","many_one","0","indirect_first","0","er03an16","1","19","1","1","3","1","","0","1","0","null","","","<img src = 'category4/CS2.png' width = '100%;'>","null","","","","","","","","","",""
"","html-keyboard-response","148","445634","0.0-8.0-2.14","kk8bumaocj","many_one","0","indirect_first","0","er03an16","1","19","1","1","3","1","","0","1","0","null","","","<img src = 'targets/11.png' width = '100%;'>","null","","","","","","","","","",""
"","html-keyboard-response","149","446303","0.0-8.0-3.14","kk8bumaocj","many_one","0","indirect_first","0","er03an16","1","19","1","1","3","1","","0","1","0","666.3649999536574","","","<img src = 'targets/mask.png' width = '100%;'>","75","pos","CS","CS","4","category4/CS2.png","targets/11.png","1","indirect","14",""
"","html-keyboard-response","150","447815","0.0-8.0-0.15","kk8bumaocj","many_one","0","indirect_first","0","er03an16","1","19","1","1","3","1","","0","1","0","null","","","<div style=""font-size:60px;"">+</div>","null","","","","","","","","","",""
"","html-keyboard-response","151","447907","0.0-8.0-1.15","kk8bumaocj","many_one","0","indirect_first","0","er03an16","1","19","1","1","3","1","","0","1","0","null","","","<img src = 'category1/CS4.png' width = '100%;'>","null","","","","","","","","","",""
"","html-keyboard-response","152","448160","0.0-8.0-2.15","kk8bumaocj","many_one","0","indirect_first","0","er03an16","1","19","1","1","3","1","","0","1","0","null","","","<img src = 'targets/37.png' width = '100%;'>","null","","","","","","","","","",""
"","html-keyboard-response","153","449879","0.0-8.0-3.15","kk8bumaocj","many_one","0","indirect_first","0","er03an16","1","19","1","1","3","1","","0","1","0","1717.604999896139","","","<img src = 'targets/mask.png' width = '100%;'>","68","neg","CS","CS","1","category1/CS4.png","targets/37.png","0","indirect","15",""
"","html-keyboard-response","154","451383","0.0-8.0-0.16","kk8bumaocj","many_one","0","indirect_first","0","er03an16","1","19","1","1","3","1","","0","1","0","null","","","<div style=""font-size:60px;"">+</div>","null","","","","","","","","","",""
"","html-keyboard-response","155","451476","0.0-8.0-1.16","kk8bumaocj","many_one","0","indirect_first","0","er03an16","1","19","1","1","3","1","","0","1","0","null","","","<img src = 'category1/CS5.png' width = '100%;'>","null","","","","","","","","","",""
"","html-keyboard-response","156","451729","0.0-8.0-2.16","kk8bumaocj","many_one","0","indirect_first","0","er03an16","1","19","1","1","3","1","","0","1","0","null","","","<img src = 'targets/35.png' width = '100%;'>","null","","","","","","","","","",""
"","html-keyboard-response","157","452774","0.0-8.0-3.16","kk8bumaocj","many_one","0","indirect_first","0","er03an16","1","19","1","1","3","1","","0","1","0","1042.5149998627603","","","<img src = 'targets/mask.png' width = '100%;'>","68","neg","CS","CS","1","category1/CS5.png","targets/35.png","0","indirect","16",""
"","html-keyboard-response","158","454288","0.0-8.0-0.17","kk8bumaocj","many_one","0","indirect_first","0","er03an16","1","19","1","1","3","1","","0","1","0","null","","","<div style=""font-size:60px;"">+</div>","null","","","","","","","","","",""
"","html-keyboard-response","159","454389","0.0-8.0-1.17","kk8bumaocj","many_one","0","indirect_first","0","er03an16","1","19","1","1","3","1","","0","1","0","null","","","<img src = 'category1/CS6.png' width = '100%;'>","null","","","","","","","","","",""
"","html-keyboard-response","160","454654","0.0-8.0-2.17","kk8bumaocj","many_one","0","indirect_first","0","er03an16","1","19","1","1","3","1","","0","1","0","null","","","<img src = 'targets/29.png' width = '100%;'>","null","","","","","","","","","",""
"","html-keyboard-response","161","457970","0.0-8.0-3.17","kk8bumaocj","many_one","0","indirect_first","0","er03an16","1","19","1","1","3","1","","0","1","0","3314.6900003775954","","","<img src = 'targets/mask.png' width = '100%;'>","68","neg","GS","GSold","1","category1/CS6.png","targets/29.png","0","indirect","17",""
"","html-keyboard-response","162","459475","0.0-8.0-0.18","kk8bumaocj","many_one","0","indirect_first","0","er03an16","1","19","1","1","3","1","","0","1","0","null","","","<div style=""font-size:60px;"">+</div>","null","","","","","","","","","",""
"","html-keyboard-response","163","459567","0.0-8.0-1.18","kk8bumaocj","many_one","0","indirect_first","0","er03an16","1","19","1","1","3","1","","0","1","0","null","","","<img src = 'category3/CS2.png' width = '100%;'>","null","","","","","","","","","",""
"","html-keyboard-response","164","459839","0.0-8.0-2.18","kk8bumaocj","many_one","0","indirect_first","0","er03an16","1","19","1","1","3","1","","0","1","0","null","","","<img src = 'targets/28.png' width = '100%;'>","null","","","","","","","","","",""
"","html-keyboard-response","165","460605","0.0-8.0-3.18","kk8bumaocj","many_one","0","indirect_first","0","er03an16","1","19","1","1","3","1","","0","1","0","763.7399998493493","","","<img src = 'targets/mask.png' width = '100%;'>","75","pos","CS","CS","3","category3/CS2.png","targets/28.png","1","indirect","18",""
"","html-keyboard-response","166","462116","0.0-8.0-0.19","kk8bumaocj","many_one","0","indirect_first","0","er03an16","1","19","1","1","3","1","","0","1","0","null","","","<div style=""font-size:60px;"">+</div>","null","","","","","","","","","",""
"","html-keyboard-response","167","462214","0.0-8.0-1.19","kk8bumaocj","many_one","0","indirect_first","0","er03an16","1","19","1","1","3","1","","0","1","0","null","","","<img src = 'category4/CS3.png' width = '100%;'>","null","","","","","","","","","",""
"","html-keyboard-response","168","462466","0.0-8.0-2.19","kk8bumaocj","many_one","0","indirect_first","0","er03an16","1","19","1","1","3","1","","0","1","0","null","","","<img src = 'targets/46.png' width = '100%;'>","null","","","","","","","","","",""
"","html-keyboard-response","169","463204","0.0-8.0-3.19","kk8bumaocj","many_one","0","indirect_first","0","er03an16","1","19","1","1","3","1","","0","1","0","736.1149997450411","","","<img src = 'targets/mask.png' width = '100%;'>","75","pos","CS","CS","4","category4/CS3.png","targets/46.png","1","indirect","19",""
"","html-keyboard-response","170","464708","0.0-8.0-0.20","kk8bumaocj","many_one","0","indirect_first","0","er03an16","1","19","1","1","3","1","","0","1","0","null","","","<div style=""font-size:60px;"">+</div>","null","","","","","","","","","",""
"","html-keyboard-response","171","464800","0.0-8.0-1.20","kk8bumaocj","many_one","0","indirect_first","0","er03an16","1","19","1","1","3","1","","0","1","0","null","","","<img src = 'category1/CS3.png' width = '100%;'>","null","","","","","","","","","",""
"","html-keyboard-response","172","465052","0.0-8.0-2.20","kk8bumaocj","many_one","0","indirect_first","0","er03an16","1","19","1","1","3","1","","0","1","0","null","","","<img src = 'targets/21.png' width = '100%;'>","null","","","","","","","","","",""
"","html-keyboard-response","173","467320","0.0-8.0-3.20","kk8bumaocj","many_one","0","indirect_first","0","er03an16","1","19","1","1","3","1","","0","1","0","2266.5550000965595","","","<img src = 'targets/mask.png' width = '100%;'>","68","neg","GS","GSold","1","category1/CS3.png","targets/21.png","0","indirect","20",""
"","html-keyboard-response","174","468829","0.0-8.0-0.21","kk8bumaocj","many_one","0","indirect_first","0","er03an16","1","19","1","1","3","1","","0","1","0","null","","","<div style=""font-size:60px;"">+</div>","null","","","","","","","","","",""
"","html-keyboard-response","175","468921","0.0-8.0-1.21","kk8bumaocj","many_one","0","indirect_first","0","er03an16","1","19","1","1","3","1","","0","1","0","null","","","<img src = 'category1/CS10.png' width = '100%;'>","null","","","","","","","","","",""
"","html-keyboard-response","176","469174","0.0-8.0-2.21","kk8bumaocj","many_one","0","indirect_first","0","er03an16","1","19","1","1","3","1","","0","1","0","null","","","<img src = 'targets/18.png' width = '100%;'>","null","","","","","","","","","",""
"","html-keyboard-response","177","470546","0.0-8.0-3.21","kk8bumaocj","many_one","0","indirect_first","0","er03an16","1","19","1","1","3","1","","0","1","0","1368.8400001265109","","","<img src = 'targets/mask.png' width = '100%;'>","75","neg","GS","GSold","1","category1/CS10.png","targets/18.png","1","indirect","21",""
"","html-keyboard-response","178","472053","0.0-8.0-0.22","kk8bumaocj","many_one","0","indirect_first","0","er03an16","1","19","1","1","3","1","","0","1","0","null","","","<div style=""font-size:60px;"">+</div>","null","","","","","","","","","",""
"","html-keyboard-response","179","472154","0.0-8.0-1.22","kk8bumaocj","many_one","0","indirect_first","0","er03an16","1","19","1","1","3","1","","0","1","0","null","","","<img src = 'category4/CS8.png' width = '100%;'>","null","","","","","","","","","",""
"","html-keyboard-response","180","472407","0.0-8.0-2.22","kk8bumaocj","many_one","0","indirect_first","0","er03an16","1","19","1","1","3","1","","0","1","0","null","","","<img src = 'targets/16.png' width = '100%;'>","null","","","","","","","","","",""
"","html-keyboard-response","181","473259","0.0-8.0-3.22","kk8bumaocj","many_one","0","indirect_first","0","er03an16","1","19","1","1","3","1","","0","1","0","851.3599997386336","","","<img src = 'targets/mask.png' width = '100%;'>","75","pos","CS","CS","4","category4/CS8.png","targets/16.png","1","indirect","22",""
"","html-keyboard-response","182","474771","0.0-8.0-0.23","kk8bumaocj","many_one","0","indirect_first","0","er03an16","1","19","1","1","3","1","","0","1","0","null","","","<div style=""font-size:60px;"">+</div>","null","","","","","","","","","",""
"","html-keyboard-response","183","474863","0.0-8.0-1.23","kk8bumaocj","many_one","0","indirect_first","0","er03an16","1","19","1","1","3","1","","0","1","0","null","","","<img src = 'category2/CS5.png' width = '100%;'>","null","","","","","","","","","",""
"","html-keyboard-response","184","475116","0.0-8.0-2.23","kk8bumaocj","many_one","0","indirect_first","0","er03an16","1","19","1","1","3","1","","0","1","0","null","","","<img src = 'targets/31.png' width = '100%;'>","null","","","","","","","","","",""
"","html-keyboard-response","185","476311","0.0-8.0-3.23","kk8bumaocj","many_one","0","indirect_first","0","er03an16","1","19","1","1","3","1","","0","1","0","1193.2900003157556","","","<img src = 'targets/mask.png' width = '100%;'>","68","neg","CS","CS","2","category2/CS5.png","targets/31.png","0","indirect","23",""
"","survey-html-form","186","478732","0.0-9.0","kk8bumaocj","many_one","0","indirect_first","0","er03an16","1","19","1","1","3","1","","0","1","0","1918.2899999432266","","{}","","","","","","","","","","","",""
"","html-keyboard-response","187","481742","0.0-10.0-0.0","kk8bumaocj","many_one","0","indirect_first","0","er03an16","1","19","1","1","3","1","","0","1","0","null","","","<div style=""font-size:60px;"">+</div>","null","","","","","","","","","",""
"","html-keyboard-response","188","481834","0.0-10.0-1.0","kk8bumaocj","many_one","0","indirect_first","0","er03an16","1","19","1","1","3","1","","0","1","0","null","","","<img src = 'category3/GS2.png' width = '100%;'>","null","","","","","","","","","",""
"","html-keyboard-response","189","482087","0.0-10.0-2.0","kk8bumaocj","many_one","0","indirect_first","0","er03an16","1","19","1","1","3","1","","0","1","0","null","","","<img src = 'targets/22.png' width = '100%;'>","null","","","","","","","","","",""
"","html-keyboard-response","190","483030","0.0-10.0-3.0","kk8bumaocj","many_one","0","indirect_first","0","er03an16","1","19","1","1","3","1","","0","1","0","939.974999986589","","","<img src = 'targets/mask.png' width = '100%;'>","75","pos","GS","GSnew","3","category3/GS2.png","targets/22.png","1","indirect","24",""
"","html-keyboard-response","191","484538","0.0-10.0-0.1","kk8bumaocj","many_one","0","indirect_first","0","er03an16","1","19","1","1","3","1","","0","1","0","null","","","<div style=""font-size:60px;"">+</div>","null","","","","","","","","","",""
"","html-keyboard-response","192","484632","0.0-10.0-1.1","kk8bumaocj","many_one","0","indirect_first","0","er03an16","1","19","1","1","3","1","","0","1","0","null","","","<img src = 'category2/CS8.png' width = '100%;'>","null","","","","","","","","","",""
"","html-keyboard-response","193","484902","0.0-10.0-2.1","kk8bumaocj","many_one","0","indirect_first","0","er03an16","1","19","1","1","3","1","","0","1","0","null","","","<img src = 'targets/24.png' width = '100%;'>","null","","","","","","","","","",""
"","html-keyboard-response","194","485898","0.0-10.0-3.1","kk8bumaocj","many_one","0","indirect_first","0","er03an16","1","19","1","1","3","1","","0","1","0","993.9999999478459","","","<img src = 'targets/mask.png' width = '100%;'>","75","neg","GS","GSold","2","category2/CS8.png","targets/24.png","1","indirect","25",""
"","html-keyboard-response","195","487414","0.0-10.0-0.2","kk8bumaocj","many_one","0","indirect_first","0","er03an16","1","19","1","1","3","1","","0","1","0","null","","","<div style=""font-size:60px;"">+</div>","null","","","","","","","","","",""
"","html-keyboard-response","196","487507","0.0-10.0-1.2","kk8bumaocj","many_one","0","indirect_first","0","er03an16","1","19","1","1","3","1","","0","1","0","null","","","<img src = 'category3/GS1.png' width = '100%;'>","null","","","","","","","","","",""
"","html-keyboard-response","197","487759","0.0-10.0-2.2","kk8bumaocj","many_one","0","indirect_first","0","er03an16","1","19","1","1","3","1","","0","1","0","null","","","<img src = 'targets/10.png' width = '100%;'>","null","","","","","","","","","",""
"","html-keyboard-response","198","488376","0.0-10.0-3.2","kk8bumaocj","many_one","0","indirect_first","0","er03an16","1","19","1","1","3","1","","0","1","0","615.1499999687076","","","<img src = 'targets/mask.png' width = '100%;'>","68","pos","GS","GSnew","3","category3/GS1.png","targets/10.png","0","indirect","26",""
"","html-keyboard-response","199","489878","0.0-10.0-0.3","kk8bumaocj","many_one","0","indirect_first","0","er03an16","1","19","1","1","3","1","","0","1","0","null","","","<div style=""font-size:60px;"">+</div>","null","","","","","","","","","",""
"","html-keyboard-response","200","489970","0.0-10.0-1.3","kk8bumaocj","many_one","0","indirect_first","0","er03an16","1","19","1","1","3","1","","0","1","0","null","","","<img src = 'category4/GS3.png' width = '100%;'>","null","","","","","","","","","",""
"","html-keyboard-response","201","490226","0.0-10.0-2.3","kk8bumaocj","many_one","0","indirect_first","0","er03an16","1","19","1","1","3","1","","0","1","0","null","","","<img src = 'targets/41.png' width = '100%;'>","null","","","","","","","","","",""
"","html-keyboard-response","202","491384","0.0-10.0-3.3","kk8bumaocj","many_one","0","indirect_first","0","er03an16","1","19","1","1","3","1","","0","1","0","1155.985000077635","","","<img src = 'targets/mask.png' width = '100%;'>","75","pos","GS","GSnew","4","category4/GS3.png","targets/41.png","1","indirect","27",""
"","html-keyboard-response","203","492896","0.0-10.0-0.4","kk8bumaocj","many_one","0","indirect_first","0","er03an16","1","19","1","1","3","1","","0","1","0","null","","","<div style=""font-size:60px;"">+</div>","null","","","","","","","","","",""
"","html-keyboard-response","204","492988","0.0-10.0-1.4","kk8bumaocj","many_one","0","indirect_first","0","er03an16","1","19","1","1","3","1","","0","1","0","null","","","<img src = 'category4/CS5.png' width = '100%;'>","null","","","","","","","","","",""
"","html-keyboard-response","205","493256","0.0-10.0-2.4","kk8bumaocj","many_one","0","indirect_first","0","er03an16","1","19","1","1","3","1","","0","1","0","null","","","<img src = 'targets/20.png' width = '100%;'>","null","","","","","","","","","",""
"","html-keyboard-response","206","493899","0.0-10.0-3.4","kk8bumaocj","many_one","0","indirect_first","0","er03an16","1","19","1","1","3","1","","0","1","0","641.5149997919798","","","<img src = 'targets/mask.png' width = '100%;'>","75","pos","GS","GSold","4","category4/CS5.png","targets/20.png","1","indirect","28",""
"","html-keyboard-response","207","495413","0.0-10.0-0.5","kk8bumaocj","many_one","0","indirect_first","0","er03an16","1","19","1","1","3","1","","0","1","0","null","","","<div style=""font-size:60px;"">+</div>","null","","","","","","","","","",""
"","html-keyboard-response","208","495520","0.0-10.0-1.5","kk8bumaocj","many_one","0","indirect_first","0","er03an16","1","19","1","1","3","1","","0","1","0","null","","","<img src = 'category2/men.png' width = '100%;'>","null","","","","","","","","","",""
"","html-keyboard-response","209","495784","0.0-10.0-2.5","kk8bumaocj","many_one","0","indirect_first","0","er03an16","1","19","1","1","3","1","","0","1","0","null","","","<img src = 'targets/32.png' width = '100%;'>","null","","","","","","","","","",""
"","html-keyboard-response","210","496352","0.0-10.0-3.5","kk8bumaocj","many_one","0","indirect_first","0","er03an16","1","19","1","1","3","1","","0","1","0","567.1950001269579","","","<img src = 'targets/mask.png' width = '100%;'>","68","neg","GS","abstract","2","category2/men.png","targets/32.png","0","indirect","29",""
"","html-keyboard-response","211","497863","0.0-10.0-0.6","kk8bumaocj","many_one","0","indirect_first","0","er03an16","1","19","1","1","3","1","","0","1","0","null","","","<div style=""font-size:60px;"">+</div>","null","","","","","","","","","",""
"","html-keyboard-response","212","497969","0.0-10.0-1.6","kk8bumaocj","many_one","0","indirect_first","0","er03an16","1","19","1","1","3","1","","0","1","0","null","","","<img src = 'category2/CS7.png' width = '100%;'>","null","","","","","","","","","",""
"","html-keyboard-response","213","498225","0.0-10.0-2.6","kk8bumaocj","many_one","0","indirect_first","0","er03an16","1","19","1","1","3","1","","0","1","0","null","","","<img src = 'targets/2.png' width = '100%;'>","null","","","","","","","","","",""
"","html-keyboard-response","214","499575","0.0-10.0-3.6","kk8bumaocj","many_one","0","indirect_first","0","er03an16","1","19","1","1","3","1","","0","1","0","1348.530000075698","","","<img src = 'targets/mask.png' width = '100%;'>","75","neg","GS","GSold","2","category2/CS7.png","targets/2.png","1","indirect","30",""
"","html-keyboard-response","215","501091","0.0-10.0-0.7","kk8bumaocj","many_one","0","indirect_first","0","er03an16","1","19","1","1","3","1","","0","1","0","null","","","<div style=""font-size:60px;"">+</div>","null","","","","","","","","","",""
"","html-keyboard-response","216","501183","0.0-10.0-1.7","kk8bumaocj","many_one","0","indirect_first","0","er03an16","1","19","1","1","3","1","","0","1","0","null","","","<img src = 'category4/CS6.png' width = '100%;'>","null","","","","","","","","","",""
"","html-keyboard-response","217","501451","0.0-10.0-2.7","kk8bumaocj","many_one","0","indirect_first","0","er03an16","1","19","1","1","3","1","","0","1","0","null","","","<img src = 'targets/34.png' width = '100%;'>","null","","","","","","","","","",""
"","html-keyboard-response","218","502408","0.0-10.0-3.7","kk8bumaocj","many_one","0","indirect_first","0","er03an16","1","19","1","1","3","1","","0","1","0","955.3000000305474","","","<img src = 'targets/mask.png' width = '100%;'>","68","pos","GS","GSold","4","category4/CS6.png","targets/34.png","0","indirect","31",""
"","html-keyboard-response","219","503923","0.0-10.0-0.8","kk8bumaocj","many_one","0","indirect_first","0","er03an16","1","19","1","1","3","1","","0","1","0","null","","","<div style=""font-size:60px;"">+</div>","null","","","","","","","","","",""
"","html-keyboard-response","220","504020","0.0-10.0-1.8","kk8bumaocj","many_one","0","indirect_first","0","er03an16","1","19","1","1","3","1","","0","1","0","null","","","<img src = 'category3/CS5.png' width = '100%;'>","null","","","","","","","","","",""
"","html-keyboard-response","221","504278","0.0-10.0-2.8","kk8bumaocj","many_one","0","indirect_first","0","er03an16","1","19","1","1","3","1","","0","1","0","null","","","<img src = 'targets/48.png' width = '100%;'>","null","","","","","","","","","",""
"","html-keyboard-response","222","505166","0.0-10.0-3.8","kk8bumaocj","many_one","0","indirect_first","0","er03an16","1","19","1","1","3","1","","0","1","0","886.1150001175702","","","<img src = 'targets/mask.png' width = '100%;'>","75","pos","GS","GSold","3","category3/CS5.png","targets/48.png","1","indirect","32",""
"","html-keyboard-response","223","506680","0.0-10.0-0.9","kk8bumaocj","many_one","0","indirect_first","0","er03an16","1","19","1","1","3","1","","0","1","0","null","","","<div style=""font-size:60px;"">+</div>","null","","","","","","","","","",""
"","html-keyboard-response","224","506772","0.0-10.0-1.9","kk8bumaocj","many_one","0","indirect_first","0","er03an16","1","19","1","1","3","1","","0","1","0","null","","","<img src = 'category2/GS2.png' width = '100%;'>","null","","","","","","","","","",""
"","html-keyboard-response","225","507025","0.0-10.0-2.9","kk8bumaocj","many_one","0","indirect_first","0","er03an16","1","19","1","1","3","1","","0","1","0","null","","","<img src = 'targets/40.png' width = '100%;'>","null","","","","","","","","","",""
"","html-keyboard-response","226","508553","0.0-10.0-3.9","kk8bumaocj","many_one","0","indirect_first","0","er03an16","1","19","1","1","3","1","","0","1","0","1527.005000039935","","","<img src = 'targets/mask.png' width = '100%;'>","68","neg","GS","GSnew","2","category2/GS2.png","targets/40.png","0","indirect","33",""
"","html-keyboard-response","227","510059","0.0-10.0-0.10","kk8bumaocj","many_one","0","indirect_first","0","er03an16","1","19","1","1","3","1","","0","1","0","null","","","<div style=""font-size:60px;"">+</div>","null","","","","","","","","","",""
"","html-keyboard-response","228","510150","0.0-10.0-1.10","kk8bumaocj","many_one","0","indirect_first","0","er03an16","1","19","1","1","3","1","","0","1","0","null","","","<img src = 'category1/ma.png' width = '100%;'>","null","","","","","","","","","",""
"","html-keyboard-response","229","510417","0.0-10.0-2.10","kk8bumaocj","many_one","0","indirect_first","0","er03an16","1","19","1","1","3","1","","0","1","0","null","","","<img src = 'targets/13.png' width = '100%;'>","null","","","","","","","","","",""
"","html-keyboard-response","230","511331","0.0-10.0-3.10","kk8bumaocj","many_one","0","indirect_first","0","er03an16","1","19","1","1","3","1","","0","1","0","911.614999640733","","","<img src = 'targets/mask.png' width = '100%;'>","68","neg","GS","abstract","1","category1/ma.png","targets/13.png","0","indirect","34",""
"","html-keyboard-response","231","512847","0.0-10.0-0.11","kk8bumaocj","many_one","0","indirect_first","0","er03an16","1","19","1","1","3","1","","0","1","0","null","","","<div style=""font-size:60px;"">+</div>","null","","","","","","","","","",""
"","html-keyboard-response","232","512952","0.0-10.0-1.11","kk8bumaocj","many_one","0","indirect_first","0","er03an16","1","19","1","1","3","1","","0","1","0","null","","","<img src = 'category1/GS3.png' width = '100%;'>","null","","","","","","","","","",""
"","html-keyboard-response","233","513216","0.0-10.0-2.11","kk8bumaocj","many_one","0","indirect_first","0","er03an16","1","19","1","1","3","1","","0","1","0","null","","","<img src = 'targets/5.png' width = '100%;'>","null","","","","","","","","","",""
"","html-keyboard-response","234","513874","0.0-10.0-3.11","kk8bumaocj","many_one","0","indirect_first","0","er03an16","1","19","1","1","3","1","","0","1","0","655.8949998579919","","","<img src = 'targets/mask.png' width = '100%;'>","75","neg","GS","GSnew","1","category1/GS3.png","targets/5.png","1","indirect","35",""
"","html-keyboard-response","235","515382","0.0-10.0-0.12","kk8bumaocj","many_one","0","indirect_first","0","er03an16","1","19","1","1","3","1","","0","1","0","null","","","<div style=""font-size:60px;"">+</div>","null","","","","","","","","","",""
"","html-keyboard-response","236","515474","0.0-10.0-1.12","kk8bumaocj","many_one","0","indirect_first","0","er03an16","1","19","1","1","3","1","","0","1","0","null","","","<img src = 'category4/GS1.png' width = '100%;'>","null","","","","","","","","","",""
"","html-keyboard-response","237","515727","0.0-10.0-2.12","kk8bumaocj","many_one","0","indirect_first","0","er03an16","1","19","1","1","3","1","","0","1","0","null","","","<img src = 'targets/23.png' width = '100%;'>","null","","","","","","","","","",""
"","html-keyboard-response","238","516070","0.0-10.0-3.12","kk8bumaocj","many_one","0","indirect_first","0","er03an16","1","19","1","1","3","1","","0","1","0","341.35999996215105","","","<img src = 'targets/mask.png' width = '100%;'>","68","pos","GS","GSnew","4","category4/GS1.png","targets/23.png","0","indirect","36",""
"","html-keyboard-response","239","517586","0.0-10.0-0.13","kk8bumaocj","many_one","0","indirect_first","0","er03an16","1","19","1","1","3","1","","0","1","0","null","","","<div style=""font-size:60px;"">+</div>","null","","","","","","","","","",""
"","html-keyboard-response","240","517678","0.0-10.0-1.13","kk8bumaocj","many_one","0","indirect_first","0","er03an16","1","19","1","1","3","1","","0","1","0","null","","","<img src = 'category4/lin.png' width = '100%;'>","null","","","","","","","","","",""
"","html-keyboard-response","241","517930","0.0-10.0-2.13","kk8bumaocj","many_one","0","indirect_first","0","er03an16","1","19","1","1","3","1","","0","1","0","null","","","<img src = 'targets/26.png' width = '100%;'>","null","","","","","","","","","",""
"","html-keyboard-response","242","518662","0.0-10.0-3.13","kk8bumaocj","many_one","0","indirect_first","0","er03an16","1","19","1","1","3","1","","0","1","0","730.659999884665","","","<img src = 'targets/mask.png' width = '100%;'>","75","pos","GS","abstract","4","category4/lin.png","targets/26.png","1","indirect","37",""
"","html-keyboard-response","243","520169","0.0-10.0-0.14","kk8bumaocj","many_one","0","indirect_first","0","er03an16","1","19","1","1","3","1","","0","1","0","null","","","<div style=""font-size:60px;"">+</div>","null","","","","","","","","","",""
"","html-keyboard-response","244","520260","0.0-10.0-1.14","kk8bumaocj","many_one","0","indirect_first","0","er03an16","1","19","1","1","3","1","","0","1","0","null","","","<img src = 'category3/wang.png' width = '100%;'>","null","","","","","","","","","",""
"","html-keyboard-response","245","520531","0.0-10.0-2.14","kk8bumaocj","many_one","0","indirect_first","0","er03an16","1","19","1","1","3","1","","0","1","0","null","","","<img src = 'targets/19.png' width = '100%;'>","null","","","","","","","","","",""
"","html-keyboard-response","246","521197","0.0-10.0-3.14","kk8bumaocj","many_one","0","indirect_first","0","er03an16","1","19","1","1","3","1","","0","1","0","663.389999885112","","","<img src = 'targets/mask.png' width = '100%;'>","68","pos","GS","abstract","3","category3/wang.png","targets/19.png","0","indirect","38",""
"","html-keyboard-response","247","522705","0.0-10.0-0.15","kk8bumaocj","many_one","0","indirect_first","0","er03an16","1","19","1","1","3","1","","0","1","0","null","","","<div style=""font-size:60px;"">+</div>","null","","","","","","","","","",""
"","html-keyboard-response","248","522797","0.0-10.0-1.15","kk8bumaocj","many_one","0","indirect_first","0","er03an16","1","19","1","1","3","1","","0","1","0","null","","","<img src = 'category3/CS10.png' width = '100%;'>","null","","","","","","","","","",""
"","html-keyboard-response","249","523050","0.0-10.0-2.15","kk8bumaocj","many_one","0","indirect_first","0","er03an16","1","19","1","1","3","1","","0","1","0","null","","","<img src = 'targets/45.png' width = '100%;'>","null","","","","","","","","","",""
"","html-keyboard-response","250","523817","0.0-10.0-3.15","kk8bumaocj","many_one","0","indirect_first","0","er03an16","1","19","1","1","3","1","","0","1","0","765.3899998404086","","","<img src = 'targets/mask.png' width = '100%;'>","68","pos","GS","GSold","3","category3/CS10.png","targets/45.png","0","indirect","39",""
"","html-keyboard-response","251","525335","0.0-10.0-0.16","kk8bumaocj","many_one","0","indirect_first","0","er03an16","1","19","1","1","3","1","","0","1","0","null","","","<div style=""font-size:60px;"">+</div>","null","","","","","","","","","",""
"","html-keyboard-response","252","525435","0.0-10.0-1.16","kk8bumaocj","many_one","0","indirect_first","0","er03an16","1","19","1","1","3","1","","0","1","0","null","","","<img src = 'category1/GS2.png' width = '100%;'>","null","","","","","","","","","",""
"","html-keyboard-response","253","525700","0.0-10.0-2.16","kk8bumaocj","many_one","0","indirect_first","0","er03an16","1","19","1","1","3","1","","0","1","0","null","","","<img src = 'targets/38.png' width = '100%;'>","null","","","","","","","","","",""
"","html-keyboard-response","254","526447","0.0-10.0-3.16","kk8bumaocj","many_one","0","indirect_first","0","er03an16","1","19","1","1","3","1","","0","1","0","745.7349998876452","","","<img src = 'targets/mask.png' width = '100%;'>","75","neg","GS","GSnew","1","category1/GS2.png","targets/38.png","1","indirect","40",""
"","html-keyboard-response","255","527959","0.0-10.0-0.17","kk8bumaocj","many_one","0","indirect_first","0","er03an16","1","19","1","1","3","1","","0","1","0","null","","","<div style=""font-size:60px;"">+</div>","null","","","","","","","","","",""
"","html-keyboard-response","256","528052","0.0-10.0-1.17","kk8bumaocj","many_one","0","indirect_first","0","er03an16","1","19","1","1","3","1","","0","1","0","null","","","<img src = 'category2/GS1.png' width = '100%;'>","null","","","","","","","","","",""
"","html-keyboard-response","257","528331","0.0-10.0-2.17","kk8bumaocj","many_one","0","indirect_first","0","er03an16","1","19","1","1","3","1","","0","1","0","null","","","<img src = 'targets/8.png' width = '100%;'>","null","","","","","","","","","",""
"","html-keyboard-response","258","530218","0.0-10.0-3.17","kk8bumaocj","many_one","0","indirect_first","0","er03an16","1","19","1","1","3","1","","0","1","0","1885.329999960959","","","<img src = 'targets/mask.png' width = '100%;'>","68","neg","GS","GSnew","2","category2/GS1.png","targets/8.png","0","indirect","41",""
"","html-keyboard-response","259","531724","0.0-10.0-0.18","kk8bumaocj","many_one","0","indirect_first","0","er03an16","1","19","1","1","3","1","","0","1","0","null","","","<div style=""font-size:60px;"">+</div>","null","","","","","","","","","",""
"","html-keyboard-response","260","531816","0.0-10.0-1.18","kk8bumaocj","many_one","0","indirect_first","0","er03an16","1","19","1","1","3","1","","0","1","0","null","","","<img src = 'category4/GS2.png' width = '100%;'>","null","","","","","","","","","",""
"","html-keyboard-response","261","532068","0.0-10.0-2.18","kk8bumaocj","many_one","0","indirect_first","0","er03an16","1","19","1","1","3","1","","0","1","0","null","","","<img src = 'targets/44.png' width = '100%;'>","null","","","","","","","","","",""
"","html-keyboard-response","262","533292","0.0-10.0-3.18","kk8bumaocj","many_one","0","indirect_first","0","er03an16","1","19","1","1","3","1","","0","1","0","1222.4449999630451","","","<img src = 'targets/mask.png' width = '100%;'>","68","pos","GS","GSnew","4","category4/GS2.png","targets/44.png","0","indirect","42",""
"","html-keyboard-response","263","534804","0.0-10.0-0.19","kk8bumaocj","many_one","0","indirect_first","0","er03an16","1","19","1","1","3","1","","0","1","0","null","","","<div style=""font-size:60px;"">+</div>","null","","","","","","","","","",""
"","html-keyboard-response","264","534900","0.0-10.0-1.19","kk8bumaocj","many_one","0","indirect_first","0","er03an16","1","19","1","1","3","1","","0","1","0","null","","","<img src = 'category2/CS9.png' width = '100%;'>","null","","","","","","","","","",""
"","html-keyboard-response","265","535157","0.0-10.0-2.19","kk8bumaocj","many_one","0","indirect_first","0","er03an16","1","19","1","1","3","1","","0","1","0","null","","","<img src = 'targets/36.png' width = '100%;'>","null","","","","","","","","","",""
"","html-keyboard-response","266","536580","0.0-10.0-3.19","kk8bumaocj","many_one","0","indirect_first","0","er03an16","1","19","1","1","3","1","","0","1","0","1421.100000385195","","","<img src = 'targets/mask.png' width = '100%;'>","68","neg","GS","GSold","2","category2/CS9.png","targets/36.png","0","indirect","43",""
"","html-keyboard-response","267","538093","0.0-10.0-0.20","kk8bumaocj","many_one","0","indirect_first","0","er03an16","1","19","1","1","3","1","","0","1","0","null","","","<div style=""font-size:60px;"">+</div>","null","","","","","","","","","",""
"","html-keyboard-response","268","538185","0.0-10.0-1.20","kk8bumaocj","many_one","0","indirect_first","0","er03an16","1","19","1","1","3","1","","0","1","0","null","","","<img src = 'category3/CS3.png' width = '100%;'>","null","","","","","","","","","",""
"","html-keyboard-response","269","538449","0.0-10.0-2.20","kk8bumaocj","many_one","0","indirect_first","0","er03an16","1","19","1","1","3","1","","0","1","0","null","","","<img src = 'targets/25.png' width = '100%;'>","null","","","","","","","","","",""
"","html-keyboard-response","270","539267","0.0-10.0-3.20","kk8bumaocj","many_one","0","indirect_first","0","er03an16","1","19","1","1","3","1","","0","1","0","817.344999872148","","","<img src = 'targets/mask.png' width = '100%;'>","75","pos","GS","GSold","3","category3/CS3.png","targets/25.png","1","indirect","44",""
"","html-keyboard-response","271","540772","0.0-10.0-0.21","kk8bumaocj","many_one","0","indirect_first","0","er03an16","1","19","1","1","3","1","","0","1","0","null","","","<div style=""font-size:60px;"">+</div>","null","","","","","","","","","",""
"","html-keyboard-response","272","540867","0.0-10.0-1.21","kk8bumaocj","many_one","0","indirect_first","0","er03an16","1","19","1","1","3","1","","0","1","0","null","","","<img src = 'category3/GS3.png' width = '100%;'>","null","","","","","","","","","",""
"","html-keyboard-response","273","541130","0.0-10.0-2.21","kk8bumaocj","many_one","0","indirect_first","0","er03an16","1","19","1","1","3","1","","0","1","0","null","","","<img src = 'targets/42.png' width = '100%;'>","null","","","","","","","","","",""
"","html-keyboard-response","274","541966","0.0-10.0-3.21","kk8bumaocj","many_one","0","indirect_first","0","er03an16","1","19","1","1","3","1","","0","1","0","834.0099998749793","","","<img src = 'targets/mask.png' width = '100%;'>","68","pos","GS","GSnew","3","category3/GS3.png","targets/42.png","0","indirect","45",""
"","html-keyboard-response","275","543477","0.0-10.0-0.22","kk8bumaocj","many_one","0","indirect_first","0","er03an16","1","19","1","1","3","1","","0","1","0","null","","","<div style=""font-size:60px;"">+</div>","null","","","","","","","","","",""
"","html-keyboard-response","276","543568","0.0-10.0-1.22","kk8bumaocj","many_one","0","indirect_first","0","er03an16","1","19","1","1","3","1","","0","1","0","null","","","<img src = 'category1/GS1.png' width = '100%;'>","null","","","","","","","","","",""
"","html-keyboard-response","277","543821","0.0-10.0-2.22","kk8bumaocj","many_one","0","indirect_first","0","er03an16","1","19","1","1","3","1","","0","1","0","null","","","<img src = 'targets/39.png' width = '100%;'>","null","","","","","","","","","",""
"","html-keyboard-response","278","546083","0.0-10.0-3.22","kk8bumaocj","many_one","0","indirect_first","0","er03an16","1","19","1","1","3","1","","0","1","0","2260.1749999448657","","","<img src = 'targets/mask.png' width = '100%;'>","75","neg","GS","GSnew","1","category1/GS1.png","targets/39.png","1","indirect","46",""
"","html-keyboard-response","279","547586","0.0-10.0-0.23","kk8bumaocj","many_one","0","indirect_first","0","er03an16","1","19","1","1","3","1","","0","1","0","null","","","<div style=""font-size:60px;"">+</div>","null","","","","","","","","","",""
"","html-keyboard-response","280","547678","0.0-10.0-1.23","kk8bumaocj","many_one","0","indirect_first","0","er03an16","1","19","1","1","3","1","","0","1","0","null","","","<img src = 'category2/GS3.png' width = '100%;'>","null","","","","","","","","","",""
"","html-keyboard-response","281","547932","0.0-10.0-2.23","kk8bumaocj","many_one","0","indirect_first","0","er03an16","1","19","1","1","3","1","","0","1","0","null","","","<img src = 'targets/27.png' width = '100%;'>","null","","","","","","","","","",""
"","html-keyboard-response","282","548728","0.0-10.0-3.23","kk8bumaocj","many_one","0","indirect_first","0","er03an16","1","19","1","1","3","1","","0","1","0","793.6899997293949","","","<img src = 'targets/mask.png' width = '100%;'>","75","neg","GS","GSnew","2","category2/GS3.png","targets/27.png","1","indirect","47",""
"","survey-html-form","283","557526","0.0-11.0","kk8bumaocj","many_one","0","indirect_first","0","er03an16","1","19","1","1","3","1","","0","1","0","8296.594999730587","","{}","","","","","","","","","","","",""
"","image-slider-response","284","563475","0.0-12.0-0.0","kk8bumaocj","many_one","0","indirect_first","0","er03an16","1","19","1","1","3","1","","0","1","0","3946.0200001485646","","","","","pos","CS","CS","3","category3/CS4.png","targets/33.png","","direct","","35"
"","image-slider-response","285","566726","0.0-12.0-0.1","kk8bumaocj","many_one","0","indirect_first","0","er03an16","1","19","1","1","3","1","","0","1","0","3248.854999896139","","","","","neg","GS","GSold","2","category2/CS7.png","targets/2.png","","direct","","-63"
"","image-slider-response","286","572080","0.0-12.0-0.2","kk8bumaocj","many_one","0","indirect_first","0","er03an16","1","19","1","1","3","1","","0","1","0","5350.145000033081","","","","","neg","GS","GSold","2","category2/CS9.png","targets/36.png","","direct","","-8"
"","image-slider-response","287","577659","0.0-12.0-0.3","kk8bumaocj","many_one","0","indirect_first","0","er03an16","1","19","1","1","3","1","","0","1","0","5575.869999825954","","","","","pos","GS","GSnew","3","category3/GS1.png","targets/10.png","","direct","","-57"
"","image-slider-response","288","581660","0.0-12.0-0.4","kk8bumaocj","many_one","0","indirect_first","0","er03an16","1","19","1","1","3","1","","0","1","0","3997.499999590218","","","","","pos","GS","GSnew","3","category3/GS3.png","targets/42.png","","direct","","31"
"","image-slider-response","289","585692","0.0-12.0-0.5","kk8bumaocj","many_one","0","indirect_first","0","er03an16","1","19","1","1","3","1","","0","1","0","4029.595000203699","","","","","pos","GS","abstract","3","category3/wang.png","targets/19.png","","direct","","62"
"","image-slider-response","290","589961","0.0-12.0-0.6","kk8bumaocj","many_one","0","indirect_first","0","er03an16","1","19","1","1","3","1","","0","1","0","4265.085000079125","","","","","neg","GS","GSold","1","category1/CS3.png","targets/21.png","","direct","","37"
"","image-slider-response","291","593512","0.0-12.0-0.7","kk8bumaocj","many_one","0","indirect_first","0","er03an16","1","19","1","1","3","1","","0","1","0","3548.024999909103","","","","","pos","CS","CS","4","category4/CS4.png","targets/9.png","","direct","","58"
"","image-slider-response","292","599385","0.0-12.0-0.8","kk8bumaocj","many_one","0","indirect_first","0","er03an16","1","19","1","1","3","1","","0","1","0","5871.14500021562","","","","","neg","CS","CS","1","category1/CS1.png","targets/30.png","","direct","","-49"
"","image-slider-response","293","606353","0.0-12.0-0.9","kk8bumaocj","many_one","0","indirect_first","0","er03an16","1","19","1","1","3","1","","0","1","0","6964.445000048727","","","","","pos","CS","CS","4","category4/CS2.png","targets/11.png","","direct","","4"
"","image-slider-response","294","610051","0.0-12.0-0.10","kk8bumaocj","many_one","0","indirect_first","0","er03an16","1","19","1","1","3","1","","0","1","0","3694.9650002643466","","","","","pos","GS","GSold","3","category3/CS3.png","targets/25.png","","direct","","45"
"","image-slider-response","295","613624","0.0-12.0-0.11","kk8bumaocj","many_one","0","indirect_first","0","er03an16","1","19","1","1","3","1","","0","1","0","3569.984999950975","","","","","neg","GS","GSold","2","category2/CS8.png","targets/24.png","","direct","","-28"
"","image-slider-response","296","618384","0.0-12.0-0.12","kk8bumaocj","many_one","0","indirect_first","0","er03an16","1","19","1","1","3","1","","0","1","0","4757.6299998909235","","","","","pos","GS","abstract","4","category4/lin.png","targets/26.png","","direct","","-28"
"","image-slider-response","297","621492","0.0-12.0-0.13","kk8bumaocj","many_one","0","indirect_first","0","er03an16","1","19","1","1","3","1","","0","1","0","3104.344999883324","","","","","pos","GS","GSold","4","category4/CS6.png","targets/34.png","","direct","","-15"
"","image-slider-response","298","625590","0.0-12.0-0.14","kk8bumaocj","many_one","0","indirect_first","0","er03an16","1","19","1","1","3","1","","0","1","0","4096.140000037849","","","","","neg","CS","CS","1","category1/CS5.png","targets/35.png","","direct","","-56"
"","image-slider-response","299","628932","0.0-12.0-0.15","kk8bumaocj","many_one","0","indirect_first","0","er03an16","1","19","1","1","3","1","","0","1","0","3339.0999999828637","","","","","pos","GS","GSold","3","category3/CS10.png","targets/45.png","","direct","","-71"
"","image-slider-response","300","634372","0.0-12.0-0.16","kk8bumaocj","many_one","0","indirect_first","0","er03an16","1","19","1","1","3","1","","0","1","0","5437.429999932647","","","","","neg","GS","abstract","2","category2/men.png","targets/32.png","","direct","","-100"
"","image-slider-response","301","637854","0.0-12.0-0.17","kk8bumaocj","many_one","0","indirect_first","0","er03an16","1","19","1","1","3","1","","0","1","0","3479.169999714941","","","","","pos","CS","CS","3","category3/CS1.png","targets/1.png","","direct","","57"
"","image-slider-response","302","640682","0.0-12.0-0.18","kk8bumaocj","many_one","0","indirect_first","0","er03an16","1","19","1","1","3","1","","0","1","0","2823.710000142455","","","","","pos","GS","GSnew","3","category3/GS2.png","targets/22.png","","direct","","-89"
"","image-slider-response","303","646419","0.0-12.0-0.19","kk8bumaocj","many_one","0","indirect_first","0","er03an16","1","19","1","1","3","1","","0","1","0","5734.075000043958","","","","","neg","CS","CS","2","category2/CS5.png","targets/31.png","","direct","","-80"
"","image-slider-response","304","649306","0.0-12.0-0.20","kk8bumaocj","many_one","0","indirect_first","0","er03an16","1","19","1","1","3","1","","0","1","0","2883.3849998191","","","","","pos","GS","GSold","3","category3/CS5.png","targets/48.png","","direct","","32"
"","image-slider-response","305","652773","0.0-12.0-0.21","kk8bumaocj","many_one","0","indirect_first","0","er03an16","1","19","1","1","3","1","","0","1","0","3462.989999912679","","","","","pos","GS","GSnew","4","category4/GS1.png","targets/23.png","","direct","","19"
"","image-slider-response","306","657575","0.0-12.0-0.22","kk8bumaocj","many_one","0","indirect_first","0","er03an16","1","19","1","1","3","1","","0","1","0","4800.774999894202","","","","","neg","CS","CS","2","category2/CS6.png","targets/15.png","","direct","","-51"
"","image-slider-response","307","662369","0.0-12.0-0.23","kk8bumaocj","many_one","0","indirect_first","0","er03an16","1","19","1","1","3","1","","0","1","0","4791.585000231862","","","","","neg","GS","GSold","1","category1/CS6.png","targets/29.png","","direct","","-64"
"","image-slider-response","308","665919","0.0-12.0-0.24","kk8bumaocj","many_one","0","indirect_first","0","er03an16","1","19","1","1","3","1","","0","1","0","3546.9300001859665","","","","","neg","GS","GSnew","1","category1/GS3.png","targets/5.png","","direct","","-30"
"","image-slider-response","309","668702","0.0-12.0-0.25","kk8bumaocj","many_one","0","indirect_first","0","er03an16","1","19","1","1","3","1","","0","1","0","2779.0649998933077","","","","","neg","CS","CS","1","category1/CS2.png","targets/3.png","","direct","","41"
"","image-slider-response","310","672384","0.0-12.0-0.26","kk8bumaocj","many_one","0","indirect_first","0","er03an16","1","19","1","1","3","1","","0","1","0","3679.904999677092","","","","","neg","GS","GSnew","1","category1/GS2.png","targets/38.png","","direct","","10"
"","image-slider-response","311","677951","0.0-12.0-0.27","kk8bumaocj","many_one","0","indirect_first","0","er03an16","1","19","1","1","3","1","","0","1","0","5564.245000015944","","","","","pos","CS","CS","3","category3/CS2.png","targets/28.png","","direct","","68"
"","image-slider-response","312","682416","0.0-12.0-0.28","kk8bumaocj","many_one","0","indirect_first","0","er03an16","1","19","1","1","3","1","","0","1","0","4461.545000318438","","","","","neg","GS","GSnew","2","category2/GS1.png","targets/8.png","","direct","","-87"
"","image-slider-response","313","686849","0.0-12.0-0.29","kk8bumaocj","many_one","0","indirect_first","0","er03an16","1","19","1","1","3","1","","0","1","0","4430.1249999552965","","","","","neg","GS","GSold","1","category1/CS10.png","targets/18.png","","direct","","-16"
"","image-slider-response","314","689566","0.0-12.0-0.30","kk8bumaocj","many_one","0","indirect_first","0","er03an16","1","19","1","1","3","1","","0","1","0","2713.609999977052","","","","","pos","GS","GSold","4","category4/CS7.png","targets/17.png","","direct","","22"
"","image-slider-response","315","692484","0.0-12.0-0.31","kk8bumaocj","many_one","0","indirect_first","0","er03an16","1","19","1","1","3","1","","0","1","0","2915.430000051856","","","","","pos","CS","CS","3","category3/CS6.png","targets/43.png","","direct","","54"
"","image-slider-response","316","695365","0.0-12.0-0.32","kk8bumaocj","many_one","0","indirect_first","0","er03an16","1","19","1","1","3","1","","0","1","0","2878.099999856204","","","","","neg","GS","GSnew","1","category1/GS1.png","targets/39.png","","direct","","-55"
"","image-slider-response","317","697903","0.0-12.0-0.33","kk8bumaocj","many_one","0","indirect_first","0","er03an16","1","19","1","1","3","1","","0","1","0","2535.139999818057","","","","","neg","GS","GSnew","2","category2/GS3.png","targets/27.png","","direct","","-17"
"","image-slider-response","318","702399","0.0-12.0-0.34","kk8bumaocj","many_one","0","indirect_first","0","er03an16","1","19","1","1","3","1","","0","1","0","4493.13999991864","","","","","pos","GS","GSnew","4","category4/GS2.png","targets/44.png","","direct","","-83"
"","image-slider-response","319","707592","0.0-12.0-0.35","kk8bumaocj","many_one","0","indirect_first","0","er03an16","1","19","1","1","3","1","","0","1","0","5189.495000056922","","","","","pos","CS","CS","4","category4/CS8.png","targets/16.png","","direct","","-33"
"","image-slider-response","320","710416","0.0-12.0-0.36","kk8bumaocj","many_one","0","indirect_first","0","er03an16","1","19","1","1","3","1","","0","1","0","2821.310000028461","","","","","pos","CS","CS","4","category4/CS3.png","targets/46.png","","direct","","-27"
"","image-slider-response","321","715198","0.0-12.0-0.37","kk8bumaocj","many_one","0","indirect_first","0","er03an16","1","19","1","1","3","1","","0","1","0","4779.415000230074","","","","","neg","GS","abstract","1","category1/ma.png","targets/13.png","","direct","","-33"
"","image-slider-response","322","719857","0.0-12.0-0.38","kk8bumaocj","many_one","0","indirect_first","0","er03an16","1","19","1","1","3","1","","0","1","0","4656.179999932647","","","","","neg","CS","CS","2","category2/CS10.png","targets/14.png","","direct","","-64"
"","image-slider-response","323","723141","0.0-12.0-0.39","kk8bumaocj","many_one","0","indirect_first","0","er03an16","1","19","1","1","3","1","","0","1","0","3280.884999781847","","","","","neg","CS","CS","2","category2/CS1.png","targets/6.png","","direct","","-29"
"","image-slider-response","324","726181","0.0-12.0-0.40","kk8bumaocj","many_one","0","indirect_first","0","er03an16","1","19","1","1","3","1","","0","1","0","3036.7600000463426","","","","","pos","GS","GSold","4","category4/CS5.png","targets/20.png","","direct","","-51"
