"success","trial_type","trial_index","time_elapsed","internal_node_id","subject","condition","condition_code","measure","measure_code","codeword","gender","age","education","chinese","fach","handedness","comment","hinschauen","ablenkung","gewissenhaft","rt","url","responses","stimulus","key_press","val","type","type_specific","category","cs_selected","response","target","task","indirect","nr_pres"
"true","fullscreen","0","13546","0.0-0.0","yyg0o2ft7f","one_one","1","direct_first","1","er05rt26","0","24","2","1","3","1","","0","1","0","","","","","","","","","","","","","","",""
"","external-html","1","130742","0.0-1.0","yyg0o2ft7f","one_one","1","direct_first","1","er05rt26","0","24","2","1","3","1","","0","1","0","116999.24000000465","text/information.html","","","","","","","","","","","","",""
"","external-html","2","139820","0.0-2.0","yyg0o2ft7f","one_one","1","direct_first","1","er05rt26","0","24","2","1","3","1","","0","1","0","8870.590000005905","text/consent.html","","","","","","","","","","","","",""
"","survey-html-form","3","181248","0.0-3.0","yyg0o2ft7f","one_one","1","direct_first","1","er05rt26","0","24","2","1","3","1","","0","1","0","41424.715000001015","","{""codeword_enter"":""er05rt26""}","","","","","","","","","","","",""
"","survey-html-form","4","213693","0.0-4.0","yyg0o2ft7f","one_one","1","direct_first","1","er05rt26","0","24","2","1","3","1","","0","1","0","32439.91499999538","","{""age"":""24"",""education"":""2"",""subject"":""3"",""gender"":""0"",""handedness"":""1"",""chinese"":""1""}","","","","","","","","","","","",""
"","survey-html-form","5","227328","0.0-5.0","yyg0o2ft7f","one_one","1","direct_first","1","er05rt26","0","24","2","1","3","1","","0","1","0","13632.280000019819","","{}","","","","","","","","","","","",""
"","html-keyboard-response","6","231361","0.0-6.0-0.0-0.0","yyg0o2ft7f","one_one","1","direct_first","1","er05rt26","0","24","2","1","3","1","","0","1","0","null","","","<div class = 'row'><div class = 'column'><img src = 'category1/CS3.png' width = '70%;'></div><div class = 'column'><img src = 'usneg/1280.bmp' width = '100%;'></div></div>","null","neg","CS","CS","1","category1/CS3.png","","","","",""
"","html-keyboard-response","7","233877","0.0-6.0-0.0-0.1","yyg0o2ft7f","one_one","1","direct_first","1","er05rt26","0","24","2","1","3","1","","0","1","0","null","","","<div class = 'row'><div class = 'column'><img src = 'usneg/9404.bmp' width = '100%;'></div><div class = 'column'><img src = 'category4/CS5.png' width = '70%;'></div></div>","null","neg","CS","CS","4","category4/CS5.png","","","","",""
"","html-keyboard-response","8","236394","0.0-6.0-0.0-0.2","yyg0o2ft7f","one_one","1","direct_first","1","er05rt26","0","24","2","1","3","1","","0","1","0","null","","","<div class = 'row'><div class = 'column'><img src = 'usneg/1280.bmp' width = '100%;'></div><div class = 'column'><img src = 'category1/CS3.png' width = '70%;'></div></div>","null","neg","CS","CS","1","category1/CS3.png","","","","",""
"","html-keyboard-response","9","238910","0.0-6.0-0.0-0.3","yyg0o2ft7f","one_one","1","direct_first","1","er05rt26","0","24","2","1","3","1","","0","1","0","null","","","<div class = 'row'><div class = 'column'><img src = 'usneg/9404.bmp' width = '100%;'></div><div class = 'column'><img src = 'category4/CS5.png' width = '70%;'></div></div>","null","neg","CS","CS","4","category4/CS5.png","","","","",""
"","html-keyboard-response","10","241444","0.0-6.0-0.0-0.4","yyg0o2ft7f","one_one","1","direct_first","1","er05rt26","0","24","2","1","3","1","","0","1","0","null","","","<div class = 'row'><div class = 'column'><img src = 'uspos/2058.bmp' width = '100%;'></div><div class = 'column'><img src = 'category3/CS9.png' width = '70%;'></div></div>","null","pos","CS","CS","3","category3/CS9.png","","","","",""
"","html-keyboard-response","11","243961","0.0-6.0-0.0-0.5","yyg0o2ft7f","one_one","1","direct_first","1","er05rt26","0","24","2","1","3","1","","0","1","0","null","","","<div class = 'row'><div class = 'column'><img src = 'uspos/2360.bmp' width = '100%;'></div><div class = 'column'><img src = 'category2/CS7.png' width = '70%;'></div></div>","null","pos","CS","CS","2","category2/CS7.png","","","","",""
"","html-keyboard-response","12","246490","0.0-6.0-0.0-0.6","yyg0o2ft7f","one_one","1","direct_first","1","er05rt26","0","24","2","1","3","1","","0","1","0","null","","","<div class = 'row'><div class = 'column'><img src = 'uspos/2058.bmp' width = '100%;'></div><div class = 'column'><img src = 'category3/CS9.png' width = '70%;'></div></div>","null","pos","CS","CS","3","category3/CS9.png","","","","",""
"","html-keyboard-response","13","249011","0.0-6.0-0.0-0.7","yyg0o2ft7f","one_one","1","direct_first","1","er05rt26","0","24","2","1","3","1","","0","1","0","null","","","<div class = 'row'><div class = 'column'><img src = 'category1/CS3.png' width = '70%;'></div><div class = 'column'><img src = 'usneg/1280.bmp' width = '100%;'></div></div>","null","neg","CS","CS","1","category1/CS3.png","","","","",""
"","html-keyboard-response","14","251537","0.0-6.0-0.0-0.8","yyg0o2ft7f","one_one","1","direct_first","1","er05rt26","0","24","2","1","3","1","","0","1","0","null","","","<div class = 'row'><div class = 'column'><img src = 'usneg/9404.bmp' width = '100%;'></div><div class = 'column'><img src = 'category4/CS5.png' width = '70%;'></div></div>","null","neg","CS","CS","4","category4/CS5.png","","","","",""
"","html-keyboard-response","15","254060","0.0-6.0-0.0-0.9","yyg0o2ft7f","one_one","1","direct_first","1","er05rt26","0","24","2","1","3","1","","0","1","0","null","","","<div class = 'row'><div class = 'column'><img src = 'usneg/1280.bmp' width = '100%;'></div><div class = 'column'><img src = 'category1/CS3.png' width = '70%;'></div></div>","null","neg","CS","CS","1","category1/CS3.png","","","","",""
"","html-keyboard-response","16","256569","0.0-6.0-0.0-0.10","yyg0o2ft7f","one_one","1","direct_first","1","er05rt26","0","24","2","1","3","1","","0","1","0","null","","","<div class = 'row'><div class = 'column'><img src = 'category2/CS7.png' width = '70%;'></div><div class = 'column'><img src = 'uspos/2360.bmp' width = '100%;'></div></div>","null","pos","CS","CS","2","category2/CS7.png","","","","",""
"","html-keyboard-response","17","259094","0.0-6.0-0.0-0.11","yyg0o2ft7f","one_one","1","direct_first","1","er05rt26","0","24","2","1","3","1","","0","1","0","null","","","<div class = 'row'><div class = 'column'><img src = 'category3/CS9.png' width = '70%;'></div><div class = 'column'><img src = 'uspos/2058.bmp' width = '100%;'></div></div>","null","pos","CS","CS","3","category3/CS9.png","","","","",""
"","html-keyboard-response","18","261616","0.0-6.0-0.0-0.12","yyg0o2ft7f","one_one","1","direct_first","1","er05rt26","0","24","2","1","3","1","","0","1","0","null","","","<div class = 'row'><div class = 'column'><img src = 'uspos/2360.bmp' width = '100%;'></div><div class = 'column'><img src = 'category2/CS7.png' width = '70%;'></div></div>","null","pos","CS","CS","2","category2/CS7.png","","","","",""
"","html-keyboard-response","19","264143","0.0-6.0-0.0-0.13","yyg0o2ft7f","one_one","1","direct_first","1","er05rt26","0","24","2","1","3","1","","0","1","0","null","","","<div class = 'row'><div class = 'column'><img src = 'category4/CS5.png' width = '70%;'></div><div class = 'column'><img src = 'usneg/9404.bmp' width = '100%;'></div></div>","null","neg","CS","CS","4","category4/CS5.png","","","","",""
"","html-keyboard-response","20","266647","0.0-6.0-0.0-0.14","yyg0o2ft7f","one_one","1","direct_first","1","er05rt26","0","24","2","1","3","1","","0","1","0","null","","","<div class = 'row'><div class = 'column'><img src = 'uspos/2058.bmp' width = '100%;'></div><div class = 'column'><img src = 'category3/CS9.png' width = '70%;'></div></div>","null","pos","CS","CS","3","category3/CS9.png","","","","",""
"","html-keyboard-response","21","269176","0.0-6.0-0.0-0.15","yyg0o2ft7f","one_one","1","direct_first","1","er05rt26","0","24","2","1","3","1","","0","1","0","null","","","<div class = 'row'><div class = 'column'><img src = 'usneg/1280.bmp' width = '100%;'></div><div class = 'column'><img src = 'category1/CS3.png' width = '70%;'></div></div>","null","neg","CS","CS","1","category1/CS3.png","","","","",""
"","html-keyboard-response","22","271693","0.0-6.0-0.0-0.16","yyg0o2ft7f","one_one","1","direct_first","1","er05rt26","0","24","2","1","3","1","","0","1","0","null","","","<div class = 'row'><div class = 'column'><img src = 'category2/CS7.png' width = '70%;'></div><div class = 'column'><img src = 'uspos/2360.bmp' width = '100%;'></div></div>","null","pos","CS","CS","2","category2/CS7.png","","","","",""
"","html-keyboard-response","23","274210","0.0-6.0-0.0-0.17","yyg0o2ft7f","one_one","1","direct_first","1","er05rt26","0","24","2","1","3","1","","0","1","0","null","","","<div class = 'row'><div class = 'column'><img src = 'category3/CS9.png' width = '70%;'></div><div class = 'column'><img src = 'uspos/2058.bmp' width = '100%;'></div></div>","null","pos","CS","CS","3","category3/CS9.png","","","","",""
"","html-keyboard-response","24","276741","0.0-6.0-0.0-0.18","yyg0o2ft7f","one_one","1","direct_first","1","er05rt26","0","24","2","1","3","1","","0","1","0","null","","","<div class = 'row'><div class = 'column'><img src = 'category2/CS7.png' width = '70%;'></div><div class = 'column'><img src = 'uspos/2360.bmp' width = '100%;'></div></div>","null","pos","CS","CS","2","category2/CS7.png","","","","",""
"","html-keyboard-response","25","279260","0.0-6.0-0.0-0.19","yyg0o2ft7f","one_one","1","direct_first","1","er05rt26","0","24","2","1","3","1","","0","1","0","null","","","<div class = 'row'><div class = 'column'><img src = 'usneg/9404.bmp' width = '100%;'></div><div class = 'column'><img src = 'category4/CS5.png' width = '70%;'></div></div>","null","neg","CS","CS","4","category4/CS5.png","","","","",""
"","survey-html-form","26","282304","0.0-6.0-1.0","yyg0o2ft7f","one_one","1","direct_first","1","er05rt26","0","24","2","1","3","1","","0","1","0","2543.130000005476","","{}","","","","","","","","","","","",""
"","html-keyboard-response","27","286335","0.0-6.0-2.0-0.0","yyg0o2ft7f","one_one","1","direct_first","1","er05rt26","0","24","2","1","3","1","","0","1","0","null","","","<div class = 'row'><div class = 'column'><img src = 'uspos/2360.bmp' width = '100%;'></div><div class = 'column'><img src = 'category2/CS7.png' width = '70%;'></div></div>","null","pos","CS","CS","2","category2/CS7.png","","","","",""
"","html-keyboard-response","28","288859","0.0-6.0-2.0-0.1","yyg0o2ft7f","one_one","1","direct_first","1","er05rt26","0","24","2","1","3","1","","0","1","0","null","","","<div class = 'row'><div class = 'column'><img src = 'category3/CS9.png' width = '70%;'></div><div class = 'column'><img src = 'uspos/2058.bmp' width = '100%;'></div></div>","null","pos","CS","CS","3","category3/CS9.png","","","","",""
"","html-keyboard-response","29","291366","0.0-6.0-2.0-0.2","yyg0o2ft7f","one_one","1","direct_first","1","er05rt26","0","24","2","1","3","1","","0","1","0","null","","","<div class = 'row'><div class = 'column'><img src = 'uspos/2360.bmp' width = '100%;'></div><div class = 'column'><img src = 'category2/CS7.png' width = '70%;'></div></div>","null","pos","CS","CS","2","category2/CS7.png","","","","",""
"","html-keyboard-response","30","293893","0.0-6.0-2.0-0.3","yyg0o2ft7f","one_one","1","direct_first","1","er05rt26","0","24","2","1","3","1","","0","1","0","null","","","<div class = 'row'><div class = 'column'><img src = 'category1/CS3.png' width = '70%;'></div><div class = 'column'><img src = 'usneg/1280.bmp' width = '100%;'></div></div>","null","neg","CS","CS","1","category1/CS3.png","","","","",""
"","html-keyboard-response","31","296413","0.0-6.0-2.0-0.4","yyg0o2ft7f","one_one","1","direct_first","1","er05rt26","0","24","2","1","3","1","","0","1","0","null","","","<div class = 'row'><div class = 'column'><img src = 'uspos/2360.bmp' width = '100%;'></div><div class = 'column'><img src = 'category2/CS7.png' width = '70%;'></div></div>","null","pos","CS","CS","2","category2/CS7.png","","","","",""
"","html-keyboard-response","32","298942","0.0-6.0-2.0-0.5","yyg0o2ft7f","one_one","1","direct_first","1","er05rt26","0","24","2","1","3","1","","0","1","0","null","","","<div class = 'row'><div class = 'column'><img src = 'category1/CS3.png' width = '70%;'></div><div class = 'column'><img src = 'usneg/1280.bmp' width = '100%;'></div></div>","null","neg","CS","CS","1","category1/CS3.png","","","","",""
"","html-keyboard-response","33","301460","0.0-6.0-2.0-0.6","yyg0o2ft7f","one_one","1","direct_first","1","er05rt26","0","24","2","1","3","1","","0","1","0","null","","","<div class = 'row'><div class = 'column'><img src = 'category2/CS7.png' width = '70%;'></div><div class = 'column'><img src = 'uspos/2360.bmp' width = '100%;'></div></div>","null","pos","CS","CS","2","category2/CS7.png","","","","",""
"","html-keyboard-response","34","303992","0.0-6.0-2.0-0.7","yyg0o2ft7f","one_one","1","direct_first","1","er05rt26","0","24","2","1","3","1","","0","1","0","null","","","<div class = 'row'><div class = 'column'><img src = 'usneg/9404.bmp' width = '100%;'></div><div class = 'column'><img src = 'category4/CS5.png' width = '70%;'></div></div>","null","neg","CS","CS","4","category4/CS5.png","","","","",""
"","html-keyboard-response","35","306523","0.0-6.0-2.0-0.8","yyg0o2ft7f","one_one","1","direct_first","1","er05rt26","0","24","2","1","3","1","","0","1","0","null","","","<div class = 'row'><div class = 'column'><img src = 'category1/CS3.png' width = '70%;'></div><div class = 'column'><img src = 'usneg/1280.bmp' width = '100%;'></div></div>","null","neg","CS","CS","1","category1/CS3.png","","","","",""
"","html-keyboard-response","36","309043","0.0-6.0-2.0-0.9","yyg0o2ft7f","one_one","1","direct_first","1","er05rt26","0","24","2","1","3","1","","0","1","0","null","","","<div class = 'row'><div class = 'column'><img src = 'category2/CS7.png' width = '70%;'></div><div class = 'column'><img src = 'uspos/2360.bmp' width = '100%;'></div></div>","null","pos","CS","CS","2","category2/CS7.png","","","","",""
"","html-keyboard-response","37","311570","0.0-6.0-2.0-0.10","yyg0o2ft7f","one_one","1","direct_first","1","er05rt26","0","24","2","1","3","1","","0","1","0","null","","","<div class = 'row'><div class = 'column'><img src = 'category3/CS9.png' width = '70%;'></div><div class = 'column'><img src = 'uspos/2058.bmp' width = '100%;'></div></div>","null","pos","CS","CS","3","category3/CS9.png","","","","",""
"","html-keyboard-response","38","314093","0.0-6.0-2.0-0.11","yyg0o2ft7f","one_one","1","direct_first","1","er05rt26","0","24","2","1","3","1","","0","1","0","null","","","<div class = 'row'><div class = 'column'><img src = 'category4/CS5.png' width = '70%;'></div><div class = 'column'><img src = 'usneg/9404.bmp' width = '100%;'></div></div>","null","neg","CS","CS","4","category4/CS5.png","","","","",""
"","html-keyboard-response","39","316617","0.0-6.0-2.0-0.12","yyg0o2ft7f","one_one","1","direct_first","1","er05rt26","0","24","2","1","3","1","","0","1","0","null","","","<div class = 'row'><div class = 'column'><img src = 'category1/CS3.png' width = '70%;'></div><div class = 'column'><img src = 'usneg/1280.bmp' width = '100%;'></div></div>","null","neg","CS","CS","1","category1/CS3.png","","","","",""
"","html-keyboard-response","40","319143","0.0-6.0-2.0-0.13","yyg0o2ft7f","one_one","1","direct_first","1","er05rt26","0","24","2","1","3","1","","0","1","0","null","","","<div class = 'row'><div class = 'column'><img src = 'uspos/2058.bmp' width = '100%;'></div><div class = 'column'><img src = 'category3/CS9.png' width = '70%;'></div></div>","null","pos","CS","CS","3","category3/CS9.png","","","","",""
"","html-keyboard-response","41","321648","0.0-6.0-2.0-0.14","yyg0o2ft7f","one_one","1","direct_first","1","er05rt26","0","24","2","1","3","1","","0","1","0","null","","","<div class = 'row'><div class = 'column'><img src = 'category4/CS5.png' width = '70%;'></div><div class = 'column'><img src = 'usneg/9404.bmp' width = '100%;'></div></div>","null","neg","CS","CS","4","category4/CS5.png","","","","",""
"","html-keyboard-response","42","324176","0.0-6.0-2.0-0.15","yyg0o2ft7f","one_one","1","direct_first","1","er05rt26","0","24","2","1","3","1","","0","1","0","null","","","<div class = 'row'><div class = 'column'><img src = 'category1/CS3.png' width = '70%;'></div><div class = 'column'><img src = 'usneg/1280.bmp' width = '100%;'></div></div>","null","neg","CS","CS","1","category1/CS3.png","","","","",""
"","html-keyboard-response","43","326695","0.0-6.0-2.0-0.16","yyg0o2ft7f","one_one","1","direct_first","1","er05rt26","0","24","2","1","3","1","","0","1","0","null","","","<div class = 'row'><div class = 'column'><img src = 'usneg/9404.bmp' width = '100%;'></div><div class = 'column'><img src = 'category4/CS5.png' width = '70%;'></div></div>","null","neg","CS","CS","4","category4/CS5.png","","","","",""
"","html-keyboard-response","44","329227","0.0-6.0-2.0-0.17","yyg0o2ft7f","one_one","1","direct_first","1","er05rt26","0","24","2","1","3","1","","0","1","0","null","","","<div class = 'row'><div class = 'column'><img src = 'category3/CS9.png' width = '70%;'></div><div class = 'column'><img src = 'uspos/2058.bmp' width = '100%;'></div></div>","null","pos","CS","CS","3","category3/CS9.png","","","","",""
"","html-keyboard-response","45","331758","0.0-6.0-2.0-0.18","yyg0o2ft7f","one_one","1","direct_first","1","er05rt26","0","24","2","1","3","1","","0","1","0","null","","","<div class = 'row'><div class = 'column'><img src = 'usneg/9404.bmp' width = '100%;'></div><div class = 'column'><img src = 'category4/CS5.png' width = '70%;'></div></div>","null","neg","CS","CS","4","category4/CS5.png","","","","",""
"","html-keyboard-response","46","334276","0.0-6.0-2.0-0.19","yyg0o2ft7f","one_one","1","direct_first","1","er05rt26","0","24","2","1","3","1","","0","1","0","null","","","<div class = 'row'><div class = 'column'><img src = 'uspos/2058.bmp' width = '100%;'></div><div class = 'column'><img src = 'category3/CS9.png' width = '70%;'></div></div>","null","pos","CS","CS","3","category3/CS9.png","","","","",""
"","survey-html-form","47","338605","0.0-6.0-3.0","yyg0o2ft7f","one_one","1","direct_first","1","er05rt26","0","24","2","1","3","1","","0","1","0","3813.2449999975506","","{}","","","","","","","","","","","",""
"","html-keyboard-response","48","342618","0.0-6.0-4.0-0.0","yyg0o2ft7f","one_one","1","direct_first","1","er05rt26","0","24","2","1","3","1","","0","1","0","null","","","<div class = 'row'><div class = 'column'><img src = 'category2/CS7.png' width = '70%;'></div><div class = 'column'><img src = 'uspos/2360.bmp' width = '100%;'></div></div>","null","pos","CS","CS","2","category2/CS7.png","","","","",""
"","html-keyboard-response","49","345128","0.0-6.0-4.0-0.1","yyg0o2ft7f","one_one","1","direct_first","1","er05rt26","0","24","2","1","3","1","","0","1","0","null","","","<div class = 'row'><div class = 'column'><img src = 'uspos/2058.bmp' width = '100%;'></div><div class = 'column'><img src = 'category3/CS9.png' width = '70%;'></div></div>","null","pos","CS","CS","3","category3/CS9.png","","","","",""
"","html-keyboard-response","50","347639","0.0-6.0-4.0-0.2","yyg0o2ft7f","one_one","1","direct_first","1","er05rt26","0","24","2","1","3","1","","0","1","0","null","","","<div class = 'row'><div class = 'column'><img src = 'category2/CS7.png' width = '70%;'></div><div class = 'column'><img src = 'uspos/2360.bmp' width = '100%;'></div></div>","null","pos","CS","CS","2","category2/CS7.png","","","","",""
"","html-keyboard-response","51","350147","0.0-6.0-4.0-0.3","yyg0o2ft7f","one_one","1","direct_first","1","er05rt26","0","24","2","1","3","1","","0","1","0","null","","","<div class = 'row'><div class = 'column'><img src = 'category1/CS3.png' width = '70%;'></div><div class = 'column'><img src = 'usneg/1280.bmp' width = '100%;'></div></div>","null","neg","CS","CS","1","category1/CS3.png","","","","",""
"","html-keyboard-response","52","352687","0.0-6.0-4.0-0.4","yyg0o2ft7f","one_one","1","direct_first","1","er05rt26","0","24","2","1","3","1","","0","1","0","null","","","<div class = 'row'><div class = 'column'><img src = 'usneg/9404.bmp' width = '100%;'></div><div class = 'column'><img src = 'category4/CS5.png' width = '70%;'></div></div>","null","neg","CS","CS","4","category4/CS5.png","","","","",""
"","html-keyboard-response","53","355218","0.0-6.0-4.0-0.5","yyg0o2ft7f","one_one","1","direct_first","1","er05rt26","0","24","2","1","3","1","","0","1","0","null","","","<div class = 'row'><div class = 'column'><img src = 'category2/CS7.png' width = '70%;'></div><div class = 'column'><img src = 'uspos/2360.bmp' width = '100%;'></div></div>","null","pos","CS","CS","2","category2/CS7.png","","","","",""
"","html-keyboard-response","54","357741","0.0-6.0-4.0-0.6","yyg0o2ft7f","one_one","1","direct_first","1","er05rt26","0","24","2","1","3","1","","0","1","0","null","","","<div class = 'row'><div class = 'column'><img src = 'category4/CS5.png' width = '70%;'></div><div class = 'column'><img src = 'usneg/9404.bmp' width = '100%;'></div></div>","null","neg","CS","CS","4","category4/CS5.png","","","","",""
"","html-keyboard-response","55","360260","0.0-6.0-4.0-0.7","yyg0o2ft7f","one_one","1","direct_first","1","er05rt26","0","24","2","1","3","1","","0","1","0","null","","","<div class = 'row'><div class = 'column'><img src = 'uspos/2360.bmp' width = '100%;'></div><div class = 'column'><img src = 'category2/CS7.png' width = '70%;'></div></div>","null","pos","CS","CS","2","category2/CS7.png","","","","",""
"","html-keyboard-response","56","362790","0.0-6.0-4.0-0.8","yyg0o2ft7f","one_one","1","direct_first","1","er05rt26","0","24","2","1","3","1","","0","1","0","null","","","<div class = 'row'><div class = 'column'><img src = 'category1/CS3.png' width = '70%;'></div><div class = 'column'><img src = 'usneg/1280.bmp' width = '100%;'></div></div>","null","neg","CS","CS","1","category1/CS3.png","","","","",""
"","html-keyboard-response","57","365309","0.0-6.0-4.0-0.9","yyg0o2ft7f","one_one","1","direct_first","1","er05rt26","0","24","2","1","3","1","","0","1","0","null","","","<div class = 'row'><div class = 'column'><img src = 'uspos/2058.bmp' width = '100%;'></div><div class = 'column'><img src = 'category3/CS9.png' width = '70%;'></div></div>","null","pos","CS","CS","3","category3/CS9.png","","","","",""
"","html-keyboard-response","58","367823","0.0-6.0-4.0-0.10","yyg0o2ft7f","one_one","1","direct_first","1","er05rt26","0","24","2","1","3","1","","0","1","0","null","","","<div class = 'row'><div class = 'column'><img src = 'usneg/9404.bmp' width = '100%;'></div><div class = 'column'><img src = 'category4/CS5.png' width = '70%;'></div></div>","null","neg","CS","CS","4","category4/CS5.png","","","","",""
"","html-keyboard-response","59","370342","0.0-6.0-4.0-0.11","yyg0o2ft7f","one_one","1","direct_first","1","er05rt26","0","24","2","1","3","1","","0","1","0","null","","","<div class = 'row'><div class = 'column'><img src = 'uspos/2058.bmp' width = '100%;'></div><div class = 'column'><img src = 'category3/CS9.png' width = '70%;'></div></div>","null","pos","CS","CS","3","category3/CS9.png","","","","",""
"","html-keyboard-response","60","372875","0.0-6.0-4.0-0.12","yyg0o2ft7f","one_one","1","direct_first","1","er05rt26","0","24","2","1","3","1","","0","1","0","null","","","<div class = 'row'><div class = 'column'><img src = 'usneg/1280.bmp' width = '100%;'></div><div class = 'column'><img src = 'category1/CS3.png' width = '70%;'></div></div>","null","neg","CS","CS","1","category1/CS3.png","","","","",""
"","html-keyboard-response","61","375391","0.0-6.0-4.0-0.13","yyg0o2ft7f","one_one","1","direct_first","1","er05rt26","0","24","2","1","3","1","","0","1","0","null","","","<div class = 'row'><div class = 'column'><img src = 'uspos/2058.bmp' width = '100%;'></div><div class = 'column'><img src = 'category3/CS9.png' width = '70%;'></div></div>","null","pos","CS","CS","3","category3/CS9.png","","","","",""
"","html-keyboard-response","62","377909","0.0-6.0-4.0-0.14","yyg0o2ft7f","one_one","1","direct_first","1","er05rt26","0","24","2","1","3","1","","0","1","0","null","","","<div class = 'row'><div class = 'column'><img src = 'category4/CS5.png' width = '70%;'></div><div class = 'column'><img src = 'usneg/9404.bmp' width = '100%;'></div></div>","null","neg","CS","CS","4","category4/CS5.png","","","","",""
"","html-keyboard-response","63","380419","0.0-6.0-4.0-0.15","yyg0o2ft7f","one_one","1","direct_first","1","er05rt26","0","24","2","1","3","1","","0","1","0","null","","","<div class = 'row'><div class = 'column'><img src = 'usneg/1280.bmp' width = '100%;'></div><div class = 'column'><img src = 'category1/CS3.png' width = '70%;'></div></div>","null","neg","CS","CS","1","category1/CS3.png","","","","",""
"","html-keyboard-response","64","382942","0.0-6.0-4.0-0.16","yyg0o2ft7f","one_one","1","direct_first","1","er05rt26","0","24","2","1","3","1","","0","1","0","null","","","<div class = 'row'><div class = 'column'><img src = 'category3/CS9.png' width = '70%;'></div><div class = 'column'><img src = 'uspos/2058.bmp' width = '100%;'></div></div>","null","pos","CS","CS","3","category3/CS9.png","","","","",""
"","html-keyboard-response","65","385475","0.0-6.0-4.0-0.17","yyg0o2ft7f","one_one","1","direct_first","1","er05rt26","0","24","2","1","3","1","","0","1","0","null","","","<div class = 'row'><div class = 'column'><img src = 'category1/CS3.png' width = '70%;'></div><div class = 'column'><img src = 'usneg/1280.bmp' width = '100%;'></div></div>","null","neg","CS","CS","1","category1/CS3.png","","","","",""
"","html-keyboard-response","66","387992","0.0-6.0-4.0-0.18","yyg0o2ft7f","one_one","1","direct_first","1","er05rt26","0","24","2","1","3","1","","0","1","0","null","","","<div class = 'row'><div class = 'column'><img src = 'category4/CS5.png' width = '70%;'></div><div class = 'column'><img src = 'usneg/9404.bmp' width = '100%;'></div></div>","null","neg","CS","CS","4","category4/CS5.png","","","","",""
"","html-keyboard-response","67","390509","0.0-6.0-4.0-0.19","yyg0o2ft7f","one_one","1","direct_first","1","er05rt26","0","24","2","1","3","1","","0","1","0","null","","","<div class = 'row'><div class = 'column'><img src = 'category2/CS7.png' width = '70%;'></div><div class = 'column'><img src = 'uspos/2360.bmp' width = '100%;'></div></div>","null","pos","CS","CS","2","category2/CS7.png","","","","",""
"","survey-html-form","68","392169","0.0-6.0-5.0","yyg0o2ft7f","one_one","1","direct_first","1","er05rt26","0","24","2","1","3","1","","0","1","0","1143.8649999909103","","{}","","","","","","","","","","","",""
"","html-keyboard-response","69","396192","0.0-6.0-6.0-0.0","yyg0o2ft7f","one_one","1","direct_first","1","er05rt26","0","24","2","1","3","1","","0","1","0","null","","","<div class = 'row'><div class = 'column'><img src = 'usneg/1280.bmp' width = '100%;'></div><div class = 'column'><img src = 'category1/CS3.png' width = '70%;'></div></div>","null","neg","CS","CS","1","category1/CS3.png","","","","",""
"","html-keyboard-response","70","398708","0.0-6.0-6.0-0.1","yyg0o2ft7f","one_one","1","direct_first","1","er05rt26","0","24","2","1","3","1","","0","1","0","null","","","<div class = 'row'><div class = 'column'><img src = 'uspos/2058.bmp' width = '100%;'></div><div class = 'column'><img src = 'category3/CS9.png' width = '70%;'></div></div>","null","pos","CS","CS","3","category3/CS9.png","","","","",""
"","html-keyboard-response","71","401242","0.0-6.0-6.0-0.2","yyg0o2ft7f","one_one","1","direct_first","1","er05rt26","0","24","2","1","3","1","","0","1","0","null","","","<div class = 'row'><div class = 'column'><img src = 'category2/CS7.png' width = '70%;'></div><div class = 'column'><img src = 'uspos/2360.bmp' width = '100%;'></div></div>","null","pos","CS","CS","2","category2/CS7.png","","","","",""
"","html-keyboard-response","72","403758","0.0-6.0-6.0-0.3","yyg0o2ft7f","one_one","1","direct_first","1","er05rt26","0","24","2","1","3","1","","0","1","0","null","","","<div class = 'row'><div class = 'column'><img src = 'usneg/9404.bmp' width = '100%;'></div><div class = 'column'><img src = 'category4/CS5.png' width = '70%;'></div></div>","null","neg","CS","CS","4","category4/CS5.png","","","","",""
"","html-keyboard-response","73","406273","0.0-6.0-6.0-0.4","yyg0o2ft7f","one_one","1","direct_first","1","er05rt26","0","24","2","1","3","1","","0","1","0","null","","","<div class = 'row'><div class = 'column'><img src = 'category3/CS9.png' width = '70%;'></div><div class = 'column'><img src = 'uspos/2058.bmp' width = '100%;'></div></div>","null","pos","CS","CS","3","category3/CS9.png","","","","",""
"","html-keyboard-response","74","408791","0.0-6.0-6.0-0.5","yyg0o2ft7f","one_one","1","direct_first","1","er05rt26","0","24","2","1","3","1","","0","1","0","null","","","<div class = 'row'><div class = 'column'><img src = 'category2/CS7.png' width = '70%;'></div><div class = 'column'><img src = 'uspos/2360.bmp' width = '100%;'></div></div>","null","pos","CS","CS","2","category2/CS7.png","","","","",""
"","html-keyboard-response","75","411305","0.0-6.0-6.0-0.6","yyg0o2ft7f","one_one","1","direct_first","1","er05rt26","0","24","2","1","3","1","","0","1","0","null","","","<div class = 'row'><div class = 'column'><img src = 'category4/CS5.png' width = '70%;'></div><div class = 'column'><img src = 'usneg/9404.bmp' width = '100%;'></div></div>","null","neg","CS","CS","4","category4/CS5.png","","","","",""
"","html-keyboard-response","76","413824","0.0-6.0-6.0-0.7","yyg0o2ft7f","one_one","1","direct_first","1","er05rt26","0","24","2","1","3","1","","0","1","0","null","","","<div class = 'row'><div class = 'column'><img src = 'category1/CS3.png' width = '70%;'></div><div class = 'column'><img src = 'usneg/1280.bmp' width = '100%;'></div></div>","null","neg","CS","CS","1","category1/CS3.png","","","","",""
"","html-keyboard-response","77","416335","0.0-6.0-6.0-0.8","yyg0o2ft7f","one_one","1","direct_first","1","er05rt26","0","24","2","1","3","1","","0","1","0","null","","","<div class = 'row'><div class = 'column'><img src = 'usneg/9404.bmp' width = '100%;'></div><div class = 'column'><img src = 'category4/CS5.png' width = '70%;'></div></div>","null","neg","CS","CS","4","category4/CS5.png","","","","",""
"","html-keyboard-response","78","418857","0.0-6.0-6.0-0.9","yyg0o2ft7f","one_one","1","direct_first","1","er05rt26","0","24","2","1","3","1","","0","1","0","null","","","<div class = 'row'><div class = 'column'><img src = 'category2/CS7.png' width = '70%;'></div><div class = 'column'><img src = 'uspos/2360.bmp' width = '100%;'></div></div>","null","pos","CS","CS","2","category2/CS7.png","","","","",""
"","html-keyboard-response","79","421368","0.0-6.0-6.0-0.10","yyg0o2ft7f","one_one","1","direct_first","1","er05rt26","0","24","2","1","3","1","","0","1","0","null","","","<div class = 'row'><div class = 'column'><img src = 'usneg/9404.bmp' width = '100%;'></div><div class = 'column'><img src = 'category4/CS5.png' width = '70%;'></div></div>","null","neg","CS","CS","4","category4/CS5.png","","","","",""
"","html-keyboard-response","80","423891","0.0-6.0-6.0-0.11","yyg0o2ft7f","one_one","1","direct_first","1","er05rt26","0","24","2","1","3","1","","0","1","0","null","","","<div class = 'row'><div class = 'column'><img src = 'category1/CS3.png' width = '70%;'></div><div class = 'column'><img src = 'usneg/1280.bmp' width = '100%;'></div></div>","null","neg","CS","CS","1","category1/CS3.png","","","","",""
"","html-keyboard-response","81","426398","0.0-6.0-6.0-0.12","yyg0o2ft7f","one_one","1","direct_first","1","er05rt26","0","24","2","1","3","1","","0","1","0","null","","","<div class = 'row'><div class = 'column'><img src = 'uspos/2058.bmp' width = '100%;'></div><div class = 'column'><img src = 'category3/CS9.png' width = '70%;'></div></div>","null","pos","CS","CS","3","category3/CS9.png","","","","",""
"","html-keyboard-response","82","428925","0.0-6.0-6.0-0.13","yyg0o2ft7f","one_one","1","direct_first","1","er05rt26","0","24","2","1","3","1","","0","1","0","null","","","<div class = 'row'><div class = 'column'><img src = 'usneg/9404.bmp' width = '100%;'></div><div class = 'column'><img src = 'category4/CS5.png' width = '70%;'></div></div>","null","neg","CS","CS","4","category4/CS5.png","","","","",""
"","html-keyboard-response","83","431430","0.0-6.0-6.0-0.14","yyg0o2ft7f","one_one","1","direct_first","1","er05rt26","0","24","2","1","3","1","","0","1","0","null","","","<div class = 'row'><div class = 'column'><img src = 'category2/CS7.png' width = '70%;'></div><div class = 'column'><img src = 'uspos/2360.bmp' width = '100%;'></div></div>","null","pos","CS","CS","2","category2/CS7.png","","","","",""
"","html-keyboard-response","84","433958","0.0-6.0-6.0-0.15","yyg0o2ft7f","one_one","1","direct_first","1","er05rt26","0","24","2","1","3","1","","0","1","0","null","","","<div class = 'row'><div class = 'column'><img src = 'category3/CS9.png' width = '70%;'></div><div class = 'column'><img src = 'uspos/2058.bmp' width = '100%;'></div></div>","null","pos","CS","CS","3","category3/CS9.png","","","","",""
"","html-keyboard-response","85","436477","0.0-6.0-6.0-0.16","yyg0o2ft7f","one_one","1","direct_first","1","er05rt26","0","24","2","1","3","1","","0","1","0","null","","","<div class = 'row'><div class = 'column'><img src = 'category1/CS3.png' width = '70%;'></div><div class = 'column'><img src = 'usneg/1280.bmp' width = '100%;'></div></div>","null","neg","CS","CS","1","category1/CS3.png","","","","",""
"","html-keyboard-response","86","439007","0.0-6.0-6.0-0.17","yyg0o2ft7f","one_one","1","direct_first","1","er05rt26","0","24","2","1","3","1","","0","1","0","null","","","<div class = 'row'><div class = 'column'><img src = 'uspos/2360.bmp' width = '100%;'></div><div class = 'column'><img src = 'category2/CS7.png' width = '70%;'></div></div>","null","pos","CS","CS","2","category2/CS7.png","","","","",""
"","html-keyboard-response","87","441524","0.0-6.0-6.0-0.18","yyg0o2ft7f","one_one","1","direct_first","1","er05rt26","0","24","2","1","3","1","","0","1","0","null","","","<div class = 'row'><div class = 'column'><img src = 'uspos/2058.bmp' width = '100%;'></div><div class = 'column'><img src = 'category3/CS9.png' width = '70%;'></div></div>","null","pos","CS","CS","3","category3/CS9.png","","","","",""
"","html-keyboard-response","88","444041","0.0-6.0-6.0-0.19","yyg0o2ft7f","one_one","1","direct_first","1","er05rt26","0","24","2","1","3","1","","0","1","0","null","","","<div class = 'row'><div class = 'column'><img src = 'category1/CS3.png' width = '70%;'></div><div class = 'column'><img src = 'usneg/1280.bmp' width = '100%;'></div></div>","null","neg","CS","CS","1","category1/CS3.png","","","","",""
"","survey-html-form","89","455472","0.0-7.0","yyg0o2ft7f","one_one","1","direct_first","1","er05rt26","0","24","2","1","3","1","","0","1","0","10914.2700000084","","{}","","","","","","","","","","","",""
"","image-slider-response","90","473846","0.0-8.0-0.0","yyg0o2ft7f","one_one","1","direct_first","1","er05rt26","0","24","2","1","3","1","","0","1","0","16368.929999996908","","","","","pos","GS","GSnew","3","category3/GS2.png","-64","targets/14.png","direct","",""
"","image-slider-response","91","480411","0.0-8.0-0.1","yyg0o2ft7f","one_one","1","direct_first","1","er05rt26","0","24","2","1","3","1","","0","1","0","6563.2299999997485","","","","","pos","GS","GSnew","2","category2/GS2.png","-9","targets/41.png","direct","",""
"","image-slider-response","92","492046","0.0-8.0-0.2","yyg0o2ft7f","one_one","1","direct_first","1","er05rt26","0","24","2","1","3","1","","0","1","0","11632.509999995818","","","","","pos","GS","GSold","2","category2/CS5.png","22","targets/44.png","direct","",""
"","image-slider-response","93","495995","0.0-8.0-0.3","yyg0o2ft7f","one_one","1","direct_first","1","er05rt26","0","24","2","1","3","1","","0","1","0","3947.909999988042","","","","","pos","GS","GSold","3","category3/CS3.png","32","targets/9.png","direct","",""
"","image-slider-response","94","500331","0.0-8.0-0.4","yyg0o2ft7f","one_one","1","direct_first","1","er05rt26","0","24","2","1","3","1","","0","1","0","4334.594999992987","","","","","pos","GS","GSnew","2","category2/GS1.png","-36","targets/18.png","direct","",""
"","image-slider-response","95","506010","0.0-8.0-0.5","yyg0o2ft7f","one_one","1","direct_first","1","er05rt26","0","24","2","1","3","1","","0","1","0","5677.639999979874","","","","","pos","GS","GSold","2","category2/CS9.png","-38","targets/2.png","direct","",""
"","image-slider-response","96","510239","0.0-8.0-0.6","yyg0o2ft7f","one_one","1","direct_first","1","er05rt26","0","24","2","1","3","1","","0","1","0","4227.9100000159815","","","","","neg","GS","abstract","4","category4/lin.png","12","targets/13.png","direct","",""
"","image-slider-response","97","514615","0.0-8.0-0.7","yyg0o2ft7f","one_one","1","direct_first","1","er05rt26","0","24","2","1","3","1","","0","1","0","4373.630000016419","","","","","neg","GS","GSnew","4","category4/GS3.png","64","targets/34.png","direct","",""
"","image-slider-response","98","523561","0.0-8.0-0.8","yyg0o2ft7f","one_one","1","direct_first","1","er05rt26","0","24","2","1","3","1","","0","1","0","8943.4000000183","","","","","pos","GS","GSold","3","category3/CS4.png","55","targets/45.png","direct","",""
"","image-slider-response","99","527678","0.0-8.0-0.9","yyg0o2ft7f","one_one","1","direct_first","1","er05rt26","0","24","2","1","3","1","","0","1","0","4115.180000022519","","","","","pos","GS","GSold","3","category3/CS7.png","35","targets/48.png","direct","",""
"","image-slider-response","100","531996","0.0-8.0-0.10","yyg0o2ft7f","one_one","1","direct_first","1","er05rt26","0","24","2","1","3","1","","0","1","0","4315.795000002254","","","","","neg","GS","GSold","1","category1/CS2.png","-64","targets/8.png","direct","",""
"","image-slider-response","101","535979","0.0-8.0-0.11","yyg0o2ft7f","one_one","1","direct_first","1","er05rt26","0","24","2","1","3","1","","0","1","0","3979.9200000124983","","","","","neg","CS","CS","1","category1/CS3.png","-29","targets/27.png","direct","",""
"","image-slider-response","102","539610","0.0-8.0-0.12","yyg0o2ft7f","one_one","1","direct_first","1","er05rt26","0","24","2","1","3","1","","0","1","0","3626.3249999901745","","","","","neg","GS","abstract","1","category1/ma.png","5","targets/4.png","direct","",""
"","image-slider-response","103","544983","0.0-8.0-0.13","yyg0o2ft7f","one_one","1","direct_first","1","er05rt26","0","24","2","1","3","1","","0","1","0","5370.659999985946","","","","","neg","GS","GSnew","1","category1/GS3.png","49","targets/32.png","direct","",""
"","image-slider-response","104","555415","0.0-8.0-0.14","yyg0o2ft7f","one_one","1","direct_first","1","er05rt26","0","24","2","1","3","1","","0","1","0","10430.655000003753","","","","","pos","CS","CS","2","category2/CS7.png","100","targets/40.png","direct","",""
"","image-slider-response","105","560081","0.0-8.0-0.15","yyg0o2ft7f","one_one","1","direct_first","1","er05rt26","0","24","2","1","3","1","","0","1","0","4664.329999999609","","","","","pos","GS","GSnew","3","category3/GS3.png","40","targets/46.png","direct","",""
"","image-slider-response","106","564295","0.0-8.0-0.16","yyg0o2ft7f","one_one","1","direct_first","1","er05rt26","0","24","2","1","3","1","","0","1","0","4212.224999995669","","","","","neg","GS","GSold","1","category1/CS1.png","-50","targets/23.png","direct","",""
"","image-slider-response","107","569462","0.0-8.0-0.17","yyg0o2ft7f","one_one","1","direct_first","1","er05rt26","0","24","2","1","3","1","","0","1","0","5165.309999982128","","","","","neg","GS","GSold","4","category4/CS3.png","29","targets/25.png","direct","",""
"","image-slider-response","108","572931","0.0-8.0-0.18","yyg0o2ft7f","one_one","1","direct_first","1","er05rt26","0","24","2","1","3","1","","0","1","0","3467.050000006566","","","","","pos","GS","GSnew","2","category2/GS3.png","36","targets/22.png","direct","",""
"","image-slider-response","109","577698","0.0-8.0-0.19","yyg0o2ft7f","one_one","1","direct_first","1","er05rt26","0","24","2","1","3","1","","0","1","0","4765.444999997271","","","","","neg","GS","GSnew","4","category4/GS2.png","-87","targets/6.png","direct","",""
"","image-slider-response","110","582177","0.0-8.0-0.20","yyg0o2ft7f","one_one","1","direct_first","1","er05rt26","0","24","2","1","3","1","","0","1","0","4477.2500000253785","","","","","neg","GS","GSnew","4","category4/GS1.png","-55","targets/7.png","direct","",""
"","image-slider-response","111","586305","0.0-8.0-0.21","yyg0o2ft7f","one_one","1","direct_first","1","er05rt26","0","24","2","1","3","1","","0","1","0","4126.970000012079","","","","","pos","GS","abstract","2","category2/men.png","63","targets/42.png","direct","",""
"","image-slider-response","112","591981","0.0-8.0-0.22","yyg0o2ft7f","one_one","1","direct_first","1","er05rt26","0","24","2","1","3","1","","0","1","0","5673.790000000736","","","","","neg","GS","GSnew","1","category1/GS1.png","-26","targets/12.png","direct","",""
"","image-slider-response","113","597509","0.0-8.0-0.23","yyg0o2ft7f","one_one","1","direct_first","1","er05rt26","0","24","2","1","3","1","","0","1","0","5526.554999989457","","","","","neg","CS","CS","4","category4/CS5.png","-95","targets/35.png","direct","",""
"","image-slider-response","114","601515","0.0-8.0-0.24","yyg0o2ft7f","one_one","1","direct_first","1","er05rt26","0","24","2","1","3","1","","0","1","0","4004.574999999022","","","","","pos","GS","GSold","2","category2/CS4.png","-50","targets/20.png","direct","",""
"","image-slider-response","115","606024","0.0-8.0-0.25","yyg0o2ft7f","one_one","1","direct_first","1","er05rt26","0","24","2","1","3","1","","0","1","0","4507.589999993797","","","","","neg","GS","GSold","4","category4/CS6.png","-100","targets/5.png","direct","",""
"","image-slider-response","116","609777","0.0-8.0-0.26","yyg0o2ft7f","one_one","1","direct_first","1","er05rt26","0","24","2","1","3","1","","0","1","0","3750.880000006873","","","","","neg","GS","GSold","4","category4/CS2.png","-47","targets/39.png","direct","",""
"","image-slider-response","117","612946","0.0-8.0-0.27","yyg0o2ft7f","one_one","1","direct_first","1","er05rt26","0","24","2","1","3","1","","0","1","0","3167.6649999863002","","","","","neg","GS","GSold","1","category1/CS6.png","16","targets/33.png","direct","",""
"","image-slider-response","118","617493","0.0-8.0-0.28","yyg0o2ft7f","one_one","1","direct_first","1","er05rt26","0","24","2","1","3","1","","0","1","0","4545.740000001388","","","","","neg","GS","GSnew","1","category1/GS2.png","-45","targets/28.png","direct","",""
"","image-slider-response","119","621020","0.0-8.0-0.29","yyg0o2ft7f","one_one","1","direct_first","1","er05rt26","0","24","2","1","3","1","","0","1","0","3524.9800000165123","","","","","pos","GS","abstract","3","category3/wang.png","97","targets/10.png","direct","",""
"","image-slider-response","120","624478","0.0-8.0-0.30","yyg0o2ft7f","one_one","1","direct_first","1","er05rt26","0","24","2","1","3","1","","0","1","0","3456.109999999171","","","","","pos","GS","GSnew","3","category3/GS1.png","89","targets/24.png","direct","",""
"","image-slider-response","121","627761","0.0-8.0-0.31","yyg0o2ft7f","one_one","1","direct_first","1","er05rt26","0","24","2","1","3","1","","0","1","0","3281.1800000199582","","","","","pos","CS","CS","3","category3/CS9.png","100","targets/43.png","direct","",""
"","html-keyboard-response","122","660719","0.0-9.0","yyg0o2ft7f","one_one","1","direct_first","1","er05rt26","0","24","2","1","3","1","","0","1","0","32956.145000003744","","","<p>Sie sehen nun die chinesischen Zeichen nur ganz kurz. Danach sehen Sie die jeweilige Aussprache der Zeichen als Silbe auf dem Bildschrim. Ihre Aufgabe ist es, für jede Silbe anzugeben, ob diese etwas angenehmes, oder unangenehmes bedeuten könnte. Verlassen Sie sich hier vor allem auf Ihre Intuition.<br><br>Die Zeichen werden nur zur Orientierung dargestellt, beachten Sie sie deshalb nicht. Konzentrieren Sie sich vor allem auf die Silben. <br>Reagieren Sie mit folgenden zwei Tasten: <br><br><b>'D' </b> wenn die Silbe etwas <b>unangenehmes</b> bedeuten könnte. <br><b>'K'</b> wenn die Silbe etwas <b>angenehmes</b> bedeuten könnte. <br><br>Bitte legen Sie nun den Zeigefinger der linken Hand auf die Taste 'D' und den Zeigefinger der rechten Hand auf die Taste 'K'. <br>Reagieren Sie auf jede Silbe so schnell wie möglich. Uns interessiert Ihre spontane Reaktion. <br> <br> <br>Drücken Sie 'D' oder 'K', um die nächste Aufgabe zu starten. </p>","75","","","","","","","","","",""
"","html-keyboard-response","123","663737","0.0-10.0-0.0","yyg0o2ft7f","one_one","1","direct_first","1","er05rt26","0","24","2","1","3","1","","0","1","0","null","","","<div style=""font-size:60px;"">+</div>","null","","","","","","","","","",""
"","html-keyboard-response","124","663832","0.0-10.0-1.0","yyg0o2ft7f","one_one","1","direct_first","1","er05rt26","0","24","2","1","3","1","","0","1","0","null","","","<img src = 'category4/CS2.png' width = '100%;'>","null","","","","","","","","","",""
"","html-keyboard-response","125","664096","0.0-10.0-2.0","yyg0o2ft7f","one_one","1","direct_first","1","er05rt26","0","24","2","1","3","1","","0","1","0","null","","","<img src = 'targets/39.png' width = '100%;'>","null","","","","","","","","","",""
"","html-keyboard-response","126","668766","0.0-10.0-3.0","yyg0o2ft7f","one_one","1","direct_first","1","er05rt26","0","24","2","1","3","1","","0","1","0","4669.215000001714","","","<img src = 'targets/mask.png' width = '100%;'>","75","neg","GS","GSold","4","category4/CS2.png","","targets/39.png","indirect","1","0"
"","html-keyboard-response","127","670289","0.0-10.0-0.1","yyg0o2ft7f","one_one","1","direct_first","1","er05rt26","0","24","2","1","3","1","","0","1","0","null","","","<div style=""font-size:60px;"">+</div>","null","","","","","","","","","",""
"","html-keyboard-response","128","670382","0.0-10.0-1.1","yyg0o2ft7f","one_one","1","direct_first","1","er05rt26","0","24","2","1","3","1","","0","1","0","null","","","<img src = 'category4/CS5.png' width = '100%;'>","null","","","","","","","","","",""
"","html-keyboard-response","129","670645","0.0-10.0-2.1","yyg0o2ft7f","one_one","1","direct_first","1","er05rt26","0","24","2","1","3","1","","0","1","0","null","","","<img src = 'targets/35.png' width = '100%;'>","null","","","","","","","","","",""
"","html-keyboard-response","130","672685","0.0-10.0-3.1","yyg0o2ft7f","one_one","1","direct_first","1","er05rt26","0","24","2","1","3","1","","0","1","0","2038.5950000199955","","","<img src = 'targets/mask.png' width = '100%;'>","68","neg","CS","CS","4","category4/CS5.png","","targets/35.png","indirect","0","1"
"","html-keyboard-response","131","674203","0.0-10.0-0.2","yyg0o2ft7f","one_one","1","direct_first","1","er05rt26","0","24","2","1","3","1","","0","1","0","null","","","<div style=""font-size:60px;"">+</div>","null","","","","","","","","","",""
"","html-keyboard-response","132","674299","0.0-10.0-1.2","yyg0o2ft7f","one_one","1","direct_first","1","er05rt26","0","24","2","1","3","1","","0","1","0","null","","","<img src = 'category4/CS6.png' width = '100%;'>","null","","","","","","","","","",""
"","html-keyboard-response","133","674560","0.0-10.0-2.2","yyg0o2ft7f","one_one","1","direct_first","1","er05rt26","0","24","2","1","3","1","","0","1","0","null","","","<img src = 'targets/5.png' width = '100%;'>","null","","","","","","","","","",""
"","html-keyboard-response","134","676952","0.0-10.0-3.2","yyg0o2ft7f","one_one","1","direct_first","1","er05rt26","0","24","2","1","3","1","","0","1","0","2390.8899999805726","","","<img src = 'targets/mask.png' width = '100%;'>","75","neg","GS","GSold","4","category4/CS6.png","","targets/5.png","indirect","1","2"
"","html-keyboard-response","135","678471","0.0-10.0-0.3","yyg0o2ft7f","one_one","1","direct_first","1","er05rt26","0","24","2","1","3","1","","0","1","0","null","","","<div style=""font-size:60px;"">+</div>","null","","","","","","","","","",""
"","html-keyboard-response","136","678565","0.0-10.0-1.3","yyg0o2ft7f","one_one","1","direct_first","1","er05rt26","0","24","2","1","3","1","","0","1","0","null","","","<img src = 'category1/CS1.png' width = '100%;'>","null","","","","","","","","","",""
"","html-keyboard-response","137","678828","0.0-10.0-2.3","yyg0o2ft7f","one_one","1","direct_first","1","er05rt26","0","24","2","1","3","1","","0","1","0","null","","","<img src = 'targets/23.png' width = '100%;'>","null","","","","","","","","","",""
"","html-keyboard-response","138","682134","0.0-10.0-3.3","yyg0o2ft7f","one_one","1","direct_first","1","er05rt26","0","24","2","1","3","1","","0","1","0","3304.579999996349","","","<img src = 'targets/mask.png' width = '100%;'>","68","neg","GS","GSold","1","category1/CS1.png","","targets/23.png","indirect","0","3"
"","html-keyboard-response","139","683654","0.0-10.0-0.4","yyg0o2ft7f","one_one","1","direct_first","1","er05rt26","0","24","2","1","3","1","","0","1","0","null","","","<div style=""font-size:60px;"">+</div>","null","","","","","","","","","",""
"","html-keyboard-response","140","683748","0.0-10.0-1.4","yyg0o2ft7f","one_one","1","direct_first","1","er05rt26","0","24","2","1","3","1","","0","1","0","null","","","<img src = 'category3/CS4.png' width = '100%;'>","null","","","","","","","","","",""
"","html-keyboard-response","141","684010","0.0-10.0-2.4","yyg0o2ft7f","one_one","1","direct_first","1","er05rt26","0","24","2","1","3","1","","0","1","0","null","","","<img src = 'targets/45.png' width = '100%;'>","null","","","","","","","","","",""
"","html-keyboard-response","142","684745","0.0-10.0-3.4","yyg0o2ft7f","one_one","1","direct_first","1","er05rt26","0","24","2","1","3","1","","0","1","0","733.8050000253133","","","<img src = 'targets/mask.png' width = '100%;'>","68","pos","GS","GSold","3","category3/CS4.png","","targets/45.png","indirect","0","4"
"","html-keyboard-response","143","686257","0.0-10.0-0.5","yyg0o2ft7f","one_one","1","direct_first","1","er05rt26","0","24","2","1","3","1","","0","1","0","null","","","<div style=""font-size:60px;"">+</div>","null","","","","","","","","","",""
"","html-keyboard-response","144","686349","0.0-10.0-1.5","yyg0o2ft7f","one_one","1","direct_first","1","er05rt26","0","24","2","1","3","1","","0","1","0","null","","","<img src = 'category2/CS7.png' width = '100%;'>","null","","","","","","","","","",""
"","html-keyboard-response","145","686612","0.0-10.0-2.5","yyg0o2ft7f","one_one","1","direct_first","1","er05rt26","0","24","2","1","3","1","","0","1","0","null","","","<img src = 'targets/40.png' width = '100%;'>","null","","","","","","","","","",""
"","html-keyboard-response","146","689011","0.0-10.0-3.5","yyg0o2ft7f","one_one","1","direct_first","1","er05rt26","0","24","2","1","3","1","","0","1","0","2411.470000020927","","","<img src = 'targets/mask.png' width = '100%;'>","75","pos","CS","CS","2","category2/CS7.png","","targets/40.png","indirect","1","5"
"","html-keyboard-response","147","690541","0.0-10.0-0.6","yyg0o2ft7f","one_one","1","direct_first","1","er05rt26","0","24","2","1","3","1","","0","1","0","null","","","<div style=""font-size:60px;"">+</div>","null","","","","","","","","","",""
"","html-keyboard-response","148","690635","0.0-10.0-1.6","yyg0o2ft7f","one_one","1","direct_first","1","er05rt26","0","24","2","1","3","1","","0","1","0","null","","","<img src = 'category1/CS6.png' width = '100%;'>","null","","","","","","","","","",""
"","html-keyboard-response","149","690899","0.0-10.0-2.6","yyg0o2ft7f","one_one","1","direct_first","1","er05rt26","0","24","2","1","3","1","","0","1","0","null","","","<img src = 'targets/33.png' width = '100%;'>","null","","","","","","","","","",""
"","html-keyboard-response","150","691311","0.0-10.0-3.6","yyg0o2ft7f","one_one","1","direct_first","1","er05rt26","0","24","2","1","3","1","","0","1","0","410.6200000096578","","","<img src = 'targets/mask.png' width = '100%;'>","68","neg","GS","GSold","1","category1/CS6.png","","targets/33.png","indirect","0","6"
"","html-keyboard-response","151","692825","0.0-10.0-0.7","yyg0o2ft7f","one_one","1","direct_first","1","er05rt26","0","24","2","1","3","1","","0","1","0","null","","","<div style=""font-size:60px;"">+</div>","null","","","","","","","","","",""
"","html-keyboard-response","152","692918","0.0-10.0-1.7","yyg0o2ft7f","one_one","1","direct_first","1","er05rt26","0","24","2","1","3","1","","0","1","0","null","","","<img src = 'category3/CS9.png' width = '100%;'>","null","","","","","","","","","",""
"","html-keyboard-response","153","693182","0.0-10.0-2.7","yyg0o2ft7f","one_one","1","direct_first","1","er05rt26","0","24","2","1","3","1","","0","1","0","null","","","<img src = 'targets/43.png' width = '100%;'>","null","","","","","","","","","",""
"","html-keyboard-response","154","693672","0.0-10.0-3.7","yyg0o2ft7f","one_one","1","direct_first","1","er05rt26","0","24","2","1","3","1","","0","1","0","488.9549999788869","","","<img src = 'targets/mask.png' width = '100%;'>","75","pos","CS","CS","3","category3/CS9.png","","targets/43.png","indirect","1","7"
"","html-keyboard-response","155","695191","0.0-10.0-0.8","yyg0o2ft7f","one_one","1","direct_first","1","er05rt26","0","24","2","1","3","1","","0","1","0","null","","","<div style=""font-size:60px;"">+</div>","null","","","","","","","","","",""
"","html-keyboard-response","156","695285","0.0-10.0-1.8","yyg0o2ft7f","one_one","1","direct_first","1","er05rt26","0","24","2","1","3","1","","0","1","0","null","","","<img src = 'category2/CS9.png' width = '100%;'>","null","","","","","","","","","",""
"","html-keyboard-response","157","695549","0.0-10.0-2.8","yyg0o2ft7f","one_one","1","direct_first","1","er05rt26","0","24","2","1","3","1","","0","1","0","null","","","<img src = 'targets/2.png' width = '100%;'>","null","","","","","","","","","",""
"","html-keyboard-response","158","696117","0.0-10.0-3.8","yyg0o2ft7f","one_one","1","direct_first","1","er05rt26","0","24","2","1","3","1","","0","1","0","566.6349999955855","","","<img src = 'targets/mask.png' width = '100%;'>","68","pos","GS","GSold","2","category2/CS9.png","","targets/2.png","indirect","0","8"
"","html-keyboard-response","159","697625","0.0-10.0-0.9","yyg0o2ft7f","one_one","1","direct_first","1","er05rt26","0","24","2","1","3","1","","0","1","0","null","","","<div style=""font-size:60px;"">+</div>","null","","","","","","","","","",""
"","html-keyboard-response","160","697719","0.0-10.0-1.9","yyg0o2ft7f","one_one","1","direct_first","1","er05rt26","0","24","2","1","3","1","","0","1","0","null","","","<img src = 'category3/CS3.png' width = '100%;'>","null","","","","","","","","","",""
"","html-keyboard-response","161","697982","0.0-10.0-2.9","yyg0o2ft7f","one_one","1","direct_first","1","er05rt26","0","24","2","1","3","1","","0","1","0","null","","","<img src = 'targets/9.png' width = '100%;'>","null","","","","","","","","","",""
"","html-keyboard-response","162","698864","0.0-10.0-3.9","yyg0o2ft7f","one_one","1","direct_first","1","er05rt26","0","24","2","1","3","1","","0","1","0","880.8049999934155","","","<img src = 'targets/mask.png' width = '100%;'>","75","pos","GS","GSold","3","category3/CS3.png","","targets/9.png","indirect","1","9"
"","html-keyboard-response","163","700375","0.0-10.0-0.10","yyg0o2ft7f","one_one","1","direct_first","1","er05rt26","0","24","2","1","3","1","","0","1","0","null","","","<div style=""font-size:60px;"">+</div>","null","","","","","","","","","",""
"","html-keyboard-response","164","700468","0.0-10.0-1.10","yyg0o2ft7f","one_one","1","direct_first","1","er05rt26","0","24","2","1","3","1","","0","1","0","null","","","<img src = 'category1/CS3.png' width = '100%;'>","null","","","","","","","","","",""
"","html-keyboard-response","165","700732","0.0-10.0-2.10","yyg0o2ft7f","one_one","1","direct_first","1","er05rt26","0","24","2","1","3","1","","0","1","0","null","","","<img src = 'targets/27.png' width = '100%;'>","null","","","","","","","","","",""
"","html-keyboard-response","166","701203","0.0-10.0-3.10","yyg0o2ft7f","one_one","1","direct_first","1","er05rt26","0","24","2","1","3","1","","0","1","0","470.65000000293367","","","<img src = 'targets/mask.png' width = '100%;'>","68","neg","CS","CS","1","category1/CS3.png","","targets/27.png","indirect","0","10"
"","html-keyboard-response","167","702725","0.0-10.0-0.11","yyg0o2ft7f","one_one","1","direct_first","1","er05rt26","0","24","2","1","3","1","","0","1","0","null","","","<div style=""font-size:60px;"">+</div>","null","","","","","","","","","",""
"","html-keyboard-response","168","702819","0.0-10.0-1.11","yyg0o2ft7f","one_one","1","direct_first","1","er05rt26","0","24","2","1","3","1","","0","1","0","null","","","<img src = 'category1/CS2.png' width = '100%;'>","null","","","","","","","","","",""
"","html-keyboard-response","169","703080","0.0-10.0-2.11","yyg0o2ft7f","one_one","1","direct_first","1","er05rt26","0","24","2","1","3","1","","0","1","0","null","","","<img src = 'targets/8.png' width = '100%;'>","null","","","","","","","","","",""
"","html-keyboard-response","170","703547","0.0-10.0-3.11","yyg0o2ft7f","one_one","1","direct_first","1","er05rt26","0","24","2","1","3","1","","0","1","0","465.6200000026729","","","<img src = 'targets/mask.png' width = '100%;'>","68","neg","GS","GSold","1","category1/CS2.png","","targets/8.png","indirect","0","11"
"","html-keyboard-response","171","705059","0.0-10.0-0.12","yyg0o2ft7f","one_one","1","direct_first","1","er05rt26","0","24","2","1","3","1","","0","1","0","null","","","<div style=""font-size:60px;"">+</div>","null","","","","","","","","","",""
"","html-keyboard-response","172","705152","0.0-10.0-1.12","yyg0o2ft7f","one_one","1","direct_first","1","er05rt26","0","24","2","1","3","1","","0","1","0","null","","","<img src = 'category4/CS3.png' width = '100%;'>","null","","","","","","","","","",""
"","html-keyboard-response","173","705415","0.0-10.0-2.12","yyg0o2ft7f","one_one","1","direct_first","1","er05rt26","0","24","2","1","3","1","","0","1","0","null","","","<img src = 'targets/25.png' width = '100%;'>","null","","","","","","","","","",""
"","html-keyboard-response","174","705903","0.0-10.0-3.12","yyg0o2ft7f","one_one","1","direct_first","1","er05rt26","0","24","2","1","3","1","","0","1","0","486.99499998474494","","","<img src = 'targets/mask.png' width = '100%;'>","68","neg","GS","GSold","4","category4/CS3.png","","targets/25.png","indirect","0","12"
"","html-keyboard-response","175","707424","0.0-10.0-0.13","yyg0o2ft7f","one_one","1","direct_first","1","er05rt26","0","24","2","1","3","1","","0","1","0","null","","","<div style=""font-size:60px;"">+</div>","null","","","","","","","","","",""
"","html-keyboard-response","176","707519","0.0-10.0-1.13","yyg0o2ft7f","one_one","1","direct_first","1","er05rt26","0","24","2","1","3","1","","0","1","0","null","","","<img src = 'category2/CS4.png' width = '100%;'>","null","","","","","","","","","",""
"","html-keyboard-response","177","707782","0.0-10.0-2.13","yyg0o2ft7f","one_one","1","direct_first","1","er05rt26","0","24","2","1","3","1","","0","1","0","null","","","<img src = 'targets/20.png' width = '100%;'>","null","","","","","","","","","",""
"","html-keyboard-response","178","708324","0.0-10.0-3.13","yyg0o2ft7f","one_one","1","direct_first","1","er05rt26","0","24","2","1","3","1","","0","1","0","541.5599999832921","","","<img src = 'targets/mask.png' width = '100%;'>","68","pos","GS","GSold","2","category2/CS4.png","","targets/20.png","indirect","0","13"
"","html-keyboard-response","179","709842","0.0-10.0-0.14","yyg0o2ft7f","one_one","1","direct_first","1","er05rt26","0","24","2","1","3","1","","0","1","0","null","","","<div style=""font-size:60px;"">+</div>","null","","","","","","","","","",""
"","html-keyboard-response","180","709935","0.0-10.0-1.14","yyg0o2ft7f","one_one","1","direct_first","1","er05rt26","0","24","2","1","3","1","","0","1","0","null","","","<img src = 'category3/CS7.png' width = '100%;'>","null","","","","","","","","","",""
"","html-keyboard-response","181","710198","0.0-10.0-2.14","yyg0o2ft7f","one_one","1","direct_first","1","er05rt26","0","24","2","1","3","1","","0","1","0","null","","","<img src = 'targets/48.png' width = '100%;'>","null","","","","","","","","","",""
"","html-keyboard-response","182","710740","0.0-10.0-3.14","yyg0o2ft7f","one_one","1","direct_first","1","er05rt26","0","24","2","1","3","1","","0","1","0","541.1449999955948","","","<img src = 'targets/mask.png' width = '100%;'>","75","pos","GS","GSold","3","category3/CS7.png","","targets/48.png","indirect","1","14"
"","html-keyboard-response","183","712257","0.0-10.0-0.15","yyg0o2ft7f","one_one","1","direct_first","1","er05rt26","0","24","2","1","3","1","","0","1","0","null","","","<div style=""font-size:60px;"">+</div>","null","","","","","","","","","",""
"","html-keyboard-response","184","712352","0.0-10.0-1.15","yyg0o2ft7f","one_one","1","direct_first","1","er05rt26","0","24","2","1","3","1","","0","1","0","null","","","<img src = 'category2/CS5.png' width = '100%;'>","null","","","","","","","","","",""
"","html-keyboard-response","185","712615","0.0-10.0-2.15","yyg0o2ft7f","one_one","1","direct_first","1","er05rt26","0","24","2","1","3","1","","0","1","0","null","","","<img src = 'targets/44.png' width = '100%;'>","null","","","","","","","","","",""
"","html-keyboard-response","186","713045","0.0-10.0-3.15","yyg0o2ft7f","one_one","1","direct_first","1","er05rt26","0","24","2","1","3","1","","0","1","0","429.17499999748543","","","<img src = 'targets/mask.png' width = '100%;'>","68","pos","GS","GSold","2","category2/CS5.png","","targets/44.png","indirect","0","15"
"","survey-html-form","187","717518","0.0-11.0","yyg0o2ft7f","one_one","1","direct_first","1","er05rt26","0","24","2","1","3","1","","0","1","0","3960.9549999877345","","{}","","","","","","","","","","","",""
"","html-keyboard-response","188","720525","0.0-12.0-0.0","yyg0o2ft7f","one_one","1","direct_first","1","er05rt26","0","24","2","1","3","1","","0","1","0","null","","","<div style=""font-size:60px;"">+</div>","null","","","","","","","","","",""
"","html-keyboard-response","189","720619","0.0-12.0-1.0","yyg0o2ft7f","one_one","1","direct_first","1","er05rt26","0","24","2","1","3","1","","0","1","0","null","","","<img src = 'category3/GS3.png' width = '100%;'>","null","","","","","","","","","",""
"","html-keyboard-response","190","720882","0.0-12.0-2.0","yyg0o2ft7f","one_one","1","direct_first","1","er05rt26","0","24","2","1","3","1","","0","1","0","null","","","<img src = 'targets/46.png' width = '100%;'>","null","","","","","","","","","",""
"","html-keyboard-response","191","721361","0.0-12.0-3.0","yyg0o2ft7f","one_one","1","direct_first","1","er05rt26","0","24","2","1","3","1","","0","1","0","476.85000000637956","","","<img src = 'targets/mask.png' width = '100%;'>","75","pos","GS","GSnew","3","category3/GS3.png","","targets/46.png","indirect","1","16"
"","html-keyboard-response","192","722890","0.0-12.0-0.1","yyg0o2ft7f","one_one","1","direct_first","1","er05rt26","0","24","2","1","3","1","","0","1","0","null","","","<div style=""font-size:60px;"">+</div>","null","","","","","","","","","",""
"","html-keyboard-response","193","722985","0.0-12.0-1.1","yyg0o2ft7f","one_one","1","direct_first","1","er05rt26","0","24","2","1","3","1","","0","1","0","null","","","<img src = 'category1/GS2.png' width = '100%;'>","null","","","","","","","","","",""
"","html-keyboard-response","194","723248","0.0-12.0-2.1","yyg0o2ft7f","one_one","1","direct_first","1","er05rt26","0","24","2","1","3","1","","0","1","0","null","","","<img src = 'targets/28.png' width = '100%;'>","null","","","","","","","","","",""
"","html-keyboard-response","195","723715","0.0-12.0-3.1","yyg0o2ft7f","one_one","1","direct_first","1","er05rt26","0","24","2","1","3","1","","0","1","0","465.99999998579733","","","<img src = 'targets/mask.png' width = '100%;'>","68","neg","GS","GSnew","1","category1/GS2.png","","targets/28.png","indirect","0","17"
"","html-keyboard-response","196","725225","0.0-12.0-0.2","yyg0o2ft7f","one_one","1","direct_first","1","er05rt26","0","24","2","1","3","1","","0","1","0","null","","","<div style=""font-size:60px;"">+</div>","null","","","","","","","","","",""
"","html-keyboard-response","197","725318","0.0-12.0-1.2","yyg0o2ft7f","one_one","1","direct_first","1","er05rt26","0","24","2","1","3","1","","0","1","0","null","","","<img src = 'category4/GS1.png' width = '100%;'>","null","","","","","","","","","",""
"","html-keyboard-response","198","725582","0.0-12.0-2.2","yyg0o2ft7f","one_one","1","direct_first","1","er05rt26","0","24","2","1","3","1","","0","1","0","null","","","<img src = 'targets/7.png' width = '100%;'>","null","","","","","","","","","",""
"","html-keyboard-response","199","725903","0.0-12.0-3.2","yyg0o2ft7f","one_one","1","direct_first","1","er05rt26","0","24","2","1","3","1","","0","1","0","320.87999998475425","","","<img src = 'targets/mask.png' width = '100%;'>","75","neg","GS","GSnew","4","category4/GS1.png","","targets/7.png","indirect","1","18"
"","html-keyboard-response","200","727424","0.0-12.0-0.3","yyg0o2ft7f","one_one","1","direct_first","1","er05rt26","0","24","2","1","3","1","","0","1","0","null","","","<div style=""font-size:60px;"">+</div>","null","","","","","","","","","",""
"","html-keyboard-response","201","727518","0.0-12.0-1.3","yyg0o2ft7f","one_one","1","direct_first","1","er05rt26","0","24","2","1","3","1","","0","1","0","null","","","<img src = 'category4/GS2.png' width = '100%;'>","null","","","","","","","","","",""
"","html-keyboard-response","202","727781","0.0-12.0-2.3","yyg0o2ft7f","one_one","1","direct_first","1","er05rt26","0","24","2","1","3","1","","0","1","0","null","","","<img src = 'targets/6.png' width = '100%;'>","null","","","","","","","","","",""
"","html-keyboard-response","203","728183","0.0-12.0-3.3","yyg0o2ft7f","one_one","1","direct_first","1","er05rt26","0","24","2","1","3","1","","0","1","0","400.6900000094902","","","<img src = 'targets/mask.png' width = '100%;'>","68","neg","GS","GSnew","4","category4/GS2.png","","targets/6.png","indirect","0","19"
"","html-keyboard-response","204","729691","0.0-12.0-0.4","yyg0o2ft7f","one_one","1","direct_first","1","er05rt26","0","24","2","1","3","1","","0","1","0","null","","","<div style=""font-size:60px;"">+</div>","null","","","","","","","","","",""
"","html-keyboard-response","205","729785","0.0-12.0-1.4","yyg0o2ft7f","one_one","1","direct_first","1","er05rt26","0","24","2","1","3","1","","0","1","0","null","","","<img src = 'category3/GS2.png' width = '100%;'>","null","","","","","","","","","",""
"","html-keyboard-response","206","730048","0.0-12.0-2.4","yyg0o2ft7f","one_one","1","direct_first","1","er05rt26","0","24","2","1","3","1","","0","1","0","null","","","<img src = 'targets/14.png' width = '100%;'>","null","","","","","","","","","",""
"","html-keyboard-response","207","731022","0.0-12.0-3.4","yyg0o2ft7f","one_one","1","direct_first","1","er05rt26","0","24","2","1","3","1","","0","1","0","972.6899999950547","","","<img src = 'targets/mask.png' width = '100%;'>","75","pos","GS","GSnew","3","category3/GS2.png","","targets/14.png","indirect","1","20"
"","html-keyboard-response","208","732540","0.0-12.0-0.5","yyg0o2ft7f","one_one","1","direct_first","1","er05rt26","0","24","2","1","3","1","","0","1","0","null","","","<div style=""font-size:60px;"">+</div>","null","","","","","","","","","",""
"","html-keyboard-response","209","732635","0.0-12.0-1.5","yyg0o2ft7f","one_one","1","direct_first","1","er05rt26","0","24","2","1","3","1","","0","1","0","null","","","<img src = 'category1/GS3.png' width = '100%;'>","null","","","","","","","","","",""
"","html-keyboard-response","210","732898","0.0-12.0-2.5","yyg0o2ft7f","one_one","1","direct_first","1","er05rt26","0","24","2","1","3","1","","0","1","0","null","","","<img src = 'targets/32.png' width = '100%;'>","null","","","","","","","","","",""
"","html-keyboard-response","211","733446","0.0-12.0-3.5","yyg0o2ft7f","one_one","1","direct_first","1","er05rt26","0","24","2","1","3","1","","0","1","0","546.8700000201352","","","<img src = 'targets/mask.png' width = '100%;'>","68","neg","GS","GSnew","1","category1/GS3.png","","targets/32.png","indirect","0","21"
"","html-keyboard-response","212","734958","0.0-12.0-0.6","yyg0o2ft7f","one_one","1","direct_first","1","er05rt26","0","24","2","1","3","1","","0","1","0","null","","","<div style=""font-size:60px;"">+</div>","null","","","","","","","","","",""
"","html-keyboard-response","213","735052","0.0-12.0-1.6","yyg0o2ft7f","one_one","1","direct_first","1","er05rt26","0","24","2","1","3","1","","0","1","0","null","","","<img src = 'category4/GS3.png' width = '100%;'>","null","","","","","","","","","",""
"","html-keyboard-response","214","735315","0.0-12.0-2.6","yyg0o2ft7f","one_one","1","direct_first","1","er05rt26","0","24","2","1","3","1","","0","1","0","null","","","<img src = 'targets/34.png' width = '100%;'>","null","","","","","","","","","",""
"","html-keyboard-response","215","735629","0.0-12.0-3.6","yyg0o2ft7f","one_one","1","direct_first","1","er05rt26","0","24","2","1","3","1","","0","1","0","312.9799999878742","","","<img src = 'targets/mask.png' width = '100%;'>","68","neg","GS","GSnew","4","category4/GS3.png","","targets/34.png","indirect","0","22"
"","html-keyboard-response","216","737140","0.0-12.0-0.7","yyg0o2ft7f","one_one","1","direct_first","1","er05rt26","0","24","2","1","3","1","","0","1","0","null","","","<div style=""font-size:60px;"">+</div>","null","","","","","","","","","",""
"","html-keyboard-response","217","737237","0.0-12.0-1.7","yyg0o2ft7f","one_one","1","direct_first","1","er05rt26","0","24","2","1","3","1","","0","1","0","null","","","<img src = 'category4/lin.png' width = '100%;'>","null","","","","","","","","","",""
"","html-keyboard-response","218","737497","0.0-12.0-2.7","yyg0o2ft7f","one_one","1","direct_first","1","er05rt26","0","24","2","1","3","1","","0","1","0","null","","","<img src = 'targets/13.png' width = '100%;'>","null","","","","","","","","","",""
"","html-keyboard-response","219","738060","0.0-12.0-3.7","yyg0o2ft7f","one_one","1","direct_first","1","er05rt26","0","24","2","1","3","1","","0","1","0","562.1500000124797","","","<img src = 'targets/mask.png' width = '100%;'>","68","neg","GS","abstract","4","category4/lin.png","","targets/13.png","indirect","0","23"
"","html-keyboard-response","220","739589","0.0-12.0-0.8","yyg0o2ft7f","one_one","1","direct_first","1","er05rt26","0","24","2","1","3","1","","0","1","0","null","","","<div style=""font-size:60px;"">+</div>","null","","","","","","","","","",""
"","html-keyboard-response","221","739685","0.0-12.0-1.8","yyg0o2ft7f","one_one","1","direct_first","1","er05rt26","0","24","2","1","3","1","","0","1","0","null","","","<img src = 'category1/ma.png' width = '100%;'>","null","","","","","","","","","",""
"","html-keyboard-response","222","739948","0.0-12.0-2.8","yyg0o2ft7f","one_one","1","direct_first","1","er05rt26","0","24","2","1","3","1","","0","1","0","null","","","<img src = 'targets/4.png' width = '100%;'>","null","","","","","","","","","",""
"","html-keyboard-response","223","740517","0.0-12.0-3.8","yyg0o2ft7f","one_one","1","direct_first","1","er05rt26","0","24","2","1","3","1","","0","1","0","568.9400000264868","","","<img src = 'targets/mask.png' width = '100%;'>","68","neg","GS","abstract","1","category1/ma.png","","targets/4.png","indirect","0","24"
"","html-keyboard-response","224","742024","0.0-12.0-0.9","yyg0o2ft7f","one_one","1","direct_first","1","er05rt26","0","24","2","1","3","1","","0","1","0","null","","","<div style=""font-size:60px;"">+</div>","null","","","","","","","","","",""
"","html-keyboard-response","225","742118","0.0-12.0-1.9","yyg0o2ft7f","one_one","1","direct_first","1","er05rt26","0","24","2","1","3","1","","0","1","0","null","","","<img src = 'category2/GS2.png' width = '100%;'>","null","","","","","","","","","",""
"","html-keyboard-response","226","742381","0.0-12.0-2.9","yyg0o2ft7f","one_one","1","direct_first","1","er05rt26","0","24","2","1","3","1","","0","1","0","null","","","<img src = 'targets/41.png' width = '100%;'>","null","","","","","","","","","",""
"","html-keyboard-response","227","742731","0.0-12.0-3.9","yyg0o2ft7f","one_one","1","direct_first","1","er05rt26","0","24","2","1","3","1","","0","1","0","348.8200000138022","","","<img src = 'targets/mask.png' width = '100%;'>","75","pos","GS","GSnew","2","category2/GS2.png","","targets/41.png","indirect","1","25"
"","html-keyboard-response","228","744241","0.0-12.0-0.10","yyg0o2ft7f","one_one","1","direct_first","1","er05rt26","0","24","2","1","3","1","","0","1","0","null","","","<div style=""font-size:60px;"">+</div>","null","","","","","","","","","",""
"","html-keyboard-response","229","744335","0.0-12.0-1.10","yyg0o2ft7f","one_one","1","direct_first","1","er05rt26","0","24","2","1","3","1","","0","1","0","null","","","<img src = 'category3/wang.png' width = '100%;'>","null","","","","","","","","","",""
"","html-keyboard-response","230","744598","0.0-12.0-2.10","yyg0o2ft7f","one_one","1","direct_first","1","er05rt26","0","24","2","1","3","1","","0","1","0","null","","","<img src = 'targets/10.png' width = '100%;'>","null","","","","","","","","","",""
"","html-keyboard-response","231","745096","0.0-12.0-3.10","yyg0o2ft7f","one_one","1","direct_first","1","er05rt26","0","24","2","1","3","1","","0","1","0","497.1549999900162","","","<img src = 'targets/mask.png' width = '100%;'>","75","pos","GS","abstract","3","category3/wang.png","","targets/10.png","indirect","1","26"
"","html-keyboard-response","232","746617","0.0-12.0-0.11","yyg0o2ft7f","one_one","1","direct_first","1","er05rt26","0","24","2","1","3","1","","0","1","0","null","","","<div style=""font-size:60px;"">+</div>","null","","","","","","","","","",""
"","html-keyboard-response","233","746717","0.0-12.0-1.11","yyg0o2ft7f","one_one","1","direct_first","1","er05rt26","0","24","2","1","3","1","","0","1","0","null","","","<img src = 'category2/GS1.png' width = '100%;'>","null","","","","","","","","","",""
"","html-keyboard-response","234","746981","0.0-12.0-2.11","yyg0o2ft7f","one_one","1","direct_first","1","er05rt26","0","24","2","1","3","1","","0","1","0","null","","","<img src = 'targets/18.png' width = '100%;'>","null","","","","","","","","","",""
"","html-keyboard-response","235","747489","0.0-12.0-3.11","yyg0o2ft7f","one_one","1","direct_first","1","er05rt26","0","24","2","1","3","1","","0","1","0","506.8500000052154","","","<img src = 'targets/mask.png' width = '100%;'>","68","pos","GS","GSnew","2","category2/GS1.png","","targets/18.png","indirect","0","27"
"","html-keyboard-response","236","749007","0.0-12.0-0.12","yyg0o2ft7f","one_one","1","direct_first","1","er05rt26","0","24","2","1","3","1","","0","1","0","null","","","<div style=""font-size:60px;"">+</div>","null","","","","","","","","","",""
"","html-keyboard-response","237","749114","0.0-12.0-1.12","yyg0o2ft7f","one_one","1","direct_first","1","er05rt26","0","24","2","1","3","1","","0","1","0","null","","","<img src = 'category2/men.png' width = '100%;'>","null","","","","","","","","","",""
"","html-keyboard-response","238","749378","0.0-12.0-2.12","yyg0o2ft7f","one_one","1","direct_first","1","er05rt26","0","24","2","1","3","1","","0","1","0","null","","","<img src = 'targets/42.png' width = '100%;'>","null","","","","","","","","","",""
"","html-keyboard-response","239","749424","0.0-12.0-3.12","yyg0o2ft7f","one_one","1","direct_first","1","er05rt26","0","24","2","1","3","1","","0","1","0","44.88999999011867","","","<img src = 'targets/mask.png' width = '100%;'>","68","pos","GS","abstract","2","category2/men.png","","targets/42.png","indirect","0","28"
"","html-keyboard-response","240","750948","0.0-12.0-0.13","yyg0o2ft7f","one_one","1","direct_first","1","er05rt26","0","24","2","1","3","1","","0","1","0","null","","","<div style=""font-size:60px;"">+</div>","null","","","","","","","","","",""
"","html-keyboard-response","241","751047","0.0-12.0-1.13","yyg0o2ft7f","one_one","1","direct_first","1","er05rt26","0","24","2","1","3","1","","0","1","0","null","","","<img src = 'category2/GS3.png' width = '100%;'>","null","","","","","","","","","",""
"","html-keyboard-response","242","751317","0.0-12.0-2.13","yyg0o2ft7f","one_one","1","direct_first","1","er05rt26","0","24","2","1","3","1","","0","1","0","null","","","<img src = 'targets/22.png' width = '100%;'>","null","","","","","","","","","",""
"","html-keyboard-response","243","751876","0.0-12.0-3.13","yyg0o2ft7f","one_one","1","direct_first","1","er05rt26","0","24","2","1","3","1","","0","1","0","558.0400000035297","","","<img src = 'targets/mask.png' width = '100%;'>","68","pos","GS","GSnew","2","category2/GS3.png","","targets/22.png","indirect","0","29"
"","html-keyboard-response","244","753387","0.0-12.0-0.14","yyg0o2ft7f","one_one","1","direct_first","1","er05rt26","0","24","2","1","3","1","","0","1","0","null","","","<div style=""font-size:60px;"">+</div>","null","","","","","","","","","",""
"","html-keyboard-response","245","753480","0.0-12.0-1.14","yyg0o2ft7f","one_one","1","direct_first","1","er05rt26","0","24","2","1","3","1","","0","1","0","null","","","<img src = 'category3/GS1.png' width = '100%;'>","null","","","","","","","","","",""
"","html-keyboard-response","246","753744","0.0-12.0-2.14","yyg0o2ft7f","one_one","1","direct_first","1","er05rt26","0","24","2","1","3","1","","0","1","0","null","","","<img src = 'targets/24.png' width = '100%;'>","null","","","","","","","","","",""
"","html-keyboard-response","247","754252","0.0-12.0-3.14","yyg0o2ft7f","one_one","1","direct_first","1","er05rt26","0","24","2","1","3","1","","0","1","0","507.3149999952875","","","<img src = 'targets/mask.png' width = '100%;'>","75","pos","GS","GSnew","3","category3/GS1.png","","targets/24.png","indirect","1","30"
"","html-keyboard-response","248","755769","0.0-12.0-0.15","yyg0o2ft7f","one_one","1","direct_first","1","er05rt26","0","24","2","1","3","1","","0","1","0","null","","","<div style=""font-size:60px;"">+</div>","null","","","","","","","","","",""
"","html-keyboard-response","249","755864","0.0-12.0-1.15","yyg0o2ft7f","one_one","1","direct_first","1","er05rt26","0","24","2","1","3","1","","0","1","0","null","","","<img src = 'category1/GS1.png' width = '100%;'>","null","","","","","","","","","",""
"","html-keyboard-response","250","756144","0.0-12.0-2.15","yyg0o2ft7f","one_one","1","direct_first","1","er05rt26","0","24","2","1","3","1","","0","1","0","null","","","<img src = 'targets/12.png' width = '100%;'>","null","","","","","","","","","",""
"","html-keyboard-response","251","756549","0.0-12.0-3.15","yyg0o2ft7f","one_one","1","direct_first","1","er05rt26","0","24","2","1","3","1","","0","1","0","404.55999999539927","","","<img src = 'targets/mask.png' width = '100%;'>","68","neg","GS","GSnew","1","category1/GS1.png","","targets/12.png","indirect","0","31"
"","survey-html-form","252","761869","0.0-13.0","yyg0o2ft7f","one_one","1","direct_first","1","er05rt26","0","24","2","1","3","1","","0","1","0","4814.500000007683","","{}","","","","","","","","","","","",""
"","image-slider-response","253","768848","0.0-14.0-0.0","yyg0o2ft7f","one_one","1","direct_first","1","er05rt26","0","24","2","1","3","1","","0","1","0","5976.120000006631","","","","","neg","All","all","4","category4/lin_all.png","63","","all","",""
"","image-slider-response","254","773997","0.0-14.0-0.1","yyg0o2ft7f","one_one","1","direct_first","1","er05rt26","0","24","2","1","3","1","","0","1","0","5146.710000000894","","","","","neg","All","all","1","category1/ma_all.png","-60","","all","",""
"","image-slider-response","255","781056","0.0-14.0-0.2","yyg0o2ft7f","one_one","1","direct_first","1","er05rt26","0","24","2","1","3","1","","0","1","0","7057.549999997718","","","","","pos","All","all","2","category2/men_all.png","-64","","all","",""
"","image-slider-response","256","785561","0.0-14.0-0.3","yyg0o2ft7f","one_one","1","direct_first","1","er05rt26","0","24","2","1","3","1","","0","1","0","4503.469999996014","","","","","pos","All","all","3","category3/wang_all.png","95","","all","",""
"","survey-text","257","790607","0.0-15.0","yyg0o2ft7f","one_one","1","direct_first","1","er05rt26","0","24","2","1","3","1","","0","1","0","5021.364999993239","","{""comment"":""""}","","","","","","","","","","","",""
"","survey-html-form","258","807160","0.0-16.0","yyg0o2ft7f","one_one","1","direct_first","1","er05rt26","0","24","2","1","3","1","","0","1","0","16551.25499999849","","{""hinschauen"":""0"",""ablenkung"":""1"",""gewissenhaft"":""0""}","","","","","","","","","","","",""
