"success","trial_type","trial_index","time_elapsed","internal_node_id","subject","condition","condition_code","measure","measure_code","codeword","gender","age","education","chinese","fach","handedness","comment","hinschauen","ablenkung","gewissenhaft","rt","url","responses","stimulus","key_press","val","type","type_specific","category","cs_selected","target","indirect","task","nr_pres","response"
"true","fullscreen","0","4459","0.0-0.0","ptkozk10jy","one_one","1","indirect_first","0","el08ng09","0","22","1","1","3","1","Ich empfand die Teilnahme als sehr angenehm. Ich habe versucht mich wirklich sehr auf meine Intuition zu verlassen und ohne groß nachzudenken eine Reaktion auf die gezeigten Zeichen zu finden. Mit chinesischer Schriftsprache kenne ich mich wirklich gar nicht aus. Man hat in den letzte Aufgaben einige Zeichen auch wiedererkannt (z.B. Baby, Astronaut, weinendes Baby). Es fiel mir bei dieser Aufgabe dann schon schwerer rein auf meine Intuition zu hören, da man eben direkt ein Bild zu dem Zeichen vor Augen hatte. Auf jeden Fall war es sehr spannend und hat Spaß gemacht. ","0","1","0","","","","","","","","","","","","","","",""
"","external-html","1","8437","0.0-1.0","ptkozk10jy","one_one","1","indirect_first","0","el08ng09","0","22","1","1","3","1","Ich empfand die Teilnahme als sehr angenehm. Ich habe versucht mich wirklich sehr auf meine Intuition zu verlassen und ohne groß nachzudenken eine Reaktion auf die gezeigten Zeichen zu finden. Mit chinesischer Schriftsprache kenne ich mich wirklich gar nicht aus. Man hat in den letzte Aufgaben einige Zeichen auch wiedererkannt (z.B. Baby, Astronaut, weinendes Baby). Es fiel mir bei dieser Aufgabe dann schon schwerer rein auf meine Intuition zu hören, da man eben direkt ein Bild zu dem Zeichen vor Augen hatte. Auf jeden Fall war es sehr spannend und hat Spaß gemacht. ","0","1","0","3927.9350000433624","text/information.html","","","","","","","","","","","","",""
"","external-html","2","15933","0.0-2.0","ptkozk10jy","one_one","1","indirect_first","0","el08ng09","0","22","1","1","3","1","Ich empfand die Teilnahme als sehr angenehm. Ich habe versucht mich wirklich sehr auf meine Intuition zu verlassen und ohne groß nachzudenken eine Reaktion auf die gezeigten Zeichen zu finden. Mit chinesischer Schriftsprache kenne ich mich wirklich gar nicht aus. Man hat in den letzte Aufgaben einige Zeichen auch wiedererkannt (z.B. Baby, Astronaut, weinendes Baby). Es fiel mir bei dieser Aufgabe dann schon schwerer rein auf meine Intuition zu hören, da man eben direkt ein Bild zu dem Zeichen vor Augen hatte. Auf jeden Fall war es sehr spannend und hat Spaß gemacht. ","0","1","0","7469.825000036508","text/consent.html","","","","","","","","","","","","",""
"","survey-html-form","3","55945","0.0-3.0","ptkozk10jy","one_one","1","indirect_first","0","el08ng09","0","22","1","1","3","1","Ich empfand die Teilnahme als sehr angenehm. Ich habe versucht mich wirklich sehr auf meine Intuition zu verlassen und ohne groß nachzudenken eine Reaktion auf die gezeigten Zeichen zu finden. Mit chinesischer Schriftsprache kenne ich mich wirklich gar nicht aus. Man hat in den letzte Aufgaben einige Zeichen auch wiedererkannt (z.B. Baby, Astronaut, weinendes Baby). Es fiel mir bei dieser Aufgabe dann schon schwerer rein auf meine Intuition zu hören, da man eben direkt ein Bild zu dem Zeichen vor Augen hatte. Auf jeden Fall war es sehr spannend und hat Spaß gemacht. ","0","1","0","40009.30000003427","","{""codeword_enter"":""el08ng09""}","","","","","","","","","","","",""
"","survey-html-form","4","76067","0.0-4.0","ptkozk10jy","one_one","1","indirect_first","0","el08ng09","0","22","1","1","3","1","Ich empfand die Teilnahme als sehr angenehm. Ich habe versucht mich wirklich sehr auf meine Intuition zu verlassen und ohne groß nachzudenken eine Reaktion auf die gezeigten Zeichen zu finden. Mit chinesischer Schriftsprache kenne ich mich wirklich gar nicht aus. Man hat in den letzte Aufgaben einige Zeichen auch wiedererkannt (z.B. Baby, Astronaut, weinendes Baby). Es fiel mir bei dieser Aufgabe dann schon schwerer rein auf meine Intuition zu hören, da man eben direkt ein Bild zu dem Zeichen vor Augen hatte. Auf jeden Fall war es sehr spannend und hat Spaß gemacht. ","0","1","0","20119.505000067875","","{""age"":""22"",""education"":""1"",""subject"":""3"",""gender"":""0"",""handedness"":""1"",""chinese"":""1""}","","","","","","","","","","","",""
"","survey-html-form","5","77854","0.0-5.0","ptkozk10jy","one_one","1","indirect_first","0","el08ng09","0","22","1","1","3","1","Ich empfand die Teilnahme als sehr angenehm. Ich habe versucht mich wirklich sehr auf meine Intuition zu verlassen und ohne groß nachzudenken eine Reaktion auf die gezeigten Zeichen zu finden. Mit chinesischer Schriftsprache kenne ich mich wirklich gar nicht aus. Man hat in den letzte Aufgaben einige Zeichen auch wiedererkannt (z.B. Baby, Astronaut, weinendes Baby). Es fiel mir bei dieser Aufgabe dann schon schwerer rein auf meine Intuition zu hören, da man eben direkt ein Bild zu dem Zeichen vor Augen hatte. Auf jeden Fall war es sehr spannend und hat Spaß gemacht. ","0","1","0","1785.4950001928955","","{}","","","","","","","","","","","",""
"","html-keyboard-response","6","81883","0.0-6.0-0.0-0.0","ptkozk10jy","one_one","1","indirect_first","0","el08ng09","0","22","1","1","3","1","Ich empfand die Teilnahme als sehr angenehm. Ich habe versucht mich wirklich sehr auf meine Intuition zu verlassen und ohne groß nachzudenken eine Reaktion auf die gezeigten Zeichen zu finden. Mit chinesischer Schriftsprache kenne ich mich wirklich gar nicht aus. Man hat in den letzte Aufgaben einige Zeichen auch wiedererkannt (z.B. Baby, Astronaut, weinendes Baby). Es fiel mir bei dieser Aufgabe dann schon schwerer rein auf meine Intuition zu hören, da man eben direkt ein Bild zu dem Zeichen vor Augen hatte. Auf jeden Fall war es sehr spannend und hat Spaß gemacht. ","0","1","0","null","","","<div class = 'row'><div class = 'column'><img src = 'uspos/2058.bmp' width = '100%;'></div><div class = 'column'><img src = 'category2/CS6.png' width = '70%;'></div></div>","null","pos","CS","CS","2","category2/CS6.png","","","","",""
"","html-keyboard-response","7","84401","0.0-6.0-0.0-0.1","ptkozk10jy","one_one","1","indirect_first","0","el08ng09","0","22","1","1","3","1","Ich empfand die Teilnahme als sehr angenehm. Ich habe versucht mich wirklich sehr auf meine Intuition zu verlassen und ohne groß nachzudenken eine Reaktion auf die gezeigten Zeichen zu finden. Mit chinesischer Schriftsprache kenne ich mich wirklich gar nicht aus. Man hat in den letzte Aufgaben einige Zeichen auch wiedererkannt (z.B. Baby, Astronaut, weinendes Baby). Es fiel mir bei dieser Aufgabe dann schon schwerer rein auf meine Intuition zu hören, da man eben direkt ein Bild zu dem Zeichen vor Augen hatte. Auf jeden Fall war es sehr spannend und hat Spaß gemacht. ","0","1","0","null","","","<div class = 'row'><div class = 'column'><img src = 'category3/CS2.png' width = '70%;'></div><div class = 'column'><img src = 'usneg/6020.bmp' width = '100%;'></div></div>","null","neg","CS","CS","3","category3/CS2.png","","","","",""
"","html-keyboard-response","8","86916","0.0-6.0-0.0-0.2","ptkozk10jy","one_one","1","indirect_first","0","el08ng09","0","22","1","1","3","1","Ich empfand die Teilnahme als sehr angenehm. Ich habe versucht mich wirklich sehr auf meine Intuition zu verlassen und ohne groß nachzudenken eine Reaktion auf die gezeigten Zeichen zu finden. Mit chinesischer Schriftsprache kenne ich mich wirklich gar nicht aus. Man hat in den letzte Aufgaben einige Zeichen auch wiedererkannt (z.B. Baby, Astronaut, weinendes Baby). Es fiel mir bei dieser Aufgabe dann schon schwerer rein auf meine Intuition zu hören, da man eben direkt ein Bild zu dem Zeichen vor Augen hatte. Auf jeden Fall war es sehr spannend und hat Spaß gemacht. ","0","1","0","null","","","<div class = 'row'><div class = 'column'><img src = 'uspos/5470.bmp' width = '100%;'></div><div class = 'column'><img src = 'category1/CS6.png' width = '70%;'></div></div>","null","pos","CS","CS","1","category1/CS6.png","","","","",""
"","html-keyboard-response","9","89435","0.0-6.0-0.0-0.3","ptkozk10jy","one_one","1","indirect_first","0","el08ng09","0","22","1","1","3","1","Ich empfand die Teilnahme als sehr angenehm. Ich habe versucht mich wirklich sehr auf meine Intuition zu verlassen und ohne groß nachzudenken eine Reaktion auf die gezeigten Zeichen zu finden. Mit chinesischer Schriftsprache kenne ich mich wirklich gar nicht aus. Man hat in den letzte Aufgaben einige Zeichen auch wiedererkannt (z.B. Baby, Astronaut, weinendes Baby). Es fiel mir bei dieser Aufgabe dann schon schwerer rein auf meine Intuition zu hören, da man eben direkt ein Bild zu dem Zeichen vor Augen hatte. Auf jeden Fall war es sehr spannend und hat Spaß gemacht. ","0","1","0","null","","","<div class = 'row'><div class = 'column'><img src = 'usneg/6020.bmp' width = '100%;'></div><div class = 'column'><img src = 'category3/CS2.png' width = '70%;'></div></div>","null","neg","CS","CS","3","category3/CS2.png","","","","",""
"","html-keyboard-response","10","91947","0.0-6.0-0.0-0.4","ptkozk10jy","one_one","1","indirect_first","0","el08ng09","0","22","1","1","3","1","Ich empfand die Teilnahme als sehr angenehm. Ich habe versucht mich wirklich sehr auf meine Intuition zu verlassen und ohne groß nachzudenken eine Reaktion auf die gezeigten Zeichen zu finden. Mit chinesischer Schriftsprache kenne ich mich wirklich gar nicht aus. Man hat in den letzte Aufgaben einige Zeichen auch wiedererkannt (z.B. Baby, Astronaut, weinendes Baby). Es fiel mir bei dieser Aufgabe dann schon schwerer rein auf meine Intuition zu hören, da man eben direkt ein Bild zu dem Zeichen vor Augen hatte. Auf jeden Fall war es sehr spannend und hat Spaß gemacht. ","0","1","0","null","","","<div class = 'row'><div class = 'column'><img src = 'usneg/3300.bmp' width = '100%;'></div><div class = 'column'><img src = 'category4/CS2.png' width = '70%;'></div></div>","null","neg","CS","CS","4","category4/CS2.png","","","","",""
"","html-keyboard-response","11","94457","0.0-6.0-0.0-0.5","ptkozk10jy","one_one","1","indirect_first","0","el08ng09","0","22","1","1","3","1","Ich empfand die Teilnahme als sehr angenehm. Ich habe versucht mich wirklich sehr auf meine Intuition zu verlassen und ohne groß nachzudenken eine Reaktion auf die gezeigten Zeichen zu finden. Mit chinesischer Schriftsprache kenne ich mich wirklich gar nicht aus. Man hat in den letzte Aufgaben einige Zeichen auch wiedererkannt (z.B. Baby, Astronaut, weinendes Baby). Es fiel mir bei dieser Aufgabe dann schon schwerer rein auf meine Intuition zu hören, da man eben direkt ein Bild zu dem Zeichen vor Augen hatte. Auf jeden Fall war es sehr spannend und hat Spaß gemacht. ","0","1","0","null","","","<div class = 'row'><div class = 'column'><img src = 'uspos/2058.bmp' width = '100%;'></div><div class = 'column'><img src = 'category2/CS6.png' width = '70%;'></div></div>","null","pos","CS","CS","2","category2/CS6.png","","","","",""
"","html-keyboard-response","12","96966","0.0-6.0-0.0-0.6","ptkozk10jy","one_one","1","indirect_first","0","el08ng09","0","22","1","1","3","1","Ich empfand die Teilnahme als sehr angenehm. Ich habe versucht mich wirklich sehr auf meine Intuition zu verlassen und ohne groß nachzudenken eine Reaktion auf die gezeigten Zeichen zu finden. Mit chinesischer Schriftsprache kenne ich mich wirklich gar nicht aus. Man hat in den letzte Aufgaben einige Zeichen auch wiedererkannt (z.B. Baby, Astronaut, weinendes Baby). Es fiel mir bei dieser Aufgabe dann schon schwerer rein auf meine Intuition zu hören, da man eben direkt ein Bild zu dem Zeichen vor Augen hatte. Auf jeden Fall war es sehr spannend und hat Spaß gemacht. ","0","1","0","null","","","<div class = 'row'><div class = 'column'><img src = 'usneg/3300.bmp' width = '100%;'></div><div class = 'column'><img src = 'category4/CS2.png' width = '70%;'></div></div>","null","neg","CS","CS","4","category4/CS2.png","","","","",""
"","html-keyboard-response","13","99486","0.0-6.0-0.0-0.7","ptkozk10jy","one_one","1","indirect_first","0","el08ng09","0","22","1","1","3","1","Ich empfand die Teilnahme als sehr angenehm. Ich habe versucht mich wirklich sehr auf meine Intuition zu verlassen und ohne groß nachzudenken eine Reaktion auf die gezeigten Zeichen zu finden. Mit chinesischer Schriftsprache kenne ich mich wirklich gar nicht aus. Man hat in den letzte Aufgaben einige Zeichen auch wiedererkannt (z.B. Baby, Astronaut, weinendes Baby). Es fiel mir bei dieser Aufgabe dann schon schwerer rein auf meine Intuition zu hören, da man eben direkt ein Bild zu dem Zeichen vor Augen hatte. Auf jeden Fall war es sehr spannend und hat Spaß gemacht. ","0","1","0","null","","","<div class = 'row'><div class = 'column'><img src = 'category3/CS2.png' width = '70%;'></div><div class = 'column'><img src = 'usneg/6020.bmp' width = '100%;'></div></div>","null","neg","CS","CS","3","category3/CS2.png","","","","",""
"","html-keyboard-response","14","102005","0.0-6.0-0.0-0.8","ptkozk10jy","one_one","1","indirect_first","0","el08ng09","0","22","1","1","3","1","Ich empfand die Teilnahme als sehr angenehm. Ich habe versucht mich wirklich sehr auf meine Intuition zu verlassen und ohne groß nachzudenken eine Reaktion auf die gezeigten Zeichen zu finden. Mit chinesischer Schriftsprache kenne ich mich wirklich gar nicht aus. Man hat in den letzte Aufgaben einige Zeichen auch wiedererkannt (z.B. Baby, Astronaut, weinendes Baby). Es fiel mir bei dieser Aufgabe dann schon schwerer rein auf meine Intuition zu hören, da man eben direkt ein Bild zu dem Zeichen vor Augen hatte. Auf jeden Fall war es sehr spannend und hat Spaß gemacht. ","0","1","0","null","","","<div class = 'row'><div class = 'column'><img src = 'uspos/2058.bmp' width = '100%;'></div><div class = 'column'><img src = 'category2/CS6.png' width = '70%;'></div></div>","null","pos","CS","CS","2","category2/CS6.png","","","","",""
"","html-keyboard-response","15","104529","0.0-6.0-0.0-0.9","ptkozk10jy","one_one","1","indirect_first","0","el08ng09","0","22","1","1","3","1","Ich empfand die Teilnahme als sehr angenehm. Ich habe versucht mich wirklich sehr auf meine Intuition zu verlassen und ohne groß nachzudenken eine Reaktion auf die gezeigten Zeichen zu finden. Mit chinesischer Schriftsprache kenne ich mich wirklich gar nicht aus. Man hat in den letzte Aufgaben einige Zeichen auch wiedererkannt (z.B. Baby, Astronaut, weinendes Baby). Es fiel mir bei dieser Aufgabe dann schon schwerer rein auf meine Intuition zu hören, da man eben direkt ein Bild zu dem Zeichen vor Augen hatte. Auf jeden Fall war es sehr spannend und hat Spaß gemacht. ","0","1","0","null","","","<div class = 'row'><div class = 'column'><img src = 'category4/CS2.png' width = '70%;'></div><div class = 'column'><img src = 'usneg/3300.bmp' width = '100%;'></div></div>","null","neg","CS","CS","4","category4/CS2.png","","","","",""
"","html-keyboard-response","16","107043","0.0-6.0-0.0-0.10","ptkozk10jy","one_one","1","indirect_first","0","el08ng09","0","22","1","1","3","1","Ich empfand die Teilnahme als sehr angenehm. Ich habe versucht mich wirklich sehr auf meine Intuition zu verlassen und ohne groß nachzudenken eine Reaktion auf die gezeigten Zeichen zu finden. Mit chinesischer Schriftsprache kenne ich mich wirklich gar nicht aus. Man hat in den letzte Aufgaben einige Zeichen auch wiedererkannt (z.B. Baby, Astronaut, weinendes Baby). Es fiel mir bei dieser Aufgabe dann schon schwerer rein auf meine Intuition zu hören, da man eben direkt ein Bild zu dem Zeichen vor Augen hatte. Auf jeden Fall war es sehr spannend und hat Spaß gemacht. ","0","1","0","null","","","<div class = 'row'><div class = 'column'><img src = 'uspos/5470.bmp' width = '100%;'></div><div class = 'column'><img src = 'category1/CS6.png' width = '70%;'></div></div>","null","pos","CS","CS","1","category1/CS6.png","","","","",""
"","html-keyboard-response","17","109557","0.0-6.0-0.0-0.11","ptkozk10jy","one_one","1","indirect_first","0","el08ng09","0","22","1","1","3","1","Ich empfand die Teilnahme als sehr angenehm. Ich habe versucht mich wirklich sehr auf meine Intuition zu verlassen und ohne groß nachzudenken eine Reaktion auf die gezeigten Zeichen zu finden. Mit chinesischer Schriftsprache kenne ich mich wirklich gar nicht aus. Man hat in den letzte Aufgaben einige Zeichen auch wiedererkannt (z.B. Baby, Astronaut, weinendes Baby). Es fiel mir bei dieser Aufgabe dann schon schwerer rein auf meine Intuition zu hören, da man eben direkt ein Bild zu dem Zeichen vor Augen hatte. Auf jeden Fall war es sehr spannend und hat Spaß gemacht. ","0","1","0","null","","","<div class = 'row'><div class = 'column'><img src = 'usneg/6020.bmp' width = '100%;'></div><div class = 'column'><img src = 'category3/CS2.png' width = '70%;'></div></div>","null","neg","CS","CS","3","category3/CS2.png","","","","",""
"","html-keyboard-response","18","112068","0.0-6.0-0.0-0.12","ptkozk10jy","one_one","1","indirect_first","0","el08ng09","0","22","1","1","3","1","Ich empfand die Teilnahme als sehr angenehm. Ich habe versucht mich wirklich sehr auf meine Intuition zu verlassen und ohne groß nachzudenken eine Reaktion auf die gezeigten Zeichen zu finden. Mit chinesischer Schriftsprache kenne ich mich wirklich gar nicht aus. Man hat in den letzte Aufgaben einige Zeichen auch wiedererkannt (z.B. Baby, Astronaut, weinendes Baby). Es fiel mir bei dieser Aufgabe dann schon schwerer rein auf meine Intuition zu hören, da man eben direkt ein Bild zu dem Zeichen vor Augen hatte. Auf jeden Fall war es sehr spannend und hat Spaß gemacht. ","0","1","0","null","","","<div class = 'row'><div class = 'column'><img src = 'usneg/3300.bmp' width = '100%;'></div><div class = 'column'><img src = 'category4/CS2.png' width = '70%;'></div></div>","null","neg","CS","CS","4","category4/CS2.png","","","","",""
"","html-keyboard-response","19","114586","0.0-6.0-0.0-0.13","ptkozk10jy","one_one","1","indirect_first","0","el08ng09","0","22","1","1","3","1","Ich empfand die Teilnahme als sehr angenehm. Ich habe versucht mich wirklich sehr auf meine Intuition zu verlassen und ohne groß nachzudenken eine Reaktion auf die gezeigten Zeichen zu finden. Mit chinesischer Schriftsprache kenne ich mich wirklich gar nicht aus. Man hat in den letzte Aufgaben einige Zeichen auch wiedererkannt (z.B. Baby, Astronaut, weinendes Baby). Es fiel mir bei dieser Aufgabe dann schon schwerer rein auf meine Intuition zu hören, da man eben direkt ein Bild zu dem Zeichen vor Augen hatte. Auf jeden Fall war es sehr spannend und hat Spaß gemacht. ","0","1","0","null","","","<div class = 'row'><div class = 'column'><img src = 'usneg/6020.bmp' width = '100%;'></div><div class = 'column'><img src = 'category3/CS2.png' width = '70%;'></div></div>","null","neg","CS","CS","3","category3/CS2.png","","","","",""
"","html-keyboard-response","20","117112","0.0-6.0-0.0-0.14","ptkozk10jy","one_one","1","indirect_first","0","el08ng09","0","22","1","1","3","1","Ich empfand die Teilnahme als sehr angenehm. Ich habe versucht mich wirklich sehr auf meine Intuition zu verlassen und ohne groß nachzudenken eine Reaktion auf die gezeigten Zeichen zu finden. Mit chinesischer Schriftsprache kenne ich mich wirklich gar nicht aus. Man hat in den letzte Aufgaben einige Zeichen auch wiedererkannt (z.B. Baby, Astronaut, weinendes Baby). Es fiel mir bei dieser Aufgabe dann schon schwerer rein auf meine Intuition zu hören, da man eben direkt ein Bild zu dem Zeichen vor Augen hatte. Auf jeden Fall war es sehr spannend und hat Spaß gemacht. ","0","1","0","null","","","<div class = 'row'><div class = 'column'><img src = 'uspos/5470.bmp' width = '100%;'></div><div class = 'column'><img src = 'category1/CS6.png' width = '70%;'></div></div>","null","pos","CS","CS","1","category1/CS6.png","","","","",""
"","html-keyboard-response","21","119619","0.0-6.0-0.0-0.15","ptkozk10jy","one_one","1","indirect_first","0","el08ng09","0","22","1","1","3","1","Ich empfand die Teilnahme als sehr angenehm. Ich habe versucht mich wirklich sehr auf meine Intuition zu verlassen und ohne groß nachzudenken eine Reaktion auf die gezeigten Zeichen zu finden. Mit chinesischer Schriftsprache kenne ich mich wirklich gar nicht aus. Man hat in den letzte Aufgaben einige Zeichen auch wiedererkannt (z.B. Baby, Astronaut, weinendes Baby). Es fiel mir bei dieser Aufgabe dann schon schwerer rein auf meine Intuition zu hören, da man eben direkt ein Bild zu dem Zeichen vor Augen hatte. Auf jeden Fall war es sehr spannend und hat Spaß gemacht. ","0","1","0","null","","","<div class = 'row'><div class = 'column'><img src = 'category4/CS2.png' width = '70%;'></div><div class = 'column'><img src = 'usneg/3300.bmp' width = '100%;'></div></div>","null","neg","CS","CS","4","category4/CS2.png","","","","",""
"","html-keyboard-response","22","122131","0.0-6.0-0.0-0.16","ptkozk10jy","one_one","1","indirect_first","0","el08ng09","0","22","1","1","3","1","Ich empfand die Teilnahme als sehr angenehm. Ich habe versucht mich wirklich sehr auf meine Intuition zu verlassen und ohne groß nachzudenken eine Reaktion auf die gezeigten Zeichen zu finden. Mit chinesischer Schriftsprache kenne ich mich wirklich gar nicht aus. Man hat in den letzte Aufgaben einige Zeichen auch wiedererkannt (z.B. Baby, Astronaut, weinendes Baby). Es fiel mir bei dieser Aufgabe dann schon schwerer rein auf meine Intuition zu hören, da man eben direkt ein Bild zu dem Zeichen vor Augen hatte. Auf jeden Fall war es sehr spannend und hat Spaß gemacht. ","0","1","0","null","","","<div class = 'row'><div class = 'column'><img src = 'uspos/2058.bmp' width = '100%;'></div><div class = 'column'><img src = 'category2/CS6.png' width = '70%;'></div></div>","null","pos","CS","CS","2","category2/CS6.png","","","","",""
"","html-keyboard-response","23","124648","0.0-6.0-0.0-0.17","ptkozk10jy","one_one","1","indirect_first","0","el08ng09","0","22","1","1","3","1","Ich empfand die Teilnahme als sehr angenehm. Ich habe versucht mich wirklich sehr auf meine Intuition zu verlassen und ohne groß nachzudenken eine Reaktion auf die gezeigten Zeichen zu finden. Mit chinesischer Schriftsprache kenne ich mich wirklich gar nicht aus. Man hat in den letzte Aufgaben einige Zeichen auch wiedererkannt (z.B. Baby, Astronaut, weinendes Baby). Es fiel mir bei dieser Aufgabe dann schon schwerer rein auf meine Intuition zu hören, da man eben direkt ein Bild zu dem Zeichen vor Augen hatte. Auf jeden Fall war es sehr spannend und hat Spaß gemacht. ","0","1","0","null","","","<div class = 'row'><div class = 'column'><img src = 'category1/CS6.png' width = '70%;'></div><div class = 'column'><img src = 'uspos/5470.bmp' width = '100%;'></div></div>","null","pos","CS","CS","1","category1/CS6.png","","","","",""
"","html-keyboard-response","24","127165","0.0-6.0-0.0-0.18","ptkozk10jy","one_one","1","indirect_first","0","el08ng09","0","22","1","1","3","1","Ich empfand die Teilnahme als sehr angenehm. Ich habe versucht mich wirklich sehr auf meine Intuition zu verlassen und ohne groß nachzudenken eine Reaktion auf die gezeigten Zeichen zu finden. Mit chinesischer Schriftsprache kenne ich mich wirklich gar nicht aus. Man hat in den letzte Aufgaben einige Zeichen auch wiedererkannt (z.B. Baby, Astronaut, weinendes Baby). Es fiel mir bei dieser Aufgabe dann schon schwerer rein auf meine Intuition zu hören, da man eben direkt ein Bild zu dem Zeichen vor Augen hatte. Auf jeden Fall war es sehr spannend und hat Spaß gemacht. ","0","1","0","null","","","<div class = 'row'><div class = 'column'><img src = 'category2/CS6.png' width = '70%;'></div><div class = 'column'><img src = 'uspos/2058.bmp' width = '100%;'></div></div>","null","pos","CS","CS","2","category2/CS6.png","","","","",""
"","html-keyboard-response","25","129675","0.0-6.0-0.0-0.19","ptkozk10jy","one_one","1","indirect_first","0","el08ng09","0","22","1","1","3","1","Ich empfand die Teilnahme als sehr angenehm. Ich habe versucht mich wirklich sehr auf meine Intuition zu verlassen und ohne groß nachzudenken eine Reaktion auf die gezeigten Zeichen zu finden. Mit chinesischer Schriftsprache kenne ich mich wirklich gar nicht aus. Man hat in den letzte Aufgaben einige Zeichen auch wiedererkannt (z.B. Baby, Astronaut, weinendes Baby). Es fiel mir bei dieser Aufgabe dann schon schwerer rein auf meine Intuition zu hören, da man eben direkt ein Bild zu dem Zeichen vor Augen hatte. Auf jeden Fall war es sehr spannend und hat Spaß gemacht. ","0","1","0","null","","","<div class = 'row'><div class = 'column'><img src = 'category1/CS6.png' width = '70%;'></div><div class = 'column'><img src = 'uspos/5470.bmp' width = '100%;'></div></div>","null","pos","CS","CS","1","category1/CS6.png","","","","",""
"","survey-html-form","26","132363","0.0-6.0-1.0","ptkozk10jy","one_one","1","indirect_first","0","el08ng09","0","22","1","1","3","1","Ich empfand die Teilnahme als sehr angenehm. Ich habe versucht mich wirklich sehr auf meine Intuition zu verlassen und ohne groß nachzudenken eine Reaktion auf die gezeigten Zeichen zu finden. Mit chinesischer Schriftsprache kenne ich mich wirklich gar nicht aus. Man hat in den letzte Aufgaben einige Zeichen auch wiedererkannt (z.B. Baby, Astronaut, weinendes Baby). Es fiel mir bei dieser Aufgabe dann schon schwerer rein auf meine Intuition zu hören, da man eben direkt ein Bild zu dem Zeichen vor Augen hatte. Auf jeden Fall war es sehr spannend und hat Spaß gemacht. ","0","1","0","2184.6000000368804","","{}","","","","","","","","","","","",""
"","html-keyboard-response","27","136385","0.0-6.0-2.0-0.0","ptkozk10jy","one_one","1","indirect_first","0","el08ng09","0","22","1","1","3","1","Ich empfand die Teilnahme als sehr angenehm. Ich habe versucht mich wirklich sehr auf meine Intuition zu verlassen und ohne groß nachzudenken eine Reaktion auf die gezeigten Zeichen zu finden. Mit chinesischer Schriftsprache kenne ich mich wirklich gar nicht aus. Man hat in den letzte Aufgaben einige Zeichen auch wiedererkannt (z.B. Baby, Astronaut, weinendes Baby). Es fiel mir bei dieser Aufgabe dann schon schwerer rein auf meine Intuition zu hören, da man eben direkt ein Bild zu dem Zeichen vor Augen hatte. Auf jeden Fall war es sehr spannend und hat Spaß gemacht. ","0","1","0","null","","","<div class = 'row'><div class = 'column'><img src = 'uspos/2058.bmp' width = '100%;'></div><div class = 'column'><img src = 'category2/CS6.png' width = '70%;'></div></div>","null","pos","CS","CS","2","category2/CS6.png","","","","",""
"","html-keyboard-response","28","138897","0.0-6.0-2.0-0.1","ptkozk10jy","one_one","1","indirect_first","0","el08ng09","0","22","1","1","3","1","Ich empfand die Teilnahme als sehr angenehm. Ich habe versucht mich wirklich sehr auf meine Intuition zu verlassen und ohne groß nachzudenken eine Reaktion auf die gezeigten Zeichen zu finden. Mit chinesischer Schriftsprache kenne ich mich wirklich gar nicht aus. Man hat in den letzte Aufgaben einige Zeichen auch wiedererkannt (z.B. Baby, Astronaut, weinendes Baby). Es fiel mir bei dieser Aufgabe dann schon schwerer rein auf meine Intuition zu hören, da man eben direkt ein Bild zu dem Zeichen vor Augen hatte. Auf jeden Fall war es sehr spannend und hat Spaß gemacht. ","0","1","0","null","","","<div class = 'row'><div class = 'column'><img src = 'uspos/5470.bmp' width = '100%;'></div><div class = 'column'><img src = 'category1/CS6.png' width = '70%;'></div></div>","null","pos","CS","CS","1","category1/CS6.png","","","","",""
"","html-keyboard-response","29","141417","0.0-6.0-2.0-0.2","ptkozk10jy","one_one","1","indirect_first","0","el08ng09","0","22","1","1","3","1","Ich empfand die Teilnahme als sehr angenehm. Ich habe versucht mich wirklich sehr auf meine Intuition zu verlassen und ohne groß nachzudenken eine Reaktion auf die gezeigten Zeichen zu finden. Mit chinesischer Schriftsprache kenne ich mich wirklich gar nicht aus. Man hat in den letzte Aufgaben einige Zeichen auch wiedererkannt (z.B. Baby, Astronaut, weinendes Baby). Es fiel mir bei dieser Aufgabe dann schon schwerer rein auf meine Intuition zu hören, da man eben direkt ein Bild zu dem Zeichen vor Augen hatte. Auf jeden Fall war es sehr spannend und hat Spaß gemacht. ","0","1","0","null","","","<div class = 'row'><div class = 'column'><img src = 'category4/CS2.png' width = '70%;'></div><div class = 'column'><img src = 'usneg/3300.bmp' width = '100%;'></div></div>","null","neg","CS","CS","4","category4/CS2.png","","","","",""
"","html-keyboard-response","30","143940","0.0-6.0-2.0-0.3","ptkozk10jy","one_one","1","indirect_first","0","el08ng09","0","22","1","1","3","1","Ich empfand die Teilnahme als sehr angenehm. Ich habe versucht mich wirklich sehr auf meine Intuition zu verlassen und ohne groß nachzudenken eine Reaktion auf die gezeigten Zeichen zu finden. Mit chinesischer Schriftsprache kenne ich mich wirklich gar nicht aus. Man hat in den letzte Aufgaben einige Zeichen auch wiedererkannt (z.B. Baby, Astronaut, weinendes Baby). Es fiel mir bei dieser Aufgabe dann schon schwerer rein auf meine Intuition zu hören, da man eben direkt ein Bild zu dem Zeichen vor Augen hatte. Auf jeden Fall war es sehr spannend und hat Spaß gemacht. ","0","1","0","null","","","<div class = 'row'><div class = 'column'><img src = 'uspos/5470.bmp' width = '100%;'></div><div class = 'column'><img src = 'category1/CS6.png' width = '70%;'></div></div>","null","pos","CS","CS","1","category1/CS6.png","","","","",""
"","html-keyboard-response","31","146458","0.0-6.0-2.0-0.4","ptkozk10jy","one_one","1","indirect_first","0","el08ng09","0","22","1","1","3","1","Ich empfand die Teilnahme als sehr angenehm. Ich habe versucht mich wirklich sehr auf meine Intuition zu verlassen und ohne groß nachzudenken eine Reaktion auf die gezeigten Zeichen zu finden. Mit chinesischer Schriftsprache kenne ich mich wirklich gar nicht aus. Man hat in den letzte Aufgaben einige Zeichen auch wiedererkannt (z.B. Baby, Astronaut, weinendes Baby). Es fiel mir bei dieser Aufgabe dann schon schwerer rein auf meine Intuition zu hören, da man eben direkt ein Bild zu dem Zeichen vor Augen hatte. Auf jeden Fall war es sehr spannend und hat Spaß gemacht. ","0","1","0","null","","","<div class = 'row'><div class = 'column'><img src = 'category3/CS2.png' width = '70%;'></div><div class = 'column'><img src = 'usneg/6020.bmp' width = '100%;'></div></div>","null","neg","CS","CS","3","category3/CS2.png","","","","",""
"","html-keyboard-response","32","148965","0.0-6.0-2.0-0.5","ptkozk10jy","one_one","1","indirect_first","0","el08ng09","0","22","1","1","3","1","Ich empfand die Teilnahme als sehr angenehm. Ich habe versucht mich wirklich sehr auf meine Intuition zu verlassen und ohne groß nachzudenken eine Reaktion auf die gezeigten Zeichen zu finden. Mit chinesischer Schriftsprache kenne ich mich wirklich gar nicht aus. Man hat in den letzte Aufgaben einige Zeichen auch wiedererkannt (z.B. Baby, Astronaut, weinendes Baby). Es fiel mir bei dieser Aufgabe dann schon schwerer rein auf meine Intuition zu hören, da man eben direkt ein Bild zu dem Zeichen vor Augen hatte. Auf jeden Fall war es sehr spannend und hat Spaß gemacht. ","0","1","0","null","","","<div class = 'row'><div class = 'column'><img src = 'category2/CS6.png' width = '70%;'></div><div class = 'column'><img src = 'uspos/2058.bmp' width = '100%;'></div></div>","null","pos","CS","CS","2","category2/CS6.png","","","","",""
"","html-keyboard-response","33","151473","0.0-6.0-2.0-0.6","ptkozk10jy","one_one","1","indirect_first","0","el08ng09","0","22","1","1","3","1","Ich empfand die Teilnahme als sehr angenehm. Ich habe versucht mich wirklich sehr auf meine Intuition zu verlassen und ohne groß nachzudenken eine Reaktion auf die gezeigten Zeichen zu finden. Mit chinesischer Schriftsprache kenne ich mich wirklich gar nicht aus. Man hat in den letzte Aufgaben einige Zeichen auch wiedererkannt (z.B. Baby, Astronaut, weinendes Baby). Es fiel mir bei dieser Aufgabe dann schon schwerer rein auf meine Intuition zu hören, da man eben direkt ein Bild zu dem Zeichen vor Augen hatte. Auf jeden Fall war es sehr spannend und hat Spaß gemacht. ","0","1","0","null","","","<div class = 'row'><div class = 'column'><img src = 'usneg/3300.bmp' width = '100%;'></div><div class = 'column'><img src = 'category4/CS2.png' width = '70%;'></div></div>","null","neg","CS","CS","4","category4/CS2.png","","","","",""
"","html-keyboard-response","34","153979","0.0-6.0-2.0-0.7","ptkozk10jy","one_one","1","indirect_first","0","el08ng09","0","22","1","1","3","1","Ich empfand die Teilnahme als sehr angenehm. Ich habe versucht mich wirklich sehr auf meine Intuition zu verlassen und ohne groß nachzudenken eine Reaktion auf die gezeigten Zeichen zu finden. Mit chinesischer Schriftsprache kenne ich mich wirklich gar nicht aus. Man hat in den letzte Aufgaben einige Zeichen auch wiedererkannt (z.B. Baby, Astronaut, weinendes Baby). Es fiel mir bei dieser Aufgabe dann schon schwerer rein auf meine Intuition zu hören, da man eben direkt ein Bild zu dem Zeichen vor Augen hatte. Auf jeden Fall war es sehr spannend und hat Spaß gemacht. ","0","1","0","null","","","<div class = 'row'><div class = 'column'><img src = 'category3/CS2.png' width = '70%;'></div><div class = 'column'><img src = 'usneg/6020.bmp' width = '100%;'></div></div>","null","neg","CS","CS","3","category3/CS2.png","","","","",""
"","html-keyboard-response","35","156513","0.0-6.0-2.0-0.8","ptkozk10jy","one_one","1","indirect_first","0","el08ng09","0","22","1","1","3","1","Ich empfand die Teilnahme als sehr angenehm. Ich habe versucht mich wirklich sehr auf meine Intuition zu verlassen und ohne groß nachzudenken eine Reaktion auf die gezeigten Zeichen zu finden. Mit chinesischer Schriftsprache kenne ich mich wirklich gar nicht aus. Man hat in den letzte Aufgaben einige Zeichen auch wiedererkannt (z.B. Baby, Astronaut, weinendes Baby). Es fiel mir bei dieser Aufgabe dann schon schwerer rein auf meine Intuition zu hören, da man eben direkt ein Bild zu dem Zeichen vor Augen hatte. Auf jeden Fall war es sehr spannend und hat Spaß gemacht. ","0","1","0","null","","","<div class = 'row'><div class = 'column'><img src = 'uspos/2058.bmp' width = '100%;'></div><div class = 'column'><img src = 'category2/CS6.png' width = '70%;'></div></div>","null","pos","CS","CS","2","category2/CS6.png","","","","",""
"","html-keyboard-response","36","159028","0.0-6.0-2.0-0.9","ptkozk10jy","one_one","1","indirect_first","0","el08ng09","0","22","1","1","3","1","Ich empfand die Teilnahme als sehr angenehm. Ich habe versucht mich wirklich sehr auf meine Intuition zu verlassen und ohne groß nachzudenken eine Reaktion auf die gezeigten Zeichen zu finden. Mit chinesischer Schriftsprache kenne ich mich wirklich gar nicht aus. Man hat in den letzte Aufgaben einige Zeichen auch wiedererkannt (z.B. Baby, Astronaut, weinendes Baby). Es fiel mir bei dieser Aufgabe dann schon schwerer rein auf meine Intuition zu hören, da man eben direkt ein Bild zu dem Zeichen vor Augen hatte. Auf jeden Fall war es sehr spannend und hat Spaß gemacht. ","0","1","0","null","","","<div class = 'row'><div class = 'column'><img src = 'usneg/6020.bmp' width = '100%;'></div><div class = 'column'><img src = 'category3/CS2.png' width = '70%;'></div></div>","null","neg","CS","CS","3","category3/CS2.png","","","","",""
"","html-keyboard-response","37","161544","0.0-6.0-2.0-0.10","ptkozk10jy","one_one","1","indirect_first","0","el08ng09","0","22","1","1","3","1","Ich empfand die Teilnahme als sehr angenehm. Ich habe versucht mich wirklich sehr auf meine Intuition zu verlassen und ohne groß nachzudenken eine Reaktion auf die gezeigten Zeichen zu finden. Mit chinesischer Schriftsprache kenne ich mich wirklich gar nicht aus. Man hat in den letzte Aufgaben einige Zeichen auch wiedererkannt (z.B. Baby, Astronaut, weinendes Baby). Es fiel mir bei dieser Aufgabe dann schon schwerer rein auf meine Intuition zu hören, da man eben direkt ein Bild zu dem Zeichen vor Augen hatte. Auf jeden Fall war es sehr spannend und hat Spaß gemacht. ","0","1","0","null","","","<div class = 'row'><div class = 'column'><img src = 'uspos/5470.bmp' width = '100%;'></div><div class = 'column'><img src = 'category1/CS6.png' width = '70%;'></div></div>","null","pos","CS","CS","1","category1/CS6.png","","","","",""
"","html-keyboard-response","38","164054","0.0-6.0-2.0-0.11","ptkozk10jy","one_one","1","indirect_first","0","el08ng09","0","22","1","1","3","1","Ich empfand die Teilnahme als sehr angenehm. Ich habe versucht mich wirklich sehr auf meine Intuition zu verlassen und ohne groß nachzudenken eine Reaktion auf die gezeigten Zeichen zu finden. Mit chinesischer Schriftsprache kenne ich mich wirklich gar nicht aus. Man hat in den letzte Aufgaben einige Zeichen auch wiedererkannt (z.B. Baby, Astronaut, weinendes Baby). Es fiel mir bei dieser Aufgabe dann schon schwerer rein auf meine Intuition zu hören, da man eben direkt ein Bild zu dem Zeichen vor Augen hatte. Auf jeden Fall war es sehr spannend und hat Spaß gemacht. ","0","1","0","null","","","<div class = 'row'><div class = 'column'><img src = 'usneg/6020.bmp' width = '100%;'></div><div class = 'column'><img src = 'category3/CS2.png' width = '70%;'></div></div>","null","neg","CS","CS","3","category3/CS2.png","","","","",""
"","html-keyboard-response","39","166562","0.0-6.0-2.0-0.12","ptkozk10jy","one_one","1","indirect_first","0","el08ng09","0","22","1","1","3","1","Ich empfand die Teilnahme als sehr angenehm. Ich habe versucht mich wirklich sehr auf meine Intuition zu verlassen und ohne groß nachzudenken eine Reaktion auf die gezeigten Zeichen zu finden. Mit chinesischer Schriftsprache kenne ich mich wirklich gar nicht aus. Man hat in den letzte Aufgaben einige Zeichen auch wiedererkannt (z.B. Baby, Astronaut, weinendes Baby). Es fiel mir bei dieser Aufgabe dann schon schwerer rein auf meine Intuition zu hören, da man eben direkt ein Bild zu dem Zeichen vor Augen hatte. Auf jeden Fall war es sehr spannend und hat Spaß gemacht. ","0","1","0","null","","","<div class = 'row'><div class = 'column'><img src = 'usneg/3300.bmp' width = '100%;'></div><div class = 'column'><img src = 'category4/CS2.png' width = '70%;'></div></div>","null","neg","CS","CS","4","category4/CS2.png","","","","",""
"","html-keyboard-response","40","169077","0.0-6.0-2.0-0.13","ptkozk10jy","one_one","1","indirect_first","0","el08ng09","0","22","1","1","3","1","Ich empfand die Teilnahme als sehr angenehm. Ich habe versucht mich wirklich sehr auf meine Intuition zu verlassen und ohne groß nachzudenken eine Reaktion auf die gezeigten Zeichen zu finden. Mit chinesischer Schriftsprache kenne ich mich wirklich gar nicht aus. Man hat in den letzte Aufgaben einige Zeichen auch wiedererkannt (z.B. Baby, Astronaut, weinendes Baby). Es fiel mir bei dieser Aufgabe dann schon schwerer rein auf meine Intuition zu hören, da man eben direkt ein Bild zu dem Zeichen vor Augen hatte. Auf jeden Fall war es sehr spannend und hat Spaß gemacht. ","0","1","0","null","","","<div class = 'row'><div class = 'column'><img src = 'category2/CS6.png' width = '70%;'></div><div class = 'column'><img src = 'uspos/2058.bmp' width = '100%;'></div></div>","null","pos","CS","CS","2","category2/CS6.png","","","","",""
"","html-keyboard-response","41","171593","0.0-6.0-2.0-0.14","ptkozk10jy","one_one","1","indirect_first","0","el08ng09","0","22","1","1","3","1","Ich empfand die Teilnahme als sehr angenehm. Ich habe versucht mich wirklich sehr auf meine Intuition zu verlassen und ohne groß nachzudenken eine Reaktion auf die gezeigten Zeichen zu finden. Mit chinesischer Schriftsprache kenne ich mich wirklich gar nicht aus. Man hat in den letzte Aufgaben einige Zeichen auch wiedererkannt (z.B. Baby, Astronaut, weinendes Baby). Es fiel mir bei dieser Aufgabe dann schon schwerer rein auf meine Intuition zu hören, da man eben direkt ein Bild zu dem Zeichen vor Augen hatte. Auf jeden Fall war es sehr spannend und hat Spaß gemacht. ","0","1","0","null","","","<div class = 'row'><div class = 'column'><img src = 'category1/CS6.png' width = '70%;'></div><div class = 'column'><img src = 'uspos/5470.bmp' width = '100%;'></div></div>","null","pos","CS","CS","1","category1/CS6.png","","","","",""
"","html-keyboard-response","42","174112","0.0-6.0-2.0-0.15","ptkozk10jy","one_one","1","indirect_first","0","el08ng09","0","22","1","1","3","1","Ich empfand die Teilnahme als sehr angenehm. Ich habe versucht mich wirklich sehr auf meine Intuition zu verlassen und ohne groß nachzudenken eine Reaktion auf die gezeigten Zeichen zu finden. Mit chinesischer Schriftsprache kenne ich mich wirklich gar nicht aus. Man hat in den letzte Aufgaben einige Zeichen auch wiedererkannt (z.B. Baby, Astronaut, weinendes Baby). Es fiel mir bei dieser Aufgabe dann schon schwerer rein auf meine Intuition zu hören, da man eben direkt ein Bild zu dem Zeichen vor Augen hatte. Auf jeden Fall war es sehr spannend und hat Spaß gemacht. ","0","1","0","null","","","<div class = 'row'><div class = 'column'><img src = 'usneg/6020.bmp' width = '100%;'></div><div class = 'column'><img src = 'category3/CS2.png' width = '70%;'></div></div>","null","neg","CS","CS","3","category3/CS2.png","","","","",""
"","html-keyboard-response","43","176636","0.0-6.0-2.0-0.16","ptkozk10jy","one_one","1","indirect_first","0","el08ng09","0","22","1","1","3","1","Ich empfand die Teilnahme als sehr angenehm. Ich habe versucht mich wirklich sehr auf meine Intuition zu verlassen und ohne groß nachzudenken eine Reaktion auf die gezeigten Zeichen zu finden. Mit chinesischer Schriftsprache kenne ich mich wirklich gar nicht aus. Man hat in den letzte Aufgaben einige Zeichen auch wiedererkannt (z.B. Baby, Astronaut, weinendes Baby). Es fiel mir bei dieser Aufgabe dann schon schwerer rein auf meine Intuition zu hören, da man eben direkt ein Bild zu dem Zeichen vor Augen hatte. Auf jeden Fall war es sehr spannend und hat Spaß gemacht. ","0","1","0","null","","","<div class = 'row'><div class = 'column'><img src = 'category2/CS6.png' width = '70%;'></div><div class = 'column'><img src = 'uspos/2058.bmp' width = '100%;'></div></div>","null","pos","CS","CS","2","category2/CS6.png","","","","",""
"","html-keyboard-response","44","179158","0.0-6.0-2.0-0.17","ptkozk10jy","one_one","1","indirect_first","0","el08ng09","0","22","1","1","3","1","Ich empfand die Teilnahme als sehr angenehm. Ich habe versucht mich wirklich sehr auf meine Intuition zu verlassen und ohne groß nachzudenken eine Reaktion auf die gezeigten Zeichen zu finden. Mit chinesischer Schriftsprache kenne ich mich wirklich gar nicht aus. Man hat in den letzte Aufgaben einige Zeichen auch wiedererkannt (z.B. Baby, Astronaut, weinendes Baby). Es fiel mir bei dieser Aufgabe dann schon schwerer rein auf meine Intuition zu hören, da man eben direkt ein Bild zu dem Zeichen vor Augen hatte. Auf jeden Fall war es sehr spannend und hat Spaß gemacht. ","0","1","0","null","","","<div class = 'row'><div class = 'column'><img src = 'usneg/3300.bmp' width = '100%;'></div><div class = 'column'><img src = 'category4/CS2.png' width = '70%;'></div></div>","null","neg","CS","CS","4","category4/CS2.png","","","","",""
"","html-keyboard-response","45","181671","0.0-6.0-2.0-0.18","ptkozk10jy","one_one","1","indirect_first","0","el08ng09","0","22","1","1","3","1","Ich empfand die Teilnahme als sehr angenehm. Ich habe versucht mich wirklich sehr auf meine Intuition zu verlassen und ohne groß nachzudenken eine Reaktion auf die gezeigten Zeichen zu finden. Mit chinesischer Schriftsprache kenne ich mich wirklich gar nicht aus. Man hat in den letzte Aufgaben einige Zeichen auch wiedererkannt (z.B. Baby, Astronaut, weinendes Baby). Es fiel mir bei dieser Aufgabe dann schon schwerer rein auf meine Intuition zu hören, da man eben direkt ein Bild zu dem Zeichen vor Augen hatte. Auf jeden Fall war es sehr spannend und hat Spaß gemacht. ","0","1","0","null","","","<div class = 'row'><div class = 'column'><img src = 'category1/CS6.png' width = '70%;'></div><div class = 'column'><img src = 'uspos/5470.bmp' width = '100%;'></div></div>","null","pos","CS","CS","1","category1/CS6.png","","","","",""
"","html-keyboard-response","46","184187","0.0-6.0-2.0-0.19","ptkozk10jy","one_one","1","indirect_first","0","el08ng09","0","22","1","1","3","1","Ich empfand die Teilnahme als sehr angenehm. Ich habe versucht mich wirklich sehr auf meine Intuition zu verlassen und ohne groß nachzudenken eine Reaktion auf die gezeigten Zeichen zu finden. Mit chinesischer Schriftsprache kenne ich mich wirklich gar nicht aus. Man hat in den letzte Aufgaben einige Zeichen auch wiedererkannt (z.B. Baby, Astronaut, weinendes Baby). Es fiel mir bei dieser Aufgabe dann schon schwerer rein auf meine Intuition zu hören, da man eben direkt ein Bild zu dem Zeichen vor Augen hatte. Auf jeden Fall war es sehr spannend und hat Spaß gemacht. ","0","1","0","null","","","<div class = 'row'><div class = 'column'><img src = 'category4/CS2.png' width = '70%;'></div><div class = 'column'><img src = 'usneg/3300.bmp' width = '100%;'></div></div>","null","neg","CS","CS","4","category4/CS2.png","","","","",""
"","survey-html-form","47","187544","0.0-6.0-3.0","ptkozk10jy","one_one","1","indirect_first","0","el08ng09","0","22","1","1","3","1","Ich empfand die Teilnahme als sehr angenehm. Ich habe versucht mich wirklich sehr auf meine Intuition zu verlassen und ohne groß nachzudenken eine Reaktion auf die gezeigten Zeichen zu finden. Mit chinesischer Schriftsprache kenne ich mich wirklich gar nicht aus. Man hat in den letzte Aufgaben einige Zeichen auch wiedererkannt (z.B. Baby, Astronaut, weinendes Baby). Es fiel mir bei dieser Aufgabe dann schon schwerer rein auf meine Intuition zu hören, da man eben direkt ein Bild zu dem Zeichen vor Augen hatte. Auf jeden Fall war es sehr spannend und hat Spaß gemacht. ","0","1","0","2846.140000037849","","{}","","","","","","","","","","","",""
"","html-keyboard-response","48","191561","0.0-6.0-4.0-0.0","ptkozk10jy","one_one","1","indirect_first","0","el08ng09","0","22","1","1","3","1","Ich empfand die Teilnahme als sehr angenehm. Ich habe versucht mich wirklich sehr auf meine Intuition zu verlassen und ohne groß nachzudenken eine Reaktion auf die gezeigten Zeichen zu finden. Mit chinesischer Schriftsprache kenne ich mich wirklich gar nicht aus. Man hat in den letzte Aufgaben einige Zeichen auch wiedererkannt (z.B. Baby, Astronaut, weinendes Baby). Es fiel mir bei dieser Aufgabe dann schon schwerer rein auf meine Intuition zu hören, da man eben direkt ein Bild zu dem Zeichen vor Augen hatte. Auf jeden Fall war es sehr spannend und hat Spaß gemacht. ","0","1","0","null","","","<div class = 'row'><div class = 'column'><img src = 'category2/CS6.png' width = '70%;'></div><div class = 'column'><img src = 'uspos/2058.bmp' width = '100%;'></div></div>","null","pos","CS","CS","2","category2/CS6.png","","","","",""
"","html-keyboard-response","49","194075","0.0-6.0-4.0-0.1","ptkozk10jy","one_one","1","indirect_first","0","el08ng09","0","22","1","1","3","1","Ich empfand die Teilnahme als sehr angenehm. Ich habe versucht mich wirklich sehr auf meine Intuition zu verlassen und ohne groß nachzudenken eine Reaktion auf die gezeigten Zeichen zu finden. Mit chinesischer Schriftsprache kenne ich mich wirklich gar nicht aus. Man hat in den letzte Aufgaben einige Zeichen auch wiedererkannt (z.B. Baby, Astronaut, weinendes Baby). Es fiel mir bei dieser Aufgabe dann schon schwerer rein auf meine Intuition zu hören, da man eben direkt ein Bild zu dem Zeichen vor Augen hatte. Auf jeden Fall war es sehr spannend und hat Spaß gemacht. ","0","1","0","null","","","<div class = 'row'><div class = 'column'><img src = 'uspos/5470.bmp' width = '100%;'></div><div class = 'column'><img src = 'category1/CS6.png' width = '70%;'></div></div>","null","pos","CS","CS","1","category1/CS6.png","","","","",""
"","html-keyboard-response","50","196596","0.0-6.0-4.0-0.2","ptkozk10jy","one_one","1","indirect_first","0","el08ng09","0","22","1","1","3","1","Ich empfand die Teilnahme als sehr angenehm. Ich habe versucht mich wirklich sehr auf meine Intuition zu verlassen und ohne groß nachzudenken eine Reaktion auf die gezeigten Zeichen zu finden. Mit chinesischer Schriftsprache kenne ich mich wirklich gar nicht aus. Man hat in den letzte Aufgaben einige Zeichen auch wiedererkannt (z.B. Baby, Astronaut, weinendes Baby). Es fiel mir bei dieser Aufgabe dann schon schwerer rein auf meine Intuition zu hören, da man eben direkt ein Bild zu dem Zeichen vor Augen hatte. Auf jeden Fall war es sehr spannend und hat Spaß gemacht. ","0","1","0","null","","","<div class = 'row'><div class = 'column'><img src = 'category3/CS2.png' width = '70%;'></div><div class = 'column'><img src = 'usneg/6020.bmp' width = '100%;'></div></div>","null","neg","CS","CS","3","category3/CS2.png","","","","",""
"","html-keyboard-response","51","199122","0.0-6.0-4.0-0.3","ptkozk10jy","one_one","1","indirect_first","0","el08ng09","0","22","1","1","3","1","Ich empfand die Teilnahme als sehr angenehm. Ich habe versucht mich wirklich sehr auf meine Intuition zu verlassen und ohne groß nachzudenken eine Reaktion auf die gezeigten Zeichen zu finden. Mit chinesischer Schriftsprache kenne ich mich wirklich gar nicht aus. Man hat in den letzte Aufgaben einige Zeichen auch wiedererkannt (z.B. Baby, Astronaut, weinendes Baby). Es fiel mir bei dieser Aufgabe dann schon schwerer rein auf meine Intuition zu hören, da man eben direkt ein Bild zu dem Zeichen vor Augen hatte. Auf jeden Fall war es sehr spannend und hat Spaß gemacht. ","0","1","0","null","","","<div class = 'row'><div class = 'column'><img src = 'category1/CS6.png' width = '70%;'></div><div class = 'column'><img src = 'uspos/5470.bmp' width = '100%;'></div></div>","null","pos","CS","CS","1","category1/CS6.png","","","","",""
"","html-keyboard-response","52","201640","0.0-6.0-4.0-0.4","ptkozk10jy","one_one","1","indirect_first","0","el08ng09","0","22","1","1","3","1","Ich empfand die Teilnahme als sehr angenehm. Ich habe versucht mich wirklich sehr auf meine Intuition zu verlassen und ohne groß nachzudenken eine Reaktion auf die gezeigten Zeichen zu finden. Mit chinesischer Schriftsprache kenne ich mich wirklich gar nicht aus. Man hat in den letzte Aufgaben einige Zeichen auch wiedererkannt (z.B. Baby, Astronaut, weinendes Baby). Es fiel mir bei dieser Aufgabe dann schon schwerer rein auf meine Intuition zu hören, da man eben direkt ein Bild zu dem Zeichen vor Augen hatte. Auf jeden Fall war es sehr spannend und hat Spaß gemacht. ","0","1","0","null","","","<div class = 'row'><div class = 'column'><img src = 'category3/CS2.png' width = '70%;'></div><div class = 'column'><img src = 'usneg/6020.bmp' width = '100%;'></div></div>","null","neg","CS","CS","3","category3/CS2.png","","","","",""
"","html-keyboard-response","53","204156","0.0-6.0-4.0-0.5","ptkozk10jy","one_one","1","indirect_first","0","el08ng09","0","22","1","1","3","1","Ich empfand die Teilnahme als sehr angenehm. Ich habe versucht mich wirklich sehr auf meine Intuition zu verlassen und ohne groß nachzudenken eine Reaktion auf die gezeigten Zeichen zu finden. Mit chinesischer Schriftsprache kenne ich mich wirklich gar nicht aus. Man hat in den letzte Aufgaben einige Zeichen auch wiedererkannt (z.B. Baby, Astronaut, weinendes Baby). Es fiel mir bei dieser Aufgabe dann schon schwerer rein auf meine Intuition zu hören, da man eben direkt ein Bild zu dem Zeichen vor Augen hatte. Auf jeden Fall war es sehr spannend und hat Spaß gemacht. ","0","1","0","null","","","<div class = 'row'><div class = 'column'><img src = 'usneg/3300.bmp' width = '100%;'></div><div class = 'column'><img src = 'category4/CS2.png' width = '70%;'></div></div>","null","neg","CS","CS","4","category4/CS2.png","","","","",""
"","html-keyboard-response","54","206668","0.0-6.0-4.0-0.6","ptkozk10jy","one_one","1","indirect_first","0","el08ng09","0","22","1","1","3","1","Ich empfand die Teilnahme als sehr angenehm. Ich habe versucht mich wirklich sehr auf meine Intuition zu verlassen und ohne groß nachzudenken eine Reaktion auf die gezeigten Zeichen zu finden. Mit chinesischer Schriftsprache kenne ich mich wirklich gar nicht aus. Man hat in den letzte Aufgaben einige Zeichen auch wiedererkannt (z.B. Baby, Astronaut, weinendes Baby). Es fiel mir bei dieser Aufgabe dann schon schwerer rein auf meine Intuition zu hören, da man eben direkt ein Bild zu dem Zeichen vor Augen hatte. Auf jeden Fall war es sehr spannend und hat Spaß gemacht. ","0","1","0","null","","","<div class = 'row'><div class = 'column'><img src = 'category2/CS6.png' width = '70%;'></div><div class = 'column'><img src = 'uspos/2058.bmp' width = '100%;'></div></div>","null","pos","CS","CS","2","category2/CS6.png","","","","",""
"","html-keyboard-response","55","209178","0.0-6.0-4.0-0.7","ptkozk10jy","one_one","1","indirect_first","0","el08ng09","0","22","1","1","3","1","Ich empfand die Teilnahme als sehr angenehm. Ich habe versucht mich wirklich sehr auf meine Intuition zu verlassen und ohne groß nachzudenken eine Reaktion auf die gezeigten Zeichen zu finden. Mit chinesischer Schriftsprache kenne ich mich wirklich gar nicht aus. Man hat in den letzte Aufgaben einige Zeichen auch wiedererkannt (z.B. Baby, Astronaut, weinendes Baby). Es fiel mir bei dieser Aufgabe dann schon schwerer rein auf meine Intuition zu hören, da man eben direkt ein Bild zu dem Zeichen vor Augen hatte. Auf jeden Fall war es sehr spannend und hat Spaß gemacht. ","0","1","0","null","","","<div class = 'row'><div class = 'column'><img src = 'usneg/3300.bmp' width = '100%;'></div><div class = 'column'><img src = 'category4/CS2.png' width = '70%;'></div></div>","null","neg","CS","CS","4","category4/CS2.png","","","","",""
"","html-keyboard-response","56","211695","0.0-6.0-4.0-0.8","ptkozk10jy","one_one","1","indirect_first","0","el08ng09","0","22","1","1","3","1","Ich empfand die Teilnahme als sehr angenehm. Ich habe versucht mich wirklich sehr auf meine Intuition zu verlassen und ohne groß nachzudenken eine Reaktion auf die gezeigten Zeichen zu finden. Mit chinesischer Schriftsprache kenne ich mich wirklich gar nicht aus. Man hat in den letzte Aufgaben einige Zeichen auch wiedererkannt (z.B. Baby, Astronaut, weinendes Baby). Es fiel mir bei dieser Aufgabe dann schon schwerer rein auf meine Intuition zu hören, da man eben direkt ein Bild zu dem Zeichen vor Augen hatte. Auf jeden Fall war es sehr spannend und hat Spaß gemacht. ","0","1","0","null","","","<div class = 'row'><div class = 'column'><img src = 'category3/CS2.png' width = '70%;'></div><div class = 'column'><img src = 'usneg/6020.bmp' width = '100%;'></div></div>","null","neg","CS","CS","3","category3/CS2.png","","","","",""
"","html-keyboard-response","57","214211","0.0-6.0-4.0-0.9","ptkozk10jy","one_one","1","indirect_first","0","el08ng09","0","22","1","1","3","1","Ich empfand die Teilnahme als sehr angenehm. Ich habe versucht mich wirklich sehr auf meine Intuition zu verlassen und ohne groß nachzudenken eine Reaktion auf die gezeigten Zeichen zu finden. Mit chinesischer Schriftsprache kenne ich mich wirklich gar nicht aus. Man hat in den letzte Aufgaben einige Zeichen auch wiedererkannt (z.B. Baby, Astronaut, weinendes Baby). Es fiel mir bei dieser Aufgabe dann schon schwerer rein auf meine Intuition zu hören, da man eben direkt ein Bild zu dem Zeichen vor Augen hatte. Auf jeden Fall war es sehr spannend und hat Spaß gemacht. ","0","1","0","null","","","<div class = 'row'><div class = 'column'><img src = 'category2/CS6.png' width = '70%;'></div><div class = 'column'><img src = 'uspos/2058.bmp' width = '100%;'></div></div>","null","pos","CS","CS","2","category2/CS6.png","","","","",""
"","html-keyboard-response","58","216730","0.0-6.0-4.0-0.10","ptkozk10jy","one_one","1","indirect_first","0","el08ng09","0","22","1","1","3","1","Ich empfand die Teilnahme als sehr angenehm. Ich habe versucht mich wirklich sehr auf meine Intuition zu verlassen und ohne groß nachzudenken eine Reaktion auf die gezeigten Zeichen zu finden. Mit chinesischer Schriftsprache kenne ich mich wirklich gar nicht aus. Man hat in den letzte Aufgaben einige Zeichen auch wiedererkannt (z.B. Baby, Astronaut, weinendes Baby). Es fiel mir bei dieser Aufgabe dann schon schwerer rein auf meine Intuition zu hören, da man eben direkt ein Bild zu dem Zeichen vor Augen hatte. Auf jeden Fall war es sehr spannend und hat Spaß gemacht. ","0","1","0","null","","","<div class = 'row'><div class = 'column'><img src = 'category1/CS6.png' width = '70%;'></div><div class = 'column'><img src = 'uspos/5470.bmp' width = '100%;'></div></div>","null","pos","CS","CS","1","category1/CS6.png","","","","",""
"","html-keyboard-response","59","219249","0.0-6.0-4.0-0.11","ptkozk10jy","one_one","1","indirect_first","0","el08ng09","0","22","1","1","3","1","Ich empfand die Teilnahme als sehr angenehm. Ich habe versucht mich wirklich sehr auf meine Intuition zu verlassen und ohne groß nachzudenken eine Reaktion auf die gezeigten Zeichen zu finden. Mit chinesischer Schriftsprache kenne ich mich wirklich gar nicht aus. Man hat in den letzte Aufgaben einige Zeichen auch wiedererkannt (z.B. Baby, Astronaut, weinendes Baby). Es fiel mir bei dieser Aufgabe dann schon schwerer rein auf meine Intuition zu hören, da man eben direkt ein Bild zu dem Zeichen vor Augen hatte. Auf jeden Fall war es sehr spannend und hat Spaß gemacht. ","0","1","0","null","","","<div class = 'row'><div class = 'column'><img src = 'category3/CS2.png' width = '70%;'></div><div class = 'column'><img src = 'usneg/6020.bmp' width = '100%;'></div></div>","null","neg","CS","CS","3","category3/CS2.png","","","","",""
"","html-keyboard-response","60","221772","0.0-6.0-4.0-0.12","ptkozk10jy","one_one","1","indirect_first","0","el08ng09","0","22","1","1","3","1","Ich empfand die Teilnahme als sehr angenehm. Ich habe versucht mich wirklich sehr auf meine Intuition zu verlassen und ohne groß nachzudenken eine Reaktion auf die gezeigten Zeichen zu finden. Mit chinesischer Schriftsprache kenne ich mich wirklich gar nicht aus. Man hat in den letzte Aufgaben einige Zeichen auch wiedererkannt (z.B. Baby, Astronaut, weinendes Baby). Es fiel mir bei dieser Aufgabe dann schon schwerer rein auf meine Intuition zu hören, da man eben direkt ein Bild zu dem Zeichen vor Augen hatte. Auf jeden Fall war es sehr spannend und hat Spaß gemacht. ","0","1","0","null","","","<div class = 'row'><div class = 'column'><img src = 'category2/CS6.png' width = '70%;'></div><div class = 'column'><img src = 'uspos/2058.bmp' width = '100%;'></div></div>","null","pos","CS","CS","2","category2/CS6.png","","","","",""
"","html-keyboard-response","61","224286","0.0-6.0-4.0-0.13","ptkozk10jy","one_one","1","indirect_first","0","el08ng09","0","22","1","1","3","1","Ich empfand die Teilnahme als sehr angenehm. Ich habe versucht mich wirklich sehr auf meine Intuition zu verlassen und ohne groß nachzudenken eine Reaktion auf die gezeigten Zeichen zu finden. Mit chinesischer Schriftsprache kenne ich mich wirklich gar nicht aus. Man hat in den letzte Aufgaben einige Zeichen auch wiedererkannt (z.B. Baby, Astronaut, weinendes Baby). Es fiel mir bei dieser Aufgabe dann schon schwerer rein auf meine Intuition zu hören, da man eben direkt ein Bild zu dem Zeichen vor Augen hatte. Auf jeden Fall war es sehr spannend und hat Spaß gemacht. ","0","1","0","null","","","<div class = 'row'><div class = 'column'><img src = 'usneg/3300.bmp' width = '100%;'></div><div class = 'column'><img src = 'category4/CS2.png' width = '70%;'></div></div>","null","neg","CS","CS","4","category4/CS2.png","","","","",""
"","html-keyboard-response","62","226817","0.0-6.0-4.0-0.14","ptkozk10jy","one_one","1","indirect_first","0","el08ng09","0","22","1","1","3","1","Ich empfand die Teilnahme als sehr angenehm. Ich habe versucht mich wirklich sehr auf meine Intuition zu verlassen und ohne groß nachzudenken eine Reaktion auf die gezeigten Zeichen zu finden. Mit chinesischer Schriftsprache kenne ich mich wirklich gar nicht aus. Man hat in den letzte Aufgaben einige Zeichen auch wiedererkannt (z.B. Baby, Astronaut, weinendes Baby). Es fiel mir bei dieser Aufgabe dann schon schwerer rein auf meine Intuition zu hören, da man eben direkt ein Bild zu dem Zeichen vor Augen hatte. Auf jeden Fall war es sehr spannend und hat Spaß gemacht. ","0","1","0","null","","","<div class = 'row'><div class = 'column'><img src = 'category3/CS2.png' width = '70%;'></div><div class = 'column'><img src = 'usneg/6020.bmp' width = '100%;'></div></div>","null","neg","CS","CS","3","category3/CS2.png","","","","",""
"","html-keyboard-response","63","229331","0.0-6.0-4.0-0.15","ptkozk10jy","one_one","1","indirect_first","0","el08ng09","0","22","1","1","3","1","Ich empfand die Teilnahme als sehr angenehm. Ich habe versucht mich wirklich sehr auf meine Intuition zu verlassen und ohne groß nachzudenken eine Reaktion auf die gezeigten Zeichen zu finden. Mit chinesischer Schriftsprache kenne ich mich wirklich gar nicht aus. Man hat in den letzte Aufgaben einige Zeichen auch wiedererkannt (z.B. Baby, Astronaut, weinendes Baby). Es fiel mir bei dieser Aufgabe dann schon schwerer rein auf meine Intuition zu hören, da man eben direkt ein Bild zu dem Zeichen vor Augen hatte. Auf jeden Fall war es sehr spannend und hat Spaß gemacht. ","0","1","0","null","","","<div class = 'row'><div class = 'column'><img src = 'category1/CS6.png' width = '70%;'></div><div class = 'column'><img src = 'uspos/5470.bmp' width = '100%;'></div></div>","null","pos","CS","CS","1","category1/CS6.png","","","","",""
"","html-keyboard-response","64","231854","0.0-6.0-4.0-0.16","ptkozk10jy","one_one","1","indirect_first","0","el08ng09","0","22","1","1","3","1","Ich empfand die Teilnahme als sehr angenehm. Ich habe versucht mich wirklich sehr auf meine Intuition zu verlassen und ohne groß nachzudenken eine Reaktion auf die gezeigten Zeichen zu finden. Mit chinesischer Schriftsprache kenne ich mich wirklich gar nicht aus. Man hat in den letzte Aufgaben einige Zeichen auch wiedererkannt (z.B. Baby, Astronaut, weinendes Baby). Es fiel mir bei dieser Aufgabe dann schon schwerer rein auf meine Intuition zu hören, da man eben direkt ein Bild zu dem Zeichen vor Augen hatte. Auf jeden Fall war es sehr spannend und hat Spaß gemacht. ","0","1","0","null","","","<div class = 'row'><div class = 'column'><img src = 'category4/CS2.png' width = '70%;'></div><div class = 'column'><img src = 'usneg/3300.bmp' width = '100%;'></div></div>","null","neg","CS","CS","4","category4/CS2.png","","","","",""
"","html-keyboard-response","65","234372","0.0-6.0-4.0-0.17","ptkozk10jy","one_one","1","indirect_first","0","el08ng09","0","22","1","1","3","1","Ich empfand die Teilnahme als sehr angenehm. Ich habe versucht mich wirklich sehr auf meine Intuition zu verlassen und ohne groß nachzudenken eine Reaktion auf die gezeigten Zeichen zu finden. Mit chinesischer Schriftsprache kenne ich mich wirklich gar nicht aus. Man hat in den letzte Aufgaben einige Zeichen auch wiedererkannt (z.B. Baby, Astronaut, weinendes Baby). Es fiel mir bei dieser Aufgabe dann schon schwerer rein auf meine Intuition zu hören, da man eben direkt ein Bild zu dem Zeichen vor Augen hatte. Auf jeden Fall war es sehr spannend und hat Spaß gemacht. ","0","1","0","null","","","<div class = 'row'><div class = 'column'><img src = 'category2/CS6.png' width = '70%;'></div><div class = 'column'><img src = 'uspos/2058.bmp' width = '100%;'></div></div>","null","pos","CS","CS","2","category2/CS6.png","","","","",""
"","html-keyboard-response","66","236882","0.0-6.0-4.0-0.18","ptkozk10jy","one_one","1","indirect_first","0","el08ng09","0","22","1","1","3","1","Ich empfand die Teilnahme als sehr angenehm. Ich habe versucht mich wirklich sehr auf meine Intuition zu verlassen und ohne groß nachzudenken eine Reaktion auf die gezeigten Zeichen zu finden. Mit chinesischer Schriftsprache kenne ich mich wirklich gar nicht aus. Man hat in den letzte Aufgaben einige Zeichen auch wiedererkannt (z.B. Baby, Astronaut, weinendes Baby). Es fiel mir bei dieser Aufgabe dann schon schwerer rein auf meine Intuition zu hören, da man eben direkt ein Bild zu dem Zeichen vor Augen hatte. Auf jeden Fall war es sehr spannend und hat Spaß gemacht. ","0","1","0","null","","","<div class = 'row'><div class = 'column'><img src = 'usneg/3300.bmp' width = '100%;'></div><div class = 'column'><img src = 'category4/CS2.png' width = '70%;'></div></div>","null","neg","CS","CS","4","category4/CS2.png","","","","",""
"","html-keyboard-response","67","239397","0.0-6.0-4.0-0.19","ptkozk10jy","one_one","1","indirect_first","0","el08ng09","0","22","1","1","3","1","Ich empfand die Teilnahme als sehr angenehm. Ich habe versucht mich wirklich sehr auf meine Intuition zu verlassen und ohne groß nachzudenken eine Reaktion auf die gezeigten Zeichen zu finden. Mit chinesischer Schriftsprache kenne ich mich wirklich gar nicht aus. Man hat in den letzte Aufgaben einige Zeichen auch wiedererkannt (z.B. Baby, Astronaut, weinendes Baby). Es fiel mir bei dieser Aufgabe dann schon schwerer rein auf meine Intuition zu hören, da man eben direkt ein Bild zu dem Zeichen vor Augen hatte. Auf jeden Fall war es sehr spannend und hat Spaß gemacht. ","0","1","0","null","","","<div class = 'row'><div class = 'column'><img src = 'uspos/5470.bmp' width = '100%;'></div><div class = 'column'><img src = 'category1/CS6.png' width = '70%;'></div></div>","null","pos","CS","CS","1","category1/CS6.png","","","","",""
"","survey-html-form","68","243878","0.0-6.0-5.0","ptkozk10jy","one_one","1","indirect_first","0","el08ng09","0","22","1","1","3","1","Ich empfand die Teilnahme als sehr angenehm. Ich habe versucht mich wirklich sehr auf meine Intuition zu verlassen und ohne groß nachzudenken eine Reaktion auf die gezeigten Zeichen zu finden. Mit chinesischer Schriftsprache kenne ich mich wirklich gar nicht aus. Man hat in den letzte Aufgaben einige Zeichen auch wiedererkannt (z.B. Baby, Astronaut, weinendes Baby). Es fiel mir bei dieser Aufgabe dann schon schwerer rein auf meine Intuition zu hören, da man eben direkt ein Bild zu dem Zeichen vor Augen hatte. Auf jeden Fall war es sehr spannend und hat Spaß gemacht. ","0","1","0","3975.8849998470396","","{}","","","","","","","","","","","",""
"","html-keyboard-response","69","247897","0.0-6.0-6.0-0.0","ptkozk10jy","one_one","1","indirect_first","0","el08ng09","0","22","1","1","3","1","Ich empfand die Teilnahme als sehr angenehm. Ich habe versucht mich wirklich sehr auf meine Intuition zu verlassen und ohne groß nachzudenken eine Reaktion auf die gezeigten Zeichen zu finden. Mit chinesischer Schriftsprache kenne ich mich wirklich gar nicht aus. Man hat in den letzte Aufgaben einige Zeichen auch wiedererkannt (z.B. Baby, Astronaut, weinendes Baby). Es fiel mir bei dieser Aufgabe dann schon schwerer rein auf meine Intuition zu hören, da man eben direkt ein Bild zu dem Zeichen vor Augen hatte. Auf jeden Fall war es sehr spannend und hat Spaß gemacht. ","0","1","0","null","","","<div class = 'row'><div class = 'column'><img src = 'category3/CS2.png' width = '70%;'></div><div class = 'column'><img src = 'usneg/6020.bmp' width = '100%;'></div></div>","null","neg","CS","CS","3","category3/CS2.png","","","","",""
"","html-keyboard-response","70","250412","0.0-6.0-6.0-0.1","ptkozk10jy","one_one","1","indirect_first","0","el08ng09","0","22","1","1","3","1","Ich empfand die Teilnahme als sehr angenehm. Ich habe versucht mich wirklich sehr auf meine Intuition zu verlassen und ohne groß nachzudenken eine Reaktion auf die gezeigten Zeichen zu finden. Mit chinesischer Schriftsprache kenne ich mich wirklich gar nicht aus. Man hat in den letzte Aufgaben einige Zeichen auch wiedererkannt (z.B. Baby, Astronaut, weinendes Baby). Es fiel mir bei dieser Aufgabe dann schon schwerer rein auf meine Intuition zu hören, da man eben direkt ein Bild zu dem Zeichen vor Augen hatte. Auf jeden Fall war es sehr spannend und hat Spaß gemacht. ","0","1","0","null","","","<div class = 'row'><div class = 'column'><img src = 'category1/CS6.png' width = '70%;'></div><div class = 'column'><img src = 'uspos/5470.bmp' width = '100%;'></div></div>","null","pos","CS","CS","1","category1/CS6.png","","","","",""
"","html-keyboard-response","71","252937","0.0-6.0-6.0-0.2","ptkozk10jy","one_one","1","indirect_first","0","el08ng09","0","22","1","1","3","1","Ich empfand die Teilnahme als sehr angenehm. Ich habe versucht mich wirklich sehr auf meine Intuition zu verlassen und ohne groß nachzudenken eine Reaktion auf die gezeigten Zeichen zu finden. Mit chinesischer Schriftsprache kenne ich mich wirklich gar nicht aus. Man hat in den letzte Aufgaben einige Zeichen auch wiedererkannt (z.B. Baby, Astronaut, weinendes Baby). Es fiel mir bei dieser Aufgabe dann schon schwerer rein auf meine Intuition zu hören, da man eben direkt ein Bild zu dem Zeichen vor Augen hatte. Auf jeden Fall war es sehr spannend und hat Spaß gemacht. ","0","1","0","null","","","<div class = 'row'><div class = 'column'><img src = 'uspos/2058.bmp' width = '100%;'></div><div class = 'column'><img src = 'category2/CS6.png' width = '70%;'></div></div>","null","pos","CS","CS","2","category2/CS6.png","","","","",""
"","html-keyboard-response","72","255453","0.0-6.0-6.0-0.3","ptkozk10jy","one_one","1","indirect_first","0","el08ng09","0","22","1","1","3","1","Ich empfand die Teilnahme als sehr angenehm. Ich habe versucht mich wirklich sehr auf meine Intuition zu verlassen und ohne groß nachzudenken eine Reaktion auf die gezeigten Zeichen zu finden. Mit chinesischer Schriftsprache kenne ich mich wirklich gar nicht aus. Man hat in den letzte Aufgaben einige Zeichen auch wiedererkannt (z.B. Baby, Astronaut, weinendes Baby). Es fiel mir bei dieser Aufgabe dann schon schwerer rein auf meine Intuition zu hören, da man eben direkt ein Bild zu dem Zeichen vor Augen hatte. Auf jeden Fall war es sehr spannend und hat Spaß gemacht. ","0","1","0","null","","","<div class = 'row'><div class = 'column'><img src = 'usneg/6020.bmp' width = '100%;'></div><div class = 'column'><img src = 'category3/CS2.png' width = '70%;'></div></div>","null","neg","CS","CS","3","category3/CS2.png","","","","",""
"","html-keyboard-response","73","257973","0.0-6.0-6.0-0.4","ptkozk10jy","one_one","1","indirect_first","0","el08ng09","0","22","1","1","3","1","Ich empfand die Teilnahme als sehr angenehm. Ich habe versucht mich wirklich sehr auf meine Intuition zu verlassen und ohne groß nachzudenken eine Reaktion auf die gezeigten Zeichen zu finden. Mit chinesischer Schriftsprache kenne ich mich wirklich gar nicht aus. Man hat in den letzte Aufgaben einige Zeichen auch wiedererkannt (z.B. Baby, Astronaut, weinendes Baby). Es fiel mir bei dieser Aufgabe dann schon schwerer rein auf meine Intuition zu hören, da man eben direkt ein Bild zu dem Zeichen vor Augen hatte. Auf jeden Fall war es sehr spannend und hat Spaß gemacht. ","0","1","0","null","","","<div class = 'row'><div class = 'column'><img src = 'category4/CS2.png' width = '70%;'></div><div class = 'column'><img src = 'usneg/3300.bmp' width = '100%;'></div></div>","null","neg","CS","CS","4","category4/CS2.png","","","","",""
"","html-keyboard-response","74","260493","0.0-6.0-6.0-0.5","ptkozk10jy","one_one","1","indirect_first","0","el08ng09","0","22","1","1","3","1","Ich empfand die Teilnahme als sehr angenehm. Ich habe versucht mich wirklich sehr auf meine Intuition zu verlassen und ohne groß nachzudenken eine Reaktion auf die gezeigten Zeichen zu finden. Mit chinesischer Schriftsprache kenne ich mich wirklich gar nicht aus. Man hat in den letzte Aufgaben einige Zeichen auch wiedererkannt (z.B. Baby, Astronaut, weinendes Baby). Es fiel mir bei dieser Aufgabe dann schon schwerer rein auf meine Intuition zu hören, da man eben direkt ein Bild zu dem Zeichen vor Augen hatte. Auf jeden Fall war es sehr spannend und hat Spaß gemacht. ","0","1","0","null","","","<div class = 'row'><div class = 'column'><img src = 'category2/CS6.png' width = '70%;'></div><div class = 'column'><img src = 'uspos/2058.bmp' width = '100%;'></div></div>","null","pos","CS","CS","2","category2/CS6.png","","","","",""
"","html-keyboard-response","75","263012","0.0-6.0-6.0-0.6","ptkozk10jy","one_one","1","indirect_first","0","el08ng09","0","22","1","1","3","1","Ich empfand die Teilnahme als sehr angenehm. Ich habe versucht mich wirklich sehr auf meine Intuition zu verlassen und ohne groß nachzudenken eine Reaktion auf die gezeigten Zeichen zu finden. Mit chinesischer Schriftsprache kenne ich mich wirklich gar nicht aus. Man hat in den letzte Aufgaben einige Zeichen auch wiedererkannt (z.B. Baby, Astronaut, weinendes Baby). Es fiel mir bei dieser Aufgabe dann schon schwerer rein auf meine Intuition zu hören, da man eben direkt ein Bild zu dem Zeichen vor Augen hatte. Auf jeden Fall war es sehr spannend und hat Spaß gemacht. ","0","1","0","null","","","<div class = 'row'><div class = 'column'><img src = 'category4/CS2.png' width = '70%;'></div><div class = 'column'><img src = 'usneg/3300.bmp' width = '100%;'></div></div>","null","neg","CS","CS","4","category4/CS2.png","","","","",""
"","html-keyboard-response","76","265524","0.0-6.0-6.0-0.7","ptkozk10jy","one_one","1","indirect_first","0","el08ng09","0","22","1","1","3","1","Ich empfand die Teilnahme als sehr angenehm. Ich habe versucht mich wirklich sehr auf meine Intuition zu verlassen und ohne groß nachzudenken eine Reaktion auf die gezeigten Zeichen zu finden. Mit chinesischer Schriftsprache kenne ich mich wirklich gar nicht aus. Man hat in den letzte Aufgaben einige Zeichen auch wiedererkannt (z.B. Baby, Astronaut, weinendes Baby). Es fiel mir bei dieser Aufgabe dann schon schwerer rein auf meine Intuition zu hören, da man eben direkt ein Bild zu dem Zeichen vor Augen hatte. Auf jeden Fall war es sehr spannend und hat Spaß gemacht. ","0","1","0","null","","","<div class = 'row'><div class = 'column'><img src = 'category2/CS6.png' width = '70%;'></div><div class = 'column'><img src = 'uspos/2058.bmp' width = '100%;'></div></div>","null","pos","CS","CS","2","category2/CS6.png","","","","",""
"","html-keyboard-response","77","268041","0.0-6.0-6.0-0.8","ptkozk10jy","one_one","1","indirect_first","0","el08ng09","0","22","1","1","3","1","Ich empfand die Teilnahme als sehr angenehm. Ich habe versucht mich wirklich sehr auf meine Intuition zu verlassen und ohne groß nachzudenken eine Reaktion auf die gezeigten Zeichen zu finden. Mit chinesischer Schriftsprache kenne ich mich wirklich gar nicht aus. Man hat in den letzte Aufgaben einige Zeichen auch wiedererkannt (z.B. Baby, Astronaut, weinendes Baby). Es fiel mir bei dieser Aufgabe dann schon schwerer rein auf meine Intuition zu hören, da man eben direkt ein Bild zu dem Zeichen vor Augen hatte. Auf jeden Fall war es sehr spannend und hat Spaß gemacht. ","0","1","0","null","","","<div class = 'row'><div class = 'column'><img src = 'usneg/6020.bmp' width = '100%;'></div><div class = 'column'><img src = 'category3/CS2.png' width = '70%;'></div></div>","null","neg","CS","CS","3","category3/CS2.png","","","","",""
"","html-keyboard-response","78","270553","0.0-6.0-6.0-0.9","ptkozk10jy","one_one","1","indirect_first","0","el08ng09","0","22","1","1","3","1","Ich empfand die Teilnahme als sehr angenehm. Ich habe versucht mich wirklich sehr auf meine Intuition zu verlassen und ohne groß nachzudenken eine Reaktion auf die gezeigten Zeichen zu finden. Mit chinesischer Schriftsprache kenne ich mich wirklich gar nicht aus. Man hat in den letzte Aufgaben einige Zeichen auch wiedererkannt (z.B. Baby, Astronaut, weinendes Baby). Es fiel mir bei dieser Aufgabe dann schon schwerer rein auf meine Intuition zu hören, da man eben direkt ein Bild zu dem Zeichen vor Augen hatte. Auf jeden Fall war es sehr spannend und hat Spaß gemacht. ","0","1","0","null","","","<div class = 'row'><div class = 'column'><img src = 'usneg/3300.bmp' width = '100%;'></div><div class = 'column'><img src = 'category4/CS2.png' width = '70%;'></div></div>","null","neg","CS","CS","4","category4/CS2.png","","","","",""
"","html-keyboard-response","79","273074","0.0-6.0-6.0-0.10","ptkozk10jy","one_one","1","indirect_first","0","el08ng09","0","22","1","1","3","1","Ich empfand die Teilnahme als sehr angenehm. Ich habe versucht mich wirklich sehr auf meine Intuition zu verlassen und ohne groß nachzudenken eine Reaktion auf die gezeigten Zeichen zu finden. Mit chinesischer Schriftsprache kenne ich mich wirklich gar nicht aus. Man hat in den letzte Aufgaben einige Zeichen auch wiedererkannt (z.B. Baby, Astronaut, weinendes Baby). Es fiel mir bei dieser Aufgabe dann schon schwerer rein auf meine Intuition zu hören, da man eben direkt ein Bild zu dem Zeichen vor Augen hatte. Auf jeden Fall war es sehr spannend und hat Spaß gemacht. ","0","1","0","null","","","<div class = 'row'><div class = 'column'><img src = 'uspos/5470.bmp' width = '100%;'></div><div class = 'column'><img src = 'category1/CS6.png' width = '70%;'></div></div>","null","pos","CS","CS","1","category1/CS6.png","","","","",""
"","html-keyboard-response","80","275590","0.0-6.0-6.0-0.11","ptkozk10jy","one_one","1","indirect_first","0","el08ng09","0","22","1","1","3","1","Ich empfand die Teilnahme als sehr angenehm. Ich habe versucht mich wirklich sehr auf meine Intuition zu verlassen und ohne groß nachzudenken eine Reaktion auf die gezeigten Zeichen zu finden. Mit chinesischer Schriftsprache kenne ich mich wirklich gar nicht aus. Man hat in den letzte Aufgaben einige Zeichen auch wiedererkannt (z.B. Baby, Astronaut, weinendes Baby). Es fiel mir bei dieser Aufgabe dann schon schwerer rein auf meine Intuition zu hören, da man eben direkt ein Bild zu dem Zeichen vor Augen hatte. Auf jeden Fall war es sehr spannend und hat Spaß gemacht. ","0","1","0","null","","","<div class = 'row'><div class = 'column'><img src = 'category3/CS2.png' width = '70%;'></div><div class = 'column'><img src = 'usneg/6020.bmp' width = '100%;'></div></div>","null","neg","CS","CS","3","category3/CS2.png","","","","",""
"","html-keyboard-response","81","278100","0.0-6.0-6.0-0.12","ptkozk10jy","one_one","1","indirect_first","0","el08ng09","0","22","1","1","3","1","Ich empfand die Teilnahme als sehr angenehm. Ich habe versucht mich wirklich sehr auf meine Intuition zu verlassen und ohne groß nachzudenken eine Reaktion auf die gezeigten Zeichen zu finden. Mit chinesischer Schriftsprache kenne ich mich wirklich gar nicht aus. Man hat in den letzte Aufgaben einige Zeichen auch wiedererkannt (z.B. Baby, Astronaut, weinendes Baby). Es fiel mir bei dieser Aufgabe dann schon schwerer rein auf meine Intuition zu hören, da man eben direkt ein Bild zu dem Zeichen vor Augen hatte. Auf jeden Fall war es sehr spannend und hat Spaß gemacht. ","0","1","0","null","","","<div class = 'row'><div class = 'column'><img src = 'uspos/2058.bmp' width = '100%;'></div><div class = 'column'><img src = 'category2/CS6.png' width = '70%;'></div></div>","null","pos","CS","CS","2","category2/CS6.png","","","","",""
"","html-keyboard-response","82","280623","0.0-6.0-6.0-0.13","ptkozk10jy","one_one","1","indirect_first","0","el08ng09","0","22","1","1","3","1","Ich empfand die Teilnahme als sehr angenehm. Ich habe versucht mich wirklich sehr auf meine Intuition zu verlassen und ohne groß nachzudenken eine Reaktion auf die gezeigten Zeichen zu finden. Mit chinesischer Schriftsprache kenne ich mich wirklich gar nicht aus. Man hat in den letzte Aufgaben einige Zeichen auch wiedererkannt (z.B. Baby, Astronaut, weinendes Baby). Es fiel mir bei dieser Aufgabe dann schon schwerer rein auf meine Intuition zu hören, da man eben direkt ein Bild zu dem Zeichen vor Augen hatte. Auf jeden Fall war es sehr spannend und hat Spaß gemacht. ","0","1","0","null","","","<div class = 'row'><div class = 'column'><img src = 'usneg/6020.bmp' width = '100%;'></div><div class = 'column'><img src = 'category3/CS2.png' width = '70%;'></div></div>","null","neg","CS","CS","3","category3/CS2.png","","","","",""
"","html-keyboard-response","83","283155","0.0-6.0-6.0-0.14","ptkozk10jy","one_one","1","indirect_first","0","el08ng09","0","22","1","1","3","1","Ich empfand die Teilnahme als sehr angenehm. Ich habe versucht mich wirklich sehr auf meine Intuition zu verlassen und ohne groß nachzudenken eine Reaktion auf die gezeigten Zeichen zu finden. Mit chinesischer Schriftsprache kenne ich mich wirklich gar nicht aus. Man hat in den letzte Aufgaben einige Zeichen auch wiedererkannt (z.B. Baby, Astronaut, weinendes Baby). Es fiel mir bei dieser Aufgabe dann schon schwerer rein auf meine Intuition zu hören, da man eben direkt ein Bild zu dem Zeichen vor Augen hatte. Auf jeden Fall war es sehr spannend und hat Spaß gemacht. ","0","1","0","null","","","<div class = 'row'><div class = 'column'><img src = 'uspos/5470.bmp' width = '100%;'></div><div class = 'column'><img src = 'category1/CS6.png' width = '70%;'></div></div>","null","pos","CS","CS","1","category1/CS6.png","","","","",""
"","html-keyboard-response","84","285663","0.0-6.0-6.0-0.15","ptkozk10jy","one_one","1","indirect_first","0","el08ng09","0","22","1","1","3","1","Ich empfand die Teilnahme als sehr angenehm. Ich habe versucht mich wirklich sehr auf meine Intuition zu verlassen und ohne groß nachzudenken eine Reaktion auf die gezeigten Zeichen zu finden. Mit chinesischer Schriftsprache kenne ich mich wirklich gar nicht aus. Man hat in den letzte Aufgaben einige Zeichen auch wiedererkannt (z.B. Baby, Astronaut, weinendes Baby). Es fiel mir bei dieser Aufgabe dann schon schwerer rein auf meine Intuition zu hören, da man eben direkt ein Bild zu dem Zeichen vor Augen hatte. Auf jeden Fall war es sehr spannend und hat Spaß gemacht. ","0","1","0","null","","","<div class = 'row'><div class = 'column'><img src = 'category2/CS6.png' width = '70%;'></div><div class = 'column'><img src = 'uspos/2058.bmp' width = '100%;'></div></div>","null","pos","CS","CS","2","category2/CS6.png","","","","",""
"","html-keyboard-response","85","288171","0.0-6.0-6.0-0.16","ptkozk10jy","one_one","1","indirect_first","0","el08ng09","0","22","1","1","3","1","Ich empfand die Teilnahme als sehr angenehm. Ich habe versucht mich wirklich sehr auf meine Intuition zu verlassen und ohne groß nachzudenken eine Reaktion auf die gezeigten Zeichen zu finden. Mit chinesischer Schriftsprache kenne ich mich wirklich gar nicht aus. Man hat in den letzte Aufgaben einige Zeichen auch wiedererkannt (z.B. Baby, Astronaut, weinendes Baby). Es fiel mir bei dieser Aufgabe dann schon schwerer rein auf meine Intuition zu hören, da man eben direkt ein Bild zu dem Zeichen vor Augen hatte. Auf jeden Fall war es sehr spannend und hat Spaß gemacht. ","0","1","0","null","","","<div class = 'row'><div class = 'column'><img src = 'usneg/3300.bmp' width = '100%;'></div><div class = 'column'><img src = 'category4/CS2.png' width = '70%;'></div></div>","null","neg","CS","CS","4","category4/CS2.png","","","","",""
"","html-keyboard-response","86","290688","0.0-6.0-6.0-0.17","ptkozk10jy","one_one","1","indirect_first","0","el08ng09","0","22","1","1","3","1","Ich empfand die Teilnahme als sehr angenehm. Ich habe versucht mich wirklich sehr auf meine Intuition zu verlassen und ohne groß nachzudenken eine Reaktion auf die gezeigten Zeichen zu finden. Mit chinesischer Schriftsprache kenne ich mich wirklich gar nicht aus. Man hat in den letzte Aufgaben einige Zeichen auch wiedererkannt (z.B. Baby, Astronaut, weinendes Baby). Es fiel mir bei dieser Aufgabe dann schon schwerer rein auf meine Intuition zu hören, da man eben direkt ein Bild zu dem Zeichen vor Augen hatte. Auf jeden Fall war es sehr spannend und hat Spaß gemacht. ","0","1","0","null","","","<div class = 'row'><div class = 'column'><img src = 'uspos/5470.bmp' width = '100%;'></div><div class = 'column'><img src = 'category1/CS6.png' width = '70%;'></div></div>","null","pos","CS","CS","1","category1/CS6.png","","","","",""
"","html-keyboard-response","87","293205","0.0-6.0-6.0-0.18","ptkozk10jy","one_one","1","indirect_first","0","el08ng09","0","22","1","1","3","1","Ich empfand die Teilnahme als sehr angenehm. Ich habe versucht mich wirklich sehr auf meine Intuition zu verlassen und ohne groß nachzudenken eine Reaktion auf die gezeigten Zeichen zu finden. Mit chinesischer Schriftsprache kenne ich mich wirklich gar nicht aus. Man hat in den letzte Aufgaben einige Zeichen auch wiedererkannt (z.B. Baby, Astronaut, weinendes Baby). Es fiel mir bei dieser Aufgabe dann schon schwerer rein auf meine Intuition zu hören, da man eben direkt ein Bild zu dem Zeichen vor Augen hatte. Auf jeden Fall war es sehr spannend und hat Spaß gemacht. ","0","1","0","null","","","<div class = 'row'><div class = 'column'><img src = 'usneg/3300.bmp' width = '100%;'></div><div class = 'column'><img src = 'category4/CS2.png' width = '70%;'></div></div>","null","neg","CS","CS","4","category4/CS2.png","","","","",""
"","html-keyboard-response","88","295716","0.0-6.0-6.0-0.19","ptkozk10jy","one_one","1","indirect_first","0","el08ng09","0","22","1","1","3","1","Ich empfand die Teilnahme als sehr angenehm. Ich habe versucht mich wirklich sehr auf meine Intuition zu verlassen und ohne groß nachzudenken eine Reaktion auf die gezeigten Zeichen zu finden. Mit chinesischer Schriftsprache kenne ich mich wirklich gar nicht aus. Man hat in den letzte Aufgaben einige Zeichen auch wiedererkannt (z.B. Baby, Astronaut, weinendes Baby). Es fiel mir bei dieser Aufgabe dann schon schwerer rein auf meine Intuition zu hören, da man eben direkt ein Bild zu dem Zeichen vor Augen hatte. Auf jeden Fall war es sehr spannend und hat Spaß gemacht. ","0","1","0","null","","","<div class = 'row'><div class = 'column'><img src = 'uspos/5470.bmp' width = '100%;'></div><div class = 'column'><img src = 'category1/CS6.png' width = '70%;'></div></div>","null","pos","CS","CS","1","category1/CS6.png","","","","",""
"","html-keyboard-response","89","363556","0.0-7.0","ptkozk10jy","one_one","1","indirect_first","0","el08ng09","0","22","1","1","3","1","Ich empfand die Teilnahme als sehr angenehm. Ich habe versucht mich wirklich sehr auf meine Intuition zu verlassen und ohne groß nachzudenken eine Reaktion auf die gezeigten Zeichen zu finden. Mit chinesischer Schriftsprache kenne ich mich wirklich gar nicht aus. Man hat in den letzte Aufgaben einige Zeichen auch wiedererkannt (z.B. Baby, Astronaut, weinendes Baby). Es fiel mir bei dieser Aufgabe dann schon schwerer rein auf meine Intuition zu hören, da man eben direkt ein Bild zu dem Zeichen vor Augen hatte. Auf jeden Fall war es sehr spannend und hat Spaß gemacht. ","0","1","0","67330.04999998957","","","<p>Sie sehen nun die chinesischen Zeichen nur ganz kurz. Danach sehen Sie die jeweilige Aussprache der Zeichen als Silbe auf dem Bildschrim. Ihre Aufgabe ist es, für jede Silbe anzugeben, ob diese etwas angenehmes, oder unangenehmes bedeuten könnte. Verlassen Sie sich hier vor allem auf Ihre Intuition.<br><br>Die Zeichen werden nur zur Orientierung dargestellt, beachten Sie sie deshalb nicht. Konzentrieren Sie sich vor allem auf die Silben. <br>Reagieren Sie mit folgenden zwei Tasten: <br><br><b>'D' </b> wenn die Silbe etwas <b>unangenehmes</b> bedeuten könnte. <br><b>'K'</b> wenn die Silbe etwas <b>angenehmes</b> bedeuten könnte. <br><br>Bitte legen Sie nun den Zeigefinger der linken Hand auf die Taste 'D' und den Zeigefinger der rechten Hand auf die Taste 'K'. <br>Reagieren Sie auf jede Silbe so schnell wie möglich. Uns interessiert Ihre spontane Reaktion. <br> <br> <br>Drücken Sie 'D' oder 'K', um die nächste Aufgabe zu starten. </p>","75","","","","","","","","","",""
"","html-keyboard-response","90","366565","0.0-8.0-0.0","ptkozk10jy","one_one","1","indirect_first","0","el08ng09","0","22","1","1","3","1","Ich empfand die Teilnahme als sehr angenehm. Ich habe versucht mich wirklich sehr auf meine Intuition zu verlassen und ohne groß nachzudenken eine Reaktion auf die gezeigten Zeichen zu finden. Mit chinesischer Schriftsprache kenne ich mich wirklich gar nicht aus. Man hat in den letzte Aufgaben einige Zeichen auch wiedererkannt (z.B. Baby, Astronaut, weinendes Baby). Es fiel mir bei dieser Aufgabe dann schon schwerer rein auf meine Intuition zu hören, da man eben direkt ein Bild zu dem Zeichen vor Augen hatte. Auf jeden Fall war es sehr spannend und hat Spaß gemacht. ","0","1","0","null","","","<div style=""font-size:60px;"">+</div>","null","","","","","","","","","",""
"","html-keyboard-response","91","366664","0.0-8.0-1.0","ptkozk10jy","one_one","1","indirect_first","0","el08ng09","0","22","1","1","3","1","Ich empfand die Teilnahme als sehr angenehm. Ich habe versucht mich wirklich sehr auf meine Intuition zu verlassen und ohne groß nachzudenken eine Reaktion auf die gezeigten Zeichen zu finden. Mit chinesischer Schriftsprache kenne ich mich wirklich gar nicht aus. Man hat in den letzte Aufgaben einige Zeichen auch wiedererkannt (z.B. Baby, Astronaut, weinendes Baby). Es fiel mir bei dieser Aufgabe dann schon schwerer rein auf meine Intuition zu hören, da man eben direkt ein Bild zu dem Zeichen vor Augen hatte. Auf jeden Fall war es sehr spannend und hat Spaß gemacht. ","0","1","0","null","","","<img src = 'category2/CS9.png' width = '100%;'>","null","","","","","","","","","",""
"","html-keyboard-response","92","366926","0.0-8.0-2.0","ptkozk10jy","one_one","1","indirect_first","0","el08ng09","0","22","1","1","3","1","Ich empfand die Teilnahme als sehr angenehm. Ich habe versucht mich wirklich sehr auf meine Intuition zu verlassen und ohne groß nachzudenken eine Reaktion auf die gezeigten Zeichen zu finden. Mit chinesischer Schriftsprache kenne ich mich wirklich gar nicht aus. Man hat in den letzte Aufgaben einige Zeichen auch wiedererkannt (z.B. Baby, Astronaut, weinendes Baby). Es fiel mir bei dieser Aufgabe dann schon schwerer rein auf meine Intuition zu hören, da man eben direkt ein Bild zu dem Zeichen vor Augen hatte. Auf jeden Fall war es sehr spannend und hat Spaß gemacht. ","0","1","0","null","","","<img src = 'targets/39.png' width = '100%;'>","null","","","","","","","","","",""
"","html-keyboard-response","93","372339","0.0-8.0-3.0","ptkozk10jy","one_one","1","indirect_first","0","el08ng09","0","22","1","1","3","1","Ich empfand die Teilnahme als sehr angenehm. Ich habe versucht mich wirklich sehr auf meine Intuition zu verlassen und ohne groß nachzudenken eine Reaktion auf die gezeigten Zeichen zu finden. Mit chinesischer Schriftsprache kenne ich mich wirklich gar nicht aus. Man hat in den letzte Aufgaben einige Zeichen auch wiedererkannt (z.B. Baby, Astronaut, weinendes Baby). Es fiel mir bei dieser Aufgabe dann schon schwerer rein auf meine Intuition zu hören, da man eben direkt ein Bild zu dem Zeichen vor Augen hatte. Auf jeden Fall war es sehr spannend und hat Spaß gemacht. ","0","1","0","5411.915000062436","","","<img src = 'targets/mask.png' width = '100%;'>","75","pos","GS","GSold","2","category2/CS9.png","targets/39.png","1","indirect","0",""
"","html-keyboard-response","94","373849","0.0-8.0-0.1","ptkozk10jy","one_one","1","indirect_first","0","el08ng09","0","22","1","1","3","1","Ich empfand die Teilnahme als sehr angenehm. Ich habe versucht mich wirklich sehr auf meine Intuition zu verlassen und ohne groß nachzudenken eine Reaktion auf die gezeigten Zeichen zu finden. Mit chinesischer Schriftsprache kenne ich mich wirklich gar nicht aus. Man hat in den letzte Aufgaben einige Zeichen auch wiedererkannt (z.B. Baby, Astronaut, weinendes Baby). Es fiel mir bei dieser Aufgabe dann schon schwerer rein auf meine Intuition zu hören, da man eben direkt ein Bild zu dem Zeichen vor Augen hatte. Auf jeden Fall war es sehr spannend und hat Spaß gemacht. ","0","1","0","null","","","<div style=""font-size:60px;"">+</div>","null","","","","","","","","","",""
"","html-keyboard-response","95","373948","0.0-8.0-1.1","ptkozk10jy","one_one","1","indirect_first","0","el08ng09","0","22","1","1","3","1","Ich empfand die Teilnahme als sehr angenehm. Ich habe versucht mich wirklich sehr auf meine Intuition zu verlassen und ohne groß nachzudenken eine Reaktion auf die gezeigten Zeichen zu finden. Mit chinesischer Schriftsprache kenne ich mich wirklich gar nicht aus. Man hat in den letzte Aufgaben einige Zeichen auch wiedererkannt (z.B. Baby, Astronaut, weinendes Baby). Es fiel mir bei dieser Aufgabe dann schon schwerer rein auf meine Intuition zu hören, da man eben direkt ein Bild zu dem Zeichen vor Augen hatte. Auf jeden Fall war es sehr spannend und hat Spaß gemacht. ","0","1","0","null","","","<img src = 'category3/CS1.png' width = '100%;'>","null","","","","","","","","","",""
"","html-keyboard-response","96","374209","0.0-8.0-2.1","ptkozk10jy","one_one","1","indirect_first","0","el08ng09","0","22","1","1","3","1","Ich empfand die Teilnahme als sehr angenehm. Ich habe versucht mich wirklich sehr auf meine Intuition zu verlassen und ohne groß nachzudenken eine Reaktion auf die gezeigten Zeichen zu finden. Mit chinesischer Schriftsprache kenne ich mich wirklich gar nicht aus. Man hat in den letzte Aufgaben einige Zeichen auch wiedererkannt (z.B. Baby, Astronaut, weinendes Baby). Es fiel mir bei dieser Aufgabe dann schon schwerer rein auf meine Intuition zu hören, da man eben direkt ein Bild zu dem Zeichen vor Augen hatte. Auf jeden Fall war es sehr spannend und hat Spaß gemacht. ","0","1","0","null","","","<img src = 'targets/32.png' width = '100%;'>","null","","","","","","","","","",""
"","html-keyboard-response","97","377683","0.0-8.0-3.1","ptkozk10jy","one_one","1","indirect_first","0","el08ng09","0","22","1","1","3","1","Ich empfand die Teilnahme als sehr angenehm. Ich habe versucht mich wirklich sehr auf meine Intuition zu verlassen und ohne groß nachzudenken eine Reaktion auf die gezeigten Zeichen zu finden. Mit chinesischer Schriftsprache kenne ich mich wirklich gar nicht aus. Man hat in den letzte Aufgaben einige Zeichen auch wiedererkannt (z.B. Baby, Astronaut, weinendes Baby). Es fiel mir bei dieser Aufgabe dann schon schwerer rein auf meine Intuition zu hören, da man eben direkt ein Bild zu dem Zeichen vor Augen hatte. Auf jeden Fall war es sehr spannend und hat Spaß gemacht. ","0","1","0","3472.855000058189","","","<img src = 'targets/mask.png' width = '100%;'>","68","neg","GS","GSold","3","category3/CS1.png","targets/32.png","0","indirect","1",""
"","html-keyboard-response","98","379188","0.0-8.0-0.2","ptkozk10jy","one_one","1","indirect_first","0","el08ng09","0","22","1","1","3","1","Ich empfand die Teilnahme als sehr angenehm. Ich habe versucht mich wirklich sehr auf meine Intuition zu verlassen und ohne groß nachzudenken eine Reaktion auf die gezeigten Zeichen zu finden. Mit chinesischer Schriftsprache kenne ich mich wirklich gar nicht aus. Man hat in den letzte Aufgaben einige Zeichen auch wiedererkannt (z.B. Baby, Astronaut, weinendes Baby). Es fiel mir bei dieser Aufgabe dann schon schwerer rein auf meine Intuition zu hören, da man eben direkt ein Bild zu dem Zeichen vor Augen hatte. Auf jeden Fall war es sehr spannend und hat Spaß gemacht. ","0","1","0","null","","","<div style=""font-size:60px;"">+</div>","null","","","","","","","","","",""
"","html-keyboard-response","99","379285","0.0-8.0-1.2","ptkozk10jy","one_one","1","indirect_first","0","el08ng09","0","22","1","1","3","1","Ich empfand die Teilnahme als sehr angenehm. Ich habe versucht mich wirklich sehr auf meine Intuition zu verlassen und ohne groß nachzudenken eine Reaktion auf die gezeigten Zeichen zu finden. Mit chinesischer Schriftsprache kenne ich mich wirklich gar nicht aus. Man hat in den letzte Aufgaben einige Zeichen auch wiedererkannt (z.B. Baby, Astronaut, weinendes Baby). Es fiel mir bei dieser Aufgabe dann schon schwerer rein auf meine Intuition zu hören, da man eben direkt ein Bild zu dem Zeichen vor Augen hatte. Auf jeden Fall war es sehr spannend und hat Spaß gemacht. ","0","1","0","null","","","<img src = 'category3/CS8.png' width = '100%;'>","null","","","","","","","","","",""
"","html-keyboard-response","100","379543","0.0-8.0-2.2","ptkozk10jy","one_one","1","indirect_first","0","el08ng09","0","22","1","1","3","1","Ich empfand die Teilnahme als sehr angenehm. Ich habe versucht mich wirklich sehr auf meine Intuition zu verlassen und ohne groß nachzudenken eine Reaktion auf die gezeigten Zeichen zu finden. Mit chinesischer Schriftsprache kenne ich mich wirklich gar nicht aus. Man hat in den letzte Aufgaben einige Zeichen auch wiedererkannt (z.B. Baby, Astronaut, weinendes Baby). Es fiel mir bei dieser Aufgabe dann schon schwerer rein auf meine Intuition zu hören, da man eben direkt ein Bild zu dem Zeichen vor Augen hatte. Auf jeden Fall war es sehr spannend und hat Spaß gemacht. ","0","1","0","null","","","<img src = 'targets/23.png' width = '100%;'>","null","","","","","","","","","",""
"","html-keyboard-response","101","381320","0.0-8.0-3.2","ptkozk10jy","one_one","1","indirect_first","0","el08ng09","0","22","1","1","3","1","Ich empfand die Teilnahme als sehr angenehm. Ich habe versucht mich wirklich sehr auf meine Intuition zu verlassen und ohne groß nachzudenken eine Reaktion auf die gezeigten Zeichen zu finden. Mit chinesischer Schriftsprache kenne ich mich wirklich gar nicht aus. Man hat in den letzte Aufgaben einige Zeichen auch wiedererkannt (z.B. Baby, Astronaut, weinendes Baby). Es fiel mir bei dieser Aufgabe dann schon schwerer rein auf meine Intuition zu hören, da man eben direkt ein Bild zu dem Zeichen vor Augen hatte. Auf jeden Fall war es sehr spannend und hat Spaß gemacht. ","0","1","0","1774.0950000006706","","","<img src = 'targets/mask.png' width = '100%;'>","75","neg","GS","GSold","3","category3/CS8.png","targets/23.png","1","indirect","2",""
"","html-keyboard-response","102","382834","0.0-8.0-0.3","ptkozk10jy","one_one","1","indirect_first","0","el08ng09","0","22","1","1","3","1","Ich empfand die Teilnahme als sehr angenehm. Ich habe versucht mich wirklich sehr auf meine Intuition zu verlassen und ohne groß nachzudenken eine Reaktion auf die gezeigten Zeichen zu finden. Mit chinesischer Schriftsprache kenne ich mich wirklich gar nicht aus. Man hat in den letzte Aufgaben einige Zeichen auch wiedererkannt (z.B. Baby, Astronaut, weinendes Baby). Es fiel mir bei dieser Aufgabe dann schon schwerer rein auf meine Intuition zu hören, da man eben direkt ein Bild zu dem Zeichen vor Augen hatte. Auf jeden Fall war es sehr spannend und hat Spaß gemacht. ","0","1","0","null","","","<div style=""font-size:60px;"">+</div>","null","","","","","","","","","",""
"","html-keyboard-response","103","382935","0.0-8.0-1.3","ptkozk10jy","one_one","1","indirect_first","0","el08ng09","0","22","1","1","3","1","Ich empfand die Teilnahme als sehr angenehm. Ich habe versucht mich wirklich sehr auf meine Intuition zu verlassen und ohne groß nachzudenken eine Reaktion auf die gezeigten Zeichen zu finden. Mit chinesischer Schriftsprache kenne ich mich wirklich gar nicht aus. Man hat in den letzte Aufgaben einige Zeichen auch wiedererkannt (z.B. Baby, Astronaut, weinendes Baby). Es fiel mir bei dieser Aufgabe dann schon schwerer rein auf meine Intuition zu hören, da man eben direkt ein Bild zu dem Zeichen vor Augen hatte. Auf jeden Fall war es sehr spannend und hat Spaß gemacht. ","0","1","0","null","","","<img src = 'category1/CS9.png' width = '100%;'>","null","","","","","","","","","",""
