"success","trial_type","trial_index","time_elapsed","internal_node_id","subject","condition","condition_code","measure","measure_code","codeword","gender","age","education","chinese","fach","handedness","comment","hinschauen","ablenkung","gewissenhaft","rt","url","responses","stimulus","key_press","val","type","type_specific","category","cs_selected","response","target","task","indirect","nr_pres"
"true","fullscreen","0","7882","0.0-0.0","wtqerrutwo","one_one","1","direct_first","1","un07ed05","0","24","1","1","3","1","Als Bilder und Zeichen abwechselnd gezeigt wurden habe ich mich gestresst gefühlt und bei dem mit den Silben war mir am Anfang nicht klar, dass ich beim ""+"" noch keine Taste drücken musste. Ich vermute das Bild von den Zeichen wurde bei den Silben kurz eingeblendet, um das Unterbewusstsein anzuregen aber für mich ging das alles so schnell, dass ich mich nur auf die Silben konzentriert habe weil ich die sonst verpasst hätte (die Silben, um die es ja ging könnte man etwas länger zeigen)","0","1","0","","","","","","","","","","","","","","",""
"","external-html","1","57179","0.0-1.0","wtqerrutwo","one_one","1","direct_first","1","un07ed05","0","24","1","1","3","1","Als Bilder und Zeichen abwechselnd gezeigt wurden habe ich mich gestresst gefühlt und bei dem mit den Silben war mir am Anfang nicht klar, dass ich beim ""+"" noch keine Taste drücken musste. Ich vermute das Bild von den Zeichen wurde bei den Silben kurz eingeblendet, um das Unterbewusstsein anzuregen aber für mich ging das alles so schnell, dass ich mich nur auf die Silben konzentriert habe weil ich die sonst verpasst hätte (die Silben, um die es ja ging könnte man etwas länger zeigen)","0","1","0","49204","text/information.html","","","","","","","","","","","","",""
"","external-html","2","79632","0.0-2.0","wtqerrutwo","one_one","1","direct_first","1","un07ed05","0","24","1","1","3","1","Als Bilder und Zeichen abwechselnd gezeigt wurden habe ich mich gestresst gefühlt und bei dem mit den Silben war mir am Anfang nicht klar, dass ich beim ""+"" noch keine Taste drücken musste. Ich vermute das Bild von den Zeichen wurde bei den Silben kurz eingeblendet, um das Unterbewusstsein anzuregen aber für mich ging das alles so schnell, dass ich mich nur auf die Silben konzentriert habe weil ich die sonst verpasst hätte (die Silben, um die es ja ging könnte man etwas länger zeigen)","0","1","0","22329","text/consent.html","","","","","","","","","","","","",""
"","survey-html-form","3","143386","0.0-3.0","wtqerrutwo","one_one","1","direct_first","1","un07ed05","0","24","1","1","3","1","Als Bilder und Zeichen abwechselnd gezeigt wurden habe ich mich gestresst gefühlt und bei dem mit den Silben war mir am Anfang nicht klar, dass ich beim ""+"" noch keine Taste drücken musste. Ich vermute das Bild von den Zeichen wurde bei den Silben kurz eingeblendet, um das Unterbewusstsein anzuregen aber für mich ging das alles so schnell, dass ich mich nur auf die Silben konzentriert habe weil ich die sonst verpasst hätte (die Silben, um die es ja ging könnte man etwas länger zeigen)","0","1","0","63750","","{""codeword_enter"":""un07ed05""}","","","","","","","","","","","",""
"","survey-html-form","4","170492","0.0-4.0","wtqerrutwo","one_one","1","direct_first","1","un07ed05","0","24","1","1","3","1","Als Bilder und Zeichen abwechselnd gezeigt wurden habe ich mich gestresst gefühlt und bei dem mit den Silben war mir am Anfang nicht klar, dass ich beim ""+"" noch keine Taste drücken musste. Ich vermute das Bild von den Zeichen wurde bei den Silben kurz eingeblendet, um das Unterbewusstsein anzuregen aber für mich ging das alles so schnell, dass ich mich nur auf die Silben konzentriert habe weil ich die sonst verpasst hätte (die Silben, um die es ja ging könnte man etwas länger zeigen)","0","1","0","27102","","{""age"":""24"",""education"":""1"",""subject"":""3"",""gender"":""0"",""handedness"":""1"",""chinese"":""1""}","","","","","","","","","","","",""
"","survey-html-form","5","230359","0.0-5.0","wtqerrutwo","one_one","1","direct_first","1","un07ed05","0","24","1","1","3","1","Als Bilder und Zeichen abwechselnd gezeigt wurden habe ich mich gestresst gefühlt und bei dem mit den Silben war mir am Anfang nicht klar, dass ich beim ""+"" noch keine Taste drücken musste. Ich vermute das Bild von den Zeichen wurde bei den Silben kurz eingeblendet, um das Unterbewusstsein anzuregen aber für mich ging das alles so schnell, dass ich mich nur auf die Silben konzentriert habe weil ich die sonst verpasst hätte (die Silben, um die es ja ging könnte man etwas länger zeigen)","0","1","0","59865","","{}","","","","","","","","","","","",""
"","html-keyboard-response","6","234389","0.0-6.0-0.0-0.0","wtqerrutwo","one_one","1","direct_first","1","un07ed05","0","24","1","1","3","1","Als Bilder und Zeichen abwechselnd gezeigt wurden habe ich mich gestresst gefühlt und bei dem mit den Silben war mir am Anfang nicht klar, dass ich beim ""+"" noch keine Taste drücken musste. Ich vermute das Bild von den Zeichen wurde bei den Silben kurz eingeblendet, um das Unterbewusstsein anzuregen aber für mich ging das alles so schnell, dass ich mich nur auf die Silben konzentriert habe weil ich die sonst verpasst hätte (die Silben, um die es ja ging könnte man etwas länger zeigen)","0","1","0","null","","","<div class = 'row'><div class = 'column'><img src = 'category3/CS6.png' width = '70%;'></div><div class = 'column'><img src = 'uspos/8350.bmp' width = '100%;'></div></div>","null","pos","CS","CS","3","category3/CS6.png","","","","",""
"","html-keyboard-response","7","236911","0.0-6.0-0.0-0.1","wtqerrutwo","one_one","1","direct_first","1","un07ed05","0","24","1","1","3","1","Als Bilder und Zeichen abwechselnd gezeigt wurden habe ich mich gestresst gefühlt und bei dem mit den Silben war mir am Anfang nicht klar, dass ich beim ""+"" noch keine Taste drücken musste. Ich vermute das Bild von den Zeichen wurde bei den Silben kurz eingeblendet, um das Unterbewusstsein anzuregen aber für mich ging das alles so schnell, dass ich mich nur auf die Silben konzentriert habe weil ich die sonst verpasst hätte (die Silben, um die es ja ging könnte man etwas länger zeigen)","0","1","0","null","","","<div class = 'row'><div class = 'column'><img src = 'usneg/9415.bmp' width = '100%;'></div><div class = 'column'><img src = 'category4/CS2.png' width = '70%;'></div></div>","null","neg","CS","CS","4","category4/CS2.png","","","","",""
"","html-keyboard-response","8","239432","0.0-6.0-0.0-0.2","wtqerrutwo","one_one","1","direct_first","1","un07ed05","0","24","1","1","3","1","Als Bilder und Zeichen abwechselnd gezeigt wurden habe ich mich gestresst gefühlt und bei dem mit den Silben war mir am Anfang nicht klar, dass ich beim ""+"" noch keine Taste drücken musste. Ich vermute das Bild von den Zeichen wurde bei den Silben kurz eingeblendet, um das Unterbewusstsein anzuregen aber für mich ging das alles so schnell, dass ich mich nur auf die Silben konzentriert habe weil ich die sonst verpasst hätte (die Silben, um die es ja ging könnte man etwas länger zeigen)","0","1","0","null","","","<div class = 'row'><div class = 'column'><img src = 'uspos/5621.bmp' width = '100%;'></div><div class = 'column'><img src = 'category2/CS6.png' width = '70%;'></div></div>","null","pos","CS","CS","2","category2/CS6.png","","","","",""
"","html-keyboard-response","9","241963","0.0-6.0-0.0-0.3","wtqerrutwo","one_one","1","direct_first","1","un07ed05","0","24","1","1","3","1","Als Bilder und Zeichen abwechselnd gezeigt wurden habe ich mich gestresst gefühlt und bei dem mit den Silben war mir am Anfang nicht klar, dass ich beim ""+"" noch keine Taste drücken musste. Ich vermute das Bild von den Zeichen wurde bei den Silben kurz eingeblendet, um das Unterbewusstsein anzuregen aber für mich ging das alles so schnell, dass ich mich nur auf die Silben konzentriert habe weil ich die sonst verpasst hätte (die Silben, um die es ja ging könnte man etwas länger zeigen)","0","1","0","null","","","<div class = 'row'><div class = 'column'><img src = 'uspos/8350.bmp' width = '100%;'></div><div class = 'column'><img src = 'category3/CS6.png' width = '70%;'></div></div>","null","pos","CS","CS","3","category3/CS6.png","","","","",""
"","html-keyboard-response","10","244481","0.0-6.0-0.0-0.4","wtqerrutwo","one_one","1","direct_first","1","un07ed05","0","24","1","1","3","1","Als Bilder und Zeichen abwechselnd gezeigt wurden habe ich mich gestresst gefühlt und bei dem mit den Silben war mir am Anfang nicht klar, dass ich beim ""+"" noch keine Taste drücken musste. Ich vermute das Bild von den Zeichen wurde bei den Silben kurz eingeblendet, um das Unterbewusstsein anzuregen aber für mich ging das alles so schnell, dass ich mich nur auf die Silben konzentriert habe weil ich die sonst verpasst hätte (die Silben, um die es ja ging könnte man etwas länger zeigen)","0","1","0","null","","","<div class = 'row'><div class = 'column'><img src = 'category2/CS6.png' width = '70%;'></div><div class = 'column'><img src = 'uspos/5621.bmp' width = '100%;'></div></div>","null","pos","CS","CS","2","category2/CS6.png","","","","",""
"","html-keyboard-response","11","247005","0.0-6.0-0.0-0.5","wtqerrutwo","one_one","1","direct_first","1","un07ed05","0","24","1","1","3","1","Als Bilder und Zeichen abwechselnd gezeigt wurden habe ich mich gestresst gefühlt und bei dem mit den Silben war mir am Anfang nicht klar, dass ich beim ""+"" noch keine Taste drücken musste. Ich vermute das Bild von den Zeichen wurde bei den Silben kurz eingeblendet, um das Unterbewusstsein anzuregen aber für mich ging das alles so schnell, dass ich mich nur auf die Silben konzentriert habe weil ich die sonst verpasst hätte (die Silben, um die es ja ging könnte man etwas länger zeigen)","0","1","0","null","","","<div class = 'row'><div class = 'column'><img src = 'category3/CS6.png' width = '70%;'></div><div class = 'column'><img src = 'uspos/8350.bmp' width = '100%;'></div></div>","null","pos","CS","CS","3","category3/CS6.png","","","","",""
"","html-keyboard-response","12","249522","0.0-6.0-0.0-0.6","wtqerrutwo","one_one","1","direct_first","1","un07ed05","0","24","1","1","3","1","Als Bilder und Zeichen abwechselnd gezeigt wurden habe ich mich gestresst gefühlt und bei dem mit den Silben war mir am Anfang nicht klar, dass ich beim ""+"" noch keine Taste drücken musste. Ich vermute das Bild von den Zeichen wurde bei den Silben kurz eingeblendet, um das Unterbewusstsein anzuregen aber für mich ging das alles so schnell, dass ich mich nur auf die Silben konzentriert habe weil ich die sonst verpasst hätte (die Silben, um die es ja ging könnte man etwas länger zeigen)","0","1","0","null","","","<div class = 'row'><div class = 'column'><img src = 'usneg/9330.bmp' width = '100%;'></div><div class = 'column'><img src = 'category1/CS5.png' width = '70%;'></div></div>","null","neg","CS","CS","1","category1/CS5.png","","","","",""
"","html-keyboard-response","13","252035","0.0-6.0-0.0-0.7","wtqerrutwo","one_one","1","direct_first","1","un07ed05","0","24","1","1","3","1","Als Bilder und Zeichen abwechselnd gezeigt wurden habe ich mich gestresst gefühlt und bei dem mit den Silben war mir am Anfang nicht klar, dass ich beim ""+"" noch keine Taste drücken musste. Ich vermute das Bild von den Zeichen wurde bei den Silben kurz eingeblendet, um das Unterbewusstsein anzuregen aber für mich ging das alles so schnell, dass ich mich nur auf die Silben konzentriert habe weil ich die sonst verpasst hätte (die Silben, um die es ja ging könnte man etwas länger zeigen)","0","1","0","null","","","<div class = 'row'><div class = 'column'><img src = 'category2/CS6.png' width = '70%;'></div><div class = 'column'><img src = 'uspos/5621.bmp' width = '100%;'></div></div>","null","pos","CS","CS","2","category2/CS6.png","","","","",""
"","html-keyboard-response","14","254562","0.0-6.0-0.0-0.8","wtqerrutwo","one_one","1","direct_first","1","un07ed05","0","24","1","1","3","1","Als Bilder und Zeichen abwechselnd gezeigt wurden habe ich mich gestresst gefühlt und bei dem mit den Silben war mir am Anfang nicht klar, dass ich beim ""+"" noch keine Taste drücken musste. Ich vermute das Bild von den Zeichen wurde bei den Silben kurz eingeblendet, um das Unterbewusstsein anzuregen aber für mich ging das alles so schnell, dass ich mich nur auf die Silben konzentriert habe weil ich die sonst verpasst hätte (die Silben, um die es ja ging könnte man etwas länger zeigen)","0","1","0","null","","","<div class = 'row'><div class = 'column'><img src = 'category1/CS5.png' width = '70%;'></div><div class = 'column'><img src = 'usneg/9330.bmp' width = '100%;'></div></div>","null","neg","CS","CS","1","category1/CS5.png","","","","",""
"","html-keyboard-response","15","257086","0.0-6.0-0.0-0.9","wtqerrutwo","one_one","1","direct_first","1","un07ed05","0","24","1","1","3","1","Als Bilder und Zeichen abwechselnd gezeigt wurden habe ich mich gestresst gefühlt und bei dem mit den Silben war mir am Anfang nicht klar, dass ich beim ""+"" noch keine Taste drücken musste. Ich vermute das Bild von den Zeichen wurde bei den Silben kurz eingeblendet, um das Unterbewusstsein anzuregen aber für mich ging das alles so schnell, dass ich mich nur auf die Silben konzentriert habe weil ich die sonst verpasst hätte (die Silben, um die es ja ging könnte man etwas länger zeigen)","0","1","0","null","","","<div class = 'row'><div class = 'column'><img src = 'usneg/9415.bmp' width = '100%;'></div><div class = 'column'><img src = 'category4/CS2.png' width = '70%;'></div></div>","null","neg","CS","CS","4","category4/CS2.png","","","","",""
"","html-keyboard-response","16","259609","0.0-6.0-0.0-0.10","wtqerrutwo","one_one","1","direct_first","1","un07ed05","0","24","1","1","3","1","Als Bilder und Zeichen abwechselnd gezeigt wurden habe ich mich gestresst gefühlt und bei dem mit den Silben war mir am Anfang nicht klar, dass ich beim ""+"" noch keine Taste drücken musste. Ich vermute das Bild von den Zeichen wurde bei den Silben kurz eingeblendet, um das Unterbewusstsein anzuregen aber für mich ging das alles so schnell, dass ich mich nur auf die Silben konzentriert habe weil ich die sonst verpasst hätte (die Silben, um die es ja ging könnte man etwas länger zeigen)","0","1","0","null","","","<div class = 'row'><div class = 'column'><img src = 'category2/CS6.png' width = '70%;'></div><div class = 'column'><img src = 'uspos/5621.bmp' width = '100%;'></div></div>","null","pos","CS","CS","2","category2/CS6.png","","","","",""
"","html-keyboard-response","17","262125","0.0-6.0-0.0-0.11","wtqerrutwo","one_one","1","direct_first","1","un07ed05","0","24","1","1","3","1","Als Bilder und Zeichen abwechselnd gezeigt wurden habe ich mich gestresst gefühlt und bei dem mit den Silben war mir am Anfang nicht klar, dass ich beim ""+"" noch keine Taste drücken musste. Ich vermute das Bild von den Zeichen wurde bei den Silben kurz eingeblendet, um das Unterbewusstsein anzuregen aber für mich ging das alles so schnell, dass ich mich nur auf die Silben konzentriert habe weil ich die sonst verpasst hätte (die Silben, um die es ja ging könnte man etwas länger zeigen)","0","1","0","null","","","<div class = 'row'><div class = 'column'><img src = 'category4/CS2.png' width = '70%;'></div><div class = 'column'><img src = 'usneg/9415.bmp' width = '100%;'></div></div>","null","neg","CS","CS","4","category4/CS2.png","","","","",""
"","html-keyboard-response","18","264665","0.0-6.0-0.0-0.12","wtqerrutwo","one_one","1","direct_first","1","un07ed05","0","24","1","1","3","1","Als Bilder und Zeichen abwechselnd gezeigt wurden habe ich mich gestresst gefühlt und bei dem mit den Silben war mir am Anfang nicht klar, dass ich beim ""+"" noch keine Taste drücken musste. Ich vermute das Bild von den Zeichen wurde bei den Silben kurz eingeblendet, um das Unterbewusstsein anzuregen aber für mich ging das alles so schnell, dass ich mich nur auf die Silben konzentriert habe weil ich die sonst verpasst hätte (die Silben, um die es ja ging könnte man etwas länger zeigen)","0","1","0","null","","","<div class = 'row'><div class = 'column'><img src = 'usneg/9330.bmp' width = '100%;'></div><div class = 'column'><img src = 'category1/CS5.png' width = '70%;'></div></div>","null","neg","CS","CS","1","category1/CS5.png","","","","",""
"","html-keyboard-response","19","267188","0.0-6.0-0.0-0.13","wtqerrutwo","one_one","1","direct_first","1","un07ed05","0","24","1","1","3","1","Als Bilder und Zeichen abwechselnd gezeigt wurden habe ich mich gestresst gefühlt und bei dem mit den Silben war mir am Anfang nicht klar, dass ich beim ""+"" noch keine Taste drücken musste. Ich vermute das Bild von den Zeichen wurde bei den Silben kurz eingeblendet, um das Unterbewusstsein anzuregen aber für mich ging das alles so schnell, dass ich mich nur auf die Silben konzentriert habe weil ich die sonst verpasst hätte (die Silben, um die es ja ging könnte man etwas länger zeigen)","0","1","0","null","","","<div class = 'row'><div class = 'column'><img src = 'category4/CS2.png' width = '70%;'></div><div class = 'column'><img src = 'usneg/9415.bmp' width = '100%;'></div></div>","null","neg","CS","CS","4","category4/CS2.png","","","","",""
"","html-keyboard-response","20","269714","0.0-6.0-0.0-0.14","wtqerrutwo","one_one","1","direct_first","1","un07ed05","0","24","1","1","3","1","Als Bilder und Zeichen abwechselnd gezeigt wurden habe ich mich gestresst gefühlt und bei dem mit den Silben war mir am Anfang nicht klar, dass ich beim ""+"" noch keine Taste drücken musste. Ich vermute das Bild von den Zeichen wurde bei den Silben kurz eingeblendet, um das Unterbewusstsein anzuregen aber für mich ging das alles so schnell, dass ich mich nur auf die Silben konzentriert habe weil ich die sonst verpasst hätte (die Silben, um die es ja ging könnte man etwas länger zeigen)","0","1","0","null","","","<div class = 'row'><div class = 'column'><img src = 'category3/CS6.png' width = '70%;'></div><div class = 'column'><img src = 'uspos/8350.bmp' width = '100%;'></div></div>","null","pos","CS","CS","3","category3/CS6.png","","","","",""
"","html-keyboard-response","21","272231","0.0-6.0-0.0-0.15","wtqerrutwo","one_one","1","direct_first","1","un07ed05","0","24","1","1","3","1","Als Bilder und Zeichen abwechselnd gezeigt wurden habe ich mich gestresst gefühlt und bei dem mit den Silben war mir am Anfang nicht klar, dass ich beim ""+"" noch keine Taste drücken musste. Ich vermute das Bild von den Zeichen wurde bei den Silben kurz eingeblendet, um das Unterbewusstsein anzuregen aber für mich ging das alles so schnell, dass ich mich nur auf die Silben konzentriert habe weil ich die sonst verpasst hätte (die Silben, um die es ja ging könnte man etwas länger zeigen)","0","1","0","null","","","<div class = 'row'><div class = 'column'><img src = 'usneg/9330.bmp' width = '100%;'></div><div class = 'column'><img src = 'category1/CS5.png' width = '70%;'></div></div>","null","neg","CS","CS","1","category1/CS5.png","","","","",""
"","html-keyboard-response","22","274754","0.0-6.0-0.0-0.16","wtqerrutwo","one_one","1","direct_first","1","un07ed05","0","24","1","1","3","1","Als Bilder und Zeichen abwechselnd gezeigt wurden habe ich mich gestresst gefühlt und bei dem mit den Silben war mir am Anfang nicht klar, dass ich beim ""+"" noch keine Taste drücken musste. Ich vermute das Bild von den Zeichen wurde bei den Silben kurz eingeblendet, um das Unterbewusstsein anzuregen aber für mich ging das alles so schnell, dass ich mich nur auf die Silben konzentriert habe weil ich die sonst verpasst hätte (die Silben, um die es ja ging könnte man etwas länger zeigen)","0","1","0","null","","","<div class = 'row'><div class = 'column'><img src = 'category3/CS6.png' width = '70%;'></div><div class = 'column'><img src = 'uspos/8350.bmp' width = '100%;'></div></div>","null","pos","CS","CS","3","category3/CS6.png","","","","",""
"","html-keyboard-response","23","277270","0.0-6.0-0.0-0.17","wtqerrutwo","one_one","1","direct_first","1","un07ed05","0","24","1","1","3","1","Als Bilder und Zeichen abwechselnd gezeigt wurden habe ich mich gestresst gefühlt und bei dem mit den Silben war mir am Anfang nicht klar, dass ich beim ""+"" noch keine Taste drücken musste. Ich vermute das Bild von den Zeichen wurde bei den Silben kurz eingeblendet, um das Unterbewusstsein anzuregen aber für mich ging das alles so schnell, dass ich mich nur auf die Silben konzentriert habe weil ich die sonst verpasst hätte (die Silben, um die es ja ging könnte man etwas länger zeigen)","0","1","0","null","","","<div class = 'row'><div class = 'column'><img src = 'usneg/9330.bmp' width = '100%;'></div><div class = 'column'><img src = 'category1/CS5.png' width = '70%;'></div></div>","null","neg","CS","CS","1","category1/CS5.png","","","","",""
"","html-keyboard-response","24","279793","0.0-6.0-0.0-0.18","wtqerrutwo","one_one","1","direct_first","1","un07ed05","0","24","1","1","3","1","Als Bilder und Zeichen abwechselnd gezeigt wurden habe ich mich gestresst gefühlt und bei dem mit den Silben war mir am Anfang nicht klar, dass ich beim ""+"" noch keine Taste drücken musste. Ich vermute das Bild von den Zeichen wurde bei den Silben kurz eingeblendet, um das Unterbewusstsein anzuregen aber für mich ging das alles so schnell, dass ich mich nur auf die Silben konzentriert habe weil ich die sonst verpasst hätte (die Silben, um die es ja ging könnte man etwas länger zeigen)","0","1","0","null","","","<div class = 'row'><div class = 'column'><img src = 'category2/CS6.png' width = '70%;'></div><div class = 'column'><img src = 'uspos/5621.bmp' width = '100%;'></div></div>","null","pos","CS","CS","2","category2/CS6.png","","","","",""
"","html-keyboard-response","25","282322","0.0-6.0-0.0-0.19","wtqerrutwo","one_one","1","direct_first","1","un07ed05","0","24","1","1","3","1","Als Bilder und Zeichen abwechselnd gezeigt wurden habe ich mich gestresst gefühlt und bei dem mit den Silben war mir am Anfang nicht klar, dass ich beim ""+"" noch keine Taste drücken musste. Ich vermute das Bild von den Zeichen wurde bei den Silben kurz eingeblendet, um das Unterbewusstsein anzuregen aber für mich ging das alles so schnell, dass ich mich nur auf die Silben konzentriert habe weil ich die sonst verpasst hätte (die Silben, um die es ja ging könnte man etwas länger zeigen)","0","1","0","null","","","<div class = 'row'><div class = 'column'><img src = 'category4/CS2.png' width = '70%;'></div><div class = 'column'><img src = 'usneg/9415.bmp' width = '100%;'></div></div>","null","neg","CS","CS","4","category4/CS2.png","","","","",""
"","survey-html-form","26","299986","0.0-6.0-1.0","wtqerrutwo","one_one","1","direct_first","1","un07ed05","0","24","1","1","3","1","Als Bilder und Zeichen abwechselnd gezeigt wurden habe ich mich gestresst gefühlt und bei dem mit den Silben war mir am Anfang nicht klar, dass ich beim ""+"" noch keine Taste drücken musste. Ich vermute das Bild von den Zeichen wurde bei den Silben kurz eingeblendet, um das Unterbewusstsein anzuregen aber für mich ging das alles so schnell, dass ich mich nur auf die Silben konzentriert habe weil ich die sonst verpasst hätte (die Silben, um die es ja ging könnte man etwas länger zeigen)","0","1","0","17149","","{}","","","","","","","","","","","",""
"","html-keyboard-response","27","303999","0.0-6.0-2.0-0.0","wtqerrutwo","one_one","1","direct_first","1","un07ed05","0","24","1","1","3","1","Als Bilder und Zeichen abwechselnd gezeigt wurden habe ich mich gestresst gefühlt und bei dem mit den Silben war mir am Anfang nicht klar, dass ich beim ""+"" noch keine Taste drücken musste. Ich vermute das Bild von den Zeichen wurde bei den Silben kurz eingeblendet, um das Unterbewusstsein anzuregen aber für mich ging das alles so schnell, dass ich mich nur auf die Silben konzentriert habe weil ich die sonst verpasst hätte (die Silben, um die es ja ging könnte man etwas länger zeigen)","0","1","0","null","","","<div class = 'row'><div class = 'column'><img src = 'uspos/8350.bmp' width = '100%;'></div><div class = 'column'><img src = 'category3/CS6.png' width = '70%;'></div></div>","null","pos","CS","CS","3","category3/CS6.png","","","","",""
"","html-keyboard-response","28","306522","0.0-6.0-2.0-0.1","wtqerrutwo","one_one","1","direct_first","1","un07ed05","0","24","1","1","3","1","Als Bilder und Zeichen abwechselnd gezeigt wurden habe ich mich gestresst gefühlt und bei dem mit den Silben war mir am Anfang nicht klar, dass ich beim ""+"" noch keine Taste drücken musste. Ich vermute das Bild von den Zeichen wurde bei den Silben kurz eingeblendet, um das Unterbewusstsein anzuregen aber für mich ging das alles so schnell, dass ich mich nur auf die Silben konzentriert habe weil ich die sonst verpasst hätte (die Silben, um die es ja ging könnte man etwas länger zeigen)","0","1","0","null","","","<div class = 'row'><div class = 'column'><img src = 'category1/CS5.png' width = '70%;'></div><div class = 'column'><img src = 'usneg/9330.bmp' width = '100%;'></div></div>","null","neg","CS","CS","1","category1/CS5.png","","","","",""
"","html-keyboard-response","29","309045","0.0-6.0-2.0-0.2","wtqerrutwo","one_one","1","direct_first","1","un07ed05","0","24","1","1","3","1","Als Bilder und Zeichen abwechselnd gezeigt wurden habe ich mich gestresst gefühlt und bei dem mit den Silben war mir am Anfang nicht klar, dass ich beim ""+"" noch keine Taste drücken musste. Ich vermute das Bild von den Zeichen wurde bei den Silben kurz eingeblendet, um das Unterbewusstsein anzuregen aber für mich ging das alles so schnell, dass ich mich nur auf die Silben konzentriert habe weil ich die sonst verpasst hätte (die Silben, um die es ja ging könnte man etwas länger zeigen)","0","1","0","null","","","<div class = 'row'><div class = 'column'><img src = 'category4/CS2.png' width = '70%;'></div><div class = 'column'><img src = 'usneg/9415.bmp' width = '100%;'></div></div>","null","neg","CS","CS","4","category4/CS2.png","","","","",""
"","html-keyboard-response","30","311570","0.0-6.0-2.0-0.3","wtqerrutwo","one_one","1","direct_first","1","un07ed05","0","24","1","1","3","1","Als Bilder und Zeichen abwechselnd gezeigt wurden habe ich mich gestresst gefühlt und bei dem mit den Silben war mir am Anfang nicht klar, dass ich beim ""+"" noch keine Taste drücken musste. Ich vermute das Bild von den Zeichen wurde bei den Silben kurz eingeblendet, um das Unterbewusstsein anzuregen aber für mich ging das alles so schnell, dass ich mich nur auf die Silben konzentriert habe weil ich die sonst verpasst hätte (die Silben, um die es ja ging könnte man etwas länger zeigen)","0","1","0","null","","","<div class = 'row'><div class = 'column'><img src = 'category1/CS5.png' width = '70%;'></div><div class = 'column'><img src = 'usneg/9330.bmp' width = '100%;'></div></div>","null","neg","CS","CS","1","category1/CS5.png","","","","",""
"","html-keyboard-response","31","314089","0.0-6.0-2.0-0.4","wtqerrutwo","one_one","1","direct_first","1","un07ed05","0","24","1","1","3","1","Als Bilder und Zeichen abwechselnd gezeigt wurden habe ich mich gestresst gefühlt und bei dem mit den Silben war mir am Anfang nicht klar, dass ich beim ""+"" noch keine Taste drücken musste. Ich vermute das Bild von den Zeichen wurde bei den Silben kurz eingeblendet, um das Unterbewusstsein anzuregen aber für mich ging das alles so schnell, dass ich mich nur auf die Silben konzentriert habe weil ich die sonst verpasst hätte (die Silben, um die es ja ging könnte man etwas länger zeigen)","0","1","0","null","","","<div class = 'row'><div class = 'column'><img src = 'category2/CS6.png' width = '70%;'></div><div class = 'column'><img src = 'uspos/5621.bmp' width = '100%;'></div></div>","null","pos","CS","CS","2","category2/CS6.png","","","","",""
"","html-keyboard-response","32","316613","0.0-6.0-2.0-0.5","wtqerrutwo","one_one","1","direct_first","1","un07ed05","0","24","1","1","3","1","Als Bilder und Zeichen abwechselnd gezeigt wurden habe ich mich gestresst gefühlt und bei dem mit den Silben war mir am Anfang nicht klar, dass ich beim ""+"" noch keine Taste drücken musste. Ich vermute das Bild von den Zeichen wurde bei den Silben kurz eingeblendet, um das Unterbewusstsein anzuregen aber für mich ging das alles so schnell, dass ich mich nur auf die Silben konzentriert habe weil ich die sonst verpasst hätte (die Silben, um die es ja ging könnte man etwas länger zeigen)","0","1","0","null","","","<div class = 'row'><div class = 'column'><img src = 'category4/CS2.png' width = '70%;'></div><div class = 'column'><img src = 'usneg/9415.bmp' width = '100%;'></div></div>","null","neg","CS","CS","4","category4/CS2.png","","","","",""
"","html-keyboard-response","33","319139","0.0-6.0-2.0-0.6","wtqerrutwo","one_one","1","direct_first","1","un07ed05","0","24","1","1","3","1","Als Bilder und Zeichen abwechselnd gezeigt wurden habe ich mich gestresst gefühlt und bei dem mit den Silben war mir am Anfang nicht klar, dass ich beim ""+"" noch keine Taste drücken musste. Ich vermute das Bild von den Zeichen wurde bei den Silben kurz eingeblendet, um das Unterbewusstsein anzuregen aber für mich ging das alles so schnell, dass ich mich nur auf die Silben konzentriert habe weil ich die sonst verpasst hätte (die Silben, um die es ja ging könnte man etwas länger zeigen)","0","1","0","null","","","<div class = 'row'><div class = 'column'><img src = 'category1/CS5.png' width = '70%;'></div><div class = 'column'><img src = 'usneg/9330.bmp' width = '100%;'></div></div>","null","neg","CS","CS","1","category1/CS5.png","","","","",""
"","html-keyboard-response","34","321661","0.0-6.0-2.0-0.7","wtqerrutwo","one_one","1","direct_first","1","un07ed05","0","24","1","1","3","1","Als Bilder und Zeichen abwechselnd gezeigt wurden habe ich mich gestresst gefühlt und bei dem mit den Silben war mir am Anfang nicht klar, dass ich beim ""+"" noch keine Taste drücken musste. Ich vermute das Bild von den Zeichen wurde bei den Silben kurz eingeblendet, um das Unterbewusstsein anzuregen aber für mich ging das alles so schnell, dass ich mich nur auf die Silben konzentriert habe weil ich die sonst verpasst hätte (die Silben, um die es ja ging könnte man etwas länger zeigen)","0","1","0","null","","","<div class = 'row'><div class = 'column'><img src = 'uspos/8350.bmp' width = '100%;'></div><div class = 'column'><img src = 'category3/CS6.png' width = '70%;'></div></div>","null","pos","CS","CS","3","category3/CS6.png","","","","",""
"","html-keyboard-response","35","324188","0.0-6.0-2.0-0.8","wtqerrutwo","one_one","1","direct_first","1","un07ed05","0","24","1","1","3","1","Als Bilder und Zeichen abwechselnd gezeigt wurden habe ich mich gestresst gefühlt und bei dem mit den Silben war mir am Anfang nicht klar, dass ich beim ""+"" noch keine Taste drücken musste. Ich vermute das Bild von den Zeichen wurde bei den Silben kurz eingeblendet, um das Unterbewusstsein anzuregen aber für mich ging das alles so schnell, dass ich mich nur auf die Silben konzentriert habe weil ich die sonst verpasst hätte (die Silben, um die es ja ging könnte man etwas länger zeigen)","0","1","0","null","","","<div class = 'row'><div class = 'column'><img src = 'category4/CS2.png' width = '70%;'></div><div class = 'column'><img src = 'usneg/9415.bmp' width = '100%;'></div></div>","null","neg","CS","CS","4","category4/CS2.png","","","","",""
"","html-keyboard-response","36","326710","0.0-6.0-2.0-0.9","wtqerrutwo","one_one","1","direct_first","1","un07ed05","0","24","1","1","3","1","Als Bilder und Zeichen abwechselnd gezeigt wurden habe ich mich gestresst gefühlt und bei dem mit den Silben war mir am Anfang nicht klar, dass ich beim ""+"" noch keine Taste drücken musste. Ich vermute das Bild von den Zeichen wurde bei den Silben kurz eingeblendet, um das Unterbewusstsein anzuregen aber für mich ging das alles so schnell, dass ich mich nur auf die Silben konzentriert habe weil ich die sonst verpasst hätte (die Silben, um die es ja ging könnte man etwas länger zeigen)","0","1","0","null","","","<div class = 'row'><div class = 'column'><img src = 'category2/CS6.png' width = '70%;'></div><div class = 'column'><img src = 'uspos/5621.bmp' width = '100%;'></div></div>","null","pos","CS","CS","2","category2/CS6.png","","","","",""
"","html-keyboard-response","37","329226","0.0-6.0-2.0-0.10","wtqerrutwo","one_one","1","direct_first","1","un07ed05","0","24","1","1","3","1","Als Bilder und Zeichen abwechselnd gezeigt wurden habe ich mich gestresst gefühlt und bei dem mit den Silben war mir am Anfang nicht klar, dass ich beim ""+"" noch keine Taste drücken musste. Ich vermute das Bild von den Zeichen wurde bei den Silben kurz eingeblendet, um das Unterbewusstsein anzuregen aber für mich ging das alles so schnell, dass ich mich nur auf die Silben konzentriert habe weil ich die sonst verpasst hätte (die Silben, um die es ja ging könnte man etwas länger zeigen)","0","1","0","null","","","<div class = 'row'><div class = 'column'><img src = 'category1/CS5.png' width = '70%;'></div><div class = 'column'><img src = 'usneg/9330.bmp' width = '100%;'></div></div>","null","neg","CS","CS","1","category1/CS5.png","","","","",""
"","html-keyboard-response","38","331751","0.0-6.0-2.0-0.11","wtqerrutwo","one_one","1","direct_first","1","un07ed05","0","24","1","1","3","1","Als Bilder und Zeichen abwechselnd gezeigt wurden habe ich mich gestresst gefühlt und bei dem mit den Silben war mir am Anfang nicht klar, dass ich beim ""+"" noch keine Taste drücken musste. Ich vermute das Bild von den Zeichen wurde bei den Silben kurz eingeblendet, um das Unterbewusstsein anzuregen aber für mich ging das alles so schnell, dass ich mich nur auf die Silben konzentriert habe weil ich die sonst verpasst hätte (die Silben, um die es ja ging könnte man etwas länger zeigen)","0","1","0","null","","","<div class = 'row'><div class = 'column'><img src = 'uspos/5621.bmp' width = '100%;'></div><div class = 'column'><img src = 'category2/CS6.png' width = '70%;'></div></div>","null","pos","CS","CS","2","category2/CS6.png","","","","",""
"","html-keyboard-response","39","334264","0.0-6.0-2.0-0.12","wtqerrutwo","one_one","1","direct_first","1","un07ed05","0","24","1","1","3","1","Als Bilder und Zeichen abwechselnd gezeigt wurden habe ich mich gestresst gefühlt und bei dem mit den Silben war mir am Anfang nicht klar, dass ich beim ""+"" noch keine Taste drücken musste. Ich vermute das Bild von den Zeichen wurde bei den Silben kurz eingeblendet, um das Unterbewusstsein anzuregen aber für mich ging das alles so schnell, dass ich mich nur auf die Silben konzentriert habe weil ich die sonst verpasst hätte (die Silben, um die es ja ging könnte man etwas länger zeigen)","0","1","0","null","","","<div class = 'row'><div class = 'column'><img src = 'usneg/9415.bmp' width = '100%;'></div><div class = 'column'><img src = 'category4/CS2.png' width = '70%;'></div></div>","null","neg","CS","CS","4","category4/CS2.png","","","","",""
"","html-keyboard-response","40","336778","0.0-6.0-2.0-0.13","wtqerrutwo","one_one","1","direct_first","1","un07ed05","0","24","1","1","3","1","Als Bilder und Zeichen abwechselnd gezeigt wurden habe ich mich gestresst gefühlt und bei dem mit den Silben war mir am Anfang nicht klar, dass ich beim ""+"" noch keine Taste drücken musste. Ich vermute das Bild von den Zeichen wurde bei den Silben kurz eingeblendet, um das Unterbewusstsein anzuregen aber für mich ging das alles so schnell, dass ich mich nur auf die Silben konzentriert habe weil ich die sonst verpasst hätte (die Silben, um die es ja ging könnte man etwas länger zeigen)","0","1","0","null","","","<div class = 'row'><div class = 'column'><img src = 'uspos/8350.bmp' width = '100%;'></div><div class = 'column'><img src = 'category3/CS6.png' width = '70%;'></div></div>","null","pos","CS","CS","3","category3/CS6.png","","","","",""
"","html-keyboard-response","41","339296","0.0-6.0-2.0-0.14","wtqerrutwo","one_one","1","direct_first","1","un07ed05","0","24","1","1","3","1","Als Bilder und Zeichen abwechselnd gezeigt wurden habe ich mich gestresst gefühlt und bei dem mit den Silben war mir am Anfang nicht klar, dass ich beim ""+"" noch keine Taste drücken musste. Ich vermute das Bild von den Zeichen wurde bei den Silben kurz eingeblendet, um das Unterbewusstsein anzuregen aber für mich ging das alles so schnell, dass ich mich nur auf die Silben konzentriert habe weil ich die sonst verpasst hätte (die Silben, um die es ja ging könnte man etwas länger zeigen)","0","1","0","null","","","<div class = 'row'><div class = 'column'><img src = 'usneg/9415.bmp' width = '100%;'></div><div class = 'column'><img src = 'category4/CS2.png' width = '70%;'></div></div>","null","neg","CS","CS","4","category4/CS2.png","","","","",""
"","html-keyboard-response","42","341821","0.0-6.0-2.0-0.15","wtqerrutwo","one_one","1","direct_first","1","un07ed05","0","24","1","1","3","1","Als Bilder und Zeichen abwechselnd gezeigt wurden habe ich mich gestresst gefühlt und bei dem mit den Silben war mir am Anfang nicht klar, dass ich beim ""+"" noch keine Taste drücken musste. Ich vermute das Bild von den Zeichen wurde bei den Silben kurz eingeblendet, um das Unterbewusstsein anzuregen aber für mich ging das alles so schnell, dass ich mich nur auf die Silben konzentriert habe weil ich die sonst verpasst hätte (die Silben, um die es ja ging könnte man etwas länger zeigen)","0","1","0","null","","","<div class = 'row'><div class = 'column'><img src = 'category2/CS6.png' width = '70%;'></div><div class = 'column'><img src = 'uspos/5621.bmp' width = '100%;'></div></div>","null","pos","CS","CS","2","category2/CS6.png","","","","",""
"","html-keyboard-response","43","344338","0.0-6.0-2.0-0.16","wtqerrutwo","one_one","1","direct_first","1","un07ed05","0","24","1","1","3","1","Als Bilder und Zeichen abwechselnd gezeigt wurden habe ich mich gestresst gefühlt und bei dem mit den Silben war mir am Anfang nicht klar, dass ich beim ""+"" noch keine Taste drücken musste. Ich vermute das Bild von den Zeichen wurde bei den Silben kurz eingeblendet, um das Unterbewusstsein anzuregen aber für mich ging das alles so schnell, dass ich mich nur auf die Silben konzentriert habe weil ich die sonst verpasst hätte (die Silben, um die es ja ging könnte man etwas länger zeigen)","0","1","0","null","","","<div class = 'row'><div class = 'column'><img src = 'category3/CS6.png' width = '70%;'></div><div class = 'column'><img src = 'uspos/8350.bmp' width = '100%;'></div></div>","null","pos","CS","CS","3","category3/CS6.png","","","","",""
"","html-keyboard-response","44","346861","0.0-6.0-2.0-0.17","wtqerrutwo","one_one","1","direct_first","1","un07ed05","0","24","1","1","3","1","Als Bilder und Zeichen abwechselnd gezeigt wurden habe ich mich gestresst gefühlt und bei dem mit den Silben war mir am Anfang nicht klar, dass ich beim ""+"" noch keine Taste drücken musste. Ich vermute das Bild von den Zeichen wurde bei den Silben kurz eingeblendet, um das Unterbewusstsein anzuregen aber für mich ging das alles so schnell, dass ich mich nur auf die Silben konzentriert habe weil ich die sonst verpasst hätte (die Silben, um die es ja ging könnte man etwas länger zeigen)","0","1","0","null","","","<div class = 'row'><div class = 'column'><img src = 'category2/CS6.png' width = '70%;'></div><div class = 'column'><img src = 'uspos/5621.bmp' width = '100%;'></div></div>","null","pos","CS","CS","2","category2/CS6.png","","","","",""
"","html-keyboard-response","45","349375","0.0-6.0-2.0-0.18","wtqerrutwo","one_one","1","direct_first","1","un07ed05","0","24","1","1","3","1","Als Bilder und Zeichen abwechselnd gezeigt wurden habe ich mich gestresst gefühlt und bei dem mit den Silben war mir am Anfang nicht klar, dass ich beim ""+"" noch keine Taste drücken musste. Ich vermute das Bild von den Zeichen wurde bei den Silben kurz eingeblendet, um das Unterbewusstsein anzuregen aber für mich ging das alles so schnell, dass ich mich nur auf die Silben konzentriert habe weil ich die sonst verpasst hätte (die Silben, um die es ja ging könnte man etwas länger zeigen)","0","1","0","null","","","<div class = 'row'><div class = 'column'><img src = 'uspos/8350.bmp' width = '100%;'></div><div class = 'column'><img src = 'category3/CS6.png' width = '70%;'></div></div>","null","pos","CS","CS","3","category3/CS6.png","","","","",""
"","html-keyboard-response","46","351905","0.0-6.0-2.0-0.19","wtqerrutwo","one_one","1","direct_first","1","un07ed05","0","24","1","1","3","1","Als Bilder und Zeichen abwechselnd gezeigt wurden habe ich mich gestresst gefühlt und bei dem mit den Silben war mir am Anfang nicht klar, dass ich beim ""+"" noch keine Taste drücken musste. Ich vermute das Bild von den Zeichen wurde bei den Silben kurz eingeblendet, um das Unterbewusstsein anzuregen aber für mich ging das alles so schnell, dass ich mich nur auf die Silben konzentriert habe weil ich die sonst verpasst hätte (die Silben, um die es ja ging könnte man etwas länger zeigen)","0","1","0","null","","","<div class = 'row'><div class = 'column'><img src = 'category1/CS5.png' width = '70%;'></div><div class = 'column'><img src = 'usneg/9330.bmp' width = '100%;'></div></div>","null","neg","CS","CS","1","category1/CS5.png","","","","",""
"","survey-html-form","47","382559","0.0-6.0-3.0","wtqerrutwo","one_one","1","direct_first","1","un07ed05","0","24","1","1","3","1","Als Bilder und Zeichen abwechselnd gezeigt wurden habe ich mich gestresst gefühlt und bei dem mit den Silben war mir am Anfang nicht klar, dass ich beim ""+"" noch keine Taste drücken musste. Ich vermute das Bild von den Zeichen wurde bei den Silben kurz eingeblendet, um das Unterbewusstsein anzuregen aber für mich ging das alles so schnell, dass ich mich nur auf die Silben konzentriert habe weil ich die sonst verpasst hätte (die Silben, um die es ja ging könnte man etwas länger zeigen)","0","1","0","30144","","{}","","","","","","","","","","","",""
"","html-keyboard-response","48","386585","0.0-6.0-4.0-0.0","wtqerrutwo","one_one","1","direct_first","1","un07ed05","0","24","1","1","3","1","Als Bilder und Zeichen abwechselnd gezeigt wurden habe ich mich gestresst gefühlt und bei dem mit den Silben war mir am Anfang nicht klar, dass ich beim ""+"" noch keine Taste drücken musste. Ich vermute das Bild von den Zeichen wurde bei den Silben kurz eingeblendet, um das Unterbewusstsein anzuregen aber für mich ging das alles so schnell, dass ich mich nur auf die Silben konzentriert habe weil ich die sonst verpasst hätte (die Silben, um die es ja ging könnte man etwas länger zeigen)","0","1","0","null","","","<div class = 'row'><div class = 'column'><img src = 'category3/CS6.png' width = '70%;'></div><div class = 'column'><img src = 'uspos/8350.bmp' width = '100%;'></div></div>","null","pos","CS","CS","3","category3/CS6.png","","","","",""
"","html-keyboard-response","49","389107","0.0-6.0-4.0-0.1","wtqerrutwo","one_one","1","direct_first","1","un07ed05","0","24","1","1","3","1","Als Bilder und Zeichen abwechselnd gezeigt wurden habe ich mich gestresst gefühlt und bei dem mit den Silben war mir am Anfang nicht klar, dass ich beim ""+"" noch keine Taste drücken musste. Ich vermute das Bild von den Zeichen wurde bei den Silben kurz eingeblendet, um das Unterbewusstsein anzuregen aber für mich ging das alles so schnell, dass ich mich nur auf die Silben konzentriert habe weil ich die sonst verpasst hätte (die Silben, um die es ja ging könnte man etwas länger zeigen)","0","1","0","null","","","<div class = 'row'><div class = 'column'><img src = 'category1/CS5.png' width = '70%;'></div><div class = 'column'><img src = 'usneg/9330.bmp' width = '100%;'></div></div>","null","neg","CS","CS","1","category1/CS5.png","","","","",""
"","html-keyboard-response","50","391623","0.0-6.0-4.0-0.2","wtqerrutwo","one_one","1","direct_first","1","un07ed05","0","24","1","1","3","1","Als Bilder und Zeichen abwechselnd gezeigt wurden habe ich mich gestresst gefühlt und bei dem mit den Silben war mir am Anfang nicht klar, dass ich beim ""+"" noch keine Taste drücken musste. Ich vermute das Bild von den Zeichen wurde bei den Silben kurz eingeblendet, um das Unterbewusstsein anzuregen aber für mich ging das alles so schnell, dass ich mich nur auf die Silben konzentriert habe weil ich die sonst verpasst hätte (die Silben, um die es ja ging könnte man etwas länger zeigen)","0","1","0","null","","","<div class = 'row'><div class = 'column'><img src = 'category2/CS6.png' width = '70%;'></div><div class = 'column'><img src = 'uspos/5621.bmp' width = '100%;'></div></div>","null","pos","CS","CS","2","category2/CS6.png","","","","",""
"","html-keyboard-response","51","394150","0.0-6.0-4.0-0.3","wtqerrutwo","one_one","1","direct_first","1","un07ed05","0","24","1","1","3","1","Als Bilder und Zeichen abwechselnd gezeigt wurden habe ich mich gestresst gefühlt und bei dem mit den Silben war mir am Anfang nicht klar, dass ich beim ""+"" noch keine Taste drücken musste. Ich vermute das Bild von den Zeichen wurde bei den Silben kurz eingeblendet, um das Unterbewusstsein anzuregen aber für mich ging das alles so schnell, dass ich mich nur auf die Silben konzentriert habe weil ich die sonst verpasst hätte (die Silben, um die es ja ging könnte man etwas länger zeigen)","0","1","0","null","","","<div class = 'row'><div class = 'column'><img src = 'category4/CS2.png' width = '70%;'></div><div class = 'column'><img src = 'usneg/9415.bmp' width = '100%;'></div></div>","null","neg","CS","CS","4","category4/CS2.png","","","","",""
"","html-keyboard-response","52","396674","0.0-6.0-4.0-0.4","wtqerrutwo","one_one","1","direct_first","1","un07ed05","0","24","1","1","3","1","Als Bilder und Zeichen abwechselnd gezeigt wurden habe ich mich gestresst gefühlt und bei dem mit den Silben war mir am Anfang nicht klar, dass ich beim ""+"" noch keine Taste drücken musste. Ich vermute das Bild von den Zeichen wurde bei den Silben kurz eingeblendet, um das Unterbewusstsein anzuregen aber für mich ging das alles so schnell, dass ich mich nur auf die Silben konzentriert habe weil ich die sonst verpasst hätte (die Silben, um die es ja ging könnte man etwas länger zeigen)","0","1","0","null","","","<div class = 'row'><div class = 'column'><img src = 'uspos/8350.bmp' width = '100%;'></div><div class = 'column'><img src = 'category3/CS6.png' width = '70%;'></div></div>","null","pos","CS","CS","3","category3/CS6.png","","","","",""
"","html-keyboard-response","53","399199","0.0-6.0-4.0-0.5","wtqerrutwo","one_one","1","direct_first","1","un07ed05","0","24","1","1","3","1","Als Bilder und Zeichen abwechselnd gezeigt wurden habe ich mich gestresst gefühlt und bei dem mit den Silben war mir am Anfang nicht klar, dass ich beim ""+"" noch keine Taste drücken musste. Ich vermute das Bild von den Zeichen wurde bei den Silben kurz eingeblendet, um das Unterbewusstsein anzuregen aber für mich ging das alles so schnell, dass ich mich nur auf die Silben konzentriert habe weil ich die sonst verpasst hätte (die Silben, um die es ja ging könnte man etwas länger zeigen)","0","1","0","null","","","<div class = 'row'><div class = 'column'><img src = 'usneg/9415.bmp' width = '100%;'></div><div class = 'column'><img src = 'category4/CS2.png' width = '70%;'></div></div>","null","neg","CS","CS","4","category4/CS2.png","","","","",""
"","html-keyboard-response","54","401720","0.0-6.0-4.0-0.6","wtqerrutwo","one_one","1","direct_first","1","un07ed05","0","24","1","1","3","1","Als Bilder und Zeichen abwechselnd gezeigt wurden habe ich mich gestresst gefühlt und bei dem mit den Silben war mir am Anfang nicht klar, dass ich beim ""+"" noch keine Taste drücken musste. Ich vermute das Bild von den Zeichen wurde bei den Silben kurz eingeblendet, um das Unterbewusstsein anzuregen aber für mich ging das alles so schnell, dass ich mich nur auf die Silben konzentriert habe weil ich die sonst verpasst hätte (die Silben, um die es ja ging könnte man etwas länger zeigen)","0","1","0","null","","","<div class = 'row'><div class = 'column'><img src = 'category1/CS5.png' width = '70%;'></div><div class = 'column'><img src = 'usneg/9330.bmp' width = '100%;'></div></div>","null","neg","CS","CS","1","category1/CS5.png","","","","",""
"","html-keyboard-response","55","404238","0.0-6.0-4.0-0.7","wtqerrutwo","one_one","1","direct_first","1","un07ed05","0","24","1","1","3","1","Als Bilder und Zeichen abwechselnd gezeigt wurden habe ich mich gestresst gefühlt und bei dem mit den Silben war mir am Anfang nicht klar, dass ich beim ""+"" noch keine Taste drücken musste. Ich vermute das Bild von den Zeichen wurde bei den Silben kurz eingeblendet, um das Unterbewusstsein anzuregen aber für mich ging das alles so schnell, dass ich mich nur auf die Silben konzentriert habe weil ich die sonst verpasst hätte (die Silben, um die es ja ging könnte man etwas länger zeigen)","0","1","0","null","","","<div class = 'row'><div class = 'column'><img src = 'uspos/5621.bmp' width = '100%;'></div><div class = 'column'><img src = 'category2/CS6.png' width = '70%;'></div></div>","null","pos","CS","CS","2","category2/CS6.png","","","","",""
"","html-keyboard-response","56","406759","0.0-6.0-4.0-0.8","wtqerrutwo","one_one","1","direct_first","1","un07ed05","0","24","1","1","3","1","Als Bilder und Zeichen abwechselnd gezeigt wurden habe ich mich gestresst gefühlt und bei dem mit den Silben war mir am Anfang nicht klar, dass ich beim ""+"" noch keine Taste drücken musste. Ich vermute das Bild von den Zeichen wurde bei den Silben kurz eingeblendet, um das Unterbewusstsein anzuregen aber für mich ging das alles so schnell, dass ich mich nur auf die Silben konzentriert habe weil ich die sonst verpasst hätte (die Silben, um die es ja ging könnte man etwas länger zeigen)","0","1","0","null","","","<div class = 'row'><div class = 'column'><img src = 'uspos/8350.bmp' width = '100%;'></div><div class = 'column'><img src = 'category3/CS6.png' width = '70%;'></div></div>","null","pos","CS","CS","3","category3/CS6.png","","","","",""
"","html-keyboard-response","57","409274","0.0-6.0-4.0-0.9","wtqerrutwo","one_one","1","direct_first","1","un07ed05","0","24","1","1","3","1","Als Bilder und Zeichen abwechselnd gezeigt wurden habe ich mich gestresst gefühlt und bei dem mit den Silben war mir am Anfang nicht klar, dass ich beim ""+"" noch keine Taste drücken musste. Ich vermute das Bild von den Zeichen wurde bei den Silben kurz eingeblendet, um das Unterbewusstsein anzuregen aber für mich ging das alles so schnell, dass ich mich nur auf die Silben konzentriert habe weil ich die sonst verpasst hätte (die Silben, um die es ja ging könnte man etwas länger zeigen)","0","1","0","null","","","<div class = 'row'><div class = 'column'><img src = 'usneg/9415.bmp' width = '100%;'></div><div class = 'column'><img src = 'category4/CS2.png' width = '70%;'></div></div>","null","neg","CS","CS","4","category4/CS2.png","","","","",""
"","html-keyboard-response","58","411799","0.0-6.0-4.0-0.10","wtqerrutwo","one_one","1","direct_first","1","un07ed05","0","24","1","1","3","1","Als Bilder und Zeichen abwechselnd gezeigt wurden habe ich mich gestresst gefühlt und bei dem mit den Silben war mir am Anfang nicht klar, dass ich beim ""+"" noch keine Taste drücken musste. Ich vermute das Bild von den Zeichen wurde bei den Silben kurz eingeblendet, um das Unterbewusstsein anzuregen aber für mich ging das alles so schnell, dass ich mich nur auf die Silben konzentriert habe weil ich die sonst verpasst hätte (die Silben, um die es ja ging könnte man etwas länger zeigen)","0","1","0","null","","","<div class = 'row'><div class = 'column'><img src = 'category3/CS6.png' width = '70%;'></div><div class = 'column'><img src = 'uspos/8350.bmp' width = '100%;'></div></div>","null","pos","CS","CS","3","category3/CS6.png","","","","",""
"","html-keyboard-response","59","414314","0.0-6.0-4.0-0.11","wtqerrutwo","one_one","1","direct_first","1","un07ed05","0","24","1","1","3","1","Als Bilder und Zeichen abwechselnd gezeigt wurden habe ich mich gestresst gefühlt und bei dem mit den Silben war mir am Anfang nicht klar, dass ich beim ""+"" noch keine Taste drücken musste. Ich vermute das Bild von den Zeichen wurde bei den Silben kurz eingeblendet, um das Unterbewusstsein anzuregen aber für mich ging das alles so schnell, dass ich mich nur auf die Silben konzentriert habe weil ich die sonst verpasst hätte (die Silben, um die es ja ging könnte man etwas länger zeigen)","0","1","0","null","","","<div class = 'row'><div class = 'column'><img src = 'category1/CS5.png' width = '70%;'></div><div class = 'column'><img src = 'usneg/9330.bmp' width = '100%;'></div></div>","null","neg","CS","CS","1","category1/CS5.png","","","","",""
"","html-keyboard-response","60","416838","0.0-6.0-4.0-0.12","wtqerrutwo","one_one","1","direct_first","1","un07ed05","0","24","1","1","3","1","Als Bilder und Zeichen abwechselnd gezeigt wurden habe ich mich gestresst gefühlt und bei dem mit den Silben war mir am Anfang nicht klar, dass ich beim ""+"" noch keine Taste drücken musste. Ich vermute das Bild von den Zeichen wurde bei den Silben kurz eingeblendet, um das Unterbewusstsein anzuregen aber für mich ging das alles so schnell, dass ich mich nur auf die Silben konzentriert habe weil ich die sonst verpasst hätte (die Silben, um die es ja ging könnte man etwas länger zeigen)","0","1","0","null","","","<div class = 'row'><div class = 'column'><img src = 'category2/CS6.png' width = '70%;'></div><div class = 'column'><img src = 'uspos/5621.bmp' width = '100%;'></div></div>","null","pos","CS","CS","2","category2/CS6.png","","","","",""
"","html-keyboard-response","61","419358","0.0-6.0-4.0-0.13","wtqerrutwo","one_one","1","direct_first","1","un07ed05","0","24","1","1","3","1","Als Bilder und Zeichen abwechselnd gezeigt wurden habe ich mich gestresst gefühlt und bei dem mit den Silben war mir am Anfang nicht klar, dass ich beim ""+"" noch keine Taste drücken musste. Ich vermute das Bild von den Zeichen wurde bei den Silben kurz eingeblendet, um das Unterbewusstsein anzuregen aber für mich ging das alles so schnell, dass ich mich nur auf die Silben konzentriert habe weil ich die sonst verpasst hätte (die Silben, um die es ja ging könnte man etwas länger zeigen)","0","1","0","null","","","<div class = 'row'><div class = 'column'><img src = 'category4/CS2.png' width = '70%;'></div><div class = 'column'><img src = 'usneg/9415.bmp' width = '100%;'></div></div>","null","neg","CS","CS","4","category4/CS2.png","","","","",""
"","html-keyboard-response","62","421882","0.0-6.0-4.0-0.14","wtqerrutwo","one_one","1","direct_first","1","un07ed05","0","24","1","1","3","1","Als Bilder und Zeichen abwechselnd gezeigt wurden habe ich mich gestresst gefühlt und bei dem mit den Silben war mir am Anfang nicht klar, dass ich beim ""+"" noch keine Taste drücken musste. Ich vermute das Bild von den Zeichen wurde bei den Silben kurz eingeblendet, um das Unterbewusstsein anzuregen aber für mich ging das alles so schnell, dass ich mich nur auf die Silben konzentriert habe weil ich die sonst verpasst hätte (die Silben, um die es ja ging könnte man etwas länger zeigen)","0","1","0","null","","","<div class = 'row'><div class = 'column'><img src = 'uspos/5621.bmp' width = '100%;'></div><div class = 'column'><img src = 'category2/CS6.png' width = '70%;'></div></div>","null","pos","CS","CS","2","category2/CS6.png","","","","",""
"","html-keyboard-response","63","424401","0.0-6.0-4.0-0.15","wtqerrutwo","one_one","1","direct_first","1","un07ed05","0","24","1","1","3","1","Als Bilder und Zeichen abwechselnd gezeigt wurden habe ich mich gestresst gefühlt und bei dem mit den Silben war mir am Anfang nicht klar, dass ich beim ""+"" noch keine Taste drücken musste. Ich vermute das Bild von den Zeichen wurde bei den Silben kurz eingeblendet, um das Unterbewusstsein anzuregen aber für mich ging das alles so schnell, dass ich mich nur auf die Silben konzentriert habe weil ich die sonst verpasst hätte (die Silben, um die es ja ging könnte man etwas länger zeigen)","0","1","0","null","","","<div class = 'row'><div class = 'column'><img src = 'category1/CS5.png' width = '70%;'></div><div class = 'column'><img src = 'usneg/9330.bmp' width = '100%;'></div></div>","null","neg","CS","CS","1","category1/CS5.png","","","","",""
"","html-keyboard-response","64","426925","0.0-6.0-4.0-0.16","wtqerrutwo","one_one","1","direct_first","1","un07ed05","0","24","1","1","3","1","Als Bilder und Zeichen abwechselnd gezeigt wurden habe ich mich gestresst gefühlt und bei dem mit den Silben war mir am Anfang nicht klar, dass ich beim ""+"" noch keine Taste drücken musste. Ich vermute das Bild von den Zeichen wurde bei den Silben kurz eingeblendet, um das Unterbewusstsein anzuregen aber für mich ging das alles so schnell, dass ich mich nur auf die Silben konzentriert habe weil ich die sonst verpasst hätte (die Silben, um die es ja ging könnte man etwas länger zeigen)","0","1","0","null","","","<div class = 'row'><div class = 'column'><img src = 'category2/CS6.png' width = '70%;'></div><div class = 'column'><img src = 'uspos/5621.bmp' width = '100%;'></div></div>","null","pos","CS","CS","2","category2/CS6.png","","","","",""
"","html-keyboard-response","65","429452","0.0-6.0-4.0-0.17","wtqerrutwo","one_one","1","direct_first","1","un07ed05","0","24","1","1","3","1","Als Bilder und Zeichen abwechselnd gezeigt wurden habe ich mich gestresst gefühlt und bei dem mit den Silben war mir am Anfang nicht klar, dass ich beim ""+"" noch keine Taste drücken musste. Ich vermute das Bild von den Zeichen wurde bei den Silben kurz eingeblendet, um das Unterbewusstsein anzuregen aber für mich ging das alles so schnell, dass ich mich nur auf die Silben konzentriert habe weil ich die sonst verpasst hätte (die Silben, um die es ja ging könnte man etwas länger zeigen)","0","1","0","null","","","<div class = 'row'><div class = 'column'><img src = 'uspos/8350.bmp' width = '100%;'></div><div class = 'column'><img src = 'category3/CS6.png' width = '70%;'></div></div>","null","pos","CS","CS","3","category3/CS6.png","","","","",""
"","html-keyboard-response","66","431977","0.0-6.0-4.0-0.18","wtqerrutwo","one_one","1","direct_first","1","un07ed05","0","24","1","1","3","1","Als Bilder und Zeichen abwechselnd gezeigt wurden habe ich mich gestresst gefühlt und bei dem mit den Silben war mir am Anfang nicht klar, dass ich beim ""+"" noch keine Taste drücken musste. Ich vermute das Bild von den Zeichen wurde bei den Silben kurz eingeblendet, um das Unterbewusstsein anzuregen aber für mich ging das alles so schnell, dass ich mich nur auf die Silben konzentriert habe weil ich die sonst verpasst hätte (die Silben, um die es ja ging könnte man etwas länger zeigen)","0","1","0","null","","","<div class = 'row'><div class = 'column'><img src = 'usneg/9415.bmp' width = '100%;'></div><div class = 'column'><img src = 'category4/CS2.png' width = '70%;'></div></div>","null","neg","CS","CS","4","category4/CS2.png","","","","",""
"","html-keyboard-response","67","434490","0.0-6.0-4.0-0.19","wtqerrutwo","one_one","1","direct_first","1","un07ed05","0","24","1","1","3","1","Als Bilder und Zeichen abwechselnd gezeigt wurden habe ich mich gestresst gefühlt und bei dem mit den Silben war mir am Anfang nicht klar, dass ich beim ""+"" noch keine Taste drücken musste. Ich vermute das Bild von den Zeichen wurde bei den Silben kurz eingeblendet, um das Unterbewusstsein anzuregen aber für mich ging das alles so schnell, dass ich mich nur auf die Silben konzentriert habe weil ich die sonst verpasst hätte (die Silben, um die es ja ging könnte man etwas länger zeigen)","0","1","0","null","","","<div class = 'row'><div class = 'column'><img src = 'usneg/9330.bmp' width = '100%;'></div><div class = 'column'><img src = 'category1/CS5.png' width = '70%;'></div></div>","null","neg","CS","CS","1","category1/CS5.png","","","","",""
"","survey-html-form","68","439700","0.0-6.0-5.0","wtqerrutwo","one_one","1","direct_first","1","un07ed05","0","24","1","1","3","1","Als Bilder und Zeichen abwechselnd gezeigt wurden habe ich mich gestresst gefühlt und bei dem mit den Silben war mir am Anfang nicht klar, dass ich beim ""+"" noch keine Taste drücken musste. Ich vermute das Bild von den Zeichen wurde bei den Silben kurz eingeblendet, um das Unterbewusstsein anzuregen aber für mich ging das alles so schnell, dass ich mich nur auf die Silben konzentriert habe weil ich die sonst verpasst hätte (die Silben, um die es ja ging könnte man etwas länger zeigen)","0","1","0","4698","","{}","","","","","","","","","","","",""
"","html-keyboard-response","69","443722","0.0-6.0-6.0-0.0","wtqerrutwo","one_one","1","direct_first","1","un07ed05","0","24","1","1","3","1","Als Bilder und Zeichen abwechselnd gezeigt wurden habe ich mich gestresst gefühlt und bei dem mit den Silben war mir am Anfang nicht klar, dass ich beim ""+"" noch keine Taste drücken musste. Ich vermute das Bild von den Zeichen wurde bei den Silben kurz eingeblendet, um das Unterbewusstsein anzuregen aber für mich ging das alles so schnell, dass ich mich nur auf die Silben konzentriert habe weil ich die sonst verpasst hätte (die Silben, um die es ja ging könnte man etwas länger zeigen)","0","1","0","null","","","<div class = 'row'><div class = 'column'><img src = 'usneg/9415.bmp' width = '100%;'></div><div class = 'column'><img src = 'category4/CS2.png' width = '70%;'></div></div>","null","neg","CS","CS","4","category4/CS2.png","","","","",""
"","html-keyboard-response","70","446238","0.0-6.0-6.0-0.1","wtqerrutwo","one_one","1","direct_first","1","un07ed05","0","24","1","1","3","1","Als Bilder und Zeichen abwechselnd gezeigt wurden habe ich mich gestresst gefühlt und bei dem mit den Silben war mir am Anfang nicht klar, dass ich beim ""+"" noch keine Taste drücken musste. Ich vermute das Bild von den Zeichen wurde bei den Silben kurz eingeblendet, um das Unterbewusstsein anzuregen aber für mich ging das alles so schnell, dass ich mich nur auf die Silben konzentriert habe weil ich die sonst verpasst hätte (die Silben, um die es ja ging könnte man etwas länger zeigen)","0","1","0","null","","","<div class = 'row'><div class = 'column'><img src = 'category1/CS5.png' width = '70%;'></div><div class = 'column'><img src = 'usneg/9330.bmp' width = '100%;'></div></div>","null","neg","CS","CS","1","category1/CS5.png","","","","",""
"","html-keyboard-response","71","448754","0.0-6.0-6.0-0.2","wtqerrutwo","one_one","1","direct_first","1","un07ed05","0","24","1","1","3","1","Als Bilder und Zeichen abwechselnd gezeigt wurden habe ich mich gestresst gefühlt und bei dem mit den Silben war mir am Anfang nicht klar, dass ich beim ""+"" noch keine Taste drücken musste. Ich vermute das Bild von den Zeichen wurde bei den Silben kurz eingeblendet, um das Unterbewusstsein anzuregen aber für mich ging das alles so schnell, dass ich mich nur auf die Silben konzentriert habe weil ich die sonst verpasst hätte (die Silben, um die es ja ging könnte man etwas länger zeigen)","0","1","0","null","","","<div class = 'row'><div class = 'column'><img src = 'category2/CS6.png' width = '70%;'></div><div class = 'column'><img src = 'uspos/5621.bmp' width = '100%;'></div></div>","null","pos","CS","CS","2","category2/CS6.png","","","","",""
"","html-keyboard-response","72","451283","0.0-6.0-6.0-0.3","wtqerrutwo","one_one","1","direct_first","1","un07ed05","0","24","1","1","3","1","Als Bilder und Zeichen abwechselnd gezeigt wurden habe ich mich gestresst gefühlt und bei dem mit den Silben war mir am Anfang nicht klar, dass ich beim ""+"" noch keine Taste drücken musste. Ich vermute das Bild von den Zeichen wurde bei den Silben kurz eingeblendet, um das Unterbewusstsein anzuregen aber für mich ging das alles so schnell, dass ich mich nur auf die Silben konzentriert habe weil ich die sonst verpasst hätte (die Silben, um die es ja ging könnte man etwas länger zeigen)","0","1","0","null","","","<div class = 'row'><div class = 'column'><img src = 'category3/CS6.png' width = '70%;'></div><div class = 'column'><img src = 'uspos/8350.bmp' width = '100%;'></div></div>","null","pos","CS","CS","3","category3/CS6.png","","","","",""
"","html-keyboard-response","73","453814","0.0-6.0-6.0-0.4","wtqerrutwo","one_one","1","direct_first","1","un07ed05","0","24","1","1","3","1","Als Bilder und Zeichen abwechselnd gezeigt wurden habe ich mich gestresst gefühlt und bei dem mit den Silben war mir am Anfang nicht klar, dass ich beim ""+"" noch keine Taste drücken musste. Ich vermute das Bild von den Zeichen wurde bei den Silben kurz eingeblendet, um das Unterbewusstsein anzuregen aber für mich ging das alles so schnell, dass ich mich nur auf die Silben konzentriert habe weil ich die sonst verpasst hätte (die Silben, um die es ja ging könnte man etwas länger zeigen)","0","1","0","null","","","<div class = 'row'><div class = 'column'><img src = 'uspos/5621.bmp' width = '100%;'></div><div class = 'column'><img src = 'category2/CS6.png' width = '70%;'></div></div>","null","pos","CS","CS","2","category2/CS6.png","","","","",""
"","html-keyboard-response","74","456338","0.0-6.0-6.0-0.5","wtqerrutwo","one_one","1","direct_first","1","un07ed05","0","24","1","1","3","1","Als Bilder und Zeichen abwechselnd gezeigt wurden habe ich mich gestresst gefühlt und bei dem mit den Silben war mir am Anfang nicht klar, dass ich beim ""+"" noch keine Taste drücken musste. Ich vermute das Bild von den Zeichen wurde bei den Silben kurz eingeblendet, um das Unterbewusstsein anzuregen aber für mich ging das alles so schnell, dass ich mich nur auf die Silben konzentriert habe weil ich die sonst verpasst hätte (die Silben, um die es ja ging könnte man etwas länger zeigen)","0","1","0","null","","","<div class = 'row'><div class = 'column'><img src = 'category1/CS5.png' width = '70%;'></div><div class = 'column'><img src = 'usneg/9330.bmp' width = '100%;'></div></div>","null","neg","CS","CS","1","category1/CS5.png","","","","",""
"","html-keyboard-response","75","458867","0.0-6.0-6.0-0.6","wtqerrutwo","one_one","1","direct_first","1","un07ed05","0","24","1","1","3","1","Als Bilder und Zeichen abwechselnd gezeigt wurden habe ich mich gestresst gefühlt und bei dem mit den Silben war mir am Anfang nicht klar, dass ich beim ""+"" noch keine Taste drücken musste. Ich vermute das Bild von den Zeichen wurde bei den Silben kurz eingeblendet, um das Unterbewusstsein anzuregen aber für mich ging das alles so schnell, dass ich mich nur auf die Silben konzentriert habe weil ich die sonst verpasst hätte (die Silben, um die es ja ging könnte man etwas länger zeigen)","0","1","0","null","","","<div class = 'row'><div class = 'column'><img src = 'uspos/5621.bmp' width = '100%;'></div><div class = 'column'><img src = 'category2/CS6.png' width = '70%;'></div></div>","null","pos","CS","CS","2","category2/CS6.png","","","","",""
"","html-keyboard-response","76","461390","0.0-6.0-6.0-0.7","wtqerrutwo","one_one","1","direct_first","1","un07ed05","0","24","1","1","3","1","Als Bilder und Zeichen abwechselnd gezeigt wurden habe ich mich gestresst gefühlt und bei dem mit den Silben war mir am Anfang nicht klar, dass ich beim ""+"" noch keine Taste drücken musste. Ich vermute das Bild von den Zeichen wurde bei den Silben kurz eingeblendet, um das Unterbewusstsein anzuregen aber für mich ging das alles so schnell, dass ich mich nur auf die Silben konzentriert habe weil ich die sonst verpasst hätte (die Silben, um die es ja ging könnte man etwas länger zeigen)","0","1","0","null","","","<div class = 'row'><div class = 'column'><img src = 'category4/CS2.png' width = '70%;'></div><div class = 'column'><img src = 'usneg/9415.bmp' width = '100%;'></div></div>","null","neg","CS","CS","4","category4/CS2.png","","","","",""
"","html-keyboard-response","77","463914","0.0-6.0-6.0-0.8","wtqerrutwo","one_one","1","direct_first","1","un07ed05","0","24","1","1","3","1","Als Bilder und Zeichen abwechselnd gezeigt wurden habe ich mich gestresst gefühlt und bei dem mit den Silben war mir am Anfang nicht klar, dass ich beim ""+"" noch keine Taste drücken musste. Ich vermute das Bild von den Zeichen wurde bei den Silben kurz eingeblendet, um das Unterbewusstsein anzuregen aber für mich ging das alles so schnell, dass ich mich nur auf die Silben konzentriert habe weil ich die sonst verpasst hätte (die Silben, um die es ja ging könnte man etwas länger zeigen)","0","1","0","null","","","<div class = 'row'><div class = 'column'><img src = 'usneg/9330.bmp' width = '100%;'></div><div class = 'column'><img src = 'category1/CS5.png' width = '70%;'></div></div>","null","neg","CS","CS","1","category1/CS5.png","","","","",""
"","html-keyboard-response","78","466436","0.0-6.0-6.0-0.9","wtqerrutwo","one_one","1","direct_first","1","un07ed05","0","24","1","1","3","1","Als Bilder und Zeichen abwechselnd gezeigt wurden habe ich mich gestresst gefühlt und bei dem mit den Silben war mir am Anfang nicht klar, dass ich beim ""+"" noch keine Taste drücken musste. Ich vermute das Bild von den Zeichen wurde bei den Silben kurz eingeblendet, um das Unterbewusstsein anzuregen aber für mich ging das alles so schnell, dass ich mich nur auf die Silben konzentriert habe weil ich die sonst verpasst hätte (die Silben, um die es ja ging könnte man etwas länger zeigen)","0","1","0","null","","","<div class = 'row'><div class = 'column'><img src = 'uspos/5621.bmp' width = '100%;'></div><div class = 'column'><img src = 'category2/CS6.png' width = '70%;'></div></div>","null","pos","CS","CS","2","category2/CS6.png","","","","",""
"","html-keyboard-response","79","468957","0.0-6.0-6.0-0.10","wtqerrutwo","one_one","1","direct_first","1","un07ed05","0","24","1","1","3","1","Als Bilder und Zeichen abwechselnd gezeigt wurden habe ich mich gestresst gefühlt und bei dem mit den Silben war mir am Anfang nicht klar, dass ich beim ""+"" noch keine Taste drücken musste. Ich vermute das Bild von den Zeichen wurde bei den Silben kurz eingeblendet, um das Unterbewusstsein anzuregen aber für mich ging das alles so schnell, dass ich mich nur auf die Silben konzentriert habe weil ich die sonst verpasst hätte (die Silben, um die es ja ging könnte man etwas länger zeigen)","0","1","0","null","","","<div class = 'row'><div class = 'column'><img src = 'uspos/8350.bmp' width = '100%;'></div><div class = 'column'><img src = 'category3/CS6.png' width = '70%;'></div></div>","null","pos","CS","CS","3","category3/CS6.png","","","","",""
"","html-keyboard-response","80","471470","0.0-6.0-6.0-0.11","wtqerrutwo","one_one","1","direct_first","1","un07ed05","0","24","1","1","3","1","Als Bilder und Zeichen abwechselnd gezeigt wurden habe ich mich gestresst gefühlt und bei dem mit den Silben war mir am Anfang nicht klar, dass ich beim ""+"" noch keine Taste drücken musste. Ich vermute das Bild von den Zeichen wurde bei den Silben kurz eingeblendet, um das Unterbewusstsein anzuregen aber für mich ging das alles so schnell, dass ich mich nur auf die Silben konzentriert habe weil ich die sonst verpasst hätte (die Silben, um die es ja ging könnte man etwas länger zeigen)","0","1","0","null","","","<div class = 'row'><div class = 'column'><img src = 'uspos/5621.bmp' width = '100%;'></div><div class = 'column'><img src = 'category2/CS6.png' width = '70%;'></div></div>","null","pos","CS","CS","2","category2/CS6.png","","","","",""
"","html-keyboard-response","81","473991","0.0-6.0-6.0-0.12","wtqerrutwo","one_one","1","direct_first","1","un07ed05","0","24","1","1","3","1","Als Bilder und Zeichen abwechselnd gezeigt wurden habe ich mich gestresst gefühlt und bei dem mit den Silben war mir am Anfang nicht klar, dass ich beim ""+"" noch keine Taste drücken musste. Ich vermute das Bild von den Zeichen wurde bei den Silben kurz eingeblendet, um das Unterbewusstsein anzuregen aber für mich ging das alles so schnell, dass ich mich nur auf die Silben konzentriert habe weil ich die sonst verpasst hätte (die Silben, um die es ja ging könnte man etwas länger zeigen)","0","1","0","null","","","<div class = 'row'><div class = 'column'><img src = 'usneg/9415.bmp' width = '100%;'></div><div class = 'column'><img src = 'category4/CS2.png' width = '70%;'></div></div>","null","neg","CS","CS","4","category4/CS2.png","","","","",""
"","html-keyboard-response","82","476522","0.0-6.0-6.0-0.13","wtqerrutwo","one_one","1","direct_first","1","un07ed05","0","24","1","1","3","1","Als Bilder und Zeichen abwechselnd gezeigt wurden habe ich mich gestresst gefühlt und bei dem mit den Silben war mir am Anfang nicht klar, dass ich beim ""+"" noch keine Taste drücken musste. Ich vermute das Bild von den Zeichen wurde bei den Silben kurz eingeblendet, um das Unterbewusstsein anzuregen aber für mich ging das alles so schnell, dass ich mich nur auf die Silben konzentriert habe weil ich die sonst verpasst hätte (die Silben, um die es ja ging könnte man etwas länger zeigen)","0","1","0","null","","","<div class = 'row'><div class = 'column'><img src = 'uspos/8350.bmp' width = '100%;'></div><div class = 'column'><img src = 'category3/CS6.png' width = '70%;'></div></div>","null","pos","CS","CS","3","category3/CS6.png","","","","",""
"","html-keyboard-response","83","479045","0.0-6.0-6.0-0.14","wtqerrutwo","one_one","1","direct_first","1","un07ed05","0","24","1","1","3","1","Als Bilder und Zeichen abwechselnd gezeigt wurden habe ich mich gestresst gefühlt und bei dem mit den Silben war mir am Anfang nicht klar, dass ich beim ""+"" noch keine Taste drücken musste. Ich vermute das Bild von den Zeichen wurde bei den Silben kurz eingeblendet, um das Unterbewusstsein anzuregen aber für mich ging das alles so schnell, dass ich mich nur auf die Silben konzentriert habe weil ich die sonst verpasst hätte (die Silben, um die es ja ging könnte man etwas länger zeigen)","0","1","0","null","","","<div class = 'row'><div class = 'column'><img src = 'usneg/9415.bmp' width = '100%;'></div><div class = 'column'><img src = 'category4/CS2.png' width = '70%;'></div></div>","null","neg","CS","CS","4","category4/CS2.png","","","","",""
"","html-keyboard-response","84","481564","0.0-6.0-6.0-0.15","wtqerrutwo","one_one","1","direct_first","1","un07ed05","0","24","1","1","3","1","Als Bilder und Zeichen abwechselnd gezeigt wurden habe ich mich gestresst gefühlt und bei dem mit den Silben war mir am Anfang nicht klar, dass ich beim ""+"" noch keine Taste drücken musste. Ich vermute das Bild von den Zeichen wurde bei den Silben kurz eingeblendet, um das Unterbewusstsein anzuregen aber für mich ging das alles so schnell, dass ich mich nur auf die Silben konzentriert habe weil ich die sonst verpasst hätte (die Silben, um die es ja ging könnte man etwas länger zeigen)","0","1","0","null","","","<div class = 'row'><div class = 'column'><img src = 'category3/CS6.png' width = '70%;'></div><div class = 'column'><img src = 'uspos/8350.bmp' width = '100%;'></div></div>","null","pos","CS","CS","3","category3/CS6.png","","","","",""
"","html-keyboard-response","85","484090","0.0-6.0-6.0-0.16","wtqerrutwo","one_one","1","direct_first","1","un07ed05","0","24","1","1","3","1","Als Bilder und Zeichen abwechselnd gezeigt wurden habe ich mich gestresst gefühlt und bei dem mit den Silben war mir am Anfang nicht klar, dass ich beim ""+"" noch keine Taste drücken musste. Ich vermute das Bild von den Zeichen wurde bei den Silben kurz eingeblendet, um das Unterbewusstsein anzuregen aber für mich ging das alles so schnell, dass ich mich nur auf die Silben konzentriert habe weil ich die sonst verpasst hätte (die Silben, um die es ja ging könnte man etwas länger zeigen)","0","1","0","null","","","<div class = 'row'><div class = 'column'><img src = 'usneg/9330.bmp' width = '100%;'></div><div class = 'column'><img src = 'category1/CS5.png' width = '70%;'></div></div>","null","neg","CS","CS","1","category1/CS5.png","","","","",""
"","html-keyboard-response","86","486613","0.0-6.0-6.0-0.17","wtqerrutwo","one_one","1","direct_first","1","un07ed05","0","24","1","1","3","1","Als Bilder und Zeichen abwechselnd gezeigt wurden habe ich mich gestresst gefühlt und bei dem mit den Silben war mir am Anfang nicht klar, dass ich beim ""+"" noch keine Taste drücken musste. Ich vermute das Bild von den Zeichen wurde bei den Silben kurz eingeblendet, um das Unterbewusstsein anzuregen aber für mich ging das alles so schnell, dass ich mich nur auf die Silben konzentriert habe weil ich die sonst verpasst hätte (die Silben, um die es ja ging könnte man etwas länger zeigen)","0","1","0","null","","","<div class = 'row'><div class = 'column'><img src = 'category3/CS6.png' width = '70%;'></div><div class = 'column'><img src = 'uspos/8350.bmp' width = '100%;'></div></div>","null","pos","CS","CS","3","category3/CS6.png","","","","",""
"","html-keyboard-response","87","489127","0.0-6.0-6.0-0.18","wtqerrutwo","one_one","1","direct_first","1","un07ed05","0","24","1","1","3","1","Als Bilder und Zeichen abwechselnd gezeigt wurden habe ich mich gestresst gefühlt und bei dem mit den Silben war mir am Anfang nicht klar, dass ich beim ""+"" noch keine Taste drücken musste. Ich vermute das Bild von den Zeichen wurde bei den Silben kurz eingeblendet, um das Unterbewusstsein anzuregen aber für mich ging das alles so schnell, dass ich mich nur auf die Silben konzentriert habe weil ich die sonst verpasst hätte (die Silben, um die es ja ging könnte man etwas länger zeigen)","0","1","0","null","","","<div class = 'row'><div class = 'column'><img src = 'category1/CS5.png' width = '70%;'></div><div class = 'column'><img src = 'usneg/9330.bmp' width = '100%;'></div></div>","null","neg","CS","CS","1","category1/CS5.png","","","","",""
"","html-keyboard-response","88","491652","0.0-6.0-6.0-0.19","wtqerrutwo","one_one","1","direct_first","1","un07ed05","0","24","1","1","3","1","Als Bilder und Zeichen abwechselnd gezeigt wurden habe ich mich gestresst gefühlt und bei dem mit den Silben war mir am Anfang nicht klar, dass ich beim ""+"" noch keine Taste drücken musste. Ich vermute das Bild von den Zeichen wurde bei den Silben kurz eingeblendet, um das Unterbewusstsein anzuregen aber für mich ging das alles so schnell, dass ich mich nur auf die Silben konzentriert habe weil ich die sonst verpasst hätte (die Silben, um die es ja ging könnte man etwas länger zeigen)","0","1","0","null","","","<div class = 'row'><div class = 'column'><img src = 'usneg/9415.bmp' width = '100%;'></div><div class = 'column'><img src = 'category4/CS2.png' width = '70%;'></div></div>","null","neg","CS","CS","4","category4/CS2.png","","","","",""
"","survey-html-form","89","505119","0.0-7.0","wtqerrutwo","one_one","1","direct_first","1","un07ed05","0","24","1","1","3","1","Als Bilder und Zeichen abwechselnd gezeigt wurden habe ich mich gestresst gefühlt und bei dem mit den Silben war mir am Anfang nicht klar, dass ich beim ""+"" noch keine Taste drücken musste. Ich vermute das Bild von den Zeichen wurde bei den Silben kurz eingeblendet, um das Unterbewusstsein anzuregen aber für mich ging das alles so schnell, dass ich mich nur auf die Silben konzentriert habe weil ich die sonst verpasst hätte (die Silben, um die es ja ging könnte man etwas länger zeigen)","0","1","0","12957","","{}","","","","","","","","","","","",""
"","image-slider-response","90","520462","0.0-8.0-0.0","wtqerrutwo","one_one","1","direct_first","1","un07ed05","0","24","1","1","3","1","Als Bilder und Zeichen abwechselnd gezeigt wurden habe ich mich gestresst gefühlt und bei dem mit den Silben war mir am Anfang nicht klar, dass ich beim ""+"" noch keine Taste drücken musste. Ich vermute das Bild von den Zeichen wurde bei den Silben kurz eingeblendet, um das Unterbewusstsein anzuregen aber für mich ging das alles so schnell, dass ich mich nur auf die Silben konzentriert habe weil ich die sonst verpasst hätte (die Silben, um die es ja ging könnte man etwas länger zeigen)","0","1","0","13327","","","","","pos","GS","GSold","3","category3/CS1.png","44","targets/30.png","direct","",""
"","image-slider-response","91","535162","0.0-8.0-0.1","wtqerrutwo","one_one","1","direct_first","1","un07ed05","0","24","1","1","3","1","Als Bilder und Zeichen abwechselnd gezeigt wurden habe ich mich gestresst gefühlt und bei dem mit den Silben war mir am Anfang nicht klar, dass ich beim ""+"" noch keine Taste drücken musste. Ich vermute das Bild von den Zeichen wurde bei den Silben kurz eingeblendet, um das Unterbewusstsein anzuregen aber für mich ging das alles so schnell, dass ich mich nur auf die Silben konzentriert habe weil ich die sonst verpasst hätte (die Silben, um die es ja ging könnte man etwas länger zeigen)","0","1","0","14697","","","","","pos","GS","GSold","2","category2/CS4.png","-47","targets/46.png","direct","",""
"","image-slider-response","92","544568","0.0-8.0-0.2","wtqerrutwo","one_one","1","direct_first","1","un07ed05","0","24","1","1","3","1","Als Bilder und Zeichen abwechselnd gezeigt wurden habe ich mich gestresst gefühlt und bei dem mit den Silben war mir am Anfang nicht klar, dass ich beim ""+"" noch keine Taste drücken musste. Ich vermute das Bild von den Zeichen wurde bei den Silben kurz eingeblendet, um das Unterbewusstsein anzuregen aber für mich ging das alles so schnell, dass ich mich nur auf die Silben konzentriert habe weil ich die sonst verpasst hätte (die Silben, um die es ja ging könnte man etwas länger zeigen)","0","1","0","9404","","","","","neg","GS","GSnew","1","category1/GS1.png","52","targets/10.png","direct","",""
"","image-slider-response","93","565816","0.0-8.0-0.3","wtqerrutwo","one_one","1","direct_first","1","un07ed05","0","24","1","1","3","1","Als Bilder und Zeichen abwechselnd gezeigt wurden habe ich mich gestresst gefühlt und bei dem mit den Silben war mir am Anfang nicht klar, dass ich beim ""+"" noch keine Taste drücken musste. Ich vermute das Bild von den Zeichen wurde bei den Silben kurz eingeblendet, um das Unterbewusstsein anzuregen aber für mich ging das alles so schnell, dass ich mich nur auf die Silben konzentriert habe weil ich die sonst verpasst hätte (die Silben, um die es ja ging könnte man etwas länger zeigen)","0","1","0","21245","","","","","pos","GS","GSold","3","category3/CS4.png","-26","targets/38.png","direct","",""
"","image-slider-response","94","569405","0.0-8.0-0.4","wtqerrutwo","one_one","1","direct_first","1","un07ed05","0","24","1","1","3","1","Als Bilder und Zeichen abwechselnd gezeigt wurden habe ich mich gestresst gefühlt und bei dem mit den Silben war mir am Anfang nicht klar, dass ich beim ""+"" noch keine Taste drücken musste. Ich vermute das Bild von den Zeichen wurde bei den Silben kurz eingeblendet, um das Unterbewusstsein anzuregen aber für mich ging das alles so schnell, dass ich mich nur auf die Silben konzentriert habe weil ich die sonst verpasst hätte (die Silben, um die es ja ging könnte man etwas länger zeigen)","0","1","0","3584","","","","","neg","GS","abstract","4","category4/lin.png","78","targets/18.png","direct","",""
"","image-slider-response","95","591471","0.0-8.0-0.5","wtqerrutwo","one_one","1","direct_first","1","un07ed05","0","24","1","1","3","1","Als Bilder und Zeichen abwechselnd gezeigt wurden habe ich mich gestresst gefühlt und bei dem mit den Silben war mir am Anfang nicht klar, dass ich beim ""+"" noch keine Taste drücken musste. Ich vermute das Bild von den Zeichen wurde bei den Silben kurz eingeblendet, um das Unterbewusstsein anzuregen aber für mich ging das alles so schnell, dass ich mich nur auf die Silben konzentriert habe weil ich die sonst verpasst hätte (die Silben, um die es ja ging könnte man etwas länger zeigen)","0","1","0","22065","","","","","neg","GS","GSold","1","category1/CS3.png","37","targets/42.png","direct","",""
"","image-slider-response","96","595520","0.0-8.0-0.6","wtqerrutwo","one_one","1","direct_first","1","un07ed05","0","24","1","1","3","1","Als Bilder und Zeichen abwechselnd gezeigt wurden habe ich mich gestresst gefühlt und bei dem mit den Silben war mir am Anfang nicht klar, dass ich beim ""+"" noch keine Taste drücken musste. Ich vermute das Bild von den Zeichen wurde bei den Silben kurz eingeblendet, um das Unterbewusstsein anzuregen aber für mich ging das alles so schnell, dass ich mich nur auf die Silben konzentriert habe weil ich die sonst verpasst hätte (die Silben, um die es ja ging könnte man etwas länger zeigen)","0","1","0","4046","","","","","neg","GS","abstract","1","category1/ma.png","68","targets/1.png","direct","",""
"","image-slider-response","97","600999","0.0-8.0-0.7","wtqerrutwo","one_one","1","direct_first","1","un07ed05","0","24","1","1","3","1","Als Bilder und Zeichen abwechselnd gezeigt wurden habe ich mich gestresst gefühlt und bei dem mit den Silben war mir am Anfang nicht klar, dass ich beim ""+"" noch keine Taste drücken musste. Ich vermute das Bild von den Zeichen wurde bei den Silben kurz eingeblendet, um das Unterbewusstsein anzuregen aber für mich ging das alles so schnell, dass ich mich nur auf die Silben konzentriert habe weil ich die sonst verpasst hätte (die Silben, um die es ja ging könnte man etwas länger zeigen)","0","1","0","5475","","","","","neg","GS","GSnew","4","category4/GS1.png","100","targets/13.png","direct","",""
"","image-slider-response","98","605644","0.0-8.0-0.8","wtqerrutwo","one_one","1","direct_first","1","un07ed05","0","24","1","1","3","1","Als Bilder und Zeichen abwechselnd gezeigt wurden habe ich mich gestresst gefühlt und bei dem mit den Silben war mir am Anfang nicht klar, dass ich beim ""+"" noch keine Taste drücken musste. Ich vermute das Bild von den Zeichen wurde bei den Silben kurz eingeblendet, um das Unterbewusstsein anzuregen aber für mich ging das alles so schnell, dass ich mich nur auf die Silben konzentriert habe weil ich die sonst verpasst hätte (die Silben, um die es ja ging könnte man etwas länger zeigen)","0","1","0","4642","","","","","neg","GS","GSold","4","category4/CS6.png","-18","targets/4.png","direct","",""
"","image-slider-response","99","609660","0.0-8.0-0.9","wtqerrutwo","one_one","1","direct_first","1","un07ed05","0","24","1","1","3","1","Als Bilder und Zeichen abwechselnd gezeigt wurden habe ich mich gestresst gefühlt und bei dem mit den Silben war mir am Anfang nicht klar, dass ich beim ""+"" noch keine Taste drücken musste. Ich vermute das Bild von den Zeichen wurde bei den Silben kurz eingeblendet, um das Unterbewusstsein anzuregen aber für mich ging das alles so schnell, dass ich mich nur auf die Silben konzentriert habe weil ich die sonst verpasst hätte (die Silben, um die es ja ging könnte man etwas länger zeigen)","0","1","0","4013","","","","","pos","GS","abstract","2","category2/men.png","100","targets/2.png","direct","",""
"","image-slider-response","100","615889","0.0-8.0-0.10","wtqerrutwo","one_one","1","direct_first","1","un07ed05","0","24","1","1","3","1","Als Bilder und Zeichen abwechselnd gezeigt wurden habe ich mich gestresst gefühlt und bei dem mit den Silben war mir am Anfang nicht klar, dass ich beim ""+"" noch keine Taste drücken musste. Ich vermute das Bild von den Zeichen wurde bei den Silben kurz eingeblendet, um das Unterbewusstsein anzuregen aber für mich ging das alles so schnell, dass ich mich nur auf die Silben konzentriert habe weil ich die sonst verpasst hätte (die Silben, um die es ja ging könnte man etwas länger zeigen)","0","1","0","6227","","","","","neg","GS","GSold","1","category1/CS10.png","-9","targets/28.png","direct","",""
"","image-slider-response","101","625508","0.0-8.0-0.11","wtqerrutwo","one_one","1","direct_first","1","un07ed05","0","24","1","1","3","1","Als Bilder und Zeichen abwechselnd gezeigt wurden habe ich mich gestresst gefühlt und bei dem mit den Silben war mir am Anfang nicht klar, dass ich beim ""+"" noch keine Taste drücken musste. Ich vermute das Bild von den Zeichen wurde bei den Silben kurz eingeblendet, um das Unterbewusstsein anzuregen aber für mich ging das alles so schnell, dass ich mich nur auf die Silben konzentriert habe weil ich die sonst verpasst hätte (die Silben, um die es ja ging könnte man etwas länger zeigen)","0","1","0","9617","","","","","pos","CS","CS","2","category2/CS6.png","44","targets/36.png","direct","",""
"","image-slider-response","102","628463","0.0-8.0-0.12","wtqerrutwo","one_one","1","direct_first","1","un07ed05","0","24","1","1","3","1","Als Bilder und Zeichen abwechselnd gezeigt wurden habe ich mich gestresst gefühlt und bei dem mit den Silben war mir am Anfang nicht klar, dass ich beim ""+"" noch keine Taste drücken musste. Ich vermute das Bild von den Zeichen wurde bei den Silben kurz eingeblendet, um das Unterbewusstsein anzuregen aber für mich ging das alles so schnell, dass ich mich nur auf die Silben konzentriert habe weil ich die sonst verpasst hätte (die Silben, um die es ja ging könnte man etwas länger zeigen)","0","1","0","2953","","","","","neg","GS","GSnew","4","category4/GS3.png","-71","targets/29.png","direct","",""
"","image-slider-response","103","631889","0.0-8.0-0.13","wtqerrutwo","one_one","1","direct_first","1","un07ed05","0","24","1","1","3","1","Als Bilder und Zeichen abwechselnd gezeigt wurden habe ich mich gestresst gefühlt und bei dem mit den Silben war mir am Anfang nicht klar, dass ich beim ""+"" noch keine Taste drücken musste. Ich vermute das Bild von den Zeichen wurde bei den Silben kurz eingeblendet, um das Unterbewusstsein anzuregen aber für mich ging das alles so schnell, dass ich mich nur auf die Silben konzentriert habe weil ich die sonst verpasst hätte (die Silben, um die es ja ging könnte man etwas länger zeigen)","0","1","0","3424","","","","","pos","GS","GSold","2","category2/CS5.png","-39","targets/39.png","direct","",""
"","image-slider-response","104","636213","0.0-8.0-0.14","wtqerrutwo","one_one","1","direct_first","1","un07ed05","0","24","1","1","3","1","Als Bilder und Zeichen abwechselnd gezeigt wurden habe ich mich gestresst gefühlt und bei dem mit den Silben war mir am Anfang nicht klar, dass ich beim ""+"" noch keine Taste drücken musste. Ich vermute das Bild von den Zeichen wurde bei den Silben kurz eingeblendet, um das Unterbewusstsein anzuregen aber für mich ging das alles so schnell, dass ich mich nur auf die Silben konzentriert habe weil ich die sonst verpasst hätte (die Silben, um die es ja ging könnte man etwas länger zeigen)","0","1","0","4322","","","","","pos","GS","GSold","2","category2/CS9.png","-98","targets/24.png","direct","",""
"","image-slider-response","105","641510","0.0-8.0-0.15","wtqerrutwo","one_one","1","direct_first","1","un07ed05","0","24","1","1","3","1","Als Bilder und Zeichen abwechselnd gezeigt wurden habe ich mich gestresst gefühlt und bei dem mit den Silben war mir am Anfang nicht klar, dass ich beim ""+"" noch keine Taste drücken musste. Ich vermute das Bild von den Zeichen wurde bei den Silben kurz eingeblendet, um das Unterbewusstsein anzuregen aber für mich ging das alles so schnell, dass ich mich nur auf die Silben konzentriert habe weil ich die sonst verpasst hätte (die Silben, um die es ja ging könnte man etwas länger zeigen)","0","1","0","5294","","","","","neg","GS","GSnew","1","category1/GS2.png","-24","targets/27.png","direct","",""
"","image-slider-response","106","644864","0.0-8.0-0.16","wtqerrutwo","one_one","1","direct_first","1","un07ed05","0","24","1","1","3","1","Als Bilder und Zeichen abwechselnd gezeigt wurden habe ich mich gestresst gefühlt und bei dem mit den Silben war mir am Anfang nicht klar, dass ich beim ""+"" noch keine Taste drücken musste. Ich vermute das Bild von den Zeichen wurde bei den Silben kurz eingeblendet, um das Unterbewusstsein anzuregen aber für mich ging das alles so schnell, dass ich mich nur auf die Silben konzentriert habe weil ich die sonst verpasst hätte (die Silben, um die es ja ging könnte man etwas länger zeigen)","0","1","0","3352","","","","","pos","GS","GSnew","3","category3/GS2.png","-100","targets/3.png","direct","",""
"","image-slider-response","107","648115","0.0-8.0-0.17","wtqerrutwo","one_one","1","direct_first","1","un07ed05","0","24","1","1","3","1","Als Bilder und Zeichen abwechselnd gezeigt wurden habe ich mich gestresst gefühlt und bei dem mit den Silben war mir am Anfang nicht klar, dass ich beim ""+"" noch keine Taste drücken musste. Ich vermute das Bild von den Zeichen wurde bei den Silben kurz eingeblendet, um das Unterbewusstsein anzuregen aber für mich ging das alles so schnell, dass ich mich nur auf die Silben konzentriert habe weil ich die sonst verpasst hätte (die Silben, um die es ja ging könnte man etwas länger zeigen)","0","1","0","3248","","","","","neg","CS","CS","4","category4/CS2.png","73","targets/21.png","direct","",""
"","image-slider-response","108","656226","0.0-8.0-0.18","wtqerrutwo","one_one","1","direct_first","1","un07ed05","0","24","1","1","3","1","Als Bilder und Zeichen abwechselnd gezeigt wurden habe ich mich gestresst gefühlt und bei dem mit den Silben war mir am Anfang nicht klar, dass ich beim ""+"" noch keine Taste drücken musste. Ich vermute das Bild von den Zeichen wurde bei den Silben kurz eingeblendet, um das Unterbewusstsein anzuregen aber für mich ging das alles so schnell, dass ich mich nur auf die Silben konzentriert habe weil ich die sonst verpasst hätte (die Silben, um die es ja ging könnte man etwas länger zeigen)","0","1","0","8108","","","","","neg","GS","GSnew","1","category1/GS3.png","37","targets/22.png","direct","",""
"","image-slider-response","109","663079","0.0-8.0-0.19","wtqerrutwo","one_one","1","direct_first","1","un07ed05","0","24","1","1","3","1","Als Bilder und Zeichen abwechselnd gezeigt wurden habe ich mich gestresst gefühlt und bei dem mit den Silben war mir am Anfang nicht klar, dass ich beim ""+"" noch keine Taste drücken musste. Ich vermute das Bild von den Zeichen wurde bei den Silben kurz eingeblendet, um das Unterbewusstsein anzuregen aber für mich ging das alles so schnell, dass ich mich nur auf die Silben konzentriert habe weil ich die sonst verpasst hätte (die Silben, um die es ja ging könnte man etwas länger zeigen)","0","1","0","6851","","","","","neg","GS","GSold","4","category4/CS9.png","32","targets/45.png","direct","",""
"","image-slider-response","110","667120","0.0-8.0-0.20","wtqerrutwo","one_one","1","direct_first","1","un07ed05","0","24","1","1","3","1","Als Bilder und Zeichen abwechselnd gezeigt wurden habe ich mich gestresst gefühlt und bei dem mit den Silben war mir am Anfang nicht klar, dass ich beim ""+"" noch keine Taste drücken musste. Ich vermute das Bild von den Zeichen wurde bei den Silben kurz eingeblendet, um das Unterbewusstsein anzuregen aber für mich ging das alles so schnell, dass ich mich nur auf die Silben konzentriert habe weil ich die sonst verpasst hätte (die Silben, um die es ja ging könnte man etwas länger zeigen)","0","1","0","4038","","","","","neg","CS","CS","1","category1/CS5.png","-48","targets/37.png","direct","",""
"","image-slider-response","111","671004","0.0-8.0-0.21","wtqerrutwo","one_one","1","direct_first","1","un07ed05","0","24","1","1","3","1","Als Bilder und Zeichen abwechselnd gezeigt wurden habe ich mich gestresst gefühlt und bei dem mit den Silben war mir am Anfang nicht klar, dass ich beim ""+"" noch keine Taste drücken musste. Ich vermute das Bild von den Zeichen wurde bei den Silben kurz eingeblendet, um das Unterbewusstsein anzuregen aber für mich ging das alles so schnell, dass ich mich nur auf die Silben konzentriert habe weil ich die sonst verpasst hätte (die Silben, um die es ja ging könnte man etwas länger zeigen)","0","1","0","3880","","","","","neg","GS","GSnew","4","category4/GS2.png","-53","targets/6.png","direct","",""
"","image-slider-response","112","677549","0.0-8.0-0.22","wtqerrutwo","one_one","1","direct_first","1","un07ed05","0","24","1","1","3","1","Als Bilder und Zeichen abwechselnd gezeigt wurden habe ich mich gestresst gefühlt und bei dem mit den Silben war mir am Anfang nicht klar, dass ich beim ""+"" noch keine Taste drücken musste. Ich vermute das Bild von den Zeichen wurde bei den Silben kurz eingeblendet, um das Unterbewusstsein anzuregen aber für mich ging das alles so schnell, dass ich mich nur auf die Silben konzentriert habe weil ich die sonst verpasst hätte (die Silben, um die es ja ging könnte man etwas länger zeigen)","0","1","0","6542","","","","","pos","GS","GSnew","2","category2/GS1.png","-29","targets/14.png","direct","",""
"","image-slider-response","113","680504","0.0-8.0-0.23","wtqerrutwo","one_one","1","direct_first","1","un07ed05","0","24","1","1","3","1","Als Bilder und Zeichen abwechselnd gezeigt wurden habe ich mich gestresst gefühlt und bei dem mit den Silben war mir am Anfang nicht klar, dass ich beim ""+"" noch keine Taste drücken musste. Ich vermute das Bild von den Zeichen wurde bei den Silben kurz eingeblendet, um das Unterbewusstsein anzuregen aber für mich ging das alles so schnell, dass ich mich nur auf die Silben konzentriert habe weil ich die sonst verpasst hätte (die Silben, um die es ja ging könnte man etwas länger zeigen)","0","1","0","2949","","","","","pos","GS","GSnew","2","category2/GS3.png","18","targets/23.png","direct","",""
"","image-slider-response","114","689616","0.0-8.0-0.24","wtqerrutwo","one_one","1","direct_first","1","un07ed05","0","24","1","1","3","1","Als Bilder und Zeichen abwechselnd gezeigt wurden habe ich mich gestresst gefühlt und bei dem mit den Silben war mir am Anfang nicht klar, dass ich beim ""+"" noch keine Taste drücken musste. Ich vermute das Bild von den Zeichen wurde bei den Silben kurz eingeblendet, um das Unterbewusstsein anzuregen aber für mich ging das alles so schnell, dass ich mich nur auf die Silben konzentriert habe weil ich die sonst verpasst hätte (die Silben, um die es ja ging könnte man etwas länger zeigen)","0","1","0","9108","","","","","pos","CS","CS","3","category3/CS6.png","23","targets/11.png","direct","",""
"","image-slider-response","115","692774","0.0-8.0-0.25","wtqerrutwo","one_one","1","direct_first","1","un07ed05","0","24","1","1","3","1","Als Bilder und Zeichen abwechselnd gezeigt wurden habe ich mich gestresst gefühlt und bei dem mit den Silben war mir am Anfang nicht klar, dass ich beim ""+"" noch keine Taste drücken musste. Ich vermute das Bild von den Zeichen wurde bei den Silben kurz eingeblendet, um das Unterbewusstsein anzuregen aber für mich ging das alles so schnell, dass ich mich nur auf die Silben konzentriert habe weil ich die sonst verpasst hätte (die Silben, um die es ja ging könnte man etwas länger zeigen)","0","1","0","3153","","","","","pos","GS","GSold","3","category3/CS10.png","-18","targets/48.png","direct","",""
"","image-slider-response","116","696621","0.0-8.0-0.26","wtqerrutwo","one_one","1","direct_first","1","un07ed05","0","24","1","1","3","1","Als Bilder und Zeichen abwechselnd gezeigt wurden habe ich mich gestresst gefühlt und bei dem mit den Silben war mir am Anfang nicht klar, dass ich beim ""+"" noch keine Taste drücken musste. Ich vermute das Bild von den Zeichen wurde bei den Silben kurz eingeblendet, um das Unterbewusstsein anzuregen aber für mich ging das alles so schnell, dass ich mich nur auf die Silben konzentriert habe weil ich die sonst verpasst hätte (die Silben, um die es ja ging könnte man etwas länger zeigen)","0","1","0","3843","","","","","neg","GS","GSold","4","category4/CS3.png","46","targets/31.png","direct","",""
