"success","trial_type","trial_index","time_elapsed","internal_node_id","subject","condition","condition_code","measure","measure_code","codeword","gender","age","education","chinese","fach","handedness","comment","hinschauen","ablenkung","gewissenhaft","rt","url","responses","stimulus","key_press","val","type","type_specific","category","cs_selected","target","indirect","task","nr_pres","response"
"true","fullscreen","0","3957","0.0-0.0","gnjsswxs94","one_one","1","indirect_first","0","er05en17","0","26","1","1","3","1","","0","1","0","","","","","","","","","","","","","","",""
"","external-html","1","31193","0.0-1.0","gnjsswxs94","one_one","1","indirect_first","0","er05en17","0","26","1","1","3","1","","0","1","0","27100","text/information.html","","","","","","","","","","","","",""
"","external-html","2","41762","0.0-2.0","gnjsswxs94","one_one","1","indirect_first","0","er05en17","0","26","1","1","3","1","","0","1","0","10440","text/consent.html","","","","","","","","","","","","",""
"","survey-html-form","3","114152","0.0-3.0","gnjsswxs94","one_one","1","indirect_first","0","er05en17","0","26","1","1","3","1","","0","1","0","72385","","{""codeword_enter"":""er05en17""}","","","","","","","","","","","",""
"","survey-html-form","4","140744","0.0-4.0","gnjsswxs94","one_one","1","indirect_first","0","er05en17","0","26","1","1","3","1","","0","1","0","26588","","{""age"":""26"",""education"":""1"",""subject"":""3"",""gender"":""0"",""handedness"":""1"",""chinese"":""1""}","","","","","","","","","","","",""
"","survey-html-form","5","154614","0.0-5.0","gnjsswxs94","one_one","1","indirect_first","0","er05en17","0","26","1","1","3","1","","0","1","0","13867","","{}","","","","","","","","","","","",""
"","html-keyboard-response","6","158643","0.0-6.0-0.0-0.0","gnjsswxs94","one_one","1","indirect_first","0","er05en17","0","26","1","1","3","1","","0","1","0","null","","","<div class = 'row'><div class = 'column'><img src = 'category4/CS10.png' width = '70%;'></div><div class = 'column'><img src = 'usneg/3181.bmp' width = '100%;'></div></div>","null","neg","CS","CS","4","category4/CS10.png","","","","",""
"","html-keyboard-response","7","161167","0.0-6.0-0.0-0.1","gnjsswxs94","one_one","1","indirect_first","0","er05en17","0","26","1","1","3","1","","0","1","0","null","","","<div class = 'row'><div class = 'column'><img src = 'category1/CS1.png' width = '70%;'></div><div class = 'column'><img src = 'uspos/4599.bmp' width = '100%;'></div></div>","null","pos","CS","CS","1","category1/CS1.png","","","","",""
"","html-keyboard-response","8","163696","0.0-6.0-0.0-0.2","gnjsswxs94","one_one","1","indirect_first","0","er05en17","0","26","1","1","3","1","","0","1","0","null","","","<div class = 'row'><div class = 'column'><img src = 'category4/CS10.png' width = '70%;'></div><div class = 'column'><img src = 'usneg/3181.bmp' width = '100%;'></div></div>","null","neg","CS","CS","4","category4/CS10.png","","","","",""
"","html-keyboard-response","9","166227","0.0-6.0-0.0-0.3","gnjsswxs94","one_one","1","indirect_first","0","er05en17","0","26","1","1","3","1","","0","1","0","null","","","<div class = 'row'><div class = 'column'><img src = 'usneg/9180.bmp' width = '100%;'></div><div class = 'column'><img src = 'category2/CS1.png' width = '70%;'></div></div>","null","neg","CS","CS","2","category2/CS1.png","","","","",""
"","html-keyboard-response","10","168767","0.0-6.0-0.0-0.4","gnjsswxs94","one_one","1","indirect_first","0","er05en17","0","26","1","1","3","1","","0","1","0","null","","","<div class = 'row'><div class = 'column'><img src = 'usneg/3181.bmp' width = '100%;'></div><div class = 'column'><img src = 'category4/CS10.png' width = '70%;'></div></div>","null","neg","CS","CS","4","category4/CS10.png","","","","",""
"","html-keyboard-response","11","171307","0.0-6.0-0.0-0.5","gnjsswxs94","one_one","1","indirect_first","0","er05en17","0","26","1","1","3","1","","0","1","0","null","","","<div class = 'row'><div class = 'column'><img src = 'category1/CS1.png' width = '70%;'></div><div class = 'column'><img src = 'uspos/4599.bmp' width = '100%;'></div></div>","null","pos","CS","CS","1","category1/CS1.png","","","","",""
"","html-keyboard-response","12","173846","0.0-6.0-0.0-0.6","gnjsswxs94","one_one","1","indirect_first","0","er05en17","0","26","1","1","3","1","","0","1","0","null","","","<div class = 'row'><div class = 'column'><img src = 'usneg/9180.bmp' width = '100%;'></div><div class = 'column'><img src = 'category2/CS1.png' width = '70%;'></div></div>","null","neg","CS","CS","2","category2/CS1.png","","","","",""
"","html-keyboard-response","13","176376","0.0-6.0-0.0-0.7","gnjsswxs94","one_one","1","indirect_first","0","er05en17","0","26","1","1","3","1","","0","1","0","null","","","<div class = 'row'><div class = 'column'><img src = 'category3/CS2.png' width = '70%;'></div><div class = 'column'><img src = 'uspos/8080.bmp' width = '100%;'></div></div>","null","pos","CS","CS","3","category3/CS2.png","","","","",""
"","html-keyboard-response","14","178906","0.0-6.0-0.0-0.8","gnjsswxs94","one_one","1","indirect_first","0","er05en17","0","26","1","1","3","1","","0","1","0","null","","","<div class = 'row'><div class = 'column'><img src = 'category1/CS1.png' width = '70%;'></div><div class = 'column'><img src = 'uspos/4599.bmp' width = '100%;'></div></div>","null","pos","CS","CS","1","category1/CS1.png","","","","",""
"","html-keyboard-response","15","181446","0.0-6.0-0.0-0.9","gnjsswxs94","one_one","1","indirect_first","0","er05en17","0","26","1","1","3","1","","0","1","0","null","","","<div class = 'row'><div class = 'column'><img src = 'category4/CS10.png' width = '70%;'></div><div class = 'column'><img src = 'usneg/3181.bmp' width = '100%;'></div></div>","null","neg","CS","CS","4","category4/CS10.png","","","","",""
"","html-keyboard-response","16","183977","0.0-6.0-0.0-0.10","gnjsswxs94","one_one","1","indirect_first","0","er05en17","0","26","1","1","3","1","","0","1","0","null","","","<div class = 'row'><div class = 'column'><img src = 'uspos/4599.bmp' width = '100%;'></div><div class = 'column'><img src = 'category1/CS1.png' width = '70%;'></div></div>","null","pos","CS","CS","1","category1/CS1.png","","","","",""
"","html-keyboard-response","17","186506","0.0-6.0-0.0-0.11","gnjsswxs94","one_one","1","indirect_first","0","er05en17","0","26","1","1","3","1","","0","1","0","null","","","<div class = 'row'><div class = 'column'><img src = 'usneg/9180.bmp' width = '100%;'></div><div class = 'column'><img src = 'category2/CS1.png' width = '70%;'></div></div>","null","neg","CS","CS","2","category2/CS1.png","","","","",""
"","html-keyboard-response","18","189045","0.0-6.0-0.0-0.12","gnjsswxs94","one_one","1","indirect_first","0","er05en17","0","26","1","1","3","1","","0","1","0","null","","","<div class = 'row'><div class = 'column'><img src = 'uspos/8080.bmp' width = '100%;'></div><div class = 'column'><img src = 'category3/CS2.png' width = '70%;'></div></div>","null","pos","CS","CS","3","category3/CS2.png","","","","",""
"","html-keyboard-response","19","191586","0.0-6.0-0.0-0.13","gnjsswxs94","one_one","1","indirect_first","0","er05en17","0","26","1","1","3","1","","0","1","0","null","","","<div class = 'row'><div class = 'column'><img src = 'usneg/9180.bmp' width = '100%;'></div><div class = 'column'><img src = 'category2/CS1.png' width = '70%;'></div></div>","null","neg","CS","CS","2","category2/CS1.png","","","","",""
"","html-keyboard-response","20","194125","0.0-6.0-0.0-0.14","gnjsswxs94","one_one","1","indirect_first","0","er05en17","0","26","1","1","3","1","","0","1","0","null","","","<div class = 'row'><div class = 'column'><img src = 'uspos/8080.bmp' width = '100%;'></div><div class = 'column'><img src = 'category3/CS2.png' width = '70%;'></div></div>","null","pos","CS","CS","3","category3/CS2.png","","","","",""
"","html-keyboard-response","21","196667","0.0-6.0-0.0-0.15","gnjsswxs94","one_one","1","indirect_first","0","er05en17","0","26","1","1","3","1","","0","1","0","null","","","<div class = 'row'><div class = 'column'><img src = 'category2/CS1.png' width = '70%;'></div><div class = 'column'><img src = 'usneg/9180.bmp' width = '100%;'></div></div>","null","neg","CS","CS","2","category2/CS1.png","","","","",""
"","html-keyboard-response","22","199182","0.0-6.0-0.0-0.16","gnjsswxs94","one_one","1","indirect_first","0","er05en17","0","26","1","1","3","1","","0","1","0","null","","","<div class = 'row'><div class = 'column'><img src = 'category3/CS2.png' width = '70%;'></div><div class = 'column'><img src = 'uspos/8080.bmp' width = '100%;'></div></div>","null","pos","CS","CS","3","category3/CS2.png","","","","",""
"","html-keyboard-response","23","201707","0.0-6.0-0.0-0.17","gnjsswxs94","one_one","1","indirect_first","0","er05en17","0","26","1","1","3","1","","0","1","0","null","","","<div class = 'row'><div class = 'column'><img src = 'uspos/4599.bmp' width = '100%;'></div><div class = 'column'><img src = 'category1/CS1.png' width = '70%;'></div></div>","null","pos","CS","CS","1","category1/CS1.png","","","","",""
"","html-keyboard-response","24","204247","0.0-6.0-0.0-0.18","gnjsswxs94","one_one","1","indirect_first","0","er05en17","0","26","1","1","3","1","","0","1","0","null","","","<div class = 'row'><div class = 'column'><img src = 'category3/CS2.png' width = '70%;'></div><div class = 'column'><img src = 'uspos/8080.bmp' width = '100%;'></div></div>","null","pos","CS","CS","3","category3/CS2.png","","","","",""
"","html-keyboard-response","25","206786","0.0-6.0-0.0-0.19","gnjsswxs94","one_one","1","indirect_first","0","er05en17","0","26","1","1","3","1","","0","1","0","null","","","<div class = 'row'><div class = 'column'><img src = 'category4/CS10.png' width = '70%;'></div><div class = 'column'><img src = 'usneg/3181.bmp' width = '100%;'></div></div>","null","neg","CS","CS","4","category4/CS10.png","","","","",""
"","survey-html-form","26","213853","0.0-6.0-1.0","gnjsswxs94","one_one","1","indirect_first","0","er05en17","0","26","1","1","3","1","","0","1","0","6546","","{}","","","","","","","","","","","",""
"","html-keyboard-response","27","217887","0.0-6.0-2.0-0.0","gnjsswxs94","one_one","1","indirect_first","0","er05en17","0","26","1","1","3","1","","0","1","0","null","","","<div class = 'row'><div class = 'column'><img src = 'uspos/4599.bmp' width = '100%;'></div><div class = 'column'><img src = 'category1/CS1.png' width = '70%;'></div></div>","null","pos","CS","CS","1","category1/CS1.png","","","","",""
"","html-keyboard-response","28","220426","0.0-6.0-2.0-0.1","gnjsswxs94","one_one","1","indirect_first","0","er05en17","0","26","1","1","3","1","","0","1","0","null","","","<div class = 'row'><div class = 'column'><img src = 'usneg/9180.bmp' width = '100%;'></div><div class = 'column'><img src = 'category2/CS1.png' width = '70%;'></div></div>","null","neg","CS","CS","2","category2/CS1.png","","","","",""
"","html-keyboard-response","29","222936","0.0-6.0-2.0-0.2","gnjsswxs94","one_one","1","indirect_first","0","er05en17","0","26","1","1","3","1","","0","1","0","null","","","<div class = 'row'><div class = 'column'><img src = 'uspos/8080.bmp' width = '100%;'></div><div class = 'column'><img src = 'category3/CS2.png' width = '70%;'></div></div>","null","pos","CS","CS","3","category3/CS2.png","","","","",""
"","html-keyboard-response","30","225471","0.0-6.0-2.0-0.3","gnjsswxs94","one_one","1","indirect_first","0","er05en17","0","26","1","1","3","1","","0","1","0","null","","","<div class = 'row'><div class = 'column'><img src = 'usneg/3181.bmp' width = '100%;'></div><div class = 'column'><img src = 'category4/CS10.png' width = '70%;'></div></div>","null","neg","CS","CS","4","category4/CS10.png","","","","",""
"","html-keyboard-response","31","228006","0.0-6.0-2.0-0.4","gnjsswxs94","one_one","1","indirect_first","0","er05en17","0","26","1","1","3","1","","0","1","0","null","","","<div class = 'row'><div class = 'column'><img src = 'uspos/8080.bmp' width = '100%;'></div><div class = 'column'><img src = 'category3/CS2.png' width = '70%;'></div></div>","null","pos","CS","CS","3","category3/CS2.png","","","","",""
"","html-keyboard-response","32","230545","0.0-6.0-2.0-0.5","gnjsswxs94","one_one","1","indirect_first","0","er05en17","0","26","1","1","3","1","","0","1","0","null","","","<div class = 'row'><div class = 'column'><img src = 'category1/CS1.png' width = '70%;'></div><div class = 'column'><img src = 'uspos/4599.bmp' width = '100%;'></div></div>","null","pos","CS","CS","1","category1/CS1.png","","","","",""
"","html-keyboard-response","33","233066","0.0-6.0-2.0-0.6","gnjsswxs94","one_one","1","indirect_first","0","er05en17","0","26","1","1","3","1","","0","1","0","null","","","<div class = 'row'><div class = 'column'><img src = 'usneg/9180.bmp' width = '100%;'></div><div class = 'column'><img src = 'category2/CS1.png' width = '70%;'></div></div>","null","neg","CS","CS","2","category2/CS1.png","","","","",""
"","html-keyboard-response","34","235607","0.0-6.0-2.0-0.7","gnjsswxs94","one_one","1","indirect_first","0","er05en17","0","26","1","1","3","1","","0","1","0","null","","","<div class = 'row'><div class = 'column'><img src = 'uspos/4599.bmp' width = '100%;'></div><div class = 'column'><img src = 'category1/CS1.png' width = '70%;'></div></div>","null","pos","CS","CS","1","category1/CS1.png","","","","",""
"","html-keyboard-response","35","238146","0.0-6.0-2.0-0.8","gnjsswxs94","one_one","1","indirect_first","0","er05en17","0","26","1","1","3","1","","0","1","0","null","","","<div class = 'row'><div class = 'column'><img src = 'usneg/3181.bmp' width = '100%;'></div><div class = 'column'><img src = 'category4/CS10.png' width = '70%;'></div></div>","null","neg","CS","CS","4","category4/CS10.png","","","","",""
"","html-keyboard-response","36","240675","0.0-6.0-2.0-0.9","gnjsswxs94","one_one","1","indirect_first","0","er05en17","0","26","1","1","3","1","","0","1","0","null","","","<div class = 'row'><div class = 'column'><img src = 'uspos/8080.bmp' width = '100%;'></div><div class = 'column'><img src = 'category3/CS2.png' width = '70%;'></div></div>","null","pos","CS","CS","3","category3/CS2.png","","","","",""
"","html-keyboard-response","37","243206","0.0-6.0-2.0-0.10","gnjsswxs94","one_one","1","indirect_first","0","er05en17","0","26","1","1","3","1","","0","1","0","null","","","<div class = 'row'><div class = 'column'><img src = 'usneg/3181.bmp' width = '100%;'></div><div class = 'column'><img src = 'category4/CS10.png' width = '70%;'></div></div>","null","neg","CS","CS","4","category4/CS10.png","","","","",""
"","html-keyboard-response","38","245746","0.0-6.0-2.0-0.11","gnjsswxs94","one_one","1","indirect_first","0","er05en17","0","26","1","1","3","1","","0","1","0","null","","","<div class = 'row'><div class = 'column'><img src = 'uspos/8080.bmp' width = '100%;'></div><div class = 'column'><img src = 'category3/CS2.png' width = '70%;'></div></div>","null","pos","CS","CS","3","category3/CS2.png","","","","",""
"","html-keyboard-response","39","248286","0.0-6.0-2.0-0.12","gnjsswxs94","one_one","1","indirect_first","0","er05en17","0","26","1","1","3","1","","0","1","0","null","","","<div class = 'row'><div class = 'column'><img src = 'usneg/9180.bmp' width = '100%;'></div><div class = 'column'><img src = 'category2/CS1.png' width = '70%;'></div></div>","null","neg","CS","CS","2","category2/CS1.png","","","","",""
"","html-keyboard-response","40","250826","0.0-6.0-2.0-0.13","gnjsswxs94","one_one","1","indirect_first","0","er05en17","0","26","1","1","3","1","","0","1","0","null","","","<div class = 'row'><div class = 'column'><img src = 'usneg/3181.bmp' width = '100%;'></div><div class = 'column'><img src = 'category4/CS10.png' width = '70%;'></div></div>","null","neg","CS","CS","4","category4/CS10.png","","","","",""
"","html-keyboard-response","41","253361","0.0-6.0-2.0-0.14","gnjsswxs94","one_one","1","indirect_first","0","er05en17","0","26","1","1","3","1","","0","1","0","null","","","<div class = 'row'><div class = 'column'><img src = 'category2/CS1.png' width = '70%;'></div><div class = 'column'><img src = 'usneg/9180.bmp' width = '100%;'></div></div>","null","neg","CS","CS","2","category2/CS1.png","","","","",""
"","html-keyboard-response","42","255864","0.0-6.0-2.0-0.15","gnjsswxs94","one_one","1","indirect_first","0","er05en17","0","26","1","1","3","1","","0","1","0","null","","","<div class = 'row'><div class = 'column'><img src = 'uspos/4599.bmp' width = '100%;'></div><div class = 'column'><img src = 'category1/CS1.png' width = '70%;'></div></div>","null","pos","CS","CS","1","category1/CS1.png","","","","",""
"","html-keyboard-response","43","258386","0.0-6.0-2.0-0.16","gnjsswxs94","one_one","1","indirect_first","0","er05en17","0","26","1","1","3","1","","0","1","0","null","","","<div class = 'row'><div class = 'column'><img src = 'uspos/8080.bmp' width = '100%;'></div><div class = 'column'><img src = 'category3/CS2.png' width = '70%;'></div></div>","null","pos","CS","CS","3","category3/CS2.png","","","","",""
"","html-keyboard-response","44","260926","0.0-6.0-2.0-0.17","gnjsswxs94","one_one","1","indirect_first","0","er05en17","0","26","1","1","3","1","","0","1","0","null","","","<div class = 'row'><div class = 'column'><img src = 'category1/CS1.png' width = '70%;'></div><div class = 'column'><img src = 'uspos/4599.bmp' width = '100%;'></div></div>","null","pos","CS","CS","1","category1/CS1.png","","","","",""
"","html-keyboard-response","45","263466","0.0-6.0-2.0-0.18","gnjsswxs94","one_one","1","indirect_first","0","er05en17","0","26","1","1","3","1","","0","1","0","null","","","<div class = 'row'><div class = 'column'><img src = 'usneg/3181.bmp' width = '100%;'></div><div class = 'column'><img src = 'category4/CS10.png' width = '70%;'></div></div>","null","neg","CS","CS","4","category4/CS10.png","","","","",""
"","html-keyboard-response","46","265996","0.0-6.0-2.0-0.19","gnjsswxs94","one_one","1","indirect_first","0","er05en17","0","26","1","1","3","1","","0","1","0","null","","","<div class = 'row'><div class = 'column'><img src = 'category2/CS1.png' width = '70%;'></div><div class = 'column'><img src = 'usneg/9180.bmp' width = '100%;'></div></div>","null","neg","CS","CS","2","category2/CS1.png","","","","",""
"","survey-html-form","47","274992","0.0-6.0-3.0","gnjsswxs94","one_one","1","indirect_first","0","er05en17","0","26","1","1","3","1","","0","1","0","8475","","{}","","","","","","","","","","","",""
"","html-keyboard-response","48","279016","0.0-6.0-4.0-0.0","gnjsswxs94","one_one","1","indirect_first","0","er05en17","0","26","1","1","3","1","","0","1","0","null","","","<div class = 'row'><div class = 'column'><img src = 'category4/CS10.png' width = '70%;'></div><div class = 'column'><img src = 'usneg/3181.bmp' width = '100%;'></div></div>","null","neg","CS","CS","4","category4/CS10.png","","","","",""
"","html-keyboard-response","49","281546","0.0-6.0-4.0-0.1","gnjsswxs94","one_one","1","indirect_first","0","er05en17","0","26","1","1","3","1","","0","1","0","null","","","<div class = 'row'><div class = 'column'><img src = 'category3/CS2.png' width = '70%;'></div><div class = 'column'><img src = 'uspos/8080.bmp' width = '100%;'></div></div>","null","pos","CS","CS","3","category3/CS2.png","","","","",""
"","html-keyboard-response","50","284086","0.0-6.0-4.0-0.2","gnjsswxs94","one_one","1","indirect_first","0","er05en17","0","26","1","1","3","1","","0","1","0","null","","","<div class = 'row'><div class = 'column'><img src = 'category1/CS1.png' width = '70%;'></div><div class = 'column'><img src = 'uspos/4599.bmp' width = '100%;'></div></div>","null","pos","CS","CS","1","category1/CS1.png","","","","",""
"","html-keyboard-response","51","286626","0.0-6.0-4.0-0.3","gnjsswxs94","one_one","1","indirect_first","0","er05en17","0","26","1","1","3","1","","0","1","0","null","","","<div class = 'row'><div class = 'column'><img src = 'category2/CS1.png' width = '70%;'></div><div class = 'column'><img src = 'usneg/9180.bmp' width = '100%;'></div></div>","null","neg","CS","CS","2","category2/CS1.png","","","","",""
"","html-keyboard-response","52","289156","0.0-6.0-4.0-0.4","gnjsswxs94","one_one","1","indirect_first","0","er05en17","0","26","1","1","3","1","","0","1","0","null","","","<div class = 'row'><div class = 'column'><img src = 'uspos/4599.bmp' width = '100%;'></div><div class = 'column'><img src = 'category1/CS1.png' width = '70%;'></div></div>","null","pos","CS","CS","1","category1/CS1.png","","","","",""
"","html-keyboard-response","53","291696","0.0-6.0-4.0-0.5","gnjsswxs94","one_one","1","indirect_first","0","er05en17","0","26","1","1","3","1","","0","1","0","null","","","<div class = 'row'><div class = 'column'><img src = 'category3/CS2.png' width = '70%;'></div><div class = 'column'><img src = 'uspos/8080.bmp' width = '100%;'></div></div>","null","pos","CS","CS","3","category3/CS2.png","","","","",""
"","html-keyboard-response","54","294235","0.0-6.0-4.0-0.6","gnjsswxs94","one_one","1","indirect_first","0","er05en17","0","26","1","1","3","1","","0","1","0","null","","","<div class = 'row'><div class = 'column'><img src = 'category1/CS1.png' width = '70%;'></div><div class = 'column'><img src = 'uspos/4599.bmp' width = '100%;'></div></div>","null","pos","CS","CS","1","category1/CS1.png","","","","",""
"","html-keyboard-response","55","296776","0.0-6.0-4.0-0.7","gnjsswxs94","one_one","1","indirect_first","0","er05en17","0","26","1","1","3","1","","0","1","0","null","","","<div class = 'row'><div class = 'column'><img src = 'category2/CS1.png' width = '70%;'></div><div class = 'column'><img src = 'usneg/9180.bmp' width = '100%;'></div></div>","null","neg","CS","CS","2","category2/CS1.png","","","","",""
"","html-keyboard-response","56","299306","0.0-6.0-4.0-0.8","gnjsswxs94","one_one","1","indirect_first","0","er05en17","0","26","1","1","3","1","","0","1","0","null","","","<div class = 'row'><div class = 'column'><img src = 'category1/CS1.png' width = '70%;'></div><div class = 'column'><img src = 'uspos/4599.bmp' width = '100%;'></div></div>","null","pos","CS","CS","1","category1/CS1.png","","","","",""
"","html-keyboard-response","57","301832","0.0-6.0-4.0-0.9","gnjsswxs94","one_one","1","indirect_first","0","er05en17","0","26","1","1","3","1","","0","1","0","null","","","<div class = 'row'><div class = 'column'><img src = 'uspos/8080.bmp' width = '100%;'></div><div class = 'column'><img src = 'category3/CS2.png' width = '70%;'></div></div>","null","pos","CS","CS","3","category3/CS2.png","","","","",""
"","html-keyboard-response","58","304366","0.0-6.0-4.0-0.10","gnjsswxs94","one_one","1","indirect_first","0","er05en17","0","26","1","1","3","1","","0","1","0","null","","","<div class = 'row'><div class = 'column'><img src = 'category4/CS10.png' width = '70%;'></div><div class = 'column'><img src = 'usneg/3181.bmp' width = '100%;'></div></div>","null","neg","CS","CS","4","category4/CS10.png","","","","",""
"","html-keyboard-response","59","306906","0.0-6.0-4.0-0.11","gnjsswxs94","one_one","1","indirect_first","0","er05en17","0","26","1","1","3","1","","0","1","0","null","","","<div class = 'row'><div class = 'column'><img src = 'uspos/4599.bmp' width = '100%;'></div><div class = 'column'><img src = 'category1/CS1.png' width = '70%;'></div></div>","null","pos","CS","CS","1","category1/CS1.png","","","","",""
"","html-keyboard-response","60","309435","0.0-6.0-4.0-0.12","gnjsswxs94","one_one","1","indirect_first","0","er05en17","0","26","1","1","3","1","","0","1","0","null","","","<div class = 'row'><div class = 'column'><img src = 'usneg/9180.bmp' width = '100%;'></div><div class = 'column'><img src = 'category2/CS1.png' width = '70%;'></div></div>","null","neg","CS","CS","2","category2/CS1.png","","","","",""
"","html-keyboard-response","61","311977","0.0-6.0-4.0-0.13","gnjsswxs94","one_one","1","indirect_first","0","er05en17","0","26","1","1","3","1","","0","1","0","null","","","<div class = 'row'><div class = 'column'><img src = 'category4/CS10.png' width = '70%;'></div><div class = 'column'><img src = 'usneg/3181.bmp' width = '100%;'></div></div>","null","neg","CS","CS","4","category4/CS10.png","","","","",""
"","html-keyboard-response","62","314507","0.0-6.0-4.0-0.14","gnjsswxs94","one_one","1","indirect_first","0","er05en17","0","26","1","1","3","1","","0","1","0","null","","","<div class = 'row'><div class = 'column'><img src = 'uspos/8080.bmp' width = '100%;'></div><div class = 'column'><img src = 'category3/CS2.png' width = '70%;'></div></div>","null","pos","CS","CS","3","category3/CS2.png","","","","",""
"","html-keyboard-response","63","317046","0.0-6.0-4.0-0.15","gnjsswxs94","one_one","1","indirect_first","0","er05en17","0","26","1","1","3","1","","0","1","0","null","","","<div class = 'row'><div class = 'column'><img src = 'usneg/9180.bmp' width = '100%;'></div><div class = 'column'><img src = 'category2/CS1.png' width = '70%;'></div></div>","null","neg","CS","CS","2","category2/CS1.png","","","","",""
"","html-keyboard-response","64","319586","0.0-6.0-4.0-0.16","gnjsswxs94","one_one","1","indirect_first","0","er05en17","0","26","1","1","3","1","","0","1","0","null","","","<div class = 'row'><div class = 'column'><img src = 'usneg/3181.bmp' width = '100%;'></div><div class = 'column'><img src = 'category4/CS10.png' width = '70%;'></div></div>","null","neg","CS","CS","4","category4/CS10.png","","","","",""
"","html-keyboard-response","65","322127","0.0-6.0-4.0-0.17","gnjsswxs94","one_one","1","indirect_first","0","er05en17","0","26","1","1","3","1","","0","1","0","null","","","<div class = 'row'><div class = 'column'><img src = 'category2/CS1.png' width = '70%;'></div><div class = 'column'><img src = 'usneg/9180.bmp' width = '100%;'></div></div>","null","neg","CS","CS","2","category2/CS1.png","","","","",""
"","html-keyboard-response","66","324665","0.0-6.0-4.0-0.18","gnjsswxs94","one_one","1","indirect_first","0","er05en17","0","26","1","1","3","1","","0","1","0","null","","","<div class = 'row'><div class = 'column'><img src = 'usneg/3181.bmp' width = '100%;'></div><div class = 'column'><img src = 'category4/CS10.png' width = '70%;'></div></div>","null","neg","CS","CS","4","category4/CS10.png","","","","",""
"","html-keyboard-response","67","327206","0.0-6.0-4.0-0.19","gnjsswxs94","one_one","1","indirect_first","0","er05en17","0","26","1","1","3","1","","0","1","0","null","","","<div class = 'row'><div class = 'column'><img src = 'uspos/8080.bmp' width = '100%;'></div><div class = 'column'><img src = 'category3/CS2.png' width = '70%;'></div></div>","null","pos","CS","CS","3","category3/CS2.png","","","","",""
"","survey-html-form","68","330854","0.0-6.0-5.0","gnjsswxs94","one_one","1","indirect_first","0","er05en17","0","26","1","1","3","1","","0","1","0","3128","","{}","","","","","","","","","","","",""
"","html-keyboard-response","69","334867","0.0-6.0-6.0-0.0","gnjsswxs94","one_one","1","indirect_first","0","er05en17","0","26","1","1","3","1","","0","1","0","null","","","<div class = 'row'><div class = 'column'><img src = 'category4/CS10.png' width = '70%;'></div><div class = 'column'><img src = 'usneg/3181.bmp' width = '100%;'></div></div>","null","neg","CS","CS","4","category4/CS10.png","","","","",""
"","html-keyboard-response","70","337405","0.0-6.0-6.0-0.1","gnjsswxs94","one_one","1","indirect_first","0","er05en17","0","26","1","1","3","1","","0","1","0","null","","","<div class = 'row'><div class = 'column'><img src = 'category3/CS2.png' width = '70%;'></div><div class = 'column'><img src = 'uspos/8080.bmp' width = '100%;'></div></div>","null","pos","CS","CS","3","category3/CS2.png","","","","",""
"","html-keyboard-response","71","339946","0.0-6.0-6.0-0.2","gnjsswxs94","one_one","1","indirect_first","0","er05en17","0","26","1","1","3","1","","0","1","0","null","","","<div class = 'row'><div class = 'column'><img src = 'category4/CS10.png' width = '70%;'></div><div class = 'column'><img src = 'usneg/3181.bmp' width = '100%;'></div></div>","null","neg","CS","CS","4","category4/CS10.png","","","","",""
"","html-keyboard-response","72","342486","0.0-6.0-6.0-0.3","gnjsswxs94","one_one","1","indirect_first","0","er05en17","0","26","1","1","3","1","","0","1","0","null","","","<div class = 'row'><div class = 'column'><img src = 'category3/CS2.png' width = '70%;'></div><div class = 'column'><img src = 'uspos/8080.bmp' width = '100%;'></div></div>","null","pos","CS","CS","3","category3/CS2.png","","","","",""
"","html-keyboard-response","73","345026","0.0-6.0-6.0-0.4","gnjsswxs94","one_one","1","indirect_first","0","er05en17","0","26","1","1","3","1","","0","1","0","null","","","<div class = 'row'><div class = 'column'><img src = 'usneg/9180.bmp' width = '100%;'></div><div class = 'column'><img src = 'category2/CS1.png' width = '70%;'></div></div>","null","neg","CS","CS","2","category2/CS1.png","","","","",""
"","html-keyboard-response","74","347556","0.0-6.0-6.0-0.5","gnjsswxs94","one_one","1","indirect_first","0","er05en17","0","26","1","1","3","1","","0","1","0","null","","","<div class = 'row'><div class = 'column'><img src = 'category4/CS10.png' width = '70%;'></div><div class = 'column'><img src = 'usneg/3181.bmp' width = '100%;'></div></div>","null","neg","CS","CS","4","category4/CS10.png","","","","",""
"","html-keyboard-response","75","350091","0.0-6.0-6.0-0.6","gnjsswxs94","one_one","1","indirect_first","0","er05en17","0","26","1","1","3","1","","0","1","0","null","","","<div class = 'row'><div class = 'column'><img src = 'category3/CS2.png' width = '70%;'></div><div class = 'column'><img src = 'uspos/8080.bmp' width = '100%;'></div></div>","null","pos","CS","CS","3","category3/CS2.png","","","","",""
"","html-keyboard-response","76","352626","0.0-6.0-6.0-0.7","gnjsswxs94","one_one","1","indirect_first","0","er05en17","0","26","1","1","3","1","","0","1","0","null","","","<div class = 'row'><div class = 'column'><img src = 'category2/CS1.png' width = '70%;'></div><div class = 'column'><img src = 'usneg/9180.bmp' width = '100%;'></div></div>","null","neg","CS","CS","2","category2/CS1.png","","","","",""
"","html-keyboard-response","77","355165","0.0-6.0-6.0-0.8","gnjsswxs94","one_one","1","indirect_first","0","er05en17","0","26","1","1","3","1","","0","1","0","null","","","<div class = 'row'><div class = 'column'><img src = 'category1/CS1.png' width = '70%;'></div><div class = 'column'><img src = 'uspos/4599.bmp' width = '100%;'></div></div>","null","pos","CS","CS","1","category1/CS1.png","","","","",""
"","html-keyboard-response","78","357703","0.0-6.0-6.0-0.9","gnjsswxs94","one_one","1","indirect_first","0","er05en17","0","26","1","1","3","1","","0","1","0","null","","","<div class = 'row'><div class = 'column'><img src = 'category3/CS2.png' width = '70%;'></div><div class = 'column'><img src = 'uspos/8080.bmp' width = '100%;'></div></div>","null","pos","CS","CS","3","category3/CS2.png","","","","",""
"","html-keyboard-response","79","360236","0.0-6.0-6.0-0.10","gnjsswxs94","one_one","1","indirect_first","0","er05en17","0","26","1","1","3","1","","0","1","0","null","","","<div class = 'row'><div class = 'column'><img src = 'category1/CS1.png' width = '70%;'></div><div class = 'column'><img src = 'uspos/4599.bmp' width = '100%;'></div></div>","null","pos","CS","CS","1","category1/CS1.png","","","","",""
"","html-keyboard-response","80","362765","0.0-6.0-6.0-0.11","gnjsswxs94","one_one","1","indirect_first","0","er05en17","0","26","1","1","3","1","","0","1","0","null","","","<div class = 'row'><div class = 'column'><img src = 'category2/CS1.png' width = '70%;'></div><div class = 'column'><img src = 'usneg/9180.bmp' width = '100%;'></div></div>","null","neg","CS","CS","2","category2/CS1.png","","","","",""
"","html-keyboard-response","81","365295","0.0-6.0-6.0-0.12","gnjsswxs94","one_one","1","indirect_first","0","er05en17","0","26","1","1","3","1","","0","1","0","null","","","<div class = 'row'><div class = 'column'><img src = 'uspos/8080.bmp' width = '100%;'></div><div class = 'column'><img src = 'category3/CS2.png' width = '70%;'></div></div>","null","pos","CS","CS","3","category3/CS2.png","","","","",""
"","html-keyboard-response","82","367825","0.0-6.0-6.0-0.13","gnjsswxs94","one_one","1","indirect_first","0","er05en17","0","26","1","1","3","1","","0","1","0","null","","","<div class = 'row'><div class = 'column'><img src = 'uspos/4599.bmp' width = '100%;'></div><div class = 'column'><img src = 'category1/CS1.png' width = '70%;'></div></div>","null","pos","CS","CS","1","category1/CS1.png","","","","",""
"","html-keyboard-response","83","370365","0.0-6.0-6.0-0.14","gnjsswxs94","one_one","1","indirect_first","0","er05en17","0","26","1","1","3","1","","0","1","0","null","","","<div class = 'row'><div class = 'column'><img src = 'category2/CS1.png' width = '70%;'></div><div class = 'column'><img src = 'usneg/9180.bmp' width = '100%;'></div></div>","null","neg","CS","CS","2","category2/CS1.png","","","","",""
"","html-keyboard-response","84","372896","0.0-6.0-6.0-0.15","gnjsswxs94","one_one","1","indirect_first","0","er05en17","0","26","1","1","3","1","","0","1","0","null","","","<div class = 'row'><div class = 'column'><img src = 'category4/CS10.png' width = '70%;'></div><div class = 'column'><img src = 'usneg/3181.bmp' width = '100%;'></div></div>","null","neg","CS","CS","4","category4/CS10.png","","","","",""
"","html-keyboard-response","85","375425","0.0-6.0-6.0-0.16","gnjsswxs94","one_one","1","indirect_first","0","er05en17","0","26","1","1","3","1","","0","1","0","null","","","<div class = 'row'><div class = 'column'><img src = 'category1/CS1.png' width = '70%;'></div><div class = 'column'><img src = 'uspos/4599.bmp' width = '100%;'></div></div>","null","pos","CS","CS","1","category1/CS1.png","","","","",""
"","html-keyboard-response","86","377966","0.0-6.0-6.0-0.17","gnjsswxs94","one_one","1","indirect_first","0","er05en17","0","26","1","1","3","1","","0","1","0","null","","","<div class = 'row'><div class = 'column'><img src = 'usneg/3181.bmp' width = '100%;'></div><div class = 'column'><img src = 'category4/CS10.png' width = '70%;'></div></div>","null","neg","CS","CS","4","category4/CS10.png","","","","",""
"","html-keyboard-response","87","380496","0.0-6.0-6.0-0.18","gnjsswxs94","one_one","1","indirect_first","0","er05en17","0","26","1","1","3","1","","0","1","0","null","","","<div class = 'row'><div class = 'column'><img src = 'category2/CS1.png' width = '70%;'></div><div class = 'column'><img src = 'usneg/9180.bmp' width = '100%;'></div></div>","null","neg","CS","CS","2","category2/CS1.png","","","","",""
"","html-keyboard-response","88","383036","0.0-6.0-6.0-0.19","gnjsswxs94","one_one","1","indirect_first","0","er05en17","0","26","1","1","3","1","","0","1","0","null","","","<div class = 'row'><div class = 'column'><img src = 'category1/CS1.png' width = '70%;'></div><div class = 'column'><img src = 'uspos/4599.bmp' width = '100%;'></div></div>","null","pos","CS","CS","1","category1/CS1.png","","","","",""
"","html-keyboard-response","89","415477","0.0-7.0","gnjsswxs94","one_one","1","indirect_first","0","er05en17","0","26","1","1","3","1","","0","1","0","31919","","","<p>Sie sehen nun die chinesischen Zeichen nur ganz kurz. Danach sehen Sie die jeweilige Aussprache der Zeichen als Silbe auf dem Bildschrim. Ihre Aufgabe ist es, für jede Silbe anzugeben, ob diese etwas angenehmes, oder unangenehmes bedeuten könnte. Verlassen Sie sich hier vor allem auf Ihre Intuition.<br><br>Die Zeichen werden nur zur Orientierung dargestellt, beachten Sie sie deshalb nicht. Konzentrieren Sie sich vor allem auf die Silben. <br>Reagieren Sie mit folgenden zwei Tasten: <br><br><b>'D' </b> wenn die Silbe etwas <b>unangenehmes</b> bedeuten könnte. <br><b>'K'</b> wenn die Silbe etwas <b>angenehmes</b> bedeuten könnte. <br><br>Bitte legen Sie nun den Zeigefinger der linken Hand auf die Taste 'D' und den Zeigefinger der rechten Hand auf die Taste 'K'. <br>Reagieren Sie auf jede Silbe so schnell wie möglich. Uns interessiert Ihre spontane Reaktion. <br> <br> <br>Drücken Sie 'D' oder 'K', um die nächste Aufgabe zu starten. </p>","68","","","","","","","","","",""
"","html-keyboard-response","90","418496","0.0-8.0-0.0","gnjsswxs94","one_one","1","indirect_first","0","er05en17","0","26","1","1","3","1","","0","1","0","null","","","<div style=""font-size:60px;"">+</div>","null","","","","","","","","","",""
"","html-keyboard-response","91","418595","0.0-8.0-1.0","gnjsswxs94","one_one","1","indirect_first","0","er05en17","0","26","1","1","3","1","","0","1","0","null","","","<img src = 'category2/CS4.png' width = '100%;'>","null","","","","","","","","","",""
"","html-keyboard-response","92","418866","0.0-8.0-2.0","gnjsswxs94","one_one","1","indirect_first","0","er05en17","0","26","1","1","3","1","","0","1","0","null","","","<img src = 'targets/32.png' width = '100%;'>","null","","","","","","","","","",""
"","html-keyboard-response","93","420831","0.0-8.0-3.0","gnjsswxs94","one_one","1","indirect_first","0","er05en17","0","26","1","1","3","1","","0","1","0","1962","","","<img src = 'targets/mask.png' width = '100%;'>","75","neg","GS","GSold","2","category2/CS4.png","targets/32.png","1","indirect","0",""
"","html-keyboard-response","94","422365","0.0-8.0-0.1","gnjsswxs94","one_one","1","indirect_first","0","er05en17","0","26","1","1","3","1","","0","1","0","null","","","<div style=""font-size:60px;"">+</div>","null","","","","","","","","","",""
"","html-keyboard-response","95","422465","0.0-8.0-1.1","gnjsswxs94","one_one","1","indirect_first","0","er05en17","0","26","1","1","3","1","","0","1","0","null","","","<img src = 'category3/CS2.png' width = '100%;'>","null","","","","","","","","","",""
"","html-keyboard-response","96","422745","0.0-8.0-2.1","gnjsswxs94","one_one","1","indirect_first","0","er05en17","0","26","1","1","3","1","","0","1","0","null","","","<img src = 'targets/22.png' width = '100%;'>","null","","","","","","","","","",""
"","html-keyboard-response","97","423856","0.0-8.0-3.1","gnjsswxs94","one_one","1","indirect_first","0","er05en17","0","26","1","1","3","1","","0","1","0","1109","","","<img src = 'targets/mask.png' width = '100%;'>","68","pos","CS","CS","3","category3/CS2.png","targets/22.png","0","indirect","1",""
"","html-keyboard-response","98","425374","0.0-8.0-0.2","gnjsswxs94","one_one","1","indirect_first","0","er05en17","0","26","1","1","3","1","","0","1","0","null","","","<div style=""font-size:60px;"">+</div>","null","","","","","","","","","",""
"","html-keyboard-response","99","425476","0.0-8.0-1.2","gnjsswxs94","one_one","1","indirect_first","0","er05en17","0","26","1","1","3","1","","0","1","0","null","","","<img src = 'category4/CS9.png' width = '100%;'>","null","","","","","","","","","",""
"","html-keyboard-response","100","425755","0.0-8.0-2.2","gnjsswxs94","one_one","1","indirect_first","0","er05en17","0","26","1","1","3","1","","0","1","0","null","","","<img src = 'targets/8.png' width = '100%;'>","null","","","","","","","","","",""
"","html-keyboard-response","101","426721","0.0-8.0-3.2","gnjsswxs94","one_one","1","indirect_first","0","er05en17","0","26","1","1","3","1","","0","1","0","965","","","<img src = 'targets/mask.png' width = '100%;'>","75","neg","GS","GSold","4","category4/CS9.png","targets/8.png","1","indirect","2",""
"","html-keyboard-response","102","428256","0.0-8.0-0.3","gnjsswxs94","one_one","1","indirect_first","0","er05en17","0","26","1","1","3","1","","0","1","0","null","","","<div style=""font-size:60px;"">+</div>","null","","","","","","","","","",""
"","html-keyboard-response","103","428355","0.0-8.0-1.3","gnjsswxs94","one_one","1","indirect_first","0","er05en17","0","26","1","1","3","1","","0","1","0","null","","","<img src = 'category3/CS8.png' width = '100%;'>","null","","","","","","","","","",""
"","html-keyboard-response","104","428635","0.0-8.0-2.3","gnjsswxs94","one_one","1","indirect_first","0","er05en17","0","26","1","1","3","1","","0","1","0","null","","","<img src = 'targets/10.png' width = '100%;'>","null","","","","","","","","","",""
"","html-keyboard-response","105","429930","0.0-8.0-3.3","gnjsswxs94","one_one","1","indirect_first","0","er05en17","0","26","1","1","3","1","","0","1","0","1292","","","<img src = 'targets/mask.png' width = '100%;'>","75","pos","GS","GSold","3","category3/CS8.png","targets/10.png","1","indirect","3",""
"","html-keyboard-response","106","431455","0.0-8.0-0.4","gnjsswxs94","one_one","1","indirect_first","0","er05en17","0","26","1","1","3","1","","0","1","0","null","","","<div style=""font-size:60px;"">+</div>","null","","","","","","","","","",""
"","html-keyboard-response","107","431556","0.0-8.0-1.4","gnjsswxs94","one_one","1","indirect_first","0","er05en17","0","26","1","1","3","1","","0","1","0","null","","","<img src = 'category1/CS1.png' width = '100%;'>","null","","","","","","","","","",""
"","html-keyboard-response","108","431836","0.0-8.0-2.4","gnjsswxs94","one_one","1","indirect_first","0","er05en17","0","26","1","1","3","1","","0","1","0","null","","","<img src = 'targets/38.png' width = '100%;'>","null","","","","","","","","","",""
"","html-keyboard-response","109","432804","0.0-8.0-3.4","gnjsswxs94","one_one","1","indirect_first","0","er05en17","0","26","1","1","3","1","","0","1","0","966","","","<img src = 'targets/mask.png' width = '100%;'>","68","pos","CS","CS","1","category1/CS1.png","targets/38.png","0","indirect","4",""
"","html-keyboard-response","110","434335","0.0-8.0-0.5","gnjsswxs94","one_one","1","indirect_first","0","er05en17","0","26","1","1","3","1","","0","1","0","null","","","<div style=""font-size:60px;"">+</div>","null","","","","","","","","","",""
"","html-keyboard-response","111","434435","0.0-8.0-1.5","gnjsswxs94","one_one","1","indirect_first","0","er05en17","0","26","1","1","3","1","","0","1","0","null","","","<img src = 'category4/CS2.png' width = '100%;'>","null","","","","","","","","","",""
"","html-keyboard-response","112","434715","0.0-8.0-2.5","gnjsswxs94","one_one","1","indirect_first","0","er05en17","0","26","1","1","3","1","","0","1","0","null","","","<img src = 'targets/20.png' width = '100%;'>","null","","","","","","","","","",""
"","html-keyboard-response","113","435721","0.0-8.0-3.5","gnjsswxs94","one_one","1","indirect_first","0","er05en17","0","26","1","1","3","1","","0","1","0","1002","","","<img src = 'targets/mask.png' width = '100%;'>","68","neg","GS","GSold","4","category4/CS2.png","targets/20.png","0","indirect","5",""
"","html-keyboard-response","114","437245","0.0-8.0-0.6","gnjsswxs94","one_one","1","indirect_first","0","er05en17","0","26","1","1","3","1","","0","1","0","null","","","<div style=""font-size:60px;"">+</div>","null","","","","","","","","","",""
"","html-keyboard-response","115","437345","0.0-8.0-1.6","gnjsswxs94","one_one","1","indirect_first","0","er05en17","0","26","1","1","3","1","","0","1","0","null","","","<img src = 'category4/CS8.png' width = '100%;'>","null","","","","","","","","","",""
"","html-keyboard-response","116","437626","0.0-8.0-2.6","gnjsswxs94","one_one","1","indirect_first","0","er05en17","0","26","1","1","3","1","","0","1","0","null","","","<img src = 'targets/28.png' width = '100%;'>","null","","","","","","","","","",""
"","html-keyboard-response","117","439135","0.0-8.0-3.6","gnjsswxs94","one_one","1","indirect_first","0","er05en17","0","26","1","1","3","1","","0","1","0","1506","","","<img src = 'targets/mask.png' width = '100%;'>","75","neg","GS","GSold","4","category4/CS8.png","targets/28.png","1","indirect","6",""
"","html-keyboard-response","118","440665","0.0-8.0-0.7","gnjsswxs94","one_one","1","indirect_first","0","er05en17","0","26","1","1","3","1","","0","1","0","null","","","<div style=""font-size:60px;"">+</div>","null","","","","","","","","","",""
"","html-keyboard-response","119","440765","0.0-8.0-1.7","gnjsswxs94","one_one","1","indirect_first","0","er05en17","0","26","1","1","3","1","","0","1","0","null","","","<img src = 'category2/CS9.png' width = '100%;'>","null","","","","","","","","","",""
"","html-keyboard-response","120","441045","0.0-8.0-2.7","gnjsswxs94","one_one","1","indirect_first","0","er05en17","0","26","1","1","3","1","","0","1","0","null","","","<img src = 'targets/33.png' width = '100%;'>","null","","","","","","","","","",""
"","html-keyboard-response","121","442215","0.0-8.0-3.7","gnjsswxs94","one_one","1","indirect_first","0","er05en17","0","26","1","1","3","1","","0","1","0","1167","","","<img src = 'targets/mask.png' width = '100%;'>","75","neg","GS","GSold","2","category2/CS9.png","targets/33.png","1","indirect","7",""
"","html-keyboard-response","122","443746","0.0-8.0-0.8","gnjsswxs94","one_one","1","indirect_first","0","er05en17","0","26","1","1","3","1","","0","1","0","null","","","<div style=""font-size:60px;"">+</div>","null","","","","","","","","","",""
"","html-keyboard-response","123","443845","0.0-8.0-1.8","gnjsswxs94","one_one","1","indirect_first","0","er05en17","0","26","1","1","3","1","","0","1","0","null","","","<img src = 'category1/CS8.png' width = '100%;'>","null","","","","","","","","","",""
"","html-keyboard-response","124","444126","0.0-8.0-2.8","gnjsswxs94","one_one","1","indirect_first","0","er05en17","0","26","1","1","3","1","","0","1","0","null","","","<img src = 'targets/7.png' width = '100%;'>","null","","","","","","","","","",""
"","html-keyboard-response","125","445492","0.0-8.0-3.8","gnjsswxs94","one_one","1","indirect_first","0","er05en17","0","26","1","1","3","1","","0","1","0","1365","","","<img src = 'targets/mask.png' width = '100%;'>","68","pos","GS","GSold","1","category1/CS8.png","targets/7.png","0","indirect","8",""
"","html-keyboard-response","126","447023","0.0-8.0-0.9","gnjsswxs94","one_one","1","indirect_first","0","er05en17","0","26","1","1","3","1","","0","1","0","null","","","<div style=""font-size:60px;"">+</div>","null","","","","","","","","","",""
"","html-keyboard-response","127","447123","0.0-8.0-1.9","gnjsswxs94","one_one","1","indirect_first","0","er05en17","0","26","1","1","3","1","","0","1","0","null","","","<img src = 'category3/CS1.png' width = '100%;'>","null","","","","","","","","","",""
"","html-keyboard-response","128","447406","0.0-8.0-2.9","gnjsswxs94","one_one","1","indirect_first","0","er05en17","0","26","1","1","3","1","","0","1","0","null","","","<img src = 'targets/35.png' width = '100%;'>","null","","","","","","","","","",""
"","html-keyboard-response","129","448533","0.0-8.0-3.9","gnjsswxs94","one_one","1","indirect_first","0","er05en17","0","26","1","1","3","1","","0","1","0","1126","","","<img src = 'targets/mask.png' width = '100%;'>","68","pos","GS","GSold","3","category3/CS1.png","targets/35.png","0","indirect","9",""
"","html-keyboard-response","130","450065","0.0-8.0-0.10","gnjsswxs94","one_one","1","indirect_first","0","er05en17","0","26","1","1","3","1","","0","1","0","null","","","<div style=""font-size:60px;"">+</div>","null","","","","","","","","","",""
"","html-keyboard-response","131","450165","0.0-8.0-1.10","gnjsswxs94","one_one","1","indirect_first","0","er05en17","0","26","1","1","3","1","","0","1","0","null","","","<img src = 'category1/CS9.png' width = '100%;'>","null","","","","","","","","","",""
"","html-keyboard-response","132","450445","0.0-8.0-2.10","gnjsswxs94","one_one","1","indirect_first","0","er05en17","0","26","1","1","3","1","","0","1","0","null","","","<img src = 'targets/27.png' width = '100%;'>","null","","","","","","","","","",""
"","html-keyboard-response","133","452155","0.0-8.0-3.10","gnjsswxs94","one_one","1","indirect_first","0","er05en17","0","26","1","1","3","1","","0","1","0","1708","","","<img src = 'targets/mask.png' width = '100%;'>","75","pos","GS","GSold","1","category1/CS9.png","targets/27.png","1","indirect","10",""
"","html-keyboard-response","134","453685","0.0-8.0-0.11","gnjsswxs94","one_one","1","indirect_first","0","er05en17","0","26","1","1","3","1","","0","1","0","null","","","<div style=""font-size:60px;"">+</div>","null","","","","","","","","","",""
"","html-keyboard-response","135","453785","0.0-8.0-1.11","gnjsswxs94","one_one","1","indirect_first","0","er05en17","0","26","1","1","3","1","","0","1","0","null","","","<img src = 'category4/CS10.png' width = '100%;'>","null","","","","","","","","","",""
"","html-keyboard-response","136","454065","0.0-8.0-2.11","gnjsswxs94","one_one","1","indirect_first","0","er05en17","0","26","1","1","3","1","","0","1","0","null","","","<img src = 'targets/24.png' width = '100%;'>","null","","","","","","","","","",""
"","html-keyboard-response","137","455182","0.0-8.0-3.11","gnjsswxs94","one_one","1","indirect_first","0","er05en17","0","26","1","1","3","1","","0","1","0","1115","","","<img src = 'targets/mask.png' width = '100%;'>","68","neg","CS","CS","4","category4/CS10.png","targets/24.png","0","indirect","11",""
"","html-keyboard-response","138","456705","0.0-8.0-0.12","gnjsswxs94","one_one","1","indirect_first","0","er05en17","0","26","1","1","3","1","","0","1","0","null","","","<div style=""font-size:60px;"">+</div>","null","","","","","","","","","",""
"","html-keyboard-response","139","456805","0.0-8.0-1.12","gnjsswxs94","one_one","1","indirect_first","0","er05en17","0","26","1","1","3","1","","0","1","0","null","","","<img src = 'category3/CS10.png' width = '100%;'>","null","","","","","","","","","",""
"","html-keyboard-response","140","457085","0.0-8.0-2.12","gnjsswxs94","one_one","1","indirect_first","0","er05en17","0","26","1","1","3","1","","0","1","0","null","","","<img src = 'targets/5.png' width = '100%;'>","null","","","","","","","","","",""
"","html-keyboard-response","141","458386","0.0-8.0-3.12","gnjsswxs94","one_one","1","indirect_first","0","er05en17","0","26","1","1","3","1","","0","1","0","1297","","","<img src = 'targets/mask.png' width = '100%;'>","75","pos","GS","GSold","3","category3/CS10.png","targets/5.png","1","indirect","12",""
"","html-keyboard-response","142","459905","0.0-8.0-0.13","gnjsswxs94","one_one","1","indirect_first","0","er05en17","0","26","1","1","3","1","","0","1","0","null","","","<div style=""font-size:60px;"">+</div>","null","","","","","","","","","",""
"","html-keyboard-response","143","460006","0.0-8.0-1.13","gnjsswxs94","one_one","1","indirect_first","0","er05en17","0","26","1","1","3","1","","0","1","0","null","","","<img src = 'category1/CS6.png' width = '100%;'>","null","","","","","","","","","",""
"","html-keyboard-response","144","460286","0.0-8.0-2.13","gnjsswxs94","one_one","1","indirect_first","0","er05en17","0","26","1","1","3","1","","0","1","0","null","","","<img src = 'targets/31.png' width = '100%;'>","null","","","","","","","","","",""
"","html-keyboard-response","145","461520","0.0-8.0-3.13","gnjsswxs94","one_one","1","indirect_first","0","er05en17","0","26","1","1","3","1","","0","1","0","1233","","","<img src = 'targets/mask.png' width = '100%;'>","75","pos","GS","GSold","1","category1/CS6.png","targets/31.png","1","indirect","13",""
"","html-keyboard-response","146","463036","0.0-8.0-0.14","gnjsswxs94","one_one","1","indirect_first","0","er05en17","0","26","1","1","3","1","","0","1","0","null","","","<div style=""font-size:60px;"">+</div>","null","","","","","","","","","",""
"","html-keyboard-response","147","463135","0.0-8.0-1.14","gnjsswxs94","one_one","1","indirect_first","0","er05en17","0","26","1","1","3","1","","0","1","0","null","","","<img src = 'category2/CS7.png' width = '100%;'>","null","","","","","","","","","",""
"","html-keyboard-response","148","463415","0.0-8.0-2.14","gnjsswxs94","one_one","1","indirect_first","0","er05en17","0","26","1","1","3","1","","0","1","0","null","","","<img src = 'targets/40.png' width = '100%;'>","null","","","","","","","","","",""
"","html-keyboard-response","149","465555","0.0-8.0-3.14","gnjsswxs94","one_one","1","indirect_first","0","er05en17","0","26","1","1","3","1","","0","1","0","2138","","","<img src = 'targets/mask.png' width = '100%;'>","75","neg","GS","GSold","2","category2/CS7.png","targets/40.png","1","indirect","14",""
"","html-keyboard-response","150","467086","0.0-8.0-0.15","gnjsswxs94","one_one","1","indirect_first","0","er05en17","0","26","1","1","3","1","","0","1","0","null","","","<div style=""font-size:60px;"">+</div>","null","","","","","","","","","",""
"","html-keyboard-response","151","467186","0.0-8.0-1.15","gnjsswxs94","one_one","1","indirect_first","0","er05en17","0","26","1","1","3","1","","0","1","0","null","","","<img src = 'category2/CS1.png' width = '100%;'>","null","","","","","","","","","",""
"","html-keyboard-response","152","467466","0.0-8.0-2.15","gnjsswxs94","one_one","1","indirect_first","0","er05en17","0","26","1","1","3","1","","0","1","0","null","","","<img src = 'targets/45.png' width = '100%;'>","null","","","","","","","","","",""
"","html-keyboard-response","153","468818","0.0-8.0-3.15","gnjsswxs94","one_one","1","indirect_first","0","er05en17","0","26","1","1","3","1","","0","1","0","1350","","","<img src = 'targets/mask.png' width = '100%;'>","75","neg","CS","CS","2","category2/CS1.png","targets/45.png","1","indirect","15",""
"","survey-html-form","154","474269","0.0-9.0","gnjsswxs94","one_one","1","indirect_first","0","er05en17","0","26","1","1","3","1","","0","1","0","4944","","{}","","","","","","","","","","","",""
"","html-keyboard-response","155","477285","0.0-10.0-0.0","gnjsswxs94","one_one","1","indirect_first","0","er05en17","0","26","1","1","3","1","","0","1","0","null","","","<div style=""font-size:60px;"">+</div>","null","","","","","","","","","",""
"","html-keyboard-response","156","477385","0.0-10.0-1.0","gnjsswxs94","one_one","1","indirect_first","0","er05en17","0","26","1","1","3","1","","0","1","0","null","","","<img src = 'category4/GS1.png' width = '100%;'>","null","","","","","","","","","",""
"","html-keyboard-response","157","477665","0.0-10.0-2.0","gnjsswxs94","one_one","1","indirect_first","0","er05en17","0","26","1","1","3","1","","0","1","0","null","","","<img src = 'targets/9.png' width = '100%;'>","null","","","","","","","","","",""
"","html-keyboard-response","158","479254","0.0-10.0-3.0","gnjsswxs94","one_one","1","indirect_first","0","er05en17","0","26","1","1","3","1","","0","1","0","1586","","","<img src = 'targets/mask.png' width = '100%;'>","68","neg","GS","GSnew","4","category4/GS1.png","targets/9.png","0","indirect","16",""
"","html-keyboard-response","159","480785","0.0-10.0-0.1","gnjsswxs94","one_one","1","indirect_first","0","er05en17","0","26","1","1","3","1","","0","1","0","null","","","<div style=""font-size:60px;"">+</div>","null","","","","","","","","","",""
"","html-keyboard-response","160","480885","0.0-10.0-1.1","gnjsswxs94","one_one","1","indirect_first","0","er05en17","0","26","1","1","3","1","","0","1","0","null","","","<img src = 'category1/ma.png' width = '100%;'>","null","","","","","","","","","",""
"","html-keyboard-response","161","481156","0.0-10.0-2.1","gnjsswxs94","one_one","1","indirect_first","0","er05en17","0","26","1","1","3","1","","0","1","0","null","","","<img src = 'targets/6.png' width = '100%;'>","null","","","","","","","","","",""
"","html-keyboard-response","162","482245","0.0-10.0-3.1","gnjsswxs94","one_one","1","indirect_first","0","er05en17","0","26","1","1","3","1","","0","1","0","1089","","","<img src = 'targets/mask.png' width = '100%;'>","75","pos","GS","abstract","1","category1/ma.png","targets/6.png","1","indirect","17",""
"","html-keyboard-response","163","483775","0.0-10.0-0.2","gnjsswxs94","one_one","1","indirect_first","0","er05en17","0","26","1","1","3","1","","0","1","0","null","","","<div style=""font-size:60px;"">+</div>","null","","","","","","","","","",""
"","html-keyboard-response","164","483885","0.0-10.0-1.2","gnjsswxs94","one_one","1","indirect_first","0","er05en17","0","26","1","1","3","1","","0","1","0","null","","","<img src = 'category3/GS2.png' width = '100%;'>","null","","","","","","","","","",""
"","html-keyboard-response","165","484166","0.0-10.0-2.2","gnjsswxs94","one_one","1","indirect_first","0","er05en17","0","26","1","1","3","1","","0","1","0","null","","","<img src = 'targets/17.png' width = '100%;'>","null","","","","","","","","","",""
"","html-keyboard-response","166","485230","0.0-10.0-3.2","gnjsswxs94","one_one","1","indirect_first","0","er05en17","0","26","1","1","3","1","","0","1","0","1062","","","<img src = 'targets/mask.png' width = '100%;'>","68","pos","GS","GSnew","3","category3/GS2.png","targets/17.png","0","indirect","18",""
"","html-keyboard-response","167","486765","0.0-10.0-0.3","gnjsswxs94","one_one","1","indirect_first","0","er05en17","0","26","1","1","3","1","","0","1","0","null","","","<div style=""font-size:60px;"">+</div>","null","","","","","","","","","",""
"","html-keyboard-response","168","486865","0.0-10.0-1.3","gnjsswxs94","one_one","1","indirect_first","0","er05en17","0","26","1","1","3","1","","0","1","0","null","","","<img src = 'category4/lin.png' width = '100%;'>","null","","","","","","","","","",""
"","html-keyboard-response","169","487145","0.0-10.0-2.3","gnjsswxs94","one_one","1","indirect_first","0","er05en17","0","26","1","1","3","1","","0","1","0","null","","","<img src = 'targets/25.png' width = '100%;'>","null","","","","","","","","","",""
"","html-keyboard-response","170","488313","0.0-10.0-3.3","gnjsswxs94","one_one","1","indirect_first","0","er05en17","0","26","1","1","3","1","","0","1","0","1167","","","<img src = 'targets/mask.png' width = '100%;'>","75","neg","GS","abstract","4","category4/lin.png","targets/25.png","1","indirect","19",""
"","html-keyboard-response","171","489845","0.0-10.0-0.4","gnjsswxs94","one_one","1","indirect_first","0","er05en17","0","26","1","1","3","1","","0","1","0","null","","","<div style=""font-size:60px;"">+</div>","null","","","","","","","","","",""
"","html-keyboard-response","172","489945","0.0-10.0-1.4","gnjsswxs94","one_one","1","indirect_first","0","er05en17","0","26","1","1","3","1","","0","1","0","null","","","<img src = 'category4/GS2.png' width = '100%;'>","null","","","","","","","","","",""
"","html-keyboard-response","173","490225","0.0-10.0-2.4","gnjsswxs94","one_one","1","indirect_first","0","er05en17","0","26","1","1","3","1","","0","1","0","null","","","<img src = 'targets/44.png' width = '100%;'>","null","","","","","","","","","",""
"","html-keyboard-response","174","491343","0.0-10.0-3.4","gnjsswxs94","one_one","1","indirect_first","0","er05en17","0","26","1","1","3","1","","0","1","0","1115","","","<img src = 'targets/mask.png' width = '100%;'>","75","neg","GS","GSnew","4","category4/GS2.png","targets/44.png","1","indirect","20",""
"","html-keyboard-response","175","492865","0.0-10.0-0.5","gnjsswxs94","one_one","1","indirect_first","0","er05en17","0","26","1","1","3","1","","0","1","0","null","","","<div style=""font-size:60px;"">+</div>","null","","","","","","","","","",""
"","html-keyboard-response","176","492965","0.0-10.0-1.5","gnjsswxs94","one_one","1","indirect_first","0","er05en17","0","26","1","1","3","1","","0","1","0","null","","","<img src = 'category2/GS3.png' width = '100%;'>","null","","","","","","","","","",""
"","html-keyboard-response","177","493245","0.0-10.0-2.5","gnjsswxs94","one_one","1","indirect_first","0","er05en17","0","26","1","1","3","1","","0","1","0","null","","","<img src = 'targets/30.png' width = '100%;'>","null","","","","","","","","","",""
"","html-keyboard-response","178","494152","0.0-10.0-3.5","gnjsswxs94","one_one","1","indirect_first","0","er05en17","0","26","1","1","3","1","","0","1","0","905","","","<img src = 'targets/mask.png' width = '100%;'>","68","neg","GS","GSnew","2","category2/GS3.png","targets/30.png","0","indirect","21",""
"","html-keyboard-response","179","495686","0.0-10.0-0.6","gnjsswxs94","one_one","1","indirect_first","0","er05en17","0","26","1","1","3","1","","0","1","0","null","","","<div style=""font-size:60px;"">+</div>","null","","","","","","","","","",""
"","html-keyboard-response","180","495785","0.0-10.0-1.6","gnjsswxs94","one_one","1","indirect_first","0","er05en17","0","26","1","1","3","1","","0","1","0","null","","","<img src = 'category3/GS1.png' width = '100%;'>","null","","","","","","","","","",""
"","html-keyboard-response","181","496065","0.0-10.0-2.6","gnjsswxs94","one_one","1","indirect_first","0","er05en17","0","26","1","1","3","1","","0","1","0","null","","","<img src = 'targets/21.png' width = '100%;'>","null","","","","","","","","","",""
"","html-keyboard-response","182","497869","0.0-10.0-3.6","gnjsswxs94","one_one","1","indirect_first","0","er05en17","0","26","1","1","3","1","","0","1","0","1802","","","<img src = 'targets/mask.png' width = '100%;'>","68","pos","GS","GSnew","3","category3/GS1.png","targets/21.png","0","indirect","22",""
"","html-keyboard-response","183","499392","0.0-10.0-0.7","gnjsswxs94","one_one","1","indirect_first","0","er05en17","0","26","1","1","3","1","","0","1","0","null","","","<div style=""font-size:60px;"">+</div>","null","","","","","","","","","",""
"","html-keyboard-response","184","499493","0.0-10.0-1.7","gnjsswxs94","one_one","1","indirect_first","0","er05en17","0","26","1","1","3","1","","0","1","0","null","","","<img src = 'category1/GS3.png' width = '100%;'>","null","","","","","","","","","",""
"","html-keyboard-response","185","499775","0.0-10.0-2.7","gnjsswxs94","one_one","1","indirect_first","0","er05en17","0","26","1","1","3","1","","0","1","0","null","","","<img src = 'targets/39.png' width = '100%;'>","null","","","","","","","","","",""
"","html-keyboard-response","186","500689","0.0-10.0-3.7","gnjsswxs94","one_one","1","indirect_first","0","er05en17","0","26","1","1","3","1","","0","1","0","913","","","<img src = 'targets/mask.png' width = '100%;'>","75","pos","GS","GSnew","1","category1/GS3.png","targets/39.png","1","indirect","23",""
"","html-keyboard-response","187","502215","0.0-10.0-0.8","gnjsswxs94","one_one","1","indirect_first","0","er05en17","0","26","1","1","3","1","","0","1","0","null","","","<div style=""font-size:60px;"">+</div>","null","","","","","","","","","",""
"","html-keyboard-response","188","502315","0.0-10.0-1.8","gnjsswxs94","one_one","1","indirect_first","0","er05en17","0","26","1","1","3","1","","0","1","0","null","","","<img src = 'category3/GS3.png' width = '100%;'>","null","","","","","","","","","",""
"","html-keyboard-response","189","502595","0.0-10.0-2.8","gnjsswxs94","one_one","1","indirect_first","0","er05en17","0","26","1","1","3","1","","0","1","0","null","","","<img src = 'targets/16.png' width = '100%;'>","null","","","","","","","","","",""
"","html-keyboard-response","190","503479","0.0-10.0-3.8","gnjsswxs94","one_one","1","indirect_first","0","er05en17","0","26","1","1","3","1","","0","1","0","882","","","<img src = 'targets/mask.png' width = '100%;'>","75","pos","GS","GSnew","3","category3/GS3.png","targets/16.png","1","indirect","24",""
"","html-keyboard-response","191","505015","0.0-10.0-0.9","gnjsswxs94","one_one","1","indirect_first","0","er05en17","0","26","1","1","3","1","","0","1","0","null","","","<div style=""font-size:60px;"">+</div>","null","","","","","","","","","",""
"","html-keyboard-response","192","505116","0.0-10.0-1.9","gnjsswxs94","one_one","1","indirect_first","0","er05en17","0","26","1","1","3","1","","0","1","0","null","","","<img src = 'category2/GS2.png' width = '100%;'>","null","","","","","","","","","",""
"","html-keyboard-response","193","505394","0.0-10.0-2.9","gnjsswxs94","one_one","1","indirect_first","0","er05en17","0","26","1","1","3","1","","0","1","0","null","","","<img src = 'targets/29.png' width = '100%;'>","null","","","","","","","","","",""
"","html-keyboard-response","194","506525","0.0-10.0-3.9","gnjsswxs94","one_one","1","indirect_first","0","er05en17","0","26","1","1","3","1","","0","1","0","1127","","","<img src = 'targets/mask.png' width = '100%;'>","68","neg","GS","GSnew","2","category2/GS2.png","targets/29.png","0","indirect","25",""
"","html-keyboard-response","195","508045","0.0-10.0-0.10","gnjsswxs94","one_one","1","indirect_first","0","er05en17","0","26","1","1","3","1","","0","1","0","null","","","<div style=""font-size:60px;"">+</div>","null","","","","","","","","","",""
"","html-keyboard-response","196","508145","0.0-10.0-1.10","gnjsswxs94","one_one","1","indirect_first","0","er05en17","0","26","1","1","3","1","","0","1","0","null","","","<img src = 'category1/GS2.png' width = '100%;'>","null","","","","","","","","","",""
"","html-keyboard-response","197","508426","0.0-10.0-2.10","gnjsswxs94","one_one","1","indirect_first","0","er05en17","0","26","1","1","3","1","","0","1","0","null","","","<img src = 'targets/3.png' width = '100%;'>","null","","","","","","","","","",""
"","html-keyboard-response","198","509407","0.0-10.0-3.10","gnjsswxs94","one_one","1","indirect_first","0","er05en17","0","26","1","1","3","1","","0","1","0","980","","","<img src = 'targets/mask.png' width = '100%;'>","75","pos","GS","GSnew","1","category1/GS2.png","targets/3.png","1","indirect","26",""
"","html-keyboard-response","199","510944","0.0-10.0-0.11","gnjsswxs94","one_one","1","indirect_first","0","er05en17","0","26","1","1","3","1","","0","1","0","null","","","<div style=""font-size:60px;"">+</div>","null","","","","","","","","","",""
"","html-keyboard-response","200","511045","0.0-10.0-1.11","gnjsswxs94","one_one","1","indirect_first","0","er05en17","0","26","1","1","3","1","","0","1","0","null","","","<img src = 'category2/GS1.png' width = '100%;'>","null","","","","","","","","","",""
"","html-keyboard-response","201","511325","0.0-10.0-2.11","gnjsswxs94","one_one","1","indirect_first","0","er05en17","0","26","1","1","3","1","","0","1","0","null","","","<img src = 'targets/2.png' width = '100%;'>","null","","","","","","","","","",""
"","html-keyboard-response","202","512271","0.0-10.0-3.11","gnjsswxs94","one_one","1","indirect_first","0","er05en17","0","26","1","1","3","1","","0","1","0","944","","","<img src = 'targets/mask.png' width = '100%;'>","68","neg","GS","GSnew","2","category2/GS1.png","targets/2.png","0","indirect","27",""
"","html-keyboard-response","203","513794","0.0-10.0-0.12","gnjsswxs94","one_one","1","indirect_first","0","er05en17","0","26","1","1","3","1","","0","1","0","null","","","<div style=""font-size:60px;"">+</div>","null","","","","","","","","","",""
"","html-keyboard-response","204","513896","0.0-10.0-1.12","gnjsswxs94","one_one","1","indirect_first","0","er05en17","0","26","1","1","3","1","","0","1","0","null","","","<img src = 'category4/GS3.png' width = '100%;'>","null","","","","","","","","","",""
"","html-keyboard-response","205","514175","0.0-10.0-2.12","gnjsswxs94","one_one","1","indirect_first","0","er05en17","0","26","1","1","3","1","","0","1","0","null","","","<img src = 'targets/4.png' width = '100%;'>","null","","","","","","","","","",""
"","html-keyboard-response","206","514994","0.0-10.0-3.12","gnjsswxs94","one_one","1","indirect_first","0","er05en17","0","26","1","1","3","1","","0","1","0","818","","","<img src = 'targets/mask.png' width = '100%;'>","68","neg","GS","GSnew","4","category4/GS3.png","targets/4.png","0","indirect","28",""
"","html-keyboard-response","207","516511","0.0-10.0-0.13","gnjsswxs94","one_one","1","indirect_first","0","er05en17","0","26","1","1","3","1","","0","1","0","null","","","<div style=""font-size:60px;"">+</div>","null","","","","","","","","","",""
"","html-keyboard-response","208","516612","0.0-10.0-1.13","gnjsswxs94","one_one","1","indirect_first","0","er05en17","0","26","1","1","3","1","","0","1","0","null","","","<img src = 'category1/GS1.png' width = '100%;'>","null","","","","","","","","","",""
"","html-keyboard-response","209","516895","0.0-10.0-2.13","gnjsswxs94","one_one","1","indirect_first","0","er05en17","0","26","1","1","3","1","","0","1","0","null","","","<img src = 'targets/1.png' width = '100%;'>","null","","","","","","","","","",""
"","html-keyboard-response","210","518041","0.0-10.0-3.13","gnjsswxs94","one_one","1","indirect_first","0","er05en17","0","26","1","1","3","1","","0","1","0","1144","","","<img src = 'targets/mask.png' width = '100%;'>","75","pos","GS","GSnew","1","category1/GS1.png","targets/1.png","1","indirect","29",""
"","html-keyboard-response","211","519555","0.0-10.0-0.14","gnjsswxs94","one_one","1","indirect_first","0","er05en17","0","26","1","1","3","1","","0","1","0","null","","","<div style=""font-size:60px;"">+</div>","null","","","","","","","","","",""
"","html-keyboard-response","212","519665","0.0-10.0-1.14","gnjsswxs94","one_one","1","indirect_first","0","er05en17","0","26","1","1","3","1","","0","1","0","null","","","<img src = 'category2/men.png' width = '100%;'>","null","","","","","","","","","",""
"","html-keyboard-response","213","519945","0.0-10.0-2.14","gnjsswxs94","one_one","1","indirect_first","0","er05en17","0","26","1","1","3","1","","0","1","0","null","","","<img src = 'targets/41.png' width = '100%;'>","null","","","","","","","","","",""
"","html-keyboard-response","214","520769","0.0-10.0-3.14","gnjsswxs94","one_one","1","indirect_first","0","er05en17","0","26","1","1","3","1","","0","1","0","822","","","<img src = 'targets/mask.png' width = '100%;'>","75","neg","GS","abstract","2","category2/men.png","targets/41.png","1","indirect","30",""
"","html-keyboard-response","215","522295","0.0-10.0-0.15","gnjsswxs94","one_one","1","indirect_first","0","er05en17","0","26","1","1","3","1","","0","1","0","null","","","<div style=""font-size:60px;"">+</div>","null","","","","","","","","","",""
"","html-keyboard-response","216","522395","0.0-10.0-1.15","gnjsswxs94","one_one","1","indirect_first","0","er05en17","0","26","1","1","3","1","","0","1","0","null","","","<img src = 'category3/wang.png' width = '100%;'>","null","","","","","","","","","",""
"","html-keyboard-response","217","522676","0.0-10.0-2.15","gnjsswxs94","one_one","1","indirect_first","0","er05en17","0","26","1","1","3","1","","0","1","0","null","","","<img src = 'targets/26.png' width = '100%;'>","null","","","","","","","","","",""
"","html-keyboard-response","218","523482","0.0-10.0-3.15","gnjsswxs94","one_one","1","indirect_first","0","er05en17","0","26","1","1","3","1","","0","1","0","804","","","<img src = 'targets/mask.png' width = '100%;'>","75","pos","GS","abstract","3","category3/wang.png","targets/26.png","1","indirect","31",""
"","survey-html-form","219","535760","0.0-11.0","gnjsswxs94","one_one","1","indirect_first","0","er05en17","0","26","1","1","3","1","","0","1","0","11764","","{}","","","","","","","","","","","",""
"","image-slider-response","220","556014","0.0-12.0-0.0","gnjsswxs94","one_one","1","indirect_first","0","er05en17","0","26","1","1","3","1","","0","1","0","18232","","","","","pos","GS","GSold","1","category1/CS8.png","targets/7.png","","direct","","45"
"","image-slider-response","221","563398","0.0-12.0-0.1","gnjsswxs94","one_one","1","indirect_first","0","er05en17","0","26","1","1","3","1","","0","1","0","7381","","","","","pos","CS","CS","3","category3/CS2.png","targets/22.png","","direct","","82"
"","image-slider-response","222","571018","0.0-12.0-0.2","gnjsswxs94","one_one","1","indirect_first","0","er05en17","0","26","1","1","3","1","","0","1","0","7617","","","","","pos","GS","GSold","3","category3/CS8.png","targets/10.png","","direct","","-38"
"","image-slider-response","223","575405","0.0-12.0-0.3","gnjsswxs94","one_one","1","indirect_first","0","er05en17","0","26","1","1","3","1","","0","1","0","4383","","","","","neg","GS","abstract","2","category2/men.png","targets/41.png","","direct","","-46"
"","image-slider-response","224","581034","0.0-12.0-0.4","gnjsswxs94","one_one","1","indirect_first","0","er05en17","0","26","1","1","3","1","","0","1","0","5626","","","","","neg","CS","CS","2","category2/CS1.png","targets/45.png","","direct","","-83"
"","image-slider-response","225","587382","0.0-12.0-0.5","gnjsswxs94","one_one","1","indirect_first","0","er05en17","0","26","1","1","3","1","","0","1","0","6345","","","","","neg","GS","abstract","4","category4/lin.png","targets/25.png","","direct","","-20"
"","image-slider-response","226","595321","0.0-12.0-0.6","gnjsswxs94","one_one","1","indirect_first","0","er05en17","0","26","1","1","3","1","","0","1","0","7936","","","","","neg","GS","GSold","4","category4/CS2.png","targets/20.png","","direct","","-20"
"","image-slider-response","227","600644","0.0-12.0-0.7","gnjsswxs94","one_one","1","indirect_first","0","er05en17","0","26","1","1","3","1","","0","1","0","5320","","","","","neg","GS","GSnew","4","category4/GS2.png","targets/44.png","","direct","","33"
"","image-slider-response","228","606301","0.0-12.0-0.8","gnjsswxs94","one_one","1","indirect_first","0","er05en17","0","26","1","1","3","1","","0","1","0","5655","","","","","neg","GS","GSnew","4","category4/GS3.png","targets/4.png","","direct","","35"
"","image-slider-response","229","611491","0.0-12.0-0.9","gnjsswxs94","one_one","1","indirect_first","0","er05en17","0","26","1","1","3","1","","0","1","0","5188","","","","","neg","GS","GSnew","2","category2/GS2.png","targets/29.png","","direct","","-27"
"","image-slider-response","230","617911","0.0-12.0-0.10","gnjsswxs94","one_one","1","indirect_first","0","er05en17","0","26","1","1","3","1","","0","1","0","6416","","","","","neg","GS","GSnew","4","category4/GS1.png","targets/9.png","","direct","","-30"
"","image-slider-response","231","621336","0.0-12.0-0.11","gnjsswxs94","one_one","1","indirect_first","0","er05en17","0","26","1","1","3","1","","0","1","0","3424","","","","","pos","GS","GSnew","1","category1/GS3.png","targets/39.png","","direct","","80"
"","image-slider-response","232","625281","0.0-12.0-0.12","gnjsswxs94","one_one","1","indirect_first","0","er05en17","0","26","1","1","3","1","","0","1","0","3942","","","","","pos","GS","GSold","3","category3/CS1.png","targets/35.png","","direct","","82"
"","image-slider-response","233","628429","0.0-12.0-0.13","gnjsswxs94","one_one","1","indirect_first","0","er05en17","0","26","1","1","3","1","","0","1","0","3145","","","","","neg","GS","GSnew","2","category2/GS3.png","targets/30.png","","direct","","-49"
"","image-slider-response","234","631510","0.0-12.0-0.14","gnjsswxs94","one_one","1","indirect_first","0","er05en17","0","26","1","1","3","1","","0","1","0","3078","","","","","neg","GS","GSnew","2","category2/GS1.png","targets/2.png","","direct","","-48"
"","image-slider-response","235","636774","0.0-12.0-0.15","gnjsswxs94","one_one","1","indirect_first","0","er05en17","0","26","1","1","3","1","","0","1","0","5261","","","","","pos","GS","GSnew","3","category3/GS2.png","targets/17.png","","direct","","65"
"","image-slider-response","236","642560","0.0-12.0-0.16","gnjsswxs94","one_one","1","indirect_first","0","er05en17","0","26","1","1","3","1","","0","1","0","5783","","","","","neg","GS","GSold","4","category4/CS9.png","targets/8.png","","direct","","-48"
"","image-slider-response","237","646612","0.0-12.0-0.17","gnjsswxs94","one_one","1","indirect_first","0","er05en17","0","26","1","1","3","1","","0","1","0","4050","","","","","neg","GS","GSold","2","category2/CS7.png","targets/40.png","","direct","","-31"
"","image-slider-response","238","649990","0.0-12.0-0.18","gnjsswxs94","one_one","1","indirect_first","0","er05en17","0","26","1","1","3","1","","0","1","0","3375","","","","","neg","GS","GSold","2","category2/CS4.png","targets/32.png","","direct","","34"
"","image-slider-response","239","656651","0.0-12.0-0.19","gnjsswxs94","one_one","1","indirect_first","0","er05en17","0","26","1","1","3","1","","0","1","0","6659","","","","","neg","GS","GSold","4","category4/CS8.png","targets/28.png","","direct","","12"
"","image-slider-response","240","659612","0.0-12.0-0.20","gnjsswxs94","one_one","1","indirect_first","0","er05en17","0","26","1","1","3","1","","0","1","0","2958","","","","","pos","CS","CS","1","category1/CS1.png","targets/38.png","","direct","","50"
"","image-slider-response","241","663224","0.0-12.0-0.21","gnjsswxs94","one_one","1","indirect_first","0","er05en17","0","26","1","1","3","1","","0","1","0","3610","","","","","neg","GS","GSold","2","category2/CS9.png","targets/33.png","","direct","","-21"
"","image-slider-response","242","666581","0.0-12.0-0.22","gnjsswxs94","one_one","1","indirect_first","0","er05en17","0","26","1","1","3","1","","0","1","0","3354","","","","","pos","GS","GSnew","3","category3/GS3.png","targets/16.png","","direct","","-13"
"","image-slider-response","243","671201","0.0-12.0-0.23","gnjsswxs94","one_one","1","indirect_first","0","er05en17","0","26","1","1","3","1","","0","1","0","4617","","","","","pos","GS","GSold","1","category1/CS9.png","targets/27.png","","direct","","34"
"","image-slider-response","244","675836","0.0-12.0-0.24","gnjsswxs94","one_one","1","indirect_first","0","er05en17","0","26","1","1","3","1","","0","1","0","4632","","","","","pos","GS","GSold","3","category3/CS10.png","targets/5.png","","direct","","20"
"","image-slider-response","245","679923","0.0-12.0-0.25","gnjsswxs94","one_one","1","indirect_first","0","er05en17","0","26","1","1","3","1","","0","1","0","4084","","","","","neg","CS","CS","4","category4/CS10.png","targets/24.png","","direct","","-85"
"","image-slider-response","246","688393","0.0-12.0-0.26","gnjsswxs94","one_one","1","indirect_first","0","er05en17","0","26","1","1","3","1","","0","1","0","8467","","","","","pos","GS","GSnew","1","category1/GS2.png","targets/3.png","","direct","","48"
"","image-slider-response","247","695804","0.0-12.0-0.27","gnjsswxs94","one_one","1","indirect_first","0","er05en17","0","26","1","1","3","1","","0","1","0","7407","","","","","pos","GS","abstract","1","category1/ma.png","targets/6.png","","direct","","-24"
"","image-slider-response","248","700125","0.0-12.0-0.28","gnjsswxs94","one_one","1","indirect_first","0","er05en17","0","26","1","1","3","1","","0","1","0","4317","","","","","pos","GS","abstract","3","category3/wang.png","targets/26.png","","direct","","30"
"","image-slider-response","249","707232","0.0-12.0-0.29","gnjsswxs94","one_one","1","indirect_first","0","er05en17","0","26","1","1","3","1","","0","1","0","7104","","","","","pos","GS","GSnew","1","category1/GS1.png","targets/1.png","","direct","","-24"
"","image-slider-response","250","712981","0.0-12.0-0.30","gnjsswxs94","one_one","1","indirect_first","0","er05en17","0","26","1","1","3","1","","0","1","0","5745","","","","","pos","GS","GSnew","3","category3/GS1.png","targets/21.png","","direct","","42"
"","image-slider-response","251","717571","0.0-12.0-0.31","gnjsswxs94","one_one","1","indirect_first","0","er05en17","0","26","1","1","3","1","","0","1","0","4586","","","","","pos","GS","GSold","1","category1/CS6.png","targets/31.png","","direct","","-35"
"","survey-html-form","252","723332","0.0-13.0","gnjsswxs94","one_one","1","indirect_first","0","er05en17","0","26","1","1","3","1","","0","1","0","5760","","{}","","","","","","","","","","","",""
"","image-slider-response","253","729204","0.0-14.0-0.0","gnjsswxs94","one_one","1","indirect_first","0","er05en17","0","26","1","1","3","1","","0","1","0","4860","","","","","pos","All","all","3","category3/wang_all.png","","","all","","32"
"","image-slider-response","254","733908","0.0-14.0-0.1","gnjsswxs94","one_one","1","indirect_first","0","er05en17","0","26","1","1","3","1","","0","1","0","4698","","","","","pos","All","all","1","category1/ma_all.png","","","all","","-43"
"","image-slider-response","255","739237","0.0-14.0-0.2","gnjsswxs94","one_one","1","indirect_first","0","er05en17","0","26","1","1","3","1","","0","1","0","5325","","","","","neg","All","all","4","category4/lin_all.png","","","all","","34"
"","image-slider-response","256","747740","0.0-14.0-0.3","gnjsswxs94","one_one","1","indirect_first","0","er05en17","0","26","1","1","3","1","","0","1","0","8497","","","","","neg","All","all","2","category2/men_all.png","","","all","","26"
"","survey-text","257","751774","0.0-15.0","gnjsswxs94","one_one","1","indirect_first","0","er05en17","0","26","1","1","3","1","","0","1","0","4025","","{""comment"":""""}","","","","","","","","","","","",""
"","survey-html-form","258","764073","0.0-16.0","gnjsswxs94","one_one","1","indirect_first","0","er05en17","0","26","1","1","3","1","","0","1","0","12296","","{""hinschauen"":""0"",""ablenkung"":""1"",""gewissenhaft"":""0""}","","","","","","","","","","","",""
