"success","trial_type","trial_index","time_elapsed","internal_node_id","subject","condition","condition_code","measure","measure_code","codeword","gender","age","education","chinese","fach","handedness","comment","hinschauen","ablenkung","gewissenhaft","rt","url","responses","stimulus","key_press","val","type","type_specific","category","cs_selected","target","indirect","task","nr_pres","response"
"true","fullscreen","0","6543","0.0-0.0","v9yb3nf2px","one_one","1","indirect_first","0","nnelin12","0","29","1","1","3","1","Man erkennt einige der chinesichen Zeichen in der Skalen-Abfrage wieder und erinnert sich automatisch an die zuvor hier zugeordneten Fotos. Das verhindert eine ""intuitive"" Entscheidung, weil man weiß, was jetzt ""erwartet"" wird.","0","1","0","","","","","","","","","","","","","","",""
"","external-html","1","35813","0.0-1.0","v9yb3nf2px","one_one","1","indirect_first","0","nnelin12","0","29","1","1","3","1","Man erkennt einige der chinesichen Zeichen in der Skalen-Abfrage wieder und erinnert sich automatisch an die zuvor hier zugeordneten Fotos. Das verhindert eine ""intuitive"" Entscheidung, weil man weiß, was jetzt ""erwartet"" wird.","0","1","0","29243.139999976847","text/information.html","","","","","","","","","","","","",""
"","external-html","2","53349","0.0-2.0","v9yb3nf2px","one_one","1","indirect_first","0","nnelin12","0","29","1","1","3","1","Man erkennt einige der chinesichen Zeichen in der Skalen-Abfrage wieder und erinnert sich automatisch an die zuvor hier zugeordneten Fotos. Das verhindert eine ""intuitive"" Entscheidung, weil man weiß, was jetzt ""erwartet"" wird.","0","1","0","17494.874999974854","text/consent.html","","","","","","","","","","","","",""
"","survey-html-form","3","92588","0.0-3.0","v9yb3nf2px","one_one","1","indirect_first","0","nnelin12","0","29","1","1","3","1","Man erkennt einige der chinesichen Zeichen in der Skalen-Abfrage wieder und erinnert sich automatisch an die zuvor hier zugeordneten Fotos. Das verhindert eine ""intuitive"" Entscheidung, weil man weiß, was jetzt ""erwartet"" wird.","0","1","0","39236.55500001041","","{""codeword_enter"":""nnelin12""}","","","","","","","","","","","",""
"","survey-html-form","4","111026","0.0-4.0","v9yb3nf2px","one_one","1","indirect_first","0","nnelin12","0","29","1","1","3","1","Man erkennt einige der chinesichen Zeichen in der Skalen-Abfrage wieder und erinnert sich automatisch an die zuvor hier zugeordneten Fotos. Das verhindert eine ""intuitive"" Entscheidung, weil man weiß, was jetzt ""erwartet"" wird.","0","1","0","18435.88499998441","","{""age"":""29"",""education"":""1"",""subject"":""3"",""gender"":""0"",""handedness"":""1"",""chinese"":""1""}","","","","","","","","","","","",""
"","survey-html-form","5","125797","0.0-5.0","v9yb3nf2px","one_one","1","indirect_first","0","nnelin12","0","29","1","1","3","1","Man erkennt einige der chinesichen Zeichen in der Skalen-Abfrage wieder und erinnert sich automatisch an die zuvor hier zugeordneten Fotos. Das verhindert eine ""intuitive"" Entscheidung, weil man weiß, was jetzt ""erwartet"" wird.","0","1","0","14769.085000036284","","{}","","","","","","","","","","","",""
"","html-keyboard-response","6","129804","0.0-6.0-0.0-0.0","v9yb3nf2px","one_one","1","indirect_first","0","nnelin12","0","29","1","1","3","1","Man erkennt einige der chinesichen Zeichen in der Skalen-Abfrage wieder und erinnert sich automatisch an die zuvor hier zugeordneten Fotos. Das verhindert eine ""intuitive"" Entscheidung, weil man weiß, was jetzt ""erwartet"" wird.","0","1","0","null","","","<div class = 'row'><div class = 'column'><img src = 'usneg/9330.bmp' width = '100%;'></div><div class = 'column'><img src = 'category2/CS4.png' width = '70%;'></div></div>","null","neg","CS","CS","2","category2/CS4.png","","","","",""
"","html-keyboard-response","7","132317","0.0-6.0-0.0-0.1","v9yb3nf2px","one_one","1","indirect_first","0","nnelin12","0","29","1","1","3","1","Man erkennt einige der chinesichen Zeichen in der Skalen-Abfrage wieder und erinnert sich automatisch an die zuvor hier zugeordneten Fotos. Das verhindert eine ""intuitive"" Entscheidung, weil man weiß, was jetzt ""erwartet"" wird.","0","1","0","null","","","<div class = 'row'><div class = 'column'><img src = 'category4/CS10.png' width = '70%;'></div><div class = 'column'><img src = 'usneg/9182.bmp' width = '100%;'></div></div>","null","neg","CS","CS","4","category4/CS10.png","","","","",""
"","html-keyboard-response","8","134829","0.0-6.0-0.0-0.2","v9yb3nf2px","one_one","1","indirect_first","0","nnelin12","0","29","1","1","3","1","Man erkennt einige der chinesichen Zeichen in der Skalen-Abfrage wieder und erinnert sich automatisch an die zuvor hier zugeordneten Fotos. Das verhindert eine ""intuitive"" Entscheidung, weil man weiß, was jetzt ""erwartet"" wird.","0","1","0","null","","","<div class = 'row'><div class = 'column'><img src = 'uspos/8080.bmp' width = '100%;'></div><div class = 'column'><img src = 'category3/CS1.png' width = '70%;'></div></div>","null","pos","CS","CS","3","category3/CS1.png","","","","",""
"","html-keyboard-response","9","137338","0.0-6.0-0.0-0.3","v9yb3nf2px","one_one","1","indirect_first","0","nnelin12","0","29","1","1","3","1","Man erkennt einige der chinesichen Zeichen in der Skalen-Abfrage wieder und erinnert sich automatisch an die zuvor hier zugeordneten Fotos. Das verhindert eine ""intuitive"" Entscheidung, weil man weiß, was jetzt ""erwartet"" wird.","0","1","0","null","","","<div class = 'row'><div class = 'column'><img src = 'category1/CS1.png' width = '70%;'></div><div class = 'column'><img src = 'uspos/2208.bmp' width = '100%;'></div></div>","null","pos","CS","CS","1","category1/CS1.png","","","","",""
"","html-keyboard-response","10","139843","0.0-6.0-0.0-0.4","v9yb3nf2px","one_one","1","indirect_first","0","nnelin12","0","29","1","1","3","1","Man erkennt einige der chinesichen Zeichen in der Skalen-Abfrage wieder und erinnert sich automatisch an die zuvor hier zugeordneten Fotos. Das verhindert eine ""intuitive"" Entscheidung, weil man weiß, was jetzt ""erwartet"" wird.","0","1","0","null","","","<div class = 'row'><div class = 'column'><img src = 'usneg/9330.bmp' width = '100%;'></div><div class = 'column'><img src = 'category2/CS4.png' width = '70%;'></div></div>","null","neg","CS","CS","2","category2/CS4.png","","","","",""
"","html-keyboard-response","11","142350","0.0-6.0-0.0-0.5","v9yb3nf2px","one_one","1","indirect_first","0","nnelin12","0","29","1","1","3","1","Man erkennt einige der chinesichen Zeichen in der Skalen-Abfrage wieder und erinnert sich automatisch an die zuvor hier zugeordneten Fotos. Das verhindert eine ""intuitive"" Entscheidung, weil man weiß, was jetzt ""erwartet"" wird.","0","1","0","null","","","<div class = 'row'><div class = 'column'><img src = 'uspos/8080.bmp' width = '100%;'></div><div class = 'column'><img src = 'category3/CS1.png' width = '70%;'></div></div>","null","pos","CS","CS","3","category3/CS1.png","","","","",""
"","html-keyboard-response","12","144857","0.0-6.0-0.0-0.6","v9yb3nf2px","one_one","1","indirect_first","0","nnelin12","0","29","1","1","3","1","Man erkennt einige der chinesichen Zeichen in der Skalen-Abfrage wieder und erinnert sich automatisch an die zuvor hier zugeordneten Fotos. Das verhindert eine ""intuitive"" Entscheidung, weil man weiß, was jetzt ""erwartet"" wird.","0","1","0","null","","","<div class = 'row'><div class = 'column'><img src = 'category2/CS4.png' width = '70%;'></div><div class = 'column'><img src = 'usneg/9330.bmp' width = '100%;'></div></div>","null","neg","CS","CS","2","category2/CS4.png","","","","",""
"","html-keyboard-response","13","147369","0.0-6.0-0.0-0.7","v9yb3nf2px","one_one","1","indirect_first","0","nnelin12","0","29","1","1","3","1","Man erkennt einige der chinesichen Zeichen in der Skalen-Abfrage wieder und erinnert sich automatisch an die zuvor hier zugeordneten Fotos. Das verhindert eine ""intuitive"" Entscheidung, weil man weiß, was jetzt ""erwartet"" wird.","0","1","0","null","","","<div class = 'row'><div class = 'column'><img src = 'uspos/8080.bmp' width = '100%;'></div><div class = 'column'><img src = 'category3/CS1.png' width = '70%;'></div></div>","null","pos","CS","CS","3","category3/CS1.png","","","","",""
"","html-keyboard-response","14","149882","0.0-6.0-0.0-0.8","v9yb3nf2px","one_one","1","indirect_first","0","nnelin12","0","29","1","1","3","1","Man erkennt einige der chinesichen Zeichen in der Skalen-Abfrage wieder und erinnert sich automatisch an die zuvor hier zugeordneten Fotos. Das verhindert eine ""intuitive"" Entscheidung, weil man weiß, was jetzt ""erwartet"" wird.","0","1","0","null","","","<div class = 'row'><div class = 'column'><img src = 'category1/CS1.png' width = '70%;'></div><div class = 'column'><img src = 'uspos/2208.bmp' width = '100%;'></div></div>","null","pos","CS","CS","1","category1/CS1.png","","","","",""
"","html-keyboard-response","15","152393","0.0-6.0-0.0-0.9","v9yb3nf2px","one_one","1","indirect_first","0","nnelin12","0","29","1","1","3","1","Man erkennt einige der chinesichen Zeichen in der Skalen-Abfrage wieder und erinnert sich automatisch an die zuvor hier zugeordneten Fotos. Das verhindert eine ""intuitive"" Entscheidung, weil man weiß, was jetzt ""erwartet"" wird.","0","1","0","null","","","<div class = 'row'><div class = 'column'><img src = 'category4/CS10.png' width = '70%;'></div><div class = 'column'><img src = 'usneg/9182.bmp' width = '100%;'></div></div>","null","neg","CS","CS","4","category4/CS10.png","","","","",""
"","html-keyboard-response","16","154905","0.0-6.0-0.0-0.10","v9yb3nf2px","one_one","1","indirect_first","0","nnelin12","0","29","1","1","3","1","Man erkennt einige der chinesichen Zeichen in der Skalen-Abfrage wieder und erinnert sich automatisch an die zuvor hier zugeordneten Fotos. Das verhindert eine ""intuitive"" Entscheidung, weil man weiß, was jetzt ""erwartet"" wird.","0","1","0","null","","","<div class = 'row'><div class = 'column'><img src = 'category1/CS1.png' width = '70%;'></div><div class = 'column'><img src = 'uspos/2208.bmp' width = '100%;'></div></div>","null","pos","CS","CS","1","category1/CS1.png","","","","",""
"","html-keyboard-response","17","157417","0.0-6.0-0.0-0.11","v9yb3nf2px","one_one","1","indirect_first","0","nnelin12","0","29","1","1","3","1","Man erkennt einige der chinesichen Zeichen in der Skalen-Abfrage wieder und erinnert sich automatisch an die zuvor hier zugeordneten Fotos. Das verhindert eine ""intuitive"" Entscheidung, weil man weiß, was jetzt ""erwartet"" wird.","0","1","0","null","","","<div class = 'row'><div class = 'column'><img src = 'uspos/8080.bmp' width = '100%;'></div><div class = 'column'><img src = 'category3/CS1.png' width = '70%;'></div></div>","null","pos","CS","CS","3","category3/CS1.png","","","","",""
"","html-keyboard-response","18","159929","0.0-6.0-0.0-0.12","v9yb3nf2px","one_one","1","indirect_first","0","nnelin12","0","29","1","1","3","1","Man erkennt einige der chinesichen Zeichen in der Skalen-Abfrage wieder und erinnert sich automatisch an die zuvor hier zugeordneten Fotos. Das verhindert eine ""intuitive"" Entscheidung, weil man weiß, was jetzt ""erwartet"" wird.","0","1","0","null","","","<div class = 'row'><div class = 'column'><img src = 'usneg/9330.bmp' width = '100%;'></div><div class = 'column'><img src = 'category2/CS4.png' width = '70%;'></div></div>","null","neg","CS","CS","2","category2/CS4.png","","","","",""
"","html-keyboard-response","19","162441","0.0-6.0-0.0-0.13","v9yb3nf2px","one_one","1","indirect_first","0","nnelin12","0","29","1","1","3","1","Man erkennt einige der chinesichen Zeichen in der Skalen-Abfrage wieder und erinnert sich automatisch an die zuvor hier zugeordneten Fotos. Das verhindert eine ""intuitive"" Entscheidung, weil man weiß, was jetzt ""erwartet"" wird.","0","1","0","null","","","<div class = 'row'><div class = 'column'><img src = 'category4/CS10.png' width = '70%;'></div><div class = 'column'><img src = 'usneg/9182.bmp' width = '100%;'></div></div>","null","neg","CS","CS","4","category4/CS10.png","","","","",""
"","html-keyboard-response","20","164953","0.0-6.0-0.0-0.14","v9yb3nf2px","one_one","1","indirect_first","0","nnelin12","0","29","1","1","3","1","Man erkennt einige der chinesichen Zeichen in der Skalen-Abfrage wieder und erinnert sich automatisch an die zuvor hier zugeordneten Fotos. Das verhindert eine ""intuitive"" Entscheidung, weil man weiß, was jetzt ""erwartet"" wird.","0","1","0","null","","","<div class = 'row'><div class = 'column'><img src = 'uspos/2208.bmp' width = '100%;'></div><div class = 'column'><img src = 'category1/CS1.png' width = '70%;'></div></div>","null","pos","CS","CS","1","category1/CS1.png","","","","",""
"","html-keyboard-response","21","167466","0.0-6.0-0.0-0.15","v9yb3nf2px","one_one","1","indirect_first","0","nnelin12","0","29","1","1","3","1","Man erkennt einige der chinesichen Zeichen in der Skalen-Abfrage wieder und erinnert sich automatisch an die zuvor hier zugeordneten Fotos. Das verhindert eine ""intuitive"" Entscheidung, weil man weiß, was jetzt ""erwartet"" wird.","0","1","0","null","","","<div class = 'row'><div class = 'column'><img src = 'usneg/9330.bmp' width = '100%;'></div><div class = 'column'><img src = 'category2/CS4.png' width = '70%;'></div></div>","null","neg","CS","CS","2","category2/CS4.png","","","","",""
"","html-keyboard-response","22","169978","0.0-6.0-0.0-0.16","v9yb3nf2px","one_one","1","indirect_first","0","nnelin12","0","29","1","1","3","1","Man erkennt einige der chinesichen Zeichen in der Skalen-Abfrage wieder und erinnert sich automatisch an die zuvor hier zugeordneten Fotos. Das verhindert eine ""intuitive"" Entscheidung, weil man weiß, was jetzt ""erwartet"" wird.","0","1","0","null","","","<div class = 'row'><div class = 'column'><img src = 'uspos/2208.bmp' width = '100%;'></div><div class = 'column'><img src = 'category1/CS1.png' width = '70%;'></div></div>","null","pos","CS","CS","1","category1/CS1.png","","","","",""
"","html-keyboard-response","23","172490","0.0-6.0-0.0-0.17","v9yb3nf2px","one_one","1","indirect_first","0","nnelin12","0","29","1","1","3","1","Man erkennt einige der chinesichen Zeichen in der Skalen-Abfrage wieder und erinnert sich automatisch an die zuvor hier zugeordneten Fotos. Das verhindert eine ""intuitive"" Entscheidung, weil man weiß, was jetzt ""erwartet"" wird.","0","1","0","null","","","<div class = 'row'><div class = 'column'><img src = 'usneg/9182.bmp' width = '100%;'></div><div class = 'column'><img src = 'category4/CS10.png' width = '70%;'></div></div>","null","neg","CS","CS","4","category4/CS10.png","","","","",""
"","html-keyboard-response","24","175002","0.0-6.0-0.0-0.18","v9yb3nf2px","one_one","1","indirect_first","0","nnelin12","0","29","1","1","3","1","Man erkennt einige der chinesichen Zeichen in der Skalen-Abfrage wieder und erinnert sich automatisch an die zuvor hier zugeordneten Fotos. Das verhindert eine ""intuitive"" Entscheidung, weil man weiß, was jetzt ""erwartet"" wird.","0","1","0","null","","","<div class = 'row'><div class = 'column'><img src = 'category3/CS1.png' width = '70%;'></div><div class = 'column'><img src = 'uspos/8080.bmp' width = '100%;'></div></div>","null","pos","CS","CS","3","category3/CS1.png","","","","",""
"","html-keyboard-response","25","177514","0.0-6.0-0.0-0.19","v9yb3nf2px","one_one","1","indirect_first","0","nnelin12","0","29","1","1","3","1","Man erkennt einige der chinesichen Zeichen in der Skalen-Abfrage wieder und erinnert sich automatisch an die zuvor hier zugeordneten Fotos. Das verhindert eine ""intuitive"" Entscheidung, weil man weiß, was jetzt ""erwartet"" wird.","0","1","0","null","","","<div class = 'row'><div class = 'column'><img src = 'usneg/9182.bmp' width = '100%;'></div><div class = 'column'><img src = 'category4/CS10.png' width = '70%;'></div></div>","null","neg","CS","CS","4","category4/CS10.png","","","","",""
"","survey-html-form","26","182834","0.0-6.0-1.0","v9yb3nf2px","one_one","1","indirect_first","0","nnelin12","0","29","1","1","3","1","Man erkennt einige der chinesichen Zeichen in der Skalen-Abfrage wieder und erinnert sich automatisch an die zuvor hier zugeordneten Fotos. Das verhindert eine ""intuitive"" Entscheidung, weil man weiß, was jetzt ""erwartet"" wird.","0","1","0","4813.619999971706","","{}","","","","","","","","","","","",""
"","html-keyboard-response","27","186840","0.0-6.0-2.0-0.0","v9yb3nf2px","one_one","1","indirect_first","0","nnelin12","0","29","1","1","3","1","Man erkennt einige der chinesichen Zeichen in der Skalen-Abfrage wieder und erinnert sich automatisch an die zuvor hier zugeordneten Fotos. Das verhindert eine ""intuitive"" Entscheidung, weil man weiß, was jetzt ""erwartet"" wird.","0","1","0","null","","","<div class = 'row'><div class = 'column'><img src = 'uspos/2208.bmp' width = '100%;'></div><div class = 'column'><img src = 'category1/CS1.png' width = '70%;'></div></div>","null","pos","CS","CS","1","category1/CS1.png","","","","",""
"","html-keyboard-response","28","189351","0.0-6.0-2.0-0.1","v9yb3nf2px","one_one","1","indirect_first","0","nnelin12","0","29","1","1","3","1","Man erkennt einige der chinesichen Zeichen in der Skalen-Abfrage wieder und erinnert sich automatisch an die zuvor hier zugeordneten Fotos. Das verhindert eine ""intuitive"" Entscheidung, weil man weiß, was jetzt ""erwartet"" wird.","0","1","0","null","","","<div class = 'row'><div class = 'column'><img src = 'category4/CS10.png' width = '70%;'></div><div class = 'column'><img src = 'usneg/9182.bmp' width = '100%;'></div></div>","null","neg","CS","CS","4","category4/CS10.png","","","","",""
"","html-keyboard-response","29","191860","0.0-6.0-2.0-0.2","v9yb3nf2px","one_one","1","indirect_first","0","nnelin12","0","29","1","1","3","1","Man erkennt einige der chinesichen Zeichen in der Skalen-Abfrage wieder und erinnert sich automatisch an die zuvor hier zugeordneten Fotos. Das verhindert eine ""intuitive"" Entscheidung, weil man weiß, was jetzt ""erwartet"" wird.","0","1","0","null","","","<div class = 'row'><div class = 'column'><img src = 'category2/CS4.png' width = '70%;'></div><div class = 'column'><img src = 'usneg/9330.bmp' width = '100%;'></div></div>","null","neg","CS","CS","2","category2/CS4.png","","","","",""
"","html-keyboard-response","30","194372","0.0-6.0-2.0-0.3","v9yb3nf2px","one_one","1","indirect_first","0","nnelin12","0","29","1","1","3","1","Man erkennt einige der chinesichen Zeichen in der Skalen-Abfrage wieder und erinnert sich automatisch an die zuvor hier zugeordneten Fotos. Das verhindert eine ""intuitive"" Entscheidung, weil man weiß, was jetzt ""erwartet"" wird.","0","1","0","null","","","<div class = 'row'><div class = 'column'><img src = 'usneg/9182.bmp' width = '100%;'></div><div class = 'column'><img src = 'category4/CS10.png' width = '70%;'></div></div>","null","neg","CS","CS","4","category4/CS10.png","","","","",""
"","html-keyboard-response","31","196878","0.0-6.0-2.0-0.4","v9yb3nf2px","one_one","1","indirect_first","0","nnelin12","0","29","1","1","3","1","Man erkennt einige der chinesichen Zeichen in der Skalen-Abfrage wieder und erinnert sich automatisch an die zuvor hier zugeordneten Fotos. Das verhindert eine ""intuitive"" Entscheidung, weil man weiß, was jetzt ""erwartet"" wird.","0","1","0","null","","","<div class = 'row'><div class = 'column'><img src = 'usneg/9330.bmp' width = '100%;'></div><div class = 'column'><img src = 'category2/CS4.png' width = '70%;'></div></div>","null","neg","CS","CS","2","category2/CS4.png","","","","",""
"","html-keyboard-response","32","199390","0.0-6.0-2.0-0.5","v9yb3nf2px","one_one","1","indirect_first","0","nnelin12","0","29","1","1","3","1","Man erkennt einige der chinesichen Zeichen in der Skalen-Abfrage wieder und erinnert sich automatisch an die zuvor hier zugeordneten Fotos. Das verhindert eine ""intuitive"" Entscheidung, weil man weiß, was jetzt ""erwartet"" wird.","0","1","0","null","","","<div class = 'row'><div class = 'column'><img src = 'category1/CS1.png' width = '70%;'></div><div class = 'column'><img src = 'uspos/2208.bmp' width = '100%;'></div></div>","null","pos","CS","CS","1","category1/CS1.png","","","","",""
"","html-keyboard-response","33","201902","0.0-6.0-2.0-0.6","v9yb3nf2px","one_one","1","indirect_first","0","nnelin12","0","29","1","1","3","1","Man erkennt einige der chinesichen Zeichen in der Skalen-Abfrage wieder und erinnert sich automatisch an die zuvor hier zugeordneten Fotos. Das verhindert eine ""intuitive"" Entscheidung, weil man weiß, was jetzt ""erwartet"" wird.","0","1","0","null","","","<div class = 'row'><div class = 'column'><img src = 'usneg/9182.bmp' width = '100%;'></div><div class = 'column'><img src = 'category4/CS10.png' width = '70%;'></div></div>","null","neg","CS","CS","4","category4/CS10.png","","","","",""
"","html-keyboard-response","34","204409","0.0-6.0-2.0-0.7","v9yb3nf2px","one_one","1","indirect_first","0","nnelin12","0","29","1","1","3","1","Man erkennt einige der chinesichen Zeichen in der Skalen-Abfrage wieder und erinnert sich automatisch an die zuvor hier zugeordneten Fotos. Das verhindert eine ""intuitive"" Entscheidung, weil man weiß, was jetzt ""erwartet"" wird.","0","1","0","null","","","<div class = 'row'><div class = 'column'><img src = 'uspos/8080.bmp' width = '100%;'></div><div class = 'column'><img src = 'category3/CS1.png' width = '70%;'></div></div>","null","pos","CS","CS","3","category3/CS1.png","","","","",""
"","html-keyboard-response","35","206922","0.0-6.0-2.0-0.8","v9yb3nf2px","one_one","1","indirect_first","0","nnelin12","0","29","1","1","3","1","Man erkennt einige der chinesichen Zeichen in der Skalen-Abfrage wieder und erinnert sich automatisch an die zuvor hier zugeordneten Fotos. Das verhindert eine ""intuitive"" Entscheidung, weil man weiß, was jetzt ""erwartet"" wird.","0","1","0","null","","","<div class = 'row'><div class = 'column'><img src = 'uspos/2208.bmp' width = '100%;'></div><div class = 'column'><img src = 'category1/CS1.png' width = '70%;'></div></div>","null","pos","CS","CS","1","category1/CS1.png","","","","",""
"","html-keyboard-response","36","209431","0.0-6.0-2.0-0.9","v9yb3nf2px","one_one","1","indirect_first","0","nnelin12","0","29","1","1","3","1","Man erkennt einige der chinesichen Zeichen in der Skalen-Abfrage wieder und erinnert sich automatisch an die zuvor hier zugeordneten Fotos. Das verhindert eine ""intuitive"" Entscheidung, weil man weiß, was jetzt ""erwartet"" wird.","0","1","0","null","","","<div class = 'row'><div class = 'column'><img src = 'category3/CS1.png' width = '70%;'></div><div class = 'column'><img src = 'uspos/8080.bmp' width = '100%;'></div></div>","null","pos","CS","CS","3","category3/CS1.png","","","","",""
"","html-keyboard-response","37","211943","0.0-6.0-2.0-0.10","v9yb3nf2px","one_one","1","indirect_first","0","nnelin12","0","29","1","1","3","1","Man erkennt einige der chinesichen Zeichen in der Skalen-Abfrage wieder und erinnert sich automatisch an die zuvor hier zugeordneten Fotos. Das verhindert eine ""intuitive"" Entscheidung, weil man weiß, was jetzt ""erwartet"" wird.","0","1","0","null","","","<div class = 'row'><div class = 'column'><img src = 'uspos/2208.bmp' width = '100%;'></div><div class = 'column'><img src = 'category1/CS1.png' width = '70%;'></div></div>","null","pos","CS","CS","1","category1/CS1.png","","","","",""
"","html-keyboard-response","38","214455","0.0-6.0-2.0-0.11","v9yb3nf2px","one_one","1","indirect_first","0","nnelin12","0","29","1","1","3","1","Man erkennt einige der chinesichen Zeichen in der Skalen-Abfrage wieder und erinnert sich automatisch an die zuvor hier zugeordneten Fotos. Das verhindert eine ""intuitive"" Entscheidung, weil man weiß, was jetzt ""erwartet"" wird.","0","1","0","null","","","<div class = 'row'><div class = 'column'><img src = 'usneg/9330.bmp' width = '100%;'></div><div class = 'column'><img src = 'category2/CS4.png' width = '70%;'></div></div>","null","neg","CS","CS","2","category2/CS4.png","","","","",""
"","html-keyboard-response","39","216967","0.0-6.0-2.0-0.12","v9yb3nf2px","one_one","1","indirect_first","0","nnelin12","0","29","1","1","3","1","Man erkennt einige der chinesichen Zeichen in der Skalen-Abfrage wieder und erinnert sich automatisch an die zuvor hier zugeordneten Fotos. Das verhindert eine ""intuitive"" Entscheidung, weil man weiß, was jetzt ""erwartet"" wird.","0","1","0","null","","","<div class = 'row'><div class = 'column'><img src = 'category3/CS1.png' width = '70%;'></div><div class = 'column'><img src = 'uspos/8080.bmp' width = '100%;'></div></div>","null","pos","CS","CS","3","category3/CS1.png","","","","",""
"","html-keyboard-response","40","219479","0.0-6.0-2.0-0.13","v9yb3nf2px","one_one","1","indirect_first","0","nnelin12","0","29","1","1","3","1","Man erkennt einige der chinesichen Zeichen in der Skalen-Abfrage wieder und erinnert sich automatisch an die zuvor hier zugeordneten Fotos. Das verhindert eine ""intuitive"" Entscheidung, weil man weiß, was jetzt ""erwartet"" wird.","0","1","0","null","","","<div class = 'row'><div class = 'column'><img src = 'category4/CS10.png' width = '70%;'></div><div class = 'column'><img src = 'usneg/9182.bmp' width = '100%;'></div></div>","null","neg","CS","CS","4","category4/CS10.png","","","","",""
"","html-keyboard-response","41","221991","0.0-6.0-2.0-0.14","v9yb3nf2px","one_one","1","indirect_first","0","nnelin12","0","29","1","1","3","1","Man erkennt einige der chinesichen Zeichen in der Skalen-Abfrage wieder und erinnert sich automatisch an die zuvor hier zugeordneten Fotos. Das verhindert eine ""intuitive"" Entscheidung, weil man weiß, was jetzt ""erwartet"" wird.","0","1","0","null","","","<div class = 'row'><div class = 'column'><img src = 'category3/CS1.png' width = '70%;'></div><div class = 'column'><img src = 'uspos/8080.bmp' width = '100%;'></div></div>","null","pos","CS","CS","3","category3/CS1.png","","","","",""
"","html-keyboard-response","42","224503","0.0-6.0-2.0-0.15","v9yb3nf2px","one_one","1","indirect_first","0","nnelin12","0","29","1","1","3","1","Man erkennt einige der chinesichen Zeichen in der Skalen-Abfrage wieder und erinnert sich automatisch an die zuvor hier zugeordneten Fotos. Das verhindert eine ""intuitive"" Entscheidung, weil man weiß, was jetzt ""erwartet"" wird.","0","1","0","null","","","<div class = 'row'><div class = 'column'><img src = 'category4/CS10.png' width = '70%;'></div><div class = 'column'><img src = 'usneg/9182.bmp' width = '100%;'></div></div>","null","neg","CS","CS","4","category4/CS10.png","","","","",""
"","html-keyboard-response","43","227016","0.0-6.0-2.0-0.16","v9yb3nf2px","one_one","1","indirect_first","0","nnelin12","0","29","1","1","3","1","Man erkennt einige der chinesichen Zeichen in der Skalen-Abfrage wieder und erinnert sich automatisch an die zuvor hier zugeordneten Fotos. Das verhindert eine ""intuitive"" Entscheidung, weil man weiß, was jetzt ""erwartet"" wird.","0","1","0","null","","","<div class = 'row'><div class = 'column'><img src = 'usneg/9330.bmp' width = '100%;'></div><div class = 'column'><img src = 'category2/CS4.png' width = '70%;'></div></div>","null","neg","CS","CS","2","category2/CS4.png","","","","",""
"","html-keyboard-response","44","229528","0.0-6.0-2.0-0.17","v9yb3nf2px","one_one","1","indirect_first","0","nnelin12","0","29","1","1","3","1","Man erkennt einige der chinesichen Zeichen in der Skalen-Abfrage wieder und erinnert sich automatisch an die zuvor hier zugeordneten Fotos. Das verhindert eine ""intuitive"" Entscheidung, weil man weiß, was jetzt ""erwartet"" wird.","0","1","0","null","","","<div class = 'row'><div class = 'column'><img src = 'uspos/8080.bmp' width = '100%;'></div><div class = 'column'><img src = 'category3/CS1.png' width = '70%;'></div></div>","null","pos","CS","CS","3","category3/CS1.png","","","","",""
"","html-keyboard-response","45","232039","0.0-6.0-2.0-0.18","v9yb3nf2px","one_one","1","indirect_first","0","nnelin12","0","29","1","1","3","1","Man erkennt einige der chinesichen Zeichen in der Skalen-Abfrage wieder und erinnert sich automatisch an die zuvor hier zugeordneten Fotos. Das verhindert eine ""intuitive"" Entscheidung, weil man weiß, was jetzt ""erwartet"" wird.","0","1","0","null","","","<div class = 'row'><div class = 'column'><img src = 'category2/CS4.png' width = '70%;'></div><div class = 'column'><img src = 'usneg/9330.bmp' width = '100%;'></div></div>","null","neg","CS","CS","2","category2/CS4.png","","","","",""
"","html-keyboard-response","46","234551","0.0-6.0-2.0-0.19","v9yb3nf2px","one_one","1","indirect_first","0","nnelin12","0","29","1","1","3","1","Man erkennt einige der chinesichen Zeichen in der Skalen-Abfrage wieder und erinnert sich automatisch an die zuvor hier zugeordneten Fotos. Das verhindert eine ""intuitive"" Entscheidung, weil man weiß, was jetzt ""erwartet"" wird.","0","1","0","null","","","<div class = 'row'><div class = 'column'><img src = 'category1/CS1.png' width = '70%;'></div><div class = 'column'><img src = 'uspos/2208.bmp' width = '100%;'></div></div>","null","pos","CS","CS","1","category1/CS1.png","","","","",""
"","survey-html-form","47","244253","0.0-6.0-3.0","v9yb3nf2px","one_one","1","indirect_first","0","nnelin12","0","29","1","1","3","1","Man erkennt einige der chinesichen Zeichen in der Skalen-Abfrage wieder und erinnert sich automatisch an die zuvor hier zugeordneten Fotos. Das verhindert eine ""intuitive"" Entscheidung, weil man weiß, was jetzt ""erwartet"" wird.","0","1","0","9195.9799999604","","{}","","","","","","","","","","","",""
"","html-keyboard-response","48","248265","0.0-6.0-4.0-0.0","v9yb3nf2px","one_one","1","indirect_first","0","nnelin12","0","29","1","1","3","1","Man erkennt einige der chinesichen Zeichen in der Skalen-Abfrage wieder und erinnert sich automatisch an die zuvor hier zugeordneten Fotos. Das verhindert eine ""intuitive"" Entscheidung, weil man weiß, was jetzt ""erwartet"" wird.","0","1","0","null","","","<div class = 'row'><div class = 'column'><img src = 'usneg/9182.bmp' width = '100%;'></div><div class = 'column'><img src = 'category4/CS10.png' width = '70%;'></div></div>","null","neg","CS","CS","4","category4/CS10.png","","","","",""
"","html-keyboard-response","49","250777","0.0-6.0-4.0-0.1","v9yb3nf2px","one_one","1","indirect_first","0","nnelin12","0","29","1","1","3","1","Man erkennt einige der chinesichen Zeichen in der Skalen-Abfrage wieder und erinnert sich automatisch an die zuvor hier zugeordneten Fotos. Das verhindert eine ""intuitive"" Entscheidung, weil man weiß, was jetzt ""erwartet"" wird.","0","1","0","null","","","<div class = 'row'><div class = 'column'><img src = 'category2/CS4.png' width = '70%;'></div><div class = 'column'><img src = 'usneg/9330.bmp' width = '100%;'></div></div>","null","neg","CS","CS","2","category2/CS4.png","","","","",""
"","html-keyboard-response","50","253288","0.0-6.0-4.0-0.2","v9yb3nf2px","one_one","1","indirect_first","0","nnelin12","0","29","1","1","3","1","Man erkennt einige der chinesichen Zeichen in der Skalen-Abfrage wieder und erinnert sich automatisch an die zuvor hier zugeordneten Fotos. Das verhindert eine ""intuitive"" Entscheidung, weil man weiß, was jetzt ""erwartet"" wird.","0","1","0","null","","","<div class = 'row'><div class = 'column'><img src = 'category1/CS1.png' width = '70%;'></div><div class = 'column'><img src = 'uspos/2208.bmp' width = '100%;'></div></div>","null","pos","CS","CS","1","category1/CS1.png","","","","",""
"","html-keyboard-response","51","255794","0.0-6.0-4.0-0.3","v9yb3nf2px","one_one","1","indirect_first","0","nnelin12","0","29","1","1","3","1","Man erkennt einige der chinesichen Zeichen in der Skalen-Abfrage wieder und erinnert sich automatisch an die zuvor hier zugeordneten Fotos. Das verhindert eine ""intuitive"" Entscheidung, weil man weiß, was jetzt ""erwartet"" wird.","0","1","0","null","","","<div class = 'row'><div class = 'column'><img src = 'category3/CS1.png' width = '70%;'></div><div class = 'column'><img src = 'uspos/8080.bmp' width = '100%;'></div></div>","null","pos","CS","CS","3","category3/CS1.png","","","","",""
"","html-keyboard-response","52","258300","0.0-6.0-4.0-0.4","v9yb3nf2px","one_one","1","indirect_first","0","nnelin12","0","29","1","1","3","1","Man erkennt einige der chinesichen Zeichen in der Skalen-Abfrage wieder und erinnert sich automatisch an die zuvor hier zugeordneten Fotos. Das verhindert eine ""intuitive"" Entscheidung, weil man weiß, was jetzt ""erwartet"" wird.","0","1","0","null","","","<div class = 'row'><div class = 'column'><img src = 'usneg/9330.bmp' width = '100%;'></div><div class = 'column'><img src = 'category2/CS4.png' width = '70%;'></div></div>","null","neg","CS","CS","2","category2/CS4.png","","","","",""
"","html-keyboard-response","53","260810","0.0-6.0-4.0-0.5","v9yb3nf2px","one_one","1","indirect_first","0","nnelin12","0","29","1","1","3","1","Man erkennt einige der chinesichen Zeichen in der Skalen-Abfrage wieder und erinnert sich automatisch an die zuvor hier zugeordneten Fotos. Das verhindert eine ""intuitive"" Entscheidung, weil man weiß, was jetzt ""erwartet"" wird.","0","1","0","null","","","<div class = 'row'><div class = 'column'><img src = 'category3/CS1.png' width = '70%;'></div><div class = 'column'><img src = 'uspos/8080.bmp' width = '100%;'></div></div>","null","pos","CS","CS","3","category3/CS1.png","","","","",""
"","html-keyboard-response","54","263322","0.0-6.0-4.0-0.6","v9yb3nf2px","one_one","1","indirect_first","0","nnelin12","0","29","1","1","3","1","Man erkennt einige der chinesichen Zeichen in der Skalen-Abfrage wieder und erinnert sich automatisch an die zuvor hier zugeordneten Fotos. Das verhindert eine ""intuitive"" Entscheidung, weil man weiß, was jetzt ""erwartet"" wird.","0","1","0","null","","","<div class = 'row'><div class = 'column'><img src = 'category1/CS1.png' width = '70%;'></div><div class = 'column'><img src = 'uspos/2208.bmp' width = '100%;'></div></div>","null","pos","CS","CS","1","category1/CS1.png","","","","",""
"","html-keyboard-response","55","265833","0.0-6.0-4.0-0.7","v9yb3nf2px","one_one","1","indirect_first","0","nnelin12","0","29","1","1","3","1","Man erkennt einige der chinesichen Zeichen in der Skalen-Abfrage wieder und erinnert sich automatisch an die zuvor hier zugeordneten Fotos. Das verhindert eine ""intuitive"" Entscheidung, weil man weiß, was jetzt ""erwartet"" wird.","0","1","0","null","","","<div class = 'row'><div class = 'column'><img src = 'usneg/9330.bmp' width = '100%;'></div><div class = 'column'><img src = 'category2/CS4.png' width = '70%;'></div></div>","null","neg","CS","CS","2","category2/CS4.png","","","","",""
"","html-keyboard-response","56","268345","0.0-6.0-4.0-0.8","v9yb3nf2px","one_one","1","indirect_first","0","nnelin12","0","29","1","1","3","1","Man erkennt einige der chinesichen Zeichen in der Skalen-Abfrage wieder und erinnert sich automatisch an die zuvor hier zugeordneten Fotos. Das verhindert eine ""intuitive"" Entscheidung, weil man weiß, was jetzt ""erwartet"" wird.","0","1","0","null","","","<div class = 'row'><div class = 'column'><img src = 'usneg/9182.bmp' width = '100%;'></div><div class = 'column'><img src = 'category4/CS10.png' width = '70%;'></div></div>","null","neg","CS","CS","4","category4/CS10.png","","","","",""
"","html-keyboard-response","57","270854","0.0-6.0-4.0-0.9","v9yb3nf2px","one_one","1","indirect_first","0","nnelin12","0","29","1","1","3","1","Man erkennt einige der chinesichen Zeichen in der Skalen-Abfrage wieder und erinnert sich automatisch an die zuvor hier zugeordneten Fotos. Das verhindert eine ""intuitive"" Entscheidung, weil man weiß, was jetzt ""erwartet"" wird.","0","1","0","null","","","<div class = 'row'><div class = 'column'><img src = 'uspos/2208.bmp' width = '100%;'></div><div class = 'column'><img src = 'category1/CS1.png' width = '70%;'></div></div>","null","pos","CS","CS","1","category1/CS1.png","","","","",""
"","html-keyboard-response","58","273366","0.0-6.0-4.0-0.10","v9yb3nf2px","one_one","1","indirect_first","0","nnelin12","0","29","1","1","3","1","Man erkennt einige der chinesichen Zeichen in der Skalen-Abfrage wieder und erinnert sich automatisch an die zuvor hier zugeordneten Fotos. Das verhindert eine ""intuitive"" Entscheidung, weil man weiß, was jetzt ""erwartet"" wird.","0","1","0","null","","","<div class = 'row'><div class = 'column'><img src = 'category4/CS10.png' width = '70%;'></div><div class = 'column'><img src = 'usneg/9182.bmp' width = '100%;'></div></div>","null","neg","CS","CS","4","category4/CS10.png","","","","",""
"","html-keyboard-response","59","275874","0.0-6.0-4.0-0.11","v9yb3nf2px","one_one","1","indirect_first","0","nnelin12","0","29","1","1","3","1","Man erkennt einige der chinesichen Zeichen in der Skalen-Abfrage wieder und erinnert sich automatisch an die zuvor hier zugeordneten Fotos. Das verhindert eine ""intuitive"" Entscheidung, weil man weiß, was jetzt ""erwartet"" wird.","0","1","0","null","","","<div class = 'row'><div class = 'column'><img src = 'uspos/8080.bmp' width = '100%;'></div><div class = 'column'><img src = 'category3/CS1.png' width = '70%;'></div></div>","null","pos","CS","CS","3","category3/CS1.png","","","","",""
"","html-keyboard-response","60","278383","0.0-6.0-4.0-0.12","v9yb3nf2px","one_one","1","indirect_first","0","nnelin12","0","29","1","1","3","1","Man erkennt einige der chinesichen Zeichen in der Skalen-Abfrage wieder und erinnert sich automatisch an die zuvor hier zugeordneten Fotos. Das verhindert eine ""intuitive"" Entscheidung, weil man weiß, was jetzt ""erwartet"" wird.","0","1","0","null","","","<div class = 'row'><div class = 'column'><img src = 'usneg/9182.bmp' width = '100%;'></div><div class = 'column'><img src = 'category4/CS10.png' width = '70%;'></div></div>","null","neg","CS","CS","4","category4/CS10.png","","","","",""
"","html-keyboard-response","61","280895","0.0-6.0-4.0-0.13","v9yb3nf2px","one_one","1","indirect_first","0","nnelin12","0","29","1","1","3","1","Man erkennt einige der chinesichen Zeichen in der Skalen-Abfrage wieder und erinnert sich automatisch an die zuvor hier zugeordneten Fotos. Das verhindert eine ""intuitive"" Entscheidung, weil man weiß, was jetzt ""erwartet"" wird.","0","1","0","null","","","<div class = 'row'><div class = 'column'><img src = 'category3/CS1.png' width = '70%;'></div><div class = 'column'><img src = 'uspos/8080.bmp' width = '100%;'></div></div>","null","pos","CS","CS","3","category3/CS1.png","","","","",""
"","html-keyboard-response","62","283407","0.0-6.0-4.0-0.14","v9yb3nf2px","one_one","1","indirect_first","0","nnelin12","0","29","1","1","3","1","Man erkennt einige der chinesichen Zeichen in der Skalen-Abfrage wieder und erinnert sich automatisch an die zuvor hier zugeordneten Fotos. Das verhindert eine ""intuitive"" Entscheidung, weil man weiß, was jetzt ""erwartet"" wird.","0","1","0","null","","","<div class = 'row'><div class = 'column'><img src = 'usneg/9330.bmp' width = '100%;'></div><div class = 'column'><img src = 'category2/CS4.png' width = '70%;'></div></div>","null","neg","CS","CS","2","category2/CS4.png","","","","",""
"","html-keyboard-response","63","285919","0.0-6.0-4.0-0.15","v9yb3nf2px","one_one","1","indirect_first","0","nnelin12","0","29","1","1","3","1","Man erkennt einige der chinesichen Zeichen in der Skalen-Abfrage wieder und erinnert sich automatisch an die zuvor hier zugeordneten Fotos. Das verhindert eine ""intuitive"" Entscheidung, weil man weiß, was jetzt ""erwartet"" wird.","0","1","0","null","","","<div class = 'row'><div class = 'column'><img src = 'category1/CS1.png' width = '70%;'></div><div class = 'column'><img src = 'uspos/2208.bmp' width = '100%;'></div></div>","null","pos","CS","CS","1","category1/CS1.png","","","","",""
"","html-keyboard-response","64","288422","0.0-6.0-4.0-0.16","v9yb3nf2px","one_one","1","indirect_first","0","nnelin12","0","29","1","1","3","1","Man erkennt einige der chinesichen Zeichen in der Skalen-Abfrage wieder und erinnert sich automatisch an die zuvor hier zugeordneten Fotos. Das verhindert eine ""intuitive"" Entscheidung, weil man weiß, was jetzt ""erwartet"" wird.","0","1","0","null","","","<div class = 'row'><div class = 'column'><img src = 'category4/CS10.png' width = '70%;'></div><div class = 'column'><img src = 'usneg/9182.bmp' width = '100%;'></div></div>","null","neg","CS","CS","4","category4/CS10.png","","","","",""
"","html-keyboard-response","65","290934","0.0-6.0-4.0-0.17","v9yb3nf2px","one_one","1","indirect_first","0","nnelin12","0","29","1","1","3","1","Man erkennt einige der chinesichen Zeichen in der Skalen-Abfrage wieder und erinnert sich automatisch an die zuvor hier zugeordneten Fotos. Das verhindert eine ""intuitive"" Entscheidung, weil man weiß, was jetzt ""erwartet"" wird.","0","1","0","null","","","<div class = 'row'><div class = 'column'><img src = 'category1/CS1.png' width = '70%;'></div><div class = 'column'><img src = 'uspos/2208.bmp' width = '100%;'></div></div>","null","pos","CS","CS","1","category1/CS1.png","","","","",""
"","html-keyboard-response","66","293440","0.0-6.0-4.0-0.18","v9yb3nf2px","one_one","1","indirect_first","0","nnelin12","0","29","1","1","3","1","Man erkennt einige der chinesichen Zeichen in der Skalen-Abfrage wieder und erinnert sich automatisch an die zuvor hier zugeordneten Fotos. Das verhindert eine ""intuitive"" Entscheidung, weil man weiß, was jetzt ""erwartet"" wird.","0","1","0","null","","","<div class = 'row'><div class = 'column'><img src = 'uspos/8080.bmp' width = '100%;'></div><div class = 'column'><img src = 'category3/CS1.png' width = '70%;'></div></div>","null","pos","CS","CS","3","category3/CS1.png","","","","",""
"","html-keyboard-response","67","295952","0.0-6.0-4.0-0.19","v9yb3nf2px","one_one","1","indirect_first","0","nnelin12","0","29","1","1","3","1","Man erkennt einige der chinesichen Zeichen in der Skalen-Abfrage wieder und erinnert sich automatisch an die zuvor hier zugeordneten Fotos. Das verhindert eine ""intuitive"" Entscheidung, weil man weiß, was jetzt ""erwartet"" wird.","0","1","0","null","","","<div class = 'row'><div class = 'column'><img src = 'usneg/9330.bmp' width = '100%;'></div><div class = 'column'><img src = 'category2/CS4.png' width = '70%;'></div></div>","null","neg","CS","CS","2","category2/CS4.png","","","","",""
"","survey-html-form","68","302586","0.0-6.0-5.0","v9yb3nf2px","one_one","1","indirect_first","0","nnelin12","0","29","1","1","3","1","Man erkennt einige der chinesichen Zeichen in der Skalen-Abfrage wieder und erinnert sich automatisch an die zuvor hier zugeordneten Fotos. Das verhindert eine ""intuitive"" Entscheidung, weil man weiß, was jetzt ""erwartet"" wird.","0","1","0","6128.280000004452","","{}","","","","","","","","","","","",""
"","html-keyboard-response","69","306596","0.0-6.0-6.0-0.0","v9yb3nf2px","one_one","1","indirect_first","0","nnelin12","0","29","1","1","3","1","Man erkennt einige der chinesichen Zeichen in der Skalen-Abfrage wieder und erinnert sich automatisch an die zuvor hier zugeordneten Fotos. Das verhindert eine ""intuitive"" Entscheidung, weil man weiß, was jetzt ""erwartet"" wird.","0","1","0","null","","","<div class = 'row'><div class = 'column'><img src = 'uspos/8080.bmp' width = '100%;'></div><div class = 'column'><img src = 'category3/CS1.png' width = '70%;'></div></div>","null","pos","CS","CS","3","category3/CS1.png","","","","",""
"","html-keyboard-response","70","309108","0.0-6.0-6.0-0.1","v9yb3nf2px","one_one","1","indirect_first","0","nnelin12","0","29","1","1","3","1","Man erkennt einige der chinesichen Zeichen in der Skalen-Abfrage wieder und erinnert sich automatisch an die zuvor hier zugeordneten Fotos. Das verhindert eine ""intuitive"" Entscheidung, weil man weiß, was jetzt ""erwartet"" wird.","0","1","0","null","","","<div class = 'row'><div class = 'column'><img src = 'usneg/9182.bmp' width = '100%;'></div><div class = 'column'><img src = 'category4/CS10.png' width = '70%;'></div></div>","null","neg","CS","CS","4","category4/CS10.png","","","","",""
"","html-keyboard-response","71","311620","0.0-6.0-6.0-0.2","v9yb3nf2px","one_one","1","indirect_first","0","nnelin12","0","29","1","1","3","1","Man erkennt einige der chinesichen Zeichen in der Skalen-Abfrage wieder und erinnert sich automatisch an die zuvor hier zugeordneten Fotos. Das verhindert eine ""intuitive"" Entscheidung, weil man weiß, was jetzt ""erwartet"" wird.","0","1","0","null","","","<div class = 'row'><div class = 'column'><img src = 'category3/CS1.png' width = '70%;'></div><div class = 'column'><img src = 'uspos/8080.bmp' width = '100%;'></div></div>","null","pos","CS","CS","3","category3/CS1.png","","","","",""
"","html-keyboard-response","72","314128","0.0-6.0-6.0-0.3","v9yb3nf2px","one_one","1","indirect_first","0","nnelin12","0","29","1","1","3","1","Man erkennt einige der chinesichen Zeichen in der Skalen-Abfrage wieder und erinnert sich automatisch an die zuvor hier zugeordneten Fotos. Das verhindert eine ""intuitive"" Entscheidung, weil man weiß, was jetzt ""erwartet"" wird.","0","1","0","null","","","<div class = 'row'><div class = 'column'><img src = 'category1/CS1.png' width = '70%;'></div><div class = 'column'><img src = 'uspos/2208.bmp' width = '100%;'></div></div>","null","pos","CS","CS","1","category1/CS1.png","","","","",""
"","html-keyboard-response","73","316637","0.0-6.0-6.0-0.4","v9yb3nf2px","one_one","1","indirect_first","0","nnelin12","0","29","1","1","3","1","Man erkennt einige der chinesichen Zeichen in der Skalen-Abfrage wieder und erinnert sich automatisch an die zuvor hier zugeordneten Fotos. Das verhindert eine ""intuitive"" Entscheidung, weil man weiß, was jetzt ""erwartet"" wird.","0","1","0","null","","","<div class = 'row'><div class = 'column'><img src = 'category4/CS10.png' width = '70%;'></div><div class = 'column'><img src = 'usneg/9182.bmp' width = '100%;'></div></div>","null","neg","CS","CS","4","category4/CS10.png","","","","",""
"","html-keyboard-response","74","319146","0.0-6.0-6.0-0.5","v9yb3nf2px","one_one","1","indirect_first","0","nnelin12","0","29","1","1","3","1","Man erkennt einige der chinesichen Zeichen in der Skalen-Abfrage wieder und erinnert sich automatisch an die zuvor hier zugeordneten Fotos. Das verhindert eine ""intuitive"" Entscheidung, weil man weiß, was jetzt ""erwartet"" wird.","0","1","0","null","","","<div class = 'row'><div class = 'column'><img src = 'uspos/2208.bmp' width = '100%;'></div><div class = 'column'><img src = 'category1/CS1.png' width = '70%;'></div></div>","null","pos","CS","CS","1","category1/CS1.png","","","","",""
"","html-keyboard-response","75","321658","0.0-6.0-6.0-0.6","v9yb3nf2px","one_one","1","indirect_first","0","nnelin12","0","29","1","1","3","1","Man erkennt einige der chinesichen Zeichen in der Skalen-Abfrage wieder und erinnert sich automatisch an die zuvor hier zugeordneten Fotos. Das verhindert eine ""intuitive"" Entscheidung, weil man weiß, was jetzt ""erwartet"" wird.","0","1","0","null","","","<div class = 'row'><div class = 'column'><img src = 'usneg/9330.bmp' width = '100%;'></div><div class = 'column'><img src = 'category2/CS4.png' width = '70%;'></div></div>","null","neg","CS","CS","2","category2/CS4.png","","","","",""
"","html-keyboard-response","76","324170","0.0-6.0-6.0-0.7","v9yb3nf2px","one_one","1","indirect_first","0","nnelin12","0","29","1","1","3","1","Man erkennt einige der chinesichen Zeichen in der Skalen-Abfrage wieder und erinnert sich automatisch an die zuvor hier zugeordneten Fotos. Das verhindert eine ""intuitive"" Entscheidung, weil man weiß, was jetzt ""erwartet"" wird.","0","1","0","null","","","<div class = 'row'><div class = 'column'><img src = 'category4/CS10.png' width = '70%;'></div><div class = 'column'><img src = 'usneg/9182.bmp' width = '100%;'></div></div>","null","neg","CS","CS","4","category4/CS10.png","","","","",""
"","html-keyboard-response","77","326682","0.0-6.0-6.0-0.8","v9yb3nf2px","one_one","1","indirect_first","0","nnelin12","0","29","1","1","3","1","Man erkennt einige der chinesichen Zeichen in der Skalen-Abfrage wieder und erinnert sich automatisch an die zuvor hier zugeordneten Fotos. Das verhindert eine ""intuitive"" Entscheidung, weil man weiß, was jetzt ""erwartet"" wird.","0","1","0","null","","","<div class = 'row'><div class = 'column'><img src = 'uspos/8080.bmp' width = '100%;'></div><div class = 'column'><img src = 'category3/CS1.png' width = '70%;'></div></div>","null","pos","CS","CS","3","category3/CS1.png","","","","",""
"","html-keyboard-response","78","329194","0.0-6.0-6.0-0.9","v9yb3nf2px","one_one","1","indirect_first","0","nnelin12","0","29","1","1","3","1","Man erkennt einige der chinesichen Zeichen in der Skalen-Abfrage wieder und erinnert sich automatisch an die zuvor hier zugeordneten Fotos. Das verhindert eine ""intuitive"" Entscheidung, weil man weiß, was jetzt ""erwartet"" wird.","0","1","0","null","","","<div class = 'row'><div class = 'column'><img src = 'category1/CS1.png' width = '70%;'></div><div class = 'column'><img src = 'uspos/2208.bmp' width = '100%;'></div></div>","null","pos","CS","CS","1","category1/CS1.png","","","","",""
"","html-keyboard-response","79","331706","0.0-6.0-6.0-0.10","v9yb3nf2px","one_one","1","indirect_first","0","nnelin12","0","29","1","1","3","1","Man erkennt einige der chinesichen Zeichen in der Skalen-Abfrage wieder und erinnert sich automatisch an die zuvor hier zugeordneten Fotos. Das verhindert eine ""intuitive"" Entscheidung, weil man weiß, was jetzt ""erwartet"" wird.","0","1","0","null","","","<div class = 'row'><div class = 'column'><img src = 'usneg/9330.bmp' width = '100%;'></div><div class = 'column'><img src = 'category2/CS4.png' width = '70%;'></div></div>","null","neg","CS","CS","2","category2/CS4.png","","","","",""
"","html-keyboard-response","80","334218","0.0-6.0-6.0-0.11","v9yb3nf2px","one_one","1","indirect_first","0","nnelin12","0","29","1","1","3","1","Man erkennt einige der chinesichen Zeichen in der Skalen-Abfrage wieder und erinnert sich automatisch an die zuvor hier zugeordneten Fotos. Das verhindert eine ""intuitive"" Entscheidung, weil man weiß, was jetzt ""erwartet"" wird.","0","1","0","null","","","<div class = 'row'><div class = 'column'><img src = 'usneg/9182.bmp' width = '100%;'></div><div class = 'column'><img src = 'category4/CS10.png' width = '70%;'></div></div>","null","neg","CS","CS","4","category4/CS10.png","","","","",""
"","html-keyboard-response","81","336731","0.0-6.0-6.0-0.12","v9yb3nf2px","one_one","1","indirect_first","0","nnelin12","0","29","1","1","3","1","Man erkennt einige der chinesichen Zeichen in der Skalen-Abfrage wieder und erinnert sich automatisch an die zuvor hier zugeordneten Fotos. Das verhindert eine ""intuitive"" Entscheidung, weil man weiß, was jetzt ""erwartet"" wird.","0","1","0","null","","","<div class = 'row'><div class = 'column'><img src = 'uspos/2208.bmp' width = '100%;'></div><div class = 'column'><img src = 'category1/CS1.png' width = '70%;'></div></div>","null","pos","CS","CS","1","category1/CS1.png","","","","",""
"","html-keyboard-response","82","339243","0.0-6.0-6.0-0.13","v9yb3nf2px","one_one","1","indirect_first","0","nnelin12","0","29","1","1","3","1","Man erkennt einige der chinesichen Zeichen in der Skalen-Abfrage wieder und erinnert sich automatisch an die zuvor hier zugeordneten Fotos. Das verhindert eine ""intuitive"" Entscheidung, weil man weiß, was jetzt ""erwartet"" wird.","0","1","0","null","","","<div class = 'row'><div class = 'column'><img src = 'category3/CS1.png' width = '70%;'></div><div class = 'column'><img src = 'uspos/8080.bmp' width = '100%;'></div></div>","null","pos","CS","CS","3","category3/CS1.png","","","","",""
"","html-keyboard-response","83","341755","0.0-6.0-6.0-0.14","v9yb3nf2px","one_one","1","indirect_first","0","nnelin12","0","29","1","1","3","1","Man erkennt einige der chinesichen Zeichen in der Skalen-Abfrage wieder und erinnert sich automatisch an die zuvor hier zugeordneten Fotos. Das verhindert eine ""intuitive"" Entscheidung, weil man weiß, was jetzt ""erwartet"" wird.","0","1","0","null","","","<div class = 'row'><div class = 'column'><img src = 'category2/CS4.png' width = '70%;'></div><div class = 'column'><img src = 'usneg/9330.bmp' width = '100%;'></div></div>","null","neg","CS","CS","2","category2/CS4.png","","","","",""
"","html-keyboard-response","84","344265","0.0-6.0-6.0-0.15","v9yb3nf2px","one_one","1","indirect_first","0","nnelin12","0","29","1","1","3","1","Man erkennt einige der chinesichen Zeichen in der Skalen-Abfrage wieder und erinnert sich automatisch an die zuvor hier zugeordneten Fotos. Das verhindert eine ""intuitive"" Entscheidung, weil man weiß, was jetzt ""erwartet"" wird.","0","1","0","null","","","<div class = 'row'><div class = 'column'><img src = 'usneg/9182.bmp' width = '100%;'></div><div class = 'column'><img src = 'category4/CS10.png' width = '70%;'></div></div>","null","neg","CS","CS","4","category4/CS10.png","","","","",""
"","html-keyboard-response","85","346777","0.0-6.0-6.0-0.16","v9yb3nf2px","one_one","1","indirect_first","0","nnelin12","0","29","1","1","3","1","Man erkennt einige der chinesichen Zeichen in der Skalen-Abfrage wieder und erinnert sich automatisch an die zuvor hier zugeordneten Fotos. Das verhindert eine ""intuitive"" Entscheidung, weil man weiß, was jetzt ""erwartet"" wird.","0","1","0","null","","","<div class = 'row'><div class = 'column'><img src = 'usneg/9330.bmp' width = '100%;'></div><div class = 'column'><img src = 'category2/CS4.png' width = '70%;'></div></div>","null","neg","CS","CS","2","category2/CS4.png","","","","",""
"","html-keyboard-response","86","349289","0.0-6.0-6.0-0.17","v9yb3nf2px","one_one","1","indirect_first","0","nnelin12","0","29","1","1","3","1","Man erkennt einige der chinesichen Zeichen in der Skalen-Abfrage wieder und erinnert sich automatisch an die zuvor hier zugeordneten Fotos. Das verhindert eine ""intuitive"" Entscheidung, weil man weiß, was jetzt ""erwartet"" wird.","0","1","0","null","","","<div class = 'row'><div class = 'column'><img src = 'category3/CS1.png' width = '70%;'></div><div class = 'column'><img src = 'uspos/8080.bmp' width = '100%;'></div></div>","null","pos","CS","CS","3","category3/CS1.png","","","","",""
"","html-keyboard-response","87","351801","0.0-6.0-6.0-0.18","v9yb3nf2px","one_one","1","indirect_first","0","nnelin12","0","29","1","1","3","1","Man erkennt einige der chinesichen Zeichen in der Skalen-Abfrage wieder und erinnert sich automatisch an die zuvor hier zugeordneten Fotos. Das verhindert eine ""intuitive"" Entscheidung, weil man weiß, was jetzt ""erwartet"" wird.","0","1","0","null","","","<div class = 'row'><div class = 'column'><img src = 'category1/CS1.png' width = '70%;'></div><div class = 'column'><img src = 'uspos/2208.bmp' width = '100%;'></div></div>","null","pos","CS","CS","1","category1/CS1.png","","","","",""
"","html-keyboard-response","88","354311","0.0-6.0-6.0-0.19","v9yb3nf2px","one_one","1","indirect_first","0","nnelin12","0","29","1","1","3","1","Man erkennt einige der chinesichen Zeichen in der Skalen-Abfrage wieder und erinnert sich automatisch an die zuvor hier zugeordneten Fotos. Das verhindert eine ""intuitive"" Entscheidung, weil man weiß, was jetzt ""erwartet"" wird.","0","1","0","null","","","<div class = 'row'><div class = 'column'><img src = 'usneg/9330.bmp' width = '100%;'></div><div class = 'column'><img src = 'category2/CS4.png' width = '70%;'></div></div>","null","neg","CS","CS","2","category2/CS4.png","","","","",""
"","html-keyboard-response","89","400783","0.0-7.0","v9yb3nf2px","one_one","1","indirect_first","0","nnelin12","0","29","1","1","3","1","Man erkennt einige der chinesichen Zeichen in der Skalen-Abfrage wieder und erinnert sich automatisch an die zuvor hier zugeordneten Fotos. Das verhindert eine ""intuitive"" Entscheidung, weil man weiß, was jetzt ""erwartet"" wird.","0","1","0","45965.71500005666","","","<p>Sie sehen nun die chinesischen Zeichen nur ganz kurz. Danach sehen Sie die jeweilige Aussprache der Zeichen als Silbe auf dem Bildschrim. Ihre Aufgabe ist es, für jede Silbe anzugeben, ob diese etwas angenehmes, oder unangenehmes bedeuten könnte. Verlassen Sie sich hier vor allem auf Ihre Intuition.<br><br>Die Zeichen werden nur zur Orientierung dargestellt, beachten Sie sie deshalb nicht. Konzentrieren Sie sich vor allem auf die Silben. <br>Reagieren Sie mit folgenden zwei Tasten: <br><br><b>'D' </b> wenn die Silbe etwas <b>unangenehmes</b> bedeuten könnte. <br><b>'K'</b> wenn die Silbe etwas <b>angenehmes</b> bedeuten könnte. <br><br>Bitte legen Sie nun den Zeigefinger der linken Hand auf die Taste 'D' und den Zeigefinger der rechten Hand auf die Taste 'K'. <br>Reagieren Sie auf jede Silbe so schnell wie möglich. Uns interessiert Ihre spontane Reaktion. <br> <br> <br>Drücken Sie 'D' oder 'K', um die nächste Aufgabe zu starten. </p>","75","","","","","","","","","",""
"","html-keyboard-response","90","403788","0.0-8.0-0.0","v9yb3nf2px","one_one","1","indirect_first","0","nnelin12","0","29","1","1","3","1","Man erkennt einige der chinesichen Zeichen in der Skalen-Abfrage wieder und erinnert sich automatisch an die zuvor hier zugeordneten Fotos. Das verhindert eine ""intuitive"" Entscheidung, weil man weiß, was jetzt ""erwartet"" wird.","0","1","0","null","","","<div style=""font-size:60px;"">+</div>","null","","","","","","","","","",""
"","html-keyboard-response","91","403884","0.0-8.0-1.0","v9yb3nf2px","one_one","1","indirect_first","0","nnelin12","0","29","1","1","3","1","Man erkennt einige der chinesichen Zeichen in der Skalen-Abfrage wieder und erinnert sich automatisch an die zuvor hier zugeordneten Fotos. Das verhindert eine ""intuitive"" Entscheidung, weil man weiß, was jetzt ""erwartet"" wird.","0","1","0","null","","","<img src = 'category3/CS6.png' width = '100%;'>","null","","","","","","","","","",""
"","html-keyboard-response","92","404141","0.0-8.0-2.0","v9yb3nf2px","one_one","1","indirect_first","0","nnelin12","0","29","1","1","3","1","Man erkennt einige der chinesichen Zeichen in der Skalen-Abfrage wieder und erinnert sich automatisch an die zuvor hier zugeordneten Fotos. Das verhindert eine ""intuitive"" Entscheidung, weil man weiß, was jetzt ""erwartet"" wird.","0","1","0","null","","","<img src = 'targets/40.png' width = '100%;'>","null","","","","","","","","","",""
"","html-keyboard-response","93","414979","0.0-8.0-3.0","v9yb3nf2px","one_one","1","indirect_first","0","nnelin12","0","29","1","1","3","1","Man erkennt einige der chinesichen Zeichen in der Skalen-Abfrage wieder und erinnert sich automatisch an die zuvor hier zugeordneten Fotos. Das verhindert eine ""intuitive"" Entscheidung, weil man weiß, was jetzt ""erwartet"" wird.","0","1","0","10836.77999995416","","","<img src = 'targets/mask.png' width = '100%;'>","75","pos","GS","GSold","3","category3/CS6.png","targets/40.png","1","indirect","0",""
"","html-keyboard-response","94","416489","0.0-8.0-0.1","v9yb3nf2px","one_one","1","indirect_first","0","nnelin12","0","29","1","1","3","1","Man erkennt einige der chinesichen Zeichen in der Skalen-Abfrage wieder und erinnert sich automatisch an die zuvor hier zugeordneten Fotos. Das verhindert eine ""intuitive"" Entscheidung, weil man weiß, was jetzt ""erwartet"" wird.","0","1","0","null","","","<div style=""font-size:60px;"">+</div>","null","","","","","","","","","",""
"","html-keyboard-response","95","416581","0.0-8.0-1.1","v9yb3nf2px","one_one","1","indirect_first","0","nnelin12","0","29","1","1","3","1","Man erkennt einige der chinesichen Zeichen in der Skalen-Abfrage wieder und erinnert sich automatisch an die zuvor hier zugeordneten Fotos. Das verhindert eine ""intuitive"" Entscheidung, weil man weiß, was jetzt ""erwartet"" wird.","0","1","0","null","","","<img src = 'category2/CS4.png' width = '100%;'>","null","","","","","","","","","",""
"","html-keyboard-response","96","416837","0.0-8.0-2.1","v9yb3nf2px","one_one","1","indirect_first","0","nnelin12","0","29","1","1","3","1","Man erkennt einige der chinesichen Zeichen in der Skalen-Abfrage wieder und erinnert sich automatisch an die zuvor hier zugeordneten Fotos. Das verhindert eine ""intuitive"" Entscheidung, weil man weiß, was jetzt ""erwartet"" wird.","0","1","0","null","","","<img src = 'targets/28.png' width = '100%;'>","null","","","","","","","","","",""
"","html-keyboard-response","97","421102","0.0-8.0-3.1","v9yb3nf2px","one_one","1","indirect_first","0","nnelin12","0","29","1","1","3","1","Man erkennt einige der chinesichen Zeichen in der Skalen-Abfrage wieder und erinnert sich automatisch an die zuvor hier zugeordneten Fotos. Das verhindert eine ""intuitive"" Entscheidung, weil man weiß, was jetzt ""erwartet"" wird.","0","1","0","4263.885000022128","","","<img src = 'targets/mask.png' width = '100%;'>","75","neg","CS","CS","2","category2/CS4.png","targets/28.png","1","indirect","1",""
"","html-keyboard-response","98","422611","0.0-8.0-0.2","v9yb3nf2px","one_one","1","indirect_first","0","nnelin12","0","29","1","1","3","1","Man erkennt einige der chinesichen Zeichen in der Skalen-Abfrage wieder und erinnert sich automatisch an die zuvor hier zugeordneten Fotos. Das verhindert eine ""intuitive"" Entscheidung, weil man weiß, was jetzt ""erwartet"" wird.","0","1","0","null","","","<div style=""font-size:60px;"">+</div>","null","","","","","","","","","",""
"","html-keyboard-response","99","422707","0.0-8.0-1.2","v9yb3nf2px","one_one","1","indirect_first","0","nnelin12","0","29","1","1","3","1","Man erkennt einige der chinesichen Zeichen in der Skalen-Abfrage wieder und erinnert sich automatisch an die zuvor hier zugeordneten Fotos. Das verhindert eine ""intuitive"" Entscheidung, weil man weiß, was jetzt ""erwartet"" wird.","0","1","0","null","","","<img src = 'category1/CS8.png' width = '100%;'>","null","","","","","","","","","",""
"","html-keyboard-response","100","422968","0.0-8.0-2.2","v9yb3nf2px","one_one","1","indirect_first","0","nnelin12","0","29","1","1","3","1","Man erkennt einige der chinesichen Zeichen in der Skalen-Abfrage wieder und erinnert sich automatisch an die zuvor hier zugeordneten Fotos. Das verhindert eine ""intuitive"" Entscheidung, weil man weiß, was jetzt ""erwartet"" wird.","0","1","0","null","","","<img src = 'targets/36.png' width = '100%;'>","null","","","","","","","","","",""
"","html-keyboard-response","101","424118","0.0-8.0-3.2","v9yb3nf2px","one_one","1","indirect_first","0","nnelin12","0","29","1","1","3","1","Man erkennt einige der chinesichen Zeichen in der Skalen-Abfrage wieder und erinnert sich automatisch an die zuvor hier zugeordneten Fotos. Das verhindert eine ""intuitive"" Entscheidung, weil man weiß, was jetzt ""erwartet"" wird.","0","1","0","1148.6849999637343","","","<img src = 'targets/mask.png' width = '100%;'>","68","pos","GS","GSold","1","category1/CS8.png","targets/36.png","0","indirect","2",""
"","html-keyboard-response","102","425624","0.0-8.0-0.3","v9yb3nf2px","one_one","1","indirect_first","0","nnelin12","0","29","1","1","3","1","Man erkennt einige der chinesichen Zeichen in der Skalen-Abfrage wieder und erinnert sich automatisch an die zuvor hier zugeordneten Fotos. Das verhindert eine ""intuitive"" Entscheidung, weil man weiß, was jetzt ""erwartet"" wird.","0","1","0","null","","","<div style=""font-size:60px;"">+</div>","null","","","","","","","","","",""
"","html-keyboard-response","103","425719","0.0-8.0-1.3","v9yb3nf2px","one_one","1","indirect_first","0","nnelin12","0","29","1","1","3","1","Man erkennt einige der chinesichen Zeichen in der Skalen-Abfrage wieder und erinnert sich automatisch an die zuvor hier zugeordneten Fotos. Das verhindert eine ""intuitive"" Entscheidung, weil man weiß, was jetzt ""erwartet"" wird.","0","1","0","null","","","<img src = 'category1/CS4.png' width = '100%;'>","null","","","","","","","","","",""
"","html-keyboard-response","104","425977","0.0-8.0-2.3","v9yb3nf2px","one_one","1","indirect_first","0","nnelin12","0","29","1","1","3","1","Man erkennt einige der chinesichen Zeichen in der Skalen-Abfrage wieder und erinnert sich automatisch an die zuvor hier zugeordneten Fotos. Das verhindert eine ""intuitive"" Entscheidung, weil man weiß, was jetzt ""erwartet"" wird.","0","1","0","null","","","<img src = 'targets/20.png' width = '100%;'>","null","","","","","","","","","",""
"","html-keyboard-response","105","427286","0.0-8.0-3.3","v9yb3nf2px","one_one","1","indirect_first","0","nnelin12","0","29","1","1","3","1","Man erkennt einige der chinesichen Zeichen in der Skalen-Abfrage wieder und erinnert sich automatisch an die zuvor hier zugeordneten Fotos. Das verhindert eine ""intuitive"" Entscheidung, weil man weiß, was jetzt ""erwartet"" wird.","0","1","0","1308.06999997003","","","<img src = 'targets/mask.png' width = '100%;'>","75","pos","GS","GSold","1","category1/CS4.png","targets/20.png","1","indirect","3",""
"","html-keyboard-response","106","428797","0.0-8.0-0.4","v9yb3nf2px","one_one","1","indirect_first","0","nnelin12","0","29","1","1","3","1","Man erkennt einige der chinesichen Zeichen in der Skalen-Abfrage wieder und erinnert sich automatisch an die zuvor hier zugeordneten Fotos. Das verhindert eine ""intuitive"" Entscheidung, weil man weiß, was jetzt ""erwartet"" wird.","0","1","0","null","","","<div style=""font-size:60px;"">+</div>","null","","","","","","","","","",""
"","html-keyboard-response","107","428892","0.0-8.0-1.4","v9yb3nf2px","one_one","1","indirect_first","0","nnelin12","0","29","1","1","3","1","Man erkennt einige der chinesichen Zeichen in der Skalen-Abfrage wieder und erinnert sich automatisch an die zuvor hier zugeordneten Fotos. Das verhindert eine ""intuitive"" Entscheidung, weil man weiß, was jetzt ""erwartet"" wird.","0","1","0","null","","","<img src = 'category3/CS3.png' width = '100%;'>","null","","","","","","","","","",""
"","html-keyboard-response","108","429145","0.0-8.0-2.4","v9yb3nf2px","one_one","1","indirect_first","0","nnelin12","0","29","1","1","3","1","Man erkennt einige der chinesichen Zeichen in der Skalen-Abfrage wieder und erinnert sich automatisch an die zuvor hier zugeordneten Fotos. Das verhindert eine ""intuitive"" Entscheidung, weil man weiß, was jetzt ""erwartet"" wird.","0","1","0","null","","","<img src = 'targets/21.png' width = '100%;'>","null","","","","","","","","","",""
"","html-keyboard-response","109","430246","0.0-8.0-3.4","v9yb3nf2px","one_one","1","indirect_first","0","nnelin12","0","29","1","1","3","1","Man erkennt einige der chinesichen Zeichen in der Skalen-Abfrage wieder und erinnert sich automatisch an die zuvor hier zugeordneten Fotos. Das verhindert eine ""intuitive"" Entscheidung, weil man weiß, was jetzt ""erwartet"" wird.","0","1","0","1100.2500000176951","","","<img src = 'targets/mask.png' width = '100%;'>","75","pos","GS","GSold","3","category3/CS3.png","targets/21.png","1","indirect","4",""
"","html-keyboard-response","110","431757","0.0-8.0-0.5","v9yb3nf2px","one_one","1","indirect_first","0","nnelin12","0","29","1","1","3","1","Man erkennt einige der chinesichen Zeichen in der Skalen-Abfrage wieder und erinnert sich automatisch an die zuvor hier zugeordneten Fotos. Das verhindert eine ""intuitive"" Entscheidung, weil man weiß, was jetzt ""erwartet"" wird.","0","1","0","null","","","<div style=""font-size:60px;"">+</div>","null","","","","","","","","","",""
"","html-keyboard-response","111","431851","0.0-8.0-1.5","v9yb3nf2px","one_one","1","indirect_first","0","nnelin12","0","29","1","1","3","1","Man erkennt einige der chinesichen Zeichen in der Skalen-Abfrage wieder und erinnert sich automatisch an die zuvor hier zugeordneten Fotos. Das verhindert eine ""intuitive"" Entscheidung, weil man weiß, was jetzt ""erwartet"" wird.","0","1","0","null","","","<img src = 'category2/CS10.png' width = '100%;'>","null","","","","","","","","","",""
"","html-keyboard-response","112","432112","0.0-8.0-2.5","v9yb3nf2px","one_one","1","indirect_first","0","nnelin12","0","29","1","1","3","1","Man erkennt einige der chinesichen Zeichen in der Skalen-Abfrage wieder und erinnert sich automatisch an die zuvor hier zugeordneten Fotos. Das verhindert eine ""intuitive"" Entscheidung, weil man weiß, was jetzt ""erwartet"" wird.","0","1","0","null","","","<img src = 'targets/46.png' width = '100%;'>","null","","","","","","","","","",""
"","html-keyboard-response","113","433030","0.0-8.0-3.5","v9yb3nf2px","one_one","1","indirect_first","0","nnelin12","0","29","1","1","3","1","Man erkennt einige der chinesichen Zeichen in der Skalen-Abfrage wieder und erinnert sich automatisch an die zuvor hier zugeordneten Fotos. Das verhindert eine ""intuitive"" Entscheidung, weil man weiß, was jetzt ""erwartet"" wird.","0","1","0","917.5099999993108","","","<img src = 'targets/mask.png' width = '100%;'>","75","neg","GS","GSold","2","category2/CS10.png","targets/46.png","1","indirect","5",""
"","html-keyboard-response","114","434541","0.0-8.0-0.6","v9yb3nf2px","one_one","1","indirect_first","0","nnelin12","0","29","1","1","3","1","Man erkennt einige der chinesichen Zeichen in der Skalen-Abfrage wieder und erinnert sich automatisch an die zuvor hier zugeordneten Fotos. Das verhindert eine ""intuitive"" Entscheidung, weil man weiß, was jetzt ""erwartet"" wird.","0","1","0","null","","","<div style=""font-size:60px;"">+</div>","null","","","","","","","","","",""
"","html-keyboard-response","115","434637","0.0-8.0-1.6","v9yb3nf2px","one_one","1","indirect_first","0","nnelin12","0","29","1","1","3","1","Man erkennt einige der chinesichen Zeichen in der Skalen-Abfrage wieder und erinnert sich automatisch an die zuvor hier zugeordneten Fotos. Das verhindert eine ""intuitive"" Entscheidung, weil man weiß, was jetzt ""erwartet"" wird.","0","1","0","null","","","<img src = 'category4/CS2.png' width = '100%;'>","null","","","","","","","","","",""
"","html-keyboard-response","116","434898","0.0-8.0-2.6","v9yb3nf2px","one_one","1","indirect_first","0","nnelin12","0","29","1","1","3","1","Man erkennt einige der chinesichen Zeichen in der Skalen-Abfrage wieder und erinnert sich automatisch an die zuvor hier zugeordneten Fotos. Das verhindert eine ""intuitive"" Entscheidung, weil man weiß, was jetzt ""erwartet"" wird.","0","1","0","null","","","<img src = 'targets/1.png' width = '100%;'>","null","","","","","","","","","",""
"","html-keyboard-response","117","435710","0.0-8.0-3.6","v9yb3nf2px","one_one","1","indirect_first","0","nnelin12","0","29","1","1","3","1","Man erkennt einige der chinesichen Zeichen in der Skalen-Abfrage wieder und erinnert sich automatisch an die zuvor hier zugeordneten Fotos. Das verhindert eine ""intuitive"" Entscheidung, weil man weiß, was jetzt ""erwartet"" wird.","0","1","0","811.3749999902211","","","<img src = 'targets/mask.png' width = '100%;'>","68","neg","GS","GSold","4","category4/CS2.png","targets/1.png","0","indirect","6",""
"","html-keyboard-response","118","437217","0.0-8.0-0.7","v9yb3nf2px","one_one","1","indirect_first","0","nnelin12","0","29","1","1","3","1","Man erkennt einige der chinesichen Zeichen in der Skalen-Abfrage wieder und erinnert sich automatisch an die zuvor hier zugeordneten Fotos. Das verhindert eine ""intuitive"" Entscheidung, weil man weiß, was jetzt ""erwartet"" wird.","0","1","0","null","","","<div style=""font-size:60px;"">+</div>","null","","","","","","","","","",""
"","html-keyboard-response","119","437312","0.0-8.0-1.7","v9yb3nf2px","one_one","1","indirect_first","0","nnelin12","0","29","1","1","3","1","Man erkennt einige der chinesichen Zeichen in der Skalen-Abfrage wieder und erinnert sich automatisch an die zuvor hier zugeordneten Fotos. Das verhindert eine ""intuitive"" Entscheidung, weil man weiß, was jetzt ""erwartet"" wird.","0","1","0","null","","","<img src = 'category2/CS2.png' width = '100%;'>","null","","","","","","","","","",""
"","html-keyboard-response","120","437570","0.0-8.0-2.7","v9yb3nf2px","one_one","1","indirect_first","0","nnelin12","0","29","1","1","3","1","Man erkennt einige der chinesichen Zeichen in der Skalen-Abfrage wieder und erinnert sich automatisch an die zuvor hier zugeordneten Fotos. Das verhindert eine ""intuitive"" Entscheidung, weil man weiß, was jetzt ""erwartet"" wird.","0","1","0","null","","","<img src = 'targets/15.png' width = '100%;'>","null","","","","","","","","","",""
"","html-keyboard-response","121","438894","0.0-8.0-3.7","v9yb3nf2px","one_one","1","indirect_first","0","nnelin12","0","29","1","1","3","1","Man erkennt einige der chinesichen Zeichen in der Skalen-Abfrage wieder und erinnert sich automatisch an die zuvor hier zugeordneten Fotos. Das verhindert eine ""intuitive"" Entscheidung, weil man weiß, was jetzt ""erwartet"" wird.","0","1","0","1323.3849999960512","","","<img src = 'targets/mask.png' width = '100%;'>","68","neg","GS","GSold","2","category2/CS2.png","targets/15.png","0","indirect","7",""
"","html-keyboard-response","122","440404","0.0-8.0-0.8","v9yb3nf2px","one_one","1","indirect_first","0","nnelin12","0","29","1","1","3","1","Man erkennt einige der chinesichen Zeichen in der Skalen-Abfrage wieder und erinnert sich automatisch an die zuvor hier zugeordneten Fotos. Das verhindert eine ""intuitive"" Entscheidung, weil man weiß, was jetzt ""erwartet"" wird.","0","1","0","null","","","<div style=""font-size:60px;"">+</div>","null","","","","","","","","","",""
"","html-keyboard-response","123","440501","0.0-8.0-1.8","v9yb3nf2px","one_one","1","indirect_first","0","nnelin12","0","29","1","1","3","1","Man erkennt einige der chinesichen Zeichen in der Skalen-Abfrage wieder und erinnert sich automatisch an die zuvor hier zugeordneten Fotos. Das verhindert eine ""intuitive"" Entscheidung, weil man weiß, was jetzt ""erwartet"" wird.","0","1","0","null","","","<img src = 'category2/CS6.png' width = '100%;'>","null","","","","","","","","","",""
"","html-keyboard-response","124","440763","0.0-8.0-2.8","v9yb3nf2px","one_one","1","indirect_first","0","nnelin12","0","29","1","1","3","1","Man erkennt einige der chinesichen Zeichen in der Skalen-Abfrage wieder und erinnert sich automatisch an die zuvor hier zugeordneten Fotos. Das verhindert eine ""intuitive"" Entscheidung, weil man weiß, was jetzt ""erwartet"" wird.","0","1","0","null","","","<img src = 'targets/25.png' width = '100%;'>","null","","","","","","","","","",""
"","html-keyboard-response","125","441742","0.0-8.0-3.8","v9yb3nf2px","one_one","1","indirect_first","0","nnelin12","0","29","1","1","3","1","Man erkennt einige der chinesichen Zeichen in der Skalen-Abfrage wieder und erinnert sich automatisch an die zuvor hier zugeordneten Fotos. Das verhindert eine ""intuitive"" Entscheidung, weil man weiß, was jetzt ""erwartet"" wird.","0","1","0","978.934999962803","","","<img src = 'targets/mask.png' width = '100%;'>","75","neg","GS","GSold","2","category2/CS6.png","targets/25.png","1","indirect","8",""
"","html-keyboard-response","126","443253","0.0-8.0-0.9","v9yb3nf2px","one_one","1","indirect_first","0","nnelin12","0","29","1","1","3","1","Man erkennt einige der chinesichen Zeichen in der Skalen-Abfrage wieder und erinnert sich automatisch an die zuvor hier zugeordneten Fotos. Das verhindert eine ""intuitive"" Entscheidung, weil man weiß, was jetzt ""erwartet"" wird.","0","1","0","null","","","<div style=""font-size:60px;"">+</div>","null","","","","","","","","","",""
"","html-keyboard-response","127","443349","0.0-8.0-1.9","v9yb3nf2px","one_one","1","indirect_first","0","nnelin12","0","29","1","1","3","1","Man erkennt einige der chinesichen Zeichen in der Skalen-Abfrage wieder und erinnert sich automatisch an die zuvor hier zugeordneten Fotos. Das verhindert eine ""intuitive"" Entscheidung, weil man weiß, was jetzt ""erwartet"" wird.","0","1","0","null","","","<img src = 'category1/CS6.png' width = '100%;'>","null","","","","","","","","","",""
"","html-keyboard-response","128","443610","0.0-8.0-2.9","v9yb3nf2px","one_one","1","indirect_first","0","nnelin12","0","29","1","1","3","1","Man erkennt einige der chinesichen Zeichen in der Skalen-Abfrage wieder und erinnert sich automatisch an die zuvor hier zugeordneten Fotos. Das verhindert eine ""intuitive"" Entscheidung, weil man weiß, was jetzt ""erwartet"" wird.","0","1","0","null","","","<img src = 'targets/39.png' width = '100%;'>","null","","","","","","","","","",""
"","html-keyboard-response","129","444478","0.0-8.0-3.9","v9yb3nf2px","one_one","1","indirect_first","0","nnelin12","0","29","1","1","3","1","Man erkennt einige der chinesichen Zeichen in der Skalen-Abfrage wieder und erinnert sich automatisch an die zuvor hier zugeordneten Fotos. Das verhindert eine ""intuitive"" Entscheidung, weil man weiß, was jetzt ""erwartet"" wird.","0","1","0","867.084999976214","","","<img src = 'targets/mask.png' width = '100%;'>","68","pos","GS","GSold","1","category1/CS6.png","targets/39.png","0","indirect","9",""
"","html-keyboard-response","130","445989","0.0-8.0-0.10","v9yb3nf2px","one_one","1","indirect_first","0","nnelin12","0","29","1","1","3","1","Man erkennt einige der chinesichen Zeichen in der Skalen-Abfrage wieder und erinnert sich automatisch an die zuvor hier zugeordneten Fotos. Das verhindert eine ""intuitive"" Entscheidung, weil man weiß, was jetzt ""erwartet"" wird.","0","1","0","null","","","<div style=""font-size:60px;"">+</div>","null","","","","","","","","","",""
"","html-keyboard-response","131","446085","0.0-8.0-1.10","v9yb3nf2px","one_one","1","indirect_first","0","nnelin12","0","29","1","1","3","1","Man erkennt einige der chinesichen Zeichen in der Skalen-Abfrage wieder und erinnert sich automatisch an die zuvor hier zugeordneten Fotos. Das verhindert eine ""intuitive"" Entscheidung, weil man weiß, was jetzt ""erwartet"" wird.","0","1","0","null","","","<img src = 'category4/CS10.png' width = '100%;'>","null","","","","","","","","","",""
"","html-keyboard-response","132","446346","0.0-8.0-2.10","v9yb3nf2px","one_one","1","indirect_first","0","nnelin12","0","29","1","1","3","1","Man erkennt einige der chinesichen Zeichen in der Skalen-Abfrage wieder und erinnert sich automatisch an die zuvor hier zugeordneten Fotos. Das verhindert eine ""intuitive"" Entscheidung, weil man weiß, was jetzt ""erwartet"" wird.","0","1","0","null","","","<img src = 'targets/29.png' width = '100%;'>","null","","","","","","","","","",""
"","html-keyboard-response","133","447949","0.0-8.0-3.10","v9yb3nf2px","one_one","1","indirect_first","0","nnelin12","0","29","1","1","3","1","Man erkennt einige der chinesichen Zeichen in der Skalen-Abfrage wieder und erinnert sich automatisch an die zuvor hier zugeordneten Fotos. Das verhindert eine ""intuitive"" Entscheidung, weil man weiß, was jetzt ""erwartet"" wird.","0","1","0","1601.6749999835156","","","<img src = 'targets/mask.png' width = '100%;'>","68","neg","CS","CS","4","category4/CS10.png","targets/29.png","0","indirect","10",""
"","html-keyboard-response","134","449458","0.0-8.0-0.11","v9yb3nf2px","one_one","1","indirect_first","0","nnelin12","0","29","1","1","3","1","Man erkennt einige der chinesichen Zeichen in der Skalen-Abfrage wieder und erinnert sich automatisch an die zuvor hier zugeordneten Fotos. Das verhindert eine ""intuitive"" Entscheidung, weil man weiß, was jetzt ""erwartet"" wird.","0","1","0","null","","","<div style=""font-size:60px;"">+</div>","null","","","","","","","","","",""
"","html-keyboard-response","135","449554","0.0-8.0-1.11","v9yb3nf2px","one_one","1","indirect_first","0","nnelin12","0","29","1","1","3","1","Man erkennt einige der chinesichen Zeichen in der Skalen-Abfrage wieder und erinnert sich automatisch an die zuvor hier zugeordneten Fotos. Das verhindert eine ""intuitive"" Entscheidung, weil man weiß, was jetzt ""erwartet"" wird.","0","1","0","null","","","<img src = 'category1/CS1.png' width = '100%;'>","null","","","","","","","","","",""
"","html-keyboard-response","136","449815","0.0-8.0-2.11","v9yb3nf2px","one_one","1","indirect_first","0","nnelin12","0","29","1","1","3","1","Man erkennt einige der chinesichen Zeichen in der Skalen-Abfrage wieder und erinnert sich automatisch an die zuvor hier zugeordneten Fotos. Das verhindert eine ""intuitive"" Entscheidung, weil man weiß, was jetzt ""erwartet"" wird.","0","1","0","null","","","<img src = 'targets/47.png' width = '100%;'>","null","","","","","","","","","",""
"","html-keyboard-response","137","450453","0.0-8.0-3.11","v9yb3nf2px","one_one","1","indirect_first","0","nnelin12","0","29","1","1","3","1","Man erkennt einige der chinesichen Zeichen in der Skalen-Abfrage wieder und erinnert sich automatisch an die zuvor hier zugeordneten Fotos. Das verhindert eine ""intuitive"" Entscheidung, weil man weiß, was jetzt ""erwartet"" wird.","0","1","0","636.4550000289455","","","<img src = 'targets/mask.png' width = '100%;'>","75","pos","CS","CS","1","category1/CS1.png","targets/47.png","1","indirect","11",""
"","html-keyboard-response","138","451961","0.0-8.0-0.12","v9yb3nf2px","one_one","1","indirect_first","0","nnelin12","0","29","1","1","3","1","Man erkennt einige der chinesichen Zeichen in der Skalen-Abfrage wieder und erinnert sich automatisch an die zuvor hier zugeordneten Fotos. Das verhindert eine ""intuitive"" Entscheidung, weil man weiß, was jetzt ""erwartet"" wird.","0","1","0","null","","","<div style=""font-size:60px;"">+</div>","null","","","","","","","","","",""
"","html-keyboard-response","139","452055","0.0-8.0-1.12","v9yb3nf2px","one_one","1","indirect_first","0","nnelin12","0","29","1","1","3","1","Man erkennt einige der chinesichen Zeichen in der Skalen-Abfrage wieder und erinnert sich automatisch an die zuvor hier zugeordneten Fotos. Das verhindert eine ""intuitive"" Entscheidung, weil man weiß, was jetzt ""erwartet"" wird.","0","1","0","null","","","<img src = 'category3/CS1.png' width = '100%;'>","null","","","","","","","","","",""
"","html-keyboard-response","140","452315","0.0-8.0-2.12","v9yb3nf2px","one_one","1","indirect_first","0","nnelin12","0","29","1","1","3","1","Man erkennt einige der chinesichen Zeichen in der Skalen-Abfrage wieder und erinnert sich automatisch an die zuvor hier zugeordneten Fotos. Das verhindert eine ""intuitive"" Entscheidung, weil man weiß, was jetzt ""erwartet"" wird.","0","1","0","null","","","<img src = 'targets/26.png' width = '100%;'>","null","","","","","","","","","",""
"","html-keyboard-response","141","454891","0.0-8.0-3.12","v9yb3nf2px","one_one","1","indirect_first","0","nnelin12","0","29","1","1","3","1","Man erkennt einige der chinesichen Zeichen in der Skalen-Abfrage wieder und erinnert sich automatisch an die zuvor hier zugeordneten Fotos. Das verhindert eine ""intuitive"" Entscheidung, weil man weiß, was jetzt ""erwartet"" wird.","0","1","0","2575.124999973923","","","<img src = 'targets/mask.png' width = '100%;'>","75","pos","CS","CS","3","category3/CS1.png","targets/26.png","1","indirect","12",""
"","html-keyboard-response","142","456402","0.0-8.0-0.13","v9yb3nf2px","one_one","1","indirect_first","0","nnelin12","0","29","1","1","3","1","Man erkennt einige der chinesichen Zeichen in der Skalen-Abfrage wieder und erinnert sich automatisch an die zuvor hier zugeordneten Fotos. Das verhindert eine ""intuitive"" Entscheidung, weil man weiß, was jetzt ""erwartet"" wird.","0","1","0","null","","","<div style=""font-size:60px;"">+</div>","null","","","","","","","","","",""
"","html-keyboard-response","143","456498","0.0-8.0-1.13","v9yb3nf2px","one_one","1","indirect_first","0","nnelin12","0","29","1","1","3","1","Man erkennt einige der chinesichen Zeichen in der Skalen-Abfrage wieder und erinnert sich automatisch an die zuvor hier zugeordneten Fotos. Das verhindert eine ""intuitive"" Entscheidung, weil man weiß, was jetzt ""erwartet"" wird.","0","1","0","null","","","<img src = 'category3/CS10.png' width = '100%;'>","null","","","","","","","","","",""
"","html-keyboard-response","144","456759","0.0-8.0-2.13","v9yb3nf2px","one_one","1","indirect_first","0","nnelin12","0","29","1","1","3","1","Man erkennt einige der chinesichen Zeichen in der Skalen-Abfrage wieder und erinnert sich automatisch an die zuvor hier zugeordneten Fotos. Das verhindert eine ""intuitive"" Entscheidung, weil man weiß, was jetzt ""erwartet"" wird.","0","1","0","null","","","<img src = 'targets/3.png' width = '100%;'>","null","","","","","","","","","",""
"","html-keyboard-response","145","457763","0.0-8.0-3.13","v9yb3nf2px","one_one","1","indirect_first","0","nnelin12","0","29","1","1","3","1","Man erkennt einige der chinesichen Zeichen in der Skalen-Abfrage wieder und erinnert sich automatisch an die zuvor hier zugeordneten Fotos. Das verhindert eine ""intuitive"" Entscheidung, weil man weiß, was jetzt ""erwartet"" wird.","0","1","0","1002.2699999972247","","","<img src = 'targets/mask.png' width = '100%;'>","75","pos","GS","GSold","3","category3/CS10.png","targets/3.png","1","indirect","13",""
"","html-keyboard-response","146","459271","0.0-8.0-0.14","v9yb3nf2px","one_one","1","indirect_first","0","nnelin12","0","29","1","1","3","1","Man erkennt einige der chinesichen Zeichen in der Skalen-Abfrage wieder und erinnert sich automatisch an die zuvor hier zugeordneten Fotos. Das verhindert eine ""intuitive"" Entscheidung, weil man weiß, was jetzt ""erwartet"" wird.","0","1","0","null","","","<div style=""font-size:60px;"">+</div>","null","","","","","","","","","",""
"","html-keyboard-response","147","459367","0.0-8.0-1.14","v9yb3nf2px","one_one","1","indirect_first","0","nnelin12","0","29","1","1","3","1","Man erkennt einige der chinesichen Zeichen in der Skalen-Abfrage wieder und erinnert sich automatisch an die zuvor hier zugeordneten Fotos. Das verhindert eine ""intuitive"" Entscheidung, weil man weiß, was jetzt ""erwartet"" wird.","0","1","0","null","","","<img src = 'category4/CS4.png' width = '100%;'>","null","","","","","","","","","",""
"","html-keyboard-response","148","459626","0.0-8.0-2.14","v9yb3nf2px","one_one","1","indirect_first","0","nnelin12","0","29","1","1","3","1","Man erkennt einige der chinesichen Zeichen in der Skalen-Abfrage wieder und erinnert sich automatisch an die zuvor hier zugeordneten Fotos. Das verhindert eine ""intuitive"" Entscheidung, weil man weiß, was jetzt ""erwartet"" wird.","0","1","0","null","","","<img src = 'targets/31.png' width = '100%;'>","null","","","","","","","","","",""
"","html-keyboard-response","149","460420","0.0-8.0-3.14","v9yb3nf2px","one_one","1","indirect_first","0","nnelin12","0","29","1","1","3","1","Man erkennt einige der chinesichen Zeichen in der Skalen-Abfrage wieder und erinnert sich automatisch an die zuvor hier zugeordneten Fotos. Das verhindert eine ""intuitive"" Entscheidung, weil man weiß, was jetzt ""erwartet"" wird.","0","1","0","792.1249999781139","","","<img src = 'targets/mask.png' width = '100%;'>","75","neg","GS","GSold","4","category4/CS4.png","targets/31.png","1","indirect","14",""
"","html-keyboard-response","150","461930","0.0-8.0-0.15","v9yb3nf2px","one_one","1","indirect_first","0","nnelin12","0","29","1","1","3","1","Man erkennt einige der chinesichen Zeichen in der Skalen-Abfrage wieder und erinnert sich automatisch an die zuvor hier zugeordneten Fotos. Das verhindert eine ""intuitive"" Entscheidung, weil man weiß, was jetzt ""erwartet"" wird.","0","1","0","null","","","<div style=""font-size:60px;"">+</div>","null","","","","","","","","","",""
"","html-keyboard-response","151","462022","0.0-8.0-1.15","v9yb3nf2px","one_one","1","indirect_first","0","nnelin12","0","29","1","1","3","1","Man erkennt einige der chinesichen Zeichen in der Skalen-Abfrage wieder und erinnert sich automatisch an die zuvor hier zugeordneten Fotos. Das verhindert eine ""intuitive"" Entscheidung, weil man weiß, was jetzt ""erwartet"" wird.","0","1","0","null","","","<img src = 'category4/CS5.png' width = '100%;'>","null","","","","","","","","","",""
"","html-keyboard-response","152","462283","0.0-8.0-2.15","v9yb3nf2px","one_one","1","indirect_first","0","nnelin12","0","29","1","1","3","1","Man erkennt einige der chinesichen Zeichen in der Skalen-Abfrage wieder und erinnert sich automatisch an die zuvor hier zugeordneten Fotos. Das verhindert eine ""intuitive"" Entscheidung, weil man weiß, was jetzt ""erwartet"" wird.","0","1","0","null","","","<img src = 'targets/6.png' width = '100%;'>","null","","","","","","","","","",""
"","html-keyboard-response","153","463131","0.0-8.0-3.15","v9yb3nf2px","one_one","1","indirect_first","0","nnelin12","0","29","1","1","3","1","Man erkennt einige der chinesichen Zeichen in der Skalen-Abfrage wieder und erinnert sich automatisch an die zuvor hier zugeordneten Fotos. Das verhindert eine ""intuitive"" Entscheidung, weil man weiß, was jetzt ""erwartet"" wird.","0","1","0","847.3050000029616","","","<img src = 'targets/mask.png' width = '100%;'>","68","neg","GS","GSold","4","category4/CS5.png","targets/6.png","0","indirect","15",""
"","survey-html-form","154","477665","0.0-9.0","v9yb3nf2px","one_one","1","indirect_first","0","nnelin12","0","29","1","1","3","1","Man erkennt einige der chinesichen Zeichen in der Skalen-Abfrage wieder und erinnert sich automatisch an die zuvor hier zugeordneten Fotos. Das verhindert eine ""intuitive"" Entscheidung, weil man weiß, was jetzt ""erwartet"" wird.","0","1","0","14028.200000000652","","{}","","","","","","","","","","","",""
"","html-keyboard-response","155","480675","0.0-10.0-0.0","v9yb3nf2px","one_one","1","indirect_first","0","nnelin12","0","29","1","1","3","1","Man erkennt einige der chinesichen Zeichen in der Skalen-Abfrage wieder und erinnert sich automatisch an die zuvor hier zugeordneten Fotos. Das verhindert eine ""intuitive"" Entscheidung, weil man weiß, was jetzt ""erwartet"" wird.","0","1","0","null","","","<div style=""font-size:60px;"">+</div>","null","","","","","","","","","",""
"","html-keyboard-response","156","480767","0.0-10.0-1.0","v9yb3nf2px","one_one","1","indirect_first","0","nnelin12","0","29","1","1","3","1","Man erkennt einige der chinesichen Zeichen in der Skalen-Abfrage wieder und erinnert sich automatisch an die zuvor hier zugeordneten Fotos. Das verhindert eine ""intuitive"" Entscheidung, weil man weiß, was jetzt ""erwartet"" wird.","0","1","0","null","","","<img src = 'category4/GS2.png' width = '100%;'>","null","","","","","","","","","",""
"","html-keyboard-response","157","481028","0.0-10.0-2.0","v9yb3nf2px","one_one","1","indirect_first","0","nnelin12","0","29","1","1","3","1","Man erkennt einige der chinesichen Zeichen in der Skalen-Abfrage wieder und erinnert sich automatisch an die zuvor hier zugeordneten Fotos. Das verhindert eine ""intuitive"" Entscheidung, weil man weiß, was jetzt ""erwartet"" wird.","0","1","0","null","","","<img src = 'targets/41.png' width = '100%;'>","null","","","","","","","","","",""
"","html-keyboard-response","158","484042","0.0-10.0-3.0","v9yb3nf2px","one_one","1","indirect_first","0","nnelin12","0","29","1","1","3","1","Man erkennt einige der chinesichen Zeichen in der Skalen-Abfrage wieder und erinnert sich automatisch an die zuvor hier zugeordneten Fotos. Das verhindert eine ""intuitive"" Entscheidung, weil man weiß, was jetzt ""erwartet"" wird.","0","1","0","3012.2349999728613","","","<img src = 'targets/mask.png' width = '100%;'>","75","neg","GS","GSnew","4","category4/GS2.png","targets/41.png","1","indirect","16",""
"","html-keyboard-response","159","485552","0.0-10.0-0.1","v9yb3nf2px","one_one","1","indirect_first","0","nnelin12","0","29","1","1","3","1","Man erkennt einige der chinesichen Zeichen in der Skalen-Abfrage wieder und erinnert sich automatisch an die zuvor hier zugeordneten Fotos. Das verhindert eine ""intuitive"" Entscheidung, weil man weiß, was jetzt ""erwartet"" wird.","0","1","0","null","","","<div style=""font-size:60px;"">+</div>","null","","","","","","","","","",""
"","html-keyboard-response","160","485648","0.0-10.0-1.1","v9yb3nf2px","one_one","1","indirect_first","0","nnelin12","0","29","1","1","3","1","Man erkennt einige der chinesichen Zeichen in der Skalen-Abfrage wieder und erinnert sich automatisch an die zuvor hier zugeordneten Fotos. Das verhindert eine ""intuitive"" Entscheidung, weil man weiß, was jetzt ""erwartet"" wird.","0","1","0","null","","","<img src = 'category1/GS2.png' width = '100%;'>","null","","","","","","","","","",""
"","html-keyboard-response","161","485910","0.0-10.0-2.1","v9yb3nf2px","one_one","1","indirect_first","0","nnelin12","0","29","1","1","3","1","Man erkennt einige der chinesichen Zeichen in der Skalen-Abfrage wieder und erinnert sich automatisch an die zuvor hier zugeordneten Fotos. Das verhindert eine ""intuitive"" Entscheidung, weil man weiß, was jetzt ""erwartet"" wird.","0","1","0","null","","","<img src = 'targets/2.png' width = '100%;'>","null","","","","","","","","","",""
"","html-keyboard-response","162","486738","0.0-10.0-3.1","v9yb3nf2px","one_one","1","indirect_first","0","nnelin12","0","29","1","1","3","1","Man erkennt einige der chinesichen Zeichen in der Skalen-Abfrage wieder und erinnert sich automatisch an die zuvor hier zugeordneten Fotos. Das verhindert eine ""intuitive"" Entscheidung, weil man weiß, was jetzt ""erwartet"" wird.","0","1","0","827.0100000081584","","","<img src = 'targets/mask.png' width = '100%;'>","68","pos","GS","GSnew","1","category1/GS2.png","targets/2.png","0","indirect","17",""
"","html-keyboard-response","163","488249","0.0-10.0-0.2","v9yb3nf2px","one_one","1","indirect_first","0","nnelin12","0","29","1","1","3","1","Man erkennt einige der chinesichen Zeichen in der Skalen-Abfrage wieder und erinnert sich automatisch an die zuvor hier zugeordneten Fotos. Das verhindert eine ""intuitive"" Entscheidung, weil man weiß, was jetzt ""erwartet"" wird.","0","1","0","null","","","<div style=""font-size:60px;"">+</div>","null","","","","","","","","","",""
"","html-keyboard-response","164","488339","0.0-10.0-1.2","v9yb3nf2px","one_one","1","indirect_first","0","nnelin12","0","29","1","1","3","1","Man erkennt einige der chinesichen Zeichen in der Skalen-Abfrage wieder und erinnert sich automatisch an die zuvor hier zugeordneten Fotos. Das verhindert eine ""intuitive"" Entscheidung, weil man weiß, was jetzt ""erwartet"" wird.","0","1","0","null","","","<img src = 'category1/GS3.png' width = '100%;'>","null","","","","","","","","","",""
"","html-keyboard-response","165","488599","0.0-10.0-2.2","v9yb3nf2px","one_one","1","indirect_first","0","nnelin12","0","29","1","1","3","1","Man erkennt einige der chinesichen Zeichen in der Skalen-Abfrage wieder und erinnert sich automatisch an die zuvor hier zugeordneten Fotos. Das verhindert eine ""intuitive"" Entscheidung, weil man weiß, was jetzt ""erwartet"" wird.","0","1","0","null","","","<img src = 'targets/34.png' width = '100%;'>","null","","","","","","","","","",""
"","html-keyboard-response","166","489434","0.0-10.0-3.2","v9yb3nf2px","one_one","1","indirect_first","0","nnelin12","0","29","1","1","3","1","Man erkennt einige der chinesichen Zeichen in der Skalen-Abfrage wieder und erinnert sich automatisch an die zuvor hier zugeordneten Fotos. Das verhindert eine ""intuitive"" Entscheidung, weil man weiß, was jetzt ""erwartet"" wird.","0","1","0","834.7450000001118","","","<img src = 'targets/mask.png' width = '100%;'>","75","pos","GS","GSnew","1","category1/GS3.png","targets/34.png","1","indirect","18",""
"","html-keyboard-response","167","490943","0.0-10.0-0.3","v9yb3nf2px","one_one","1","indirect_first","0","nnelin12","0","29","1","1","3","1","Man erkennt einige der chinesichen Zeichen in der Skalen-Abfrage wieder und erinnert sich automatisch an die zuvor hier zugeordneten Fotos. Das verhindert eine ""intuitive"" Entscheidung, weil man weiß, was jetzt ""erwartet"" wird.","0","1","0","null","","","<div style=""font-size:60px;"">+</div>","null","","","","","","","","","",""
"","html-keyboard-response","168","491038","0.0-10.0-1.3","v9yb3nf2px","one_one","1","indirect_first","0","nnelin12","0","29","1","1","3","1","Man erkennt einige der chinesichen Zeichen in der Skalen-Abfrage wieder und erinnert sich automatisch an die zuvor hier zugeordneten Fotos. Das verhindert eine ""intuitive"" Entscheidung, weil man weiß, was jetzt ""erwartet"" wird.","0","1","0","null","","","<img src = 'category3/GS1.png' width = '100%;'>","null","","","","","","","","","",""
"","html-keyboard-response","169","491298","0.0-10.0-2.3","v9yb3nf2px","one_one","1","indirect_first","0","nnelin12","0","29","1","1","3","1","Man erkennt einige der chinesichen Zeichen in der Skalen-Abfrage wieder und erinnert sich automatisch an die zuvor hier zugeordneten Fotos. Das verhindert eine ""intuitive"" Entscheidung, weil man weiß, was jetzt ""erwartet"" wird.","0","1","0","null","","","<img src = 'targets/23.png' width = '100%;'>","null","","","","","","","","","",""
"","html-keyboard-response","170","492474","0.0-10.0-3.3","v9yb3nf2px","one_one","1","indirect_first","0","nnelin12","0","29","1","1","3","1","Man erkennt einige der chinesichen Zeichen in der Skalen-Abfrage wieder und erinnert sich automatisch an die zuvor hier zugeordneten Fotos. Das verhindert eine ""intuitive"" Entscheidung, weil man weiß, was jetzt ""erwartet"" wird.","0","1","0","1174.6500000008382","","","<img src = 'targets/mask.png' width = '100%;'>","68","pos","GS","GSnew","3","category3/GS1.png","targets/23.png","0","indirect","19",""
"","html-keyboard-response","171","493976","0.0-10.0-0.4","v9yb3nf2px","one_one","1","indirect_first","0","nnelin12","0","29","1","1","3","1","Man erkennt einige der chinesichen Zeichen in der Skalen-Abfrage wieder und erinnert sich automatisch an die zuvor hier zugeordneten Fotos. Das verhindert eine ""intuitive"" Entscheidung, weil man weiß, was jetzt ""erwartet"" wird.","0","1","0","null","","","<div style=""font-size:60px;"">+</div>","null","","","","","","","","","",""
"","html-keyboard-response","172","494072","0.0-10.0-1.4","v9yb3nf2px","one_one","1","indirect_first","0","nnelin12","0","29","1","1","3","1","Man erkennt einige der chinesichen Zeichen in der Skalen-Abfrage wieder und erinnert sich automatisch an die zuvor hier zugeordneten Fotos. Das verhindert eine ""intuitive"" Entscheidung, weil man weiß, was jetzt ""erwartet"" wird.","0","1","0","null","","","<img src = 'category1/GS1.png' width = '100%;'>","null","","","","","","","","","",""
"","html-keyboard-response","173","494328","0.0-10.0-2.4","v9yb3nf2px","one_one","1","indirect_first","0","nnelin12","0","29","1","1","3","1","Man erkennt einige der chinesichen Zeichen in der Skalen-Abfrage wieder und erinnert sich automatisch an die zuvor hier zugeordneten Fotos. Das verhindert eine ""intuitive"" Entscheidung, weil man weiß, was jetzt ""erwartet"" wird.","0","1","0","null","","","<img src = 'targets/32.png' width = '100%;'>","null","","","","","","","","","",""
"","html-keyboard-response","174","495074","0.0-10.0-3.4","v9yb3nf2px","one_one","1","indirect_first","0","nnelin12","0","29","1","1","3","1","Man erkennt einige der chinesichen Zeichen in der Skalen-Abfrage wieder und erinnert sich automatisch an die zuvor hier zugeordneten Fotos. Das verhindert eine ""intuitive"" Entscheidung, weil man weiß, was jetzt ""erwartet"" wird.","0","1","0","744.7050000191666","","","<img src = 'targets/mask.png' width = '100%;'>","75","pos","GS","GSnew","1","category1/GS1.png","targets/32.png","1","indirect","20",""
