"success","trial_type","trial_index","time_elapsed","internal_node_id","subject","condition","condition_code","measure","measure_code","codeword","gender","age","education","chinese","fach","handedness","comment","hinschauen","ablenkung","gewissenhaft","rt","url","responses","stimulus","key_press","val","type","type_specific","category","cs_selected","target","indirect","task","nr_pres","response"
"true","fullscreen","0","23462","0.0-0.0","4f19fjp626","many_one","0","indirect_first","0","EL06ER28","0","25","1","1","3","2","","0","1","0","","","","","","","","","","","","","","",""
"","external-html","1","29136","0.0-1.0","4f19fjp626","many_one","0","indirect_first","0","EL06ER28","0","25","1","1","3","2","","0","1","0","5526","text/information.html","","","","","","","","","","","","",""
"","external-html","2","46032","0.0-2.0","4f19fjp626","many_one","0","indirect_first","0","EL06ER28","0","25","1","1","3","2","","0","1","0","16736","text/consent.html","","","","","","","","","","","","",""
"","survey-html-form","3","73360","0.0-3.0","4f19fjp626","many_one","0","indirect_first","0","EL06ER28","0","25","1","1","3","2","","0","1","0","27327","","{""codeword_enter"":""EL06ER28""}","","","","","","","","","","","",""
"","survey-html-form","4","88809","0.0-4.0","4f19fjp626","many_one","0","indirect_first","0","EL06ER28","0","25","1","1","3","2","","0","1","0","15446","","{""age"":""25"",""education"":""1"",""subject"":""3"",""gender"":""0"",""handedness"":""2"",""chinese"":""1""}","","","","","","","","","","","",""
"","survey-html-form","5","91551","0.0-5.0","4f19fjp626","many_one","0","indirect_first","0","EL06ER28","0","25","1","1","3","2","","0","1","0","2741","","{}","","","","","","","","","","","",""
"","html-keyboard-response","6","95569","0.0-6.0-0.0-0.0","4f19fjp626","many_one","0","indirect_first","0","EL06ER28","0","25","1","1","3","2","","0","1","0","null","","","<div class = 'row'><div class = 'column'><img src = 'usneg/3181.bmp' width = '100%;'></div><div class = 'column'><img src = 'category2/CS5.png' width = '70%;'></div></div>","null","neg","CS","CS","2","category2/CS5.png","","","","",""
"","html-keyboard-response","7","98097","0.0-6.0-0.0-0.1","4f19fjp626","many_one","0","indirect_first","0","EL06ER28","0","25","1","1","3","2","","0","1","0","null","","","<div class = 'row'><div class = 'column'><img src = 'category3/CS2.png' width = '70%;'></div><div class = 'column'><img src = 'uspos/2057.bmp' width = '100%;'></div></div>","null","pos","CS","CS","3","category3/CS2.png","","","","",""
"","html-keyboard-response","8","100612","0.0-6.0-0.0-0.2","4f19fjp626","many_one","0","indirect_first","0","EL06ER28","0","25","1","1","3","2","","0","1","0","null","","","<div class = 'row'><div class = 'column'><img src = 'usneg/9415.bmp' width = '100%;'></div><div class = 'column'><img src = 'category4/CS9.png' width = '70%;'></div></div>","null","neg","CS","CS","4","category4/CS9.png","","","","",""
"","html-keyboard-response","9","103124","0.0-6.0-0.0-0.3","4f19fjp626","many_one","0","indirect_first","0","EL06ER28","0","25","1","1","3","2","","0","1","0","null","","","<div class = 'row'><div class = 'column'><img src = 'category3/CS9.png' width = '70%;'></div><div class = 'column'><img src = 'uspos/2030.bmp' width = '100%;'></div></div>","null","pos","CS","CS","3","category3/CS9.png","","","","",""
"","html-keyboard-response","10","105638","0.0-6.0-0.0-0.4","4f19fjp626","many_one","0","indirect_first","0","EL06ER28","0","25","1","1","3","2","","0","1","0","null","","","<div class = 'row'><div class = 'column'><img src = 'category3/CS7.png' width = '70%;'></div><div class = 'column'><img src = 'uspos/2160.bmp' width = '100%;'></div></div>","null","pos","CS","CS","3","category3/CS7.png","","","","",""
"","html-keyboard-response","11","108163","0.0-6.0-0.0-0.5","4f19fjp626","many_one","0","indirect_first","0","EL06ER28","0","25","1","1","3","2","","0","1","0","null","","","<div class = 'row'><div class = 'column'><img src = 'uspos/5621.bmp' width = '100%;'></div><div class = 'column'><img src = 'category3/CS3.png' width = '70%;'></div></div>","null","pos","CS","CS","3","category3/CS3.png","","","","",""
"","html-keyboard-response","12","110684","0.0-6.0-0.0-0.6","4f19fjp626","many_one","0","indirect_first","0","EL06ER28","0","25","1","1","3","2","","0","1","0","null","","","<div class = 'row'><div class = 'column'><img src = 'category2/CS4.png' width = '70%;'></div><div class = 'column'><img src = 'usneg/9290.bmp' width = '100%;'></div></div>","null","neg","CS","CS","2","category2/CS4.png","","","","",""
"","html-keyboard-response","13","113205","0.0-6.0-0.0-0.7","4f19fjp626","many_one","0","indirect_first","0","EL06ER28","0","25","1","1","3","2","","0","1","0","null","","","<div class = 'row'><div class = 'column'><img src = 'usneg/9584.bmp' width = '100%;'></div><div class = 'column'><img src = 'category4/CS8.png' width = '70%;'></div></div>","null","neg","CS","CS","4","category4/CS8.png","","","","",""
"","html-keyboard-response","14","115720","0.0-6.0-0.0-0.8","4f19fjp626","many_one","0","indirect_first","0","EL06ER28","0","25","1","1","3","2","","0","1","0","null","","","<div class = 'row'><div class = 'column'><img src = 'uspos/2208.bmp' width = '100%;'></div><div class = 'column'><img src = 'category1/CS1.png' width = '70%;'></div></div>","null","pos","CS","CS","1","category1/CS1.png","","","","",""
"","html-keyboard-response","15","118228","0.0-6.0-0.0-0.9","4f19fjp626","many_one","0","indirect_first","0","EL06ER28","0","25","1","1","3","2","","0","1","0","null","","","<div class = 'row'><div class = 'column'><img src = 'uspos/5600.bmp' width = '100%;'></div><div class = 'column'><img src = 'category1/CS8.png' width = '70%;'></div></div>","null","pos","CS","CS","1","category1/CS8.png","","","","",""
"","html-keyboard-response","16","120753","0.0-6.0-0.0-0.10","4f19fjp626","many_one","0","indirect_first","0","EL06ER28","0","25","1","1","3","2","","0","1","0","null","","","<div class = 'row'><div class = 'column'><img src = 'category3/CS8.png' width = '70%;'></div><div class = 'column'><img src = 'uspos/8190.bmp' width = '100%;'></div></div>","null","pos","CS","CS","3","category3/CS8.png","","","","",""
"","html-keyboard-response","17","123272","0.0-6.0-0.0-0.11","4f19fjp626","many_one","0","indirect_first","0","EL06ER28","0","25","1","1","3","2","","0","1","0","null","","","<div class = 'row'><div class = 'column'><img src = 'category4/CS1.png' width = '70%;'></div><div class = 'column'><img src = 'usneg/9182.bmp' width = '100%;'></div></div>","null","neg","CS","CS","4","category4/CS1.png","","","","",""
"","html-keyboard-response","18","125789","0.0-6.0-0.0-0.12","4f19fjp626","many_one","0","indirect_first","0","EL06ER28","0","25","1","1","3","2","","0","1","0","null","","","<div class = 'row'><div class = 'column'><img src = 'category4/CS3.png' width = '70%;'></div><div class = 'column'><img src = 'usneg/9220.bmp' width = '100%;'></div></div>","null","neg","CS","CS","4","category4/CS3.png","","","","",""
"","html-keyboard-response","19","128311","0.0-6.0-0.0-0.13","4f19fjp626","many_one","0","indirect_first","0","EL06ER28","0","25","1","1","3","2","","0","1","0","null","","","<div class = 'row'><div class = 'column'><img src = 'uspos/5830.bmp' width = '100%;'></div><div class = 'column'><img src = 'category1/CS10.png' width = '70%;'></div></div>","null","pos","CS","CS","1","category1/CS10.png","","","","",""
"","html-keyboard-response","20","130833","0.0-6.0-0.0-0.14","4f19fjp626","many_one","0","indirect_first","0","EL06ER28","0","25","1","1","3","2","","0","1","0","null","","","<div class = 'row'><div class = 'column'><img src = 'category4/CS4.png' width = '70%;'></div><div class = 'column'><img src = 'usneg/9561.bmp' width = '100%;'></div></div>","null","neg","CS","CS","4","category4/CS4.png","","","","",""
"","html-keyboard-response","21","133356","0.0-6.0-0.0-0.15","4f19fjp626","many_one","0","indirect_first","0","EL06ER28","0","25","1","1","3","2","","0","1","0","null","","","<div class = 'row'><div class = 'column'><img src = 'usneg/8485.bmp' width = '100%;'></div><div class = 'column'><img src = 'category2/CS3.png' width = '70%;'></div></div>","null","neg","CS","CS","2","category2/CS3.png","","","","",""
"","html-keyboard-response","22","135881","0.0-6.0-0.0-0.16","4f19fjp626","many_one","0","indirect_first","0","EL06ER28","0","25","1","1","3","2","","0","1","0","null","","","<div class = 'row'><div class = 'column'><img src = 'uspos/2165.bmp' width = '100%;'></div><div class = 'column'><img src = 'category1/CS6.png' width = '70%;'></div></div>","null","pos","CS","CS","1","category1/CS6.png","","","","",""
"","html-keyboard-response","23","138397","0.0-6.0-0.0-0.17","4f19fjp626","many_one","0","indirect_first","0","EL06ER28","0","25","1","1","3","2","","0","1","0","null","","","<div class = 'row'><div class = 'column'><img src = 'uspos/1710.bmp' width = '100%;'></div><div class = 'column'><img src = 'category1/CS2.png' width = '70%;'></div></div>","null","pos","CS","CS","1","category1/CS2.png","","","","",""
"","html-keyboard-response","24","140915","0.0-6.0-0.0-0.18","4f19fjp626","many_one","0","indirect_first","0","EL06ER28","0","25","1","1","3","2","","0","1","0","null","","","<div class = 'row'><div class = 'column'><img src = 'usneg/9181.bmp' width = '100%;'></div><div class = 'column'><img src = 'category2/CS2.png' width = '70%;'></div></div>","null","neg","CS","CS","2","category2/CS2.png","","","","",""
"","html-keyboard-response","25","143439","0.0-6.0-0.0-0.19","4f19fjp626","many_one","0","indirect_first","0","EL06ER28","0","25","1","1","3","2","","0","1","0","null","","","<div class = 'row'><div class = 'column'><img src = 'category2/CS7.png' width = '70%;'></div><div class = 'column'><img src = 'usneg/2205.bmp' width = '100%;'></div></div>","null","neg","CS","CS","2","category2/CS7.png","","","","",""
"","survey-html-form","26","147160","0.0-6.0-1.0","4f19fjp626","many_one","0","indirect_first","0","EL06ER28","0","25","1","1","3","2","","0","1","0","3209","","{}","","","","","","","","","","","",""
"","html-keyboard-response","27","151170","0.0-6.0-2.0-0.0","4f19fjp626","many_one","0","indirect_first","0","EL06ER28","0","25","1","1","3","2","","0","1","0","null","","","<div class = 'row'><div class = 'column'><img src = 'category3/CS9.png' width = '70%;'></div><div class = 'column'><img src = 'uspos/2030.bmp' width = '100%;'></div></div>","null","pos","CS","CS","3","category3/CS9.png","","","","",""
"","html-keyboard-response","28","153692","0.0-6.0-2.0-0.1","4f19fjp626","many_one","0","indirect_first","0","EL06ER28","0","25","1","1","3","2","","0","1","0","null","","","<div class = 'row'><div class = 'column'><img src = 'category2/CS4.png' width = '70%;'></div><div class = 'column'><img src = 'usneg/9290.bmp' width = '100%;'></div></div>","null","neg","CS","CS","2","category2/CS4.png","","","","",""
"","html-keyboard-response","29","156215","0.0-6.0-2.0-0.2","4f19fjp626","many_one","0","indirect_first","0","EL06ER28","0","25","1","1","3","2","","0","1","0","null","","","<div class = 'row'><div class = 'column'><img src = 'uspos/2160.bmp' width = '100%;'></div><div class = 'column'><img src = 'category3/CS7.png' width = '70%;'></div></div>","null","pos","CS","CS","3","category3/CS7.png","","","","",""
"","html-keyboard-response","30","158735","0.0-6.0-2.0-0.3","4f19fjp626","many_one","0","indirect_first","0","EL06ER28","0","25","1","1","3","2","","0","1","0","null","","","<div class = 'row'><div class = 'column'><img src = 'usneg/2205.bmp' width = '100%;'></div><div class = 'column'><img src = 'category2/CS7.png' width = '70%;'></div></div>","null","neg","CS","CS","2","category2/CS7.png","","","","",""
"","html-keyboard-response","31","161252","0.0-6.0-2.0-0.4","4f19fjp626","many_one","0","indirect_first","0","EL06ER28","0","25","1","1","3","2","","0","1","0","null","","","<div class = 'row'><div class = 'column'><img src = 'category4/CS1.png' width = '70%;'></div><div class = 'column'><img src = 'usneg/9182.bmp' width = '100%;'></div></div>","null","neg","CS","CS","4","category4/CS1.png","","","","",""
"","html-keyboard-response","32","163773","0.0-6.0-2.0-0.5","4f19fjp626","many_one","0","indirect_first","0","EL06ER28","0","25","1","1","3","2","","0","1","0","null","","","<div class = 'row'><div class = 'column'><img src = 'usneg/3181.bmp' width = '100%;'></div><div class = 'column'><img src = 'category2/CS5.png' width = '70%;'></div></div>","null","neg","CS","CS","2","category2/CS5.png","","","","",""
"","html-keyboard-response","33","166296","0.0-6.0-2.0-0.6","4f19fjp626","many_one","0","indirect_first","0","EL06ER28","0","25","1","1","3","2","","0","1","0","null","","","<div class = 'row'><div class = 'column'><img src = 'category1/CS6.png' width = '70%;'></div><div class = 'column'><img src = 'uspos/2165.bmp' width = '100%;'></div></div>","null","pos","CS","CS","1","category1/CS6.png","","","","",""
"","html-keyboard-response","34","168818","0.0-6.0-2.0-0.7","4f19fjp626","many_one","0","indirect_first","0","EL06ER28","0","25","1","1","3","2","","0","1","0","null","","","<div class = 'row'><div class = 'column'><img src = 'category2/CS2.png' width = '70%;'></div><div class = 'column'><img src = 'usneg/9181.bmp' width = '100%;'></div></div>","null","neg","CS","CS","2","category2/CS2.png","","","","",""
"","html-keyboard-response","35","171339","0.0-6.0-2.0-0.8","4f19fjp626","many_one","0","indirect_first","0","EL06ER28","0","25","1","1","3","2","","0","1","0","null","","","<div class = 'row'><div class = 'column'><img src = 'category3/CS3.png' width = '70%;'></div><div class = 'column'><img src = 'uspos/5621.bmp' width = '100%;'></div></div>","null","pos","CS","CS","3","category3/CS3.png","","","","",""
"","html-keyboard-response","36","173859","0.0-6.0-2.0-0.9","4f19fjp626","many_one","0","indirect_first","0","EL06ER28","0","25","1","1","3","2","","0","1","0","null","","","<div class = 'row'><div class = 'column'><img src = 'uspos/5830.bmp' width = '100%;'></div><div class = 'column'><img src = 'category1/CS10.png' width = '70%;'></div></div>","null","pos","CS","CS","1","category1/CS10.png","","","","",""
"","html-keyboard-response","37","176377","0.0-6.0-2.0-0.10","4f19fjp626","many_one","0","indirect_first","0","EL06ER28","0","25","1","1","3","2","","0","1","0","null","","","<div class = 'row'><div class = 'column'><img src = 'uspos/1710.bmp' width = '100%;'></div><div class = 'column'><img src = 'category1/CS2.png' width = '70%;'></div></div>","null","pos","CS","CS","1","category1/CS2.png","","","","",""
"","html-keyboard-response","38","178905","0.0-6.0-2.0-0.11","4f19fjp626","many_one","0","indirect_first","0","EL06ER28","0","25","1","1","3","2","","0","1","0","null","","","<div class = 'row'><div class = 'column'><img src = 'uspos/8190.bmp' width = '100%;'></div><div class = 'column'><img src = 'category3/CS8.png' width = '70%;'></div></div>","null","pos","CS","CS","3","category3/CS8.png","","","","",""
"","html-keyboard-response","39","181424","0.0-6.0-2.0-0.12","4f19fjp626","many_one","0","indirect_first","0","EL06ER28","0","25","1","1","3","2","","0","1","0","null","","","<div class = 'row'><div class = 'column'><img src = 'uspos/5600.bmp' width = '100%;'></div><div class = 'column'><img src = 'category1/CS8.png' width = '70%;'></div></div>","null","pos","CS","CS","1","category1/CS8.png","","","","",""
"","html-keyboard-response","40","183949","0.0-6.0-2.0-0.13","4f19fjp626","many_one","0","indirect_first","0","EL06ER28","0","25","1","1","3","2","","0","1","0","null","","","<div class = 'row'><div class = 'column'><img src = 'usneg/9584.bmp' width = '100%;'></div><div class = 'column'><img src = 'category4/CS8.png' width = '70%;'></div></div>","null","neg","CS","CS","4","category4/CS8.png","","","","",""
"","html-keyboard-response","41","186471","0.0-6.0-2.0-0.14","4f19fjp626","many_one","0","indirect_first","0","EL06ER28","0","25","1","1","3","2","","0","1","0","null","","","<div class = 'row'><div class = 'column'><img src = 'category4/CS4.png' width = '70%;'></div><div class = 'column'><img src = 'usneg/9561.bmp' width = '100%;'></div></div>","null","neg","CS","CS","4","category4/CS4.png","","","","",""
"","html-keyboard-response","42","188992","0.0-6.0-2.0-0.15","4f19fjp626","many_one","0","indirect_first","0","EL06ER28","0","25","1","1","3","2","","0","1","0","null","","","<div class = 'row'><div class = 'column'><img src = 'category1/CS1.png' width = '70%;'></div><div class = 'column'><img src = 'uspos/2208.bmp' width = '100%;'></div></div>","null","pos","CS","CS","1","category1/CS1.png","","","","",""
"","html-keyboard-response","43","191514","0.0-6.0-2.0-0.16","4f19fjp626","many_one","0","indirect_first","0","EL06ER28","0","25","1","1","3","2","","0","1","0","null","","","<div class = 'row'><div class = 'column'><img src = 'category4/CS9.png' width = '70%;'></div><div class = 'column'><img src = 'usneg/9415.bmp' width = '100%;'></div></div>","null","neg","CS","CS","4","category4/CS9.png","","","","",""
"","html-keyboard-response","44","194039","0.0-6.0-2.0-0.17","4f19fjp626","many_one","0","indirect_first","0","EL06ER28","0","25","1","1","3","2","","0","1","0","null","","","<div class = 'row'><div class = 'column'><img src = 'category3/CS2.png' width = '70%;'></div><div class = 'column'><img src = 'uspos/2057.bmp' width = '100%;'></div></div>","null","pos","CS","CS","3","category3/CS2.png","","","","",""
"","html-keyboard-response","45","196553","0.0-6.0-2.0-0.18","4f19fjp626","many_one","0","indirect_first","0","EL06ER28","0","25","1","1","3","2","","0","1","0","null","","","<div class = 'row'><div class = 'column'><img src = 'usneg/8485.bmp' width = '100%;'></div><div class = 'column'><img src = 'category2/CS3.png' width = '70%;'></div></div>","null","neg","CS","CS","2","category2/CS3.png","","","","",""
"","html-keyboard-response","46","199072","0.0-6.0-2.0-0.19","4f19fjp626","many_one","0","indirect_first","0","EL06ER28","0","25","1","1","3","2","","0","1","0","null","","","<div class = 'row'><div class = 'column'><img src = 'category4/CS3.png' width = '70%;'></div><div class = 'column'><img src = 'usneg/9220.bmp' width = '100%;'></div></div>","null","neg","CS","CS","4","category4/CS3.png","","","","",""
"","survey-html-form","47","222679","0.0-6.0-3.0","4f19fjp626","many_one","0","indirect_first","0","EL06ER28","0","25","1","1","3","2","","0","1","0","23093","","{}","","","","","","","","","","","",""
"","html-keyboard-response","48","226696","0.0-6.0-4.0-0.0","4f19fjp626","many_one","0","indirect_first","0","EL06ER28","0","25","1","1","3","2","","0","1","0","null","","","<div class = 'row'><div class = 'column'><img src = 'uspos/5621.bmp' width = '100%;'></div><div class = 'column'><img src = 'category3/CS3.png' width = '70%;'></div></div>","null","pos","CS","CS","3","category3/CS3.png","","","","",""
"","html-keyboard-response","49","229223","0.0-6.0-4.0-0.1","4f19fjp626","many_one","0","indirect_first","0","EL06ER28","0","25","1","1","3","2","","0","1","0","null","","","<div class = 'row'><div class = 'column'><img src = 'uspos/2165.bmp' width = '100%;'></div><div class = 'column'><img src = 'category1/CS6.png' width = '70%;'></div></div>","null","pos","CS","CS","1","category1/CS6.png","","","","",""
"","html-keyboard-response","50","231748","0.0-6.0-4.0-0.2","4f19fjp626","many_one","0","indirect_first","0","EL06ER28","0","25","1","1","3","2","","0","1","0","null","","","<div class = 'row'><div class = 'column'><img src = 'uspos/2030.bmp' width = '100%;'></div><div class = 'column'><img src = 'category3/CS9.png' width = '70%;'></div></div>","null","pos","CS","CS","3","category3/CS9.png","","","","",""
"","html-keyboard-response","51","234268","0.0-6.0-4.0-0.3","4f19fjp626","many_one","0","indirect_first","0","EL06ER28","0","25","1","1","3","2","","0","1","0","null","","","<div class = 'row'><div class = 'column'><img src = 'category1/CS1.png' width = '70%;'></div><div class = 'column'><img src = 'uspos/2208.bmp' width = '100%;'></div></div>","null","pos","CS","CS","1","category1/CS1.png","","","","",""
"","html-keyboard-response","52","236778","0.0-6.0-4.0-0.4","4f19fjp626","many_one","0","indirect_first","0","EL06ER28","0","25","1","1","3","2","","0","1","0","null","","","<div class = 'row'><div class = 'column'><img src = 'usneg/3181.bmp' width = '100%;'></div><div class = 'column'><img src = 'category2/CS5.png' width = '70%;'></div></div>","null","neg","CS","CS","2","category2/CS5.png","","","","",""
"","html-keyboard-response","53","239297","0.0-6.0-4.0-0.5","4f19fjp626","many_one","0","indirect_first","0","EL06ER28","0","25","1","1","3","2","","0","1","0","null","","","<div class = 'row'><div class = 'column'><img src = 'usneg/9181.bmp' width = '100%;'></div><div class = 'column'><img src = 'category2/CS2.png' width = '70%;'></div></div>","null","neg","CS","CS","2","category2/CS2.png","","","","",""
"","html-keyboard-response","54","241818","0.0-6.0-4.0-0.6","4f19fjp626","many_one","0","indirect_first","0","EL06ER28","0","25","1","1","3","2","","0","1","0","null","","","<div class = 'row'><div class = 'column'><img src = 'category4/CS3.png' width = '70%;'></div><div class = 'column'><img src = 'usneg/9220.bmp' width = '100%;'></div></div>","null","neg","CS","CS","4","category4/CS3.png","","","","",""
"","html-keyboard-response","55","244339","0.0-6.0-4.0-0.7","4f19fjp626","many_one","0","indirect_first","0","EL06ER28","0","25","1","1","3","2","","0","1","0","null","","","<div class = 'row'><div class = 'column'><img src = 'uspos/1710.bmp' width = '100%;'></div><div class = 'column'><img src = 'category1/CS2.png' width = '70%;'></div></div>","null","pos","CS","CS","1","category1/CS2.png","","","","",""
"","html-keyboard-response","56","246861","0.0-6.0-4.0-0.8","4f19fjp626","many_one","0","indirect_first","0","EL06ER28","0","25","1","1","3","2","","0","1","0","null","","","<div class = 'row'><div class = 'column'><img src = 'category1/CS10.png' width = '70%;'></div><div class = 'column'><img src = 'uspos/5830.bmp' width = '100%;'></div></div>","null","pos","CS","CS","1","category1/CS10.png","","","","",""
"","html-keyboard-response","57","249382","0.0-6.0-4.0-0.9","4f19fjp626","many_one","0","indirect_first","0","EL06ER28","0","25","1","1","3","2","","0","1","0","null","","","<div class = 'row'><div class = 'column'><img src = 'category2/CS3.png' width = '70%;'></div><div class = 'column'><img src = 'usneg/8485.bmp' width = '100%;'></div></div>","null","neg","CS","CS","2","category2/CS3.png","","","","",""
"","html-keyboard-response","58","251911","0.0-6.0-4.0-0.10","4f19fjp626","many_one","0","indirect_first","0","EL06ER28","0","25","1","1","3","2","","0","1","0","null","","","<div class = 'row'><div class = 'column'><img src = 'uspos/8190.bmp' width = '100%;'></div><div class = 'column'><img src = 'category3/CS8.png' width = '70%;'></div></div>","null","pos","CS","CS","3","category3/CS8.png","","","","",""
"","html-keyboard-response","59","254432","0.0-6.0-4.0-0.11","4f19fjp626","many_one","0","indirect_first","0","EL06ER28","0","25","1","1","3","2","","0","1","0","null","","","<div class = 'row'><div class = 'column'><img src = 'category4/CS8.png' width = '70%;'></div><div class = 'column'><img src = 'usneg/9584.bmp' width = '100%;'></div></div>","null","neg","CS","CS","4","category4/CS8.png","","","","",""
"","html-keyboard-response","60","256960","0.0-6.0-4.0-0.12","4f19fjp626","many_one","0","indirect_first","0","EL06ER28","0","25","1","1","3","2","","0","1","0","null","","","<div class = 'row'><div class = 'column'><img src = 'category2/CS4.png' width = '70%;'></div><div class = 'column'><img src = 'usneg/9290.bmp' width = '100%;'></div></div>","null","neg","CS","CS","2","category2/CS4.png","","","","",""
"","html-keyboard-response","61","259479","0.0-6.0-4.0-0.13","4f19fjp626","many_one","0","indirect_first","0","EL06ER28","0","25","1","1","3","2","","0","1","0","null","","","<div class = 'row'><div class = 'column'><img src = 'uspos/5600.bmp' width = '100%;'></div><div class = 'column'><img src = 'category1/CS8.png' width = '70%;'></div></div>","null","pos","CS","CS","1","category1/CS8.png","","","","",""
"","html-keyboard-response","62","262001","0.0-6.0-4.0-0.14","4f19fjp626","many_one","0","indirect_first","0","EL06ER28","0","25","1","1","3","2","","0","1","0","null","","","<div class = 'row'><div class = 'column'><img src = 'uspos/2057.bmp' width = '100%;'></div><div class = 'column'><img src = 'category3/CS2.png' width = '70%;'></div></div>","null","pos","CS","CS","3","category3/CS2.png","","","","",""
"","html-keyboard-response","63","264525","0.0-6.0-4.0-0.15","4f19fjp626","many_one","0","indirect_first","0","EL06ER28","0","25","1","1","3","2","","0","1","0","null","","","<div class = 'row'><div class = 'column'><img src = 'category2/CS7.png' width = '70%;'></div><div class = 'column'><img src = 'usneg/2205.bmp' width = '100%;'></div></div>","null","neg","CS","CS","2","category2/CS7.png","","","","",""
"","html-keyboard-response","64","267046","0.0-6.0-4.0-0.16","4f19fjp626","many_one","0","indirect_first","0","EL06ER28","0","25","1","1","3","2","","0","1","0","null","","","<div class = 'row'><div class = 'column'><img src = 'usneg/9415.bmp' width = '100%;'></div><div class = 'column'><img src = 'category4/CS9.png' width = '70%;'></div></div>","null","neg","CS","CS","4","category4/CS9.png","","","","",""
"","html-keyboard-response","65","269571","0.0-6.0-4.0-0.17","4f19fjp626","many_one","0","indirect_first","0","EL06ER28","0","25","1","1","3","2","","0","1","0","null","","","<div class = 'row'><div class = 'column'><img src = 'uspos/2160.bmp' width = '100%;'></div><div class = 'column'><img src = 'category3/CS7.png' width = '70%;'></div></div>","null","pos","CS","CS","3","category3/CS7.png","","","","",""
"","html-keyboard-response","66","272100","0.0-6.0-4.0-0.18","4f19fjp626","many_one","0","indirect_first","0","EL06ER28","0","25","1","1","3","2","","0","1","0","null","","","<div class = 'row'><div class = 'column'><img src = 'category4/CS4.png' width = '70%;'></div><div class = 'column'><img src = 'usneg/9561.bmp' width = '100%;'></div></div>","null","neg","CS","CS","4","category4/CS4.png","","","","",""
"","html-keyboard-response","67","274620","0.0-6.0-4.0-0.19","4f19fjp626","many_one","0","indirect_first","0","EL06ER28","0","25","1","1","3","2","","0","1","0","null","","","<div class = 'row'><div class = 'column'><img src = 'category4/CS1.png' width = '70%;'></div><div class = 'column'><img src = 'usneg/9182.bmp' width = '100%;'></div></div>","null","neg","CS","CS","4","category4/CS1.png","","","","",""
"","survey-html-form","68","278280","0.0-6.0-5.0","4f19fjp626","many_one","0","indirect_first","0","EL06ER28","0","25","1","1","3","2","","0","1","0","3148","","{}","","","","","","","","","","","",""
"","html-keyboard-response","69","282297","0.0-6.0-6.0-0.0","4f19fjp626","many_one","0","indirect_first","0","EL06ER28","0","25","1","1","3","2","","0","1","0","null","","","<div class = 'row'><div class = 'column'><img src = 'category2/CS3.png' width = '70%;'></div><div class = 'column'><img src = 'usneg/8485.bmp' width = '100%;'></div></div>","null","neg","CS","CS","2","category2/CS3.png","","","","",""
"","html-keyboard-response","70","284805","0.0-6.0-6.0-0.1","4f19fjp626","many_one","0","indirect_first","0","EL06ER28","0","25","1","1","3","2","","0","1","0","null","","","<div class = 'row'><div class = 'column'><img src = 'usneg/2205.bmp' width = '100%;'></div><div class = 'column'><img src = 'category2/CS7.png' width = '70%;'></div></div>","null","neg","CS","CS","2","category2/CS7.png","","","","",""
"","html-keyboard-response","71","287328","0.0-6.0-6.0-0.2","4f19fjp626","many_one","0","indirect_first","0","EL06ER28","0","25","1","1","3","2","","0","1","0","null","","","<div class = 'row'><div class = 'column'><img src = 'category4/CS9.png' width = '70%;'></div><div class = 'column'><img src = 'usneg/9415.bmp' width = '100%;'></div></div>","null","neg","CS","CS","4","category4/CS9.png","","","","",""
"","html-keyboard-response","72","289847","0.0-6.0-6.0-0.3","4f19fjp626","many_one","0","indirect_first","0","EL06ER28","0","25","1","1","3","2","","0","1","0","null","","","<div class = 'row'><div class = 'column'><img src = 'usneg/9181.bmp' width = '100%;'></div><div class = 'column'><img src = 'category2/CS2.png' width = '70%;'></div></div>","null","neg","CS","CS","2","category2/CS2.png","","","","",""
"","html-keyboard-response","73","292370","0.0-6.0-6.0-0.4","4f19fjp626","many_one","0","indirect_first","0","EL06ER28","0","25","1","1","3","2","","0","1","0","null","","","<div class = 'row'><div class = 'column'><img src = 'usneg/3181.bmp' width = '100%;'></div><div class = 'column'><img src = 'category2/CS5.png' width = '70%;'></div></div>","null","neg","CS","CS","2","category2/CS5.png","","","","",""
"","html-keyboard-response","74","294894","0.0-6.0-6.0-0.5","4f19fjp626","many_one","0","indirect_first","0","EL06ER28","0","25","1","1","3","2","","0","1","0","null","","","<div class = 'row'><div class = 'column'><img src = 'category1/CS10.png' width = '70%;'></div><div class = 'column'><img src = 'uspos/5830.bmp' width = '100%;'></div></div>","null","pos","CS","CS","1","category1/CS10.png","","","","",""
"","html-keyboard-response","75","297408","0.0-6.0-6.0-0.6","4f19fjp626","many_one","0","indirect_first","0","EL06ER28","0","25","1","1","3","2","","0","1","0","null","","","<div class = 'row'><div class = 'column'><img src = 'category3/CS3.png' width = '70%;'></div><div class = 'column'><img src = 'uspos/5621.bmp' width = '100%;'></div></div>","null","pos","CS","CS","3","category3/CS3.png","","","","",""
"","html-keyboard-response","76","299933","0.0-6.0-6.0-0.7","4f19fjp626","many_one","0","indirect_first","0","EL06ER28","0","25","1","1","3","2","","0","1","0","null","","","<div class = 'row'><div class = 'column'><img src = 'usneg/9584.bmp' width = '100%;'></div><div class = 'column'><img src = 'category4/CS8.png' width = '70%;'></div></div>","null","neg","CS","CS","4","category4/CS8.png","","","","",""
"","html-keyboard-response","77","302460","0.0-6.0-6.0-0.8","4f19fjp626","many_one","0","indirect_first","0","EL06ER28","0","25","1","1","3","2","","0","1","0","null","","","<div class = 'row'><div class = 'column'><img src = 'category1/CS1.png' width = '70%;'></div><div class = 'column'><img src = 'uspos/2208.bmp' width = '100%;'></div></div>","null","pos","CS","CS","1","category1/CS1.png","","","","",""
"","html-keyboard-response","78","304981","0.0-6.0-6.0-0.9","4f19fjp626","many_one","0","indirect_first","0","EL06ER28","0","25","1","1","3","2","","0","1","0","null","","","<div class = 'row'><div class = 'column'><img src = 'uspos/2030.bmp' width = '100%;'></div><div class = 'column'><img src = 'category3/CS9.png' width = '70%;'></div></div>","null","pos","CS","CS","3","category3/CS9.png","","","","",""
"","html-keyboard-response","79","307492","0.0-6.0-6.0-0.10","4f19fjp626","many_one","0","indirect_first","0","EL06ER28","0","25","1","1","3","2","","0","1","0","null","","","<div class = 'row'><div class = 'column'><img src = 'usneg/9290.bmp' width = '100%;'></div><div class = 'column'><img src = 'category2/CS4.png' width = '70%;'></div></div>","null","neg","CS","CS","2","category2/CS4.png","","","","",""
"","html-keyboard-response","80","310012","0.0-6.0-6.0-0.11","4f19fjp626","many_one","0","indirect_first","0","EL06ER28","0","25","1","1","3","2","","0","1","0","null","","","<div class = 'row'><div class = 'column'><img src = 'uspos/1710.bmp' width = '100%;'></div><div class = 'column'><img src = 'category1/CS2.png' width = '70%;'></div></div>","null","pos","CS","CS","1","category1/CS2.png","","","","",""
"","html-keyboard-response","81","312538","0.0-6.0-6.0-0.12","4f19fjp626","many_one","0","indirect_first","0","EL06ER28","0","25","1","1","3","2","","0","1","0","null","","","<div class = 'row'><div class = 'column'><img src = 'uspos/5600.bmp' width = '100%;'></div><div class = 'column'><img src = 'category1/CS8.png' width = '70%;'></div></div>","null","pos","CS","CS","1","category1/CS8.png","","","","",""
"","html-keyboard-response","82","315056","0.0-6.0-6.0-0.13","4f19fjp626","many_one","0","indirect_first","0","EL06ER28","0","25","1","1","3","2","","0","1","0","null","","","<div class = 'row'><div class = 'column'><img src = 'uspos/2057.bmp' width = '100%;'></div><div class = 'column'><img src = 'category3/CS2.png' width = '70%;'></div></div>","null","pos","CS","CS","3","category3/CS2.png","","","","",""
"","html-keyboard-response","83","317576","0.0-6.0-6.0-0.14","4f19fjp626","many_one","0","indirect_first","0","EL06ER28","0","25","1","1","3","2","","0","1","0","null","","","<div class = 'row'><div class = 'column'><img src = 'uspos/2165.bmp' width = '100%;'></div><div class = 'column'><img src = 'category1/CS6.png' width = '70%;'></div></div>","null","pos","CS","CS","1","category1/CS6.png","","","","",""
"","html-keyboard-response","84","320098","0.0-6.0-6.0-0.15","4f19fjp626","many_one","0","indirect_first","0","EL06ER28","0","25","1","1","3","2","","0","1","0","null","","","<div class = 'row'><div class = 'column'><img src = 'usneg/9182.bmp' width = '100%;'></div><div class = 'column'><img src = 'category4/CS1.png' width = '70%;'></div></div>","null","neg","CS","CS","4","category4/CS1.png","","","","",""
"","html-keyboard-response","85","322612","0.0-6.0-6.0-0.16","4f19fjp626","many_one","0","indirect_first","0","EL06ER28","0","25","1","1","3","2","","0","1","0","null","","","<div class = 'row'><div class = 'column'><img src = 'category3/CS8.png' width = '70%;'></div><div class = 'column'><img src = 'uspos/8190.bmp' width = '100%;'></div></div>","null","pos","CS","CS","3","category3/CS8.png","","","","",""
"","html-keyboard-response","86","325136","0.0-6.0-6.0-0.17","4f19fjp626","many_one","0","indirect_first","0","EL06ER28","0","25","1","1","3","2","","0","1","0","null","","","<div class = 'row'><div class = 'column'><img src = 'category4/CS4.png' width = '70%;'></div><div class = 'column'><img src = 'usneg/9561.bmp' width = '100%;'></div></div>","null","neg","CS","CS","4","category4/CS4.png","","","","",""
"","html-keyboard-response","87","327656","0.0-6.0-6.0-0.18","4f19fjp626","many_one","0","indirect_first","0","EL06ER28","0","25","1","1","3","2","","0","1","0","null","","","<div class = 'row'><div class = 'column'><img src = 'category3/CS7.png' width = '70%;'></div><div class = 'column'><img src = 'uspos/2160.bmp' width = '100%;'></div></div>","null","pos","CS","CS","3","category3/CS7.png","","","","",""
"","html-keyboard-response","88","330161","0.0-6.0-6.0-0.19","4f19fjp626","many_one","0","indirect_first","0","EL06ER28","0","25","1","1","3","2","","0","1","0","null","","","<div class = 'row'><div class = 'column'><img src = 'usneg/9220.bmp' width = '100%;'></div><div class = 'column'><img src = 'category4/CS3.png' width = '70%;'></div></div>","null","neg","CS","CS","4","category4/CS3.png","","","","",""
"","html-keyboard-response","89","345789","0.0-7.0","4f19fjp626","many_one","0","indirect_first","0","EL06ER28","0","25","1","1","3","2","","0","1","0","15117","","","<p>Sie sehen nun die chinesischen Zeichen nur ganz kurz. Danach sehen Sie die jeweilige Aussprache der Zeichen als Silbe auf dem Bildschrim. Ihre Aufgabe ist es, für jede Silbe anzugeben, ob diese etwas angenehmes, oder unangenehmes bedeuten könnte. Verlassen Sie sich hier vor allem auf Ihre Intuition.<br><br>Die Zeichen werden nur zur Orientierung dargestellt, beachten Sie sie deshalb nicht. Konzentrieren Sie sich vor allem auf die Silben. <br>Reagieren Sie mit folgenden zwei Tasten: <br><br><b>'D' </b> wenn die Silbe etwas <b>unangenehmes</b> bedeuten könnte. <br><b>'K'</b> wenn die Silbe etwas <b>angenehmes</b> bedeuten könnte. <br><br>Bitte legen Sie nun den Zeigefinger der linken Hand auf die Taste 'D' und den Zeigefinger der rechten Hand auf die Taste 'K'. <br>Reagieren Sie auf jede Silbe so schnell wie möglich. Uns interessiert Ihre spontane Reaktion. <br> <br> <br>Drücken Sie 'D' oder 'K', um die nächste Aufgabe zu starten. </p>","68","","","","","","","","","",""
"","html-keyboard-response","90","348804","0.0-8.0-0.0","4f19fjp626","many_one","0","indirect_first","0","EL06ER28","0","25","1","1","3","2","","0","1","0","null","","","<div style=""font-size:60px;"">+</div>","null","","","","","","","","","",""
"","html-keyboard-response","91","348897","0.0-8.0-1.0","4f19fjp626","many_one","0","indirect_first","0","EL06ER28","0","25","1","1","3","2","","0","1","0","null","","","<img src = 'category3/CS3.png' width = '100%;'>","null","","","","","","","","","",""
"","html-keyboard-response","92","349176","0.0-8.0-2.0","4f19fjp626","many_one","0","indirect_first","0","EL06ER28","0","25","1","1","3","2","","0","1","0","null","","","<img src = 'targets/9.png' width = '100%;'>","null","","","","","","","","","",""
"","html-keyboard-response","93","352020","0.0-8.0-3.0","4f19fjp626","many_one","0","indirect_first","0","EL06ER28","0","25","1","1","3","2","","0","1","0","2844","","","<img src = 'targets/mask.png' width = '100%;'>","75","pos","CS","CS","3","category3/CS3.png","targets/9.png","1","indirect","0",""
"","html-keyboard-response","94","353544","0.0-8.0-0.1","4f19fjp626","many_one","0","indirect_first","0","EL06ER28","0","25","1","1","3","2","","0","1","0","null","","","<div style=""font-size:60px;"">+</div>","null","","","","","","","","","",""
"","html-keyboard-response","95","353637","0.0-8.0-1.1","4f19fjp626","many_one","0","indirect_first","0","EL06ER28","0","25","1","1","3","2","","0","1","0","null","","","<img src = 'category4/CS9.png' width = '100%;'>","null","","","","","","","","","",""
"","html-keyboard-response","96","353915","0.0-8.0-2.1","4f19fjp626","many_one","0","indirect_first","0","EL06ER28","0","25","1","1","3","2","","0","1","0","null","","","<img src = 'targets/24.png' width = '100%;'>","null","","","","","","","","","",""
"","html-keyboard-response","97","355815","0.0-8.0-3.1","4f19fjp626","many_one","0","indirect_first","0","EL06ER28","0","25","1","1","3","2","","0","1","0","1898","","","<img src = 'targets/mask.png' width = '100%;'>","75","neg","CS","CS","4","category4/CS9.png","targets/24.png","1","indirect","1",""
"","html-keyboard-response","98","357330","0.0-8.0-0.2","4f19fjp626","many_one","0","indirect_first","0","EL06ER28","0","25","1","1","3","2","","0","1","0","null","","","<div style=""font-size:60px;"">+</div>","null","","","","","","","","","",""
"","html-keyboard-response","99","357423","0.0-8.0-1.2","4f19fjp626","many_one","0","indirect_first","0","EL06ER28","0","25","1","1","3","2","","0","1","0","null","","","<img src = 'category2/CS3.png' width = '100%;'>","null","","","","","","","","","",""
"","html-keyboard-response","100","357703","0.0-8.0-2.2","4f19fjp626","many_one","0","indirect_first","0","EL06ER28","0","25","1","1","3","2","","0","1","0","null","","","<img src = 'targets/28.png' width = '100%;'>","null","","","","","","","","","",""
"","html-keyboard-response","101","359107","0.0-8.0-3.2","4f19fjp626","many_one","0","indirect_first","0","EL06ER28","0","25","1","1","3","2","","0","1","0","1404","","","<img src = 'targets/mask.png' width = '100%;'>","68","neg","CS","CS","2","category2/CS3.png","targets/28.png","0","indirect","2",""
"","html-keyboard-response","102","360625","0.0-8.0-0.3","4f19fjp626","many_one","0","indirect_first","0","EL06ER28","0","25","1","1","3","2","","0","1","0","null","","","<div style=""font-size:60px;"">+</div>","null","","","","","","","","","",""
"","html-keyboard-response","103","360718","0.0-8.0-1.3","4f19fjp626","many_one","0","indirect_first","0","EL06ER28","0","25","1","1","3","2","","0","1","0","null","","","<img src = 'category1/CS2.png' width = '100%;'>","null","","","","","","","","","",""
"","html-keyboard-response","104","360997","0.0-8.0-2.3","4f19fjp626","many_one","0","indirect_first","0","EL06ER28","0","25","1","1","3","2","","0","1","0","null","","","<img src = 'targets/46.png' width = '100%;'>","null","","","","","","","","","",""
"","html-keyboard-response","105","361771","0.0-8.0-3.3","4f19fjp626","many_one","0","indirect_first","0","EL06ER28","0","25","1","1","3","2","","0","1","0","773","","","<img src = 'targets/mask.png' width = '100%;'>","75","pos","CS","CS","1","category1/CS2.png","targets/46.png","1","indirect","3",""
"","html-keyboard-response","106","363285","0.0-8.0-0.4","4f19fjp626","many_one","0","indirect_first","0","EL06ER28","0","25","1","1","3","2","","0","1","0","null","","","<div style=""font-size:60px;"">+</div>","null","","","","","","","","","",""
"","html-keyboard-response","107","363378","0.0-8.0-1.4","4f19fjp626","many_one","0","indirect_first","0","EL06ER28","0","25","1","1","3","2","","0","1","0","null","","","<img src = 'category1/CS8.png' width = '100%;'>","null","","","","","","","","","",""
"","html-keyboard-response","108","363645","0.0-8.0-2.4","4f19fjp626","many_one","0","indirect_first","0","EL06ER28","0","25","1","1","3","2","","0","1","0","null","","","<img src = 'targets/20.png' width = '100%;'>","null","","","","","","","","","",""
"","html-keyboard-response","109","365065","0.0-8.0-3.4","4f19fjp626","many_one","0","indirect_first","0","EL06ER28","0","25","1","1","3","2","","0","1","0","1419","","","<img src = 'targets/mask.png' width = '100%;'>","75","pos","CS","CS","1","category1/CS8.png","targets/20.png","1","indirect","4",""
"","html-keyboard-response","110","366582","0.0-8.0-0.5","4f19fjp626","many_one","0","indirect_first","0","EL06ER28","0","25","1","1","3","2","","0","1","0","null","","","<div style=""font-size:60px;"">+</div>","null","","","","","","","","","",""
"","html-keyboard-response","111","366675","0.0-8.0-1.5","4f19fjp626","many_one","0","indirect_first","0","EL06ER28","0","25","1","1","3","2","","0","1","0","null","","","<img src = 'category3/CS8.png' width = '100%;'>","null","","","","","","","","","",""
"","html-keyboard-response","112","366955","0.0-8.0-2.5","4f19fjp626","many_one","0","indirect_first","0","EL06ER28","0","25","1","1","3","2","","0","1","0","null","","","<img src = 'targets/3.png' width = '100%;'>","null","","","","","","","","","",""
"","html-keyboard-response","113","367655","0.0-8.0-3.5","4f19fjp626","many_one","0","indirect_first","0","EL06ER28","0","25","1","1","3","2","","0","1","0","699","","","<img src = 'targets/mask.png' width = '100%;'>","75","pos","CS","CS","3","category3/CS8.png","targets/3.png","1","indirect","5",""
"","html-keyboard-response","114","369177","0.0-8.0-0.6","4f19fjp626","many_one","0","indirect_first","0","EL06ER28","0","25","1","1","3","2","","0","1","0","null","","","<div style=""font-size:60px;"">+</div>","null","","","","","","","","","",""
"","html-keyboard-response","115","369273","0.0-8.0-1.6","4f19fjp626","many_one","0","indirect_first","0","EL06ER28","0","25","1","1","3","2","","0","1","0","null","","","<img src = 'category2/CS7.png' width = '100%;'>","null","","","","","","","","","",""
"","html-keyboard-response","116","369553","0.0-8.0-2.6","4f19fjp626","many_one","0","indirect_first","0","EL06ER28","0","25","1","1","3","2","","0","1","0","null","","","<img src = 'targets/42.png' width = '100%;'>","null","","","","","","","","","",""
"","html-keyboard-response","117","370097","0.0-8.0-3.6","4f19fjp626","many_one","0","indirect_first","0","EL06ER28","0","25","1","1","3","2","","0","1","0","544","","","<img src = 'targets/mask.png' width = '100%;'>","68","neg","CS","CS","2","category2/CS7.png","targets/42.png","0","indirect","6",""
"","html-keyboard-response","118","371623","0.0-8.0-0.7","4f19fjp626","many_one","0","indirect_first","0","EL06ER28","0","25","1","1","3","2","","0","1","0","null","","","<div style=""font-size:60px;"">+</div>","null","","","","","","","","","",""
"","html-keyboard-response","119","371716","0.0-8.0-1.7","4f19fjp626","many_one","0","indirect_first","0","EL06ER28","0","25","1","1","3","2","","0","1","0","null","","","<img src = 'category1/CS10.png' width = '100%;'>","null","","","","","","","","","",""
"","html-keyboard-response","120","371995","0.0-8.0-2.7","4f19fjp626","many_one","0","indirect_first","0","EL06ER28","0","25","1","1","3","2","","0","1","0","null","","","<img src = 'targets/17.png' width = '100%;'>","null","","","","","","","","","",""
"","html-keyboard-response","121","374584","0.0-8.0-3.7","4f19fjp626","many_one","0","indirect_first","0","EL06ER28","0","25","1","1","3","2","","0","1","0","2588","","","<img src = 'targets/mask.png' width = '100%;'>","75","pos","CS","CS","1","category1/CS10.png","targets/17.png","1","indirect","7",""
"","html-keyboard-response","122","376102","0.0-8.0-0.8","4f19fjp626","many_one","0","indirect_first","0","EL06ER28","0","25","1","1","3","2","","0","1","0","null","","","<div style=""font-size:60px;"">+</div>","null","","","","","","","","","",""
"","html-keyboard-response","123","376194","0.0-8.0-1.8","4f19fjp626","many_one","0","indirect_first","0","EL06ER28","0","25","1","1","3","2","","0","1","0","null","","","<img src = 'category4/CS4.png' width = '100%;'>","null","","","","","","","","","",""
"","html-keyboard-response","124","376460","0.0-8.0-2.8","4f19fjp626","many_one","0","indirect_first","0","EL06ER28","0","25","1","1","3","2","","0","1","0","null","","","<img src = 'targets/36.png' width = '100%;'>","null","","","","","","","","","",""
"","html-keyboard-response","125","377341","0.0-8.0-3.8","4f19fjp626","many_one","0","indirect_first","0","EL06ER28","0","25","1","1","3","2","","0","1","0","881","","","<img src = 'targets/mask.png' width = '100%;'>","75","neg","CS","CS","4","category4/CS4.png","targets/36.png","1","indirect","8",""
"","html-keyboard-response","126","378855","0.0-8.0-0.9","4f19fjp626","many_one","0","indirect_first","0","EL06ER28","0","25","1","1","3","2","","0","1","0","null","","","<div style=""font-size:60px;"">+</div>","null","","","","","","","","","",""
"","html-keyboard-response","127","378946","0.0-8.0-1.9","4f19fjp626","many_one","0","indirect_first","0","EL06ER28","0","25","1","1","3","2","","0","1","0","null","","","<img src = 'category4/CS1.png' width = '100%;'>","null","","","","","","","","","",""
"","html-keyboard-response","128","379212","0.0-8.0-2.9","4f19fjp626","many_one","0","indirect_first","0","EL06ER28","0","25","1","1","3","2","","0","1","0","null","","","<img src = 'targets/27.png' width = '100%;'>","null","","","","","","","","","",""
"","html-keyboard-response","129","382037","0.0-8.0-3.9","4f19fjp626","many_one","0","indirect_first","0","EL06ER28","0","25","1","1","3","2","","0","1","0","2824","","","<img src = 'targets/mask.png' width = '100%;'>","68","neg","CS","CS","4","category4/CS1.png","targets/27.png","0","indirect","9",""
"","html-keyboard-response","130","383558","0.0-8.0-0.10","4f19fjp626","many_one","0","indirect_first","0","EL06ER28","0","25","1","1","3","2","","0","1","0","null","","","<div style=""font-size:60px;"">+</div>","null","","","","","","","","","",""
"","html-keyboard-response","131","383651","0.0-8.0-1.10","4f19fjp626","many_one","0","indirect_first","0","EL06ER28","0","25","1","1","3","2","","0","1","0","null","","","<img src = 'category2/CS5.png' width = '100%;'>","null","","","","","","","","","",""
"","html-keyboard-response","132","383931","0.0-8.0-2.10","4f19fjp626","many_one","0","indirect_first","0","EL06ER28","0","25","1","1","3","2","","0","1","0","null","","","<img src = 'targets/43.png' width = '100%;'>","null","","","","","","","","","",""
"","html-keyboard-response","133","384408","0.0-8.0-3.10","4f19fjp626","many_one","0","indirect_first","0","EL06ER28","0","25","1","1","3","2","","0","1","0","477","","","<img src = 'targets/mask.png' width = '100%;'>","68","neg","CS","CS","2","category2/CS5.png","targets/43.png","0","indirect","10",""
"","html-keyboard-response","134","385927","0.0-8.0-0.11","4f19fjp626","many_one","0","indirect_first","0","EL06ER28","0","25","1","1","3","2","","0","1","0","null","","","<div style=""font-size:60px;"">+</div>","null","","","","","","","","","",""
"","html-keyboard-response","135","386020","0.0-8.0-1.11","4f19fjp626","many_one","0","indirect_first","0","EL06ER28","0","25","1","1","3","2","","0","1","0","null","","","<img src = 'category4/CS10.png' width = '100%;'>","null","","","","","","","","","",""
"","html-keyboard-response","136","386299","0.0-8.0-2.11","4f19fjp626","many_one","0","indirect_first","0","EL06ER28","0","25","1","1","3","2","","0","1","0","null","","","<img src = 'targets/29.png' width = '100%;'>","null","","","","","","","","","",""
"","html-keyboard-response","137","387341","0.0-8.0-3.11","4f19fjp626","many_one","0","indirect_first","0","EL06ER28","0","25","1","1","3","2","","0","1","0","1042","","","<img src = 'targets/mask.png' width = '100%;'>","75","neg","GS","GSold","4","category4/CS10.png","targets/29.png","1","indirect","11",""
"","html-keyboard-response","138","388865","0.0-8.0-0.12","4f19fjp626","many_one","0","indirect_first","0","EL06ER28","0","25","1","1","3","2","","0","1","0","null","","","<div style=""font-size:60px;"">+</div>","null","","","","","","","","","",""
"","html-keyboard-response","139","388956","0.0-8.0-1.12","4f19fjp626","many_one","0","indirect_first","0","EL06ER28","0","25","1","1","3","2","","0","1","0","null","","","<img src = 'category1/CS6.png' width = '100%;'>","null","","","","","","","","","",""
"","html-keyboard-response","140","389235","0.0-8.0-2.12","4f19fjp626","many_one","0","indirect_first","0","EL06ER28","0","25","1","1","3","2","","0","1","0","null","","","<img src = 'targets/37.png' width = '100%;'>","null","","","","","","","","","",""
"","html-keyboard-response","141","389928","0.0-8.0-3.12","4f19fjp626","many_one","0","indirect_first","0","EL06ER28","0","25","1","1","3","2","","0","1","0","692","","","<img src = 'targets/mask.png' width = '100%;'>","75","pos","CS","CS","1","category1/CS6.png","targets/37.png","1","indirect","12",""
"","html-keyboard-response","142","391446","0.0-8.0-0.13","4f19fjp626","many_one","0","indirect_first","0","EL06ER28","0","25","1","1","3","2","","0","1","0","null","","","<div style=""font-size:60px;"">+</div>","null","","","","","","","","","",""
"","html-keyboard-response","143","391538","0.0-8.0-1.13","4f19fjp626","many_one","0","indirect_first","0","EL06ER28","0","25","1","1","3","2","","0","1","0","null","","","<img src = 'category3/CS7.png' width = '100%;'>","null","","","","","","","","","",""
"","html-keyboard-response","144","391819","0.0-8.0-2.13","4f19fjp626","many_one","0","indirect_first","0","EL06ER28","0","25","1","1","3","2","","0","1","0","null","","","<img src = 'targets/11.png' width = '100%;'>","null","","","","","","","","","",""
"","html-keyboard-response","145","392526","0.0-8.0-3.13","4f19fjp626","many_one","0","indirect_first","0","EL06ER28","0","25","1","1","3","2","","0","1","0","706","","","<img src = 'targets/mask.png' width = '100%;'>","75","pos","CS","CS","3","category3/CS7.png","targets/11.png","1","indirect","13",""
"","html-keyboard-response","146","394041","0.0-8.0-0.14","4f19fjp626","many_one","0","indirect_first","0","EL06ER28","0","25","1","1","3","2","","0","1","0","null","","","<div style=""font-size:60px;"">+</div>","null","","","","","","","","","",""
"","html-keyboard-response","147","394135","0.0-8.0-1.14","4f19fjp626","many_one","0","indirect_first","0","EL06ER28","0","25","1","1","3","2","","0","1","0","null","","","<img src = 'category2/CS4.png' width = '100%;'>","null","","","","","","","","","",""
"","html-keyboard-response","148","394415","0.0-8.0-2.14","4f19fjp626","many_one","0","indirect_first","0","EL06ER28","0","25","1","1","3","2","","0","1","0","null","","","<img src = 'targets/13.png' width = '100%;'>","null","","","","","","","","","",""
"","html-keyboard-response","149","395598","0.0-8.0-3.14","4f19fjp626","many_one","0","indirect_first","0","EL06ER28","0","25","1","1","3","2","","0","1","0","1183","","","<img src = 'targets/mask.png' width = '100%;'>","68","neg","CS","CS","2","category2/CS4.png","targets/13.png","0","indirect","14",""
"","html-keyboard-response","150","397115","0.0-8.0-0.15","4f19fjp626","many_one","0","indirect_first","0","EL06ER28","0","25","1","1","3","2","","0","1","0","null","","","<div style=""font-size:60px;"">+</div>","null","","","","","","","","","",""
"","html-keyboard-response","151","397208","0.0-8.0-1.15","4f19fjp626","many_one","0","indirect_first","0","EL06ER28","0","25","1","1","3","2","","0","1","0","null","","","<img src = 'category1/CS3.png' width = '100%;'>","null","","","","","","","","","",""
"","html-keyboard-response","152","397487","0.0-8.0-2.15","4f19fjp626","many_one","0","indirect_first","0","EL06ER28","0","25","1","1","3","2","","0","1","0","null","","","<img src = 'targets/48.png' width = '100%;'>","null","","","","","","","","","",""
"","html-keyboard-response","153","398247","0.0-8.0-3.15","4f19fjp626","many_one","0","indirect_first","0","EL06ER28","0","25","1","1","3","2","","0","1","0","761","","","<img src = 'targets/mask.png' width = '100%;'>","75","pos","GS","GSold","1","category1/CS3.png","targets/48.png","1","indirect","15",""
"","html-keyboard-response","154","399771","0.0-8.0-0.16","4f19fjp626","many_one","0","indirect_first","0","EL06ER28","0","25","1","1","3","2","","0","1","0","null","","","<div style=""font-size:60px;"">+</div>","null","","","","","","","","","",""
"","html-keyboard-response","155","399866","0.0-8.0-1.16","4f19fjp626","many_one","0","indirect_first","0","EL06ER28","0","25","1","1","3","2","","0","1","0","null","","","<img src = 'category1/CS1.png' width = '100%;'>","null","","","","","","","","","",""
"","html-keyboard-response","156","400132","0.0-8.0-2.16","4f19fjp626","many_one","0","indirect_first","0","EL06ER28","0","25","1","1","3","2","","0","1","0","null","","","<img src = 'targets/4.png' width = '100%;'>","null","","","","","","","","","",""
"","html-keyboard-response","157","401466","0.0-8.0-3.16","4f19fjp626","many_one","0","indirect_first","0","EL06ER28","0","25","1","1","3","2","","0","1","0","1333","","","<img src = 'targets/mask.png' width = '100%;'>","75","pos","CS","CS","1","category1/CS1.png","targets/4.png","1","indirect","16",""
"","html-keyboard-response","158","402983","0.0-8.0-0.17","4f19fjp626","many_one","0","indirect_first","0","EL06ER28","0","25","1","1","3","2","","0","1","0","null","","","<div style=""font-size:60px;"">+</div>","null","","","","","","","","","",""
"","html-keyboard-response","159","403077","0.0-8.0-1.17","4f19fjp626","many_one","0","indirect_first","0","EL06ER28","0","25","1","1","3","2","","0","1","0","null","","","<img src = 'category4/CS3.png' width = '100%;'>","null","","","","","","","","","",""
"","html-keyboard-response","160","403357","0.0-8.0-2.17","4f19fjp626","many_one","0","indirect_first","0","EL06ER28","0","25","1","1","3","2","","0","1","0","null","","","<img src = 'targets/6.png' width = '100%;'>","null","","","","","","","","","",""
"","html-keyboard-response","161","403995","0.0-8.0-3.17","4f19fjp626","many_one","0","indirect_first","0","EL06ER28","0","25","1","1","3","2","","0","1","0","637","","","<img src = 'targets/mask.png' width = '100%;'>","75","neg","CS","CS","4","category4/CS3.png","targets/6.png","1","indirect","17",""
"","html-keyboard-response","162","405510","0.0-8.0-0.18","4f19fjp626","many_one","0","indirect_first","0","EL06ER28","0","25","1","1","3","2","","0","1","0","null","","","<div style=""font-size:60px;"">+</div>","null","","","","","","","","","",""
"","html-keyboard-response","163","405604","0.0-8.0-1.18","4f19fjp626","many_one","0","indirect_first","0","EL06ER28","0","25","1","1","3","2","","0","1","0","null","","","<img src = 'category4/CS7.png' width = '100%;'>","null","","","","","","","","","",""
"","html-keyboard-response","164","405885","0.0-8.0-2.18","4f19fjp626","many_one","0","indirect_first","0","EL06ER28","0","25","1","1","3","2","","0","1","0","null","","","<img src = 'targets/33.png' width = '100%;'>","null","","","","","","","","","",""
"","html-keyboard-response","165","406402","0.0-8.0-3.18","4f19fjp626","many_one","0","indirect_first","0","EL06ER28","0","25","1","1","3","2","","0","1","0","516","","","<img src = 'targets/mask.png' width = '100%;'>","75","neg","GS","GSold","4","category4/CS7.png","targets/33.png","1","indirect","18",""
"","html-keyboard-response","166","407924","0.0-8.0-0.19","4f19fjp626","many_one","0","indirect_first","0","EL06ER28","0","25","1","1","3","2","","0","1","0","null","","","<div style=""font-size:60px;"">+</div>","null","","","","","","","","","",""
"","html-keyboard-response","167","408018","0.0-8.0-1.19","4f19fjp626","many_one","0","indirect_first","0","EL06ER28","0","25","1","1","3","2","","0","1","0","null","","","<img src = 'category3/CS2.png' width = '100%;'>","null","","","","","","","","","",""
"","html-keyboard-response","168","408298","0.0-8.0-2.19","4f19fjp626","many_one","0","indirect_first","0","EL06ER28","0","25","1","1","3","2","","0","1","0","null","","","<img src = 'targets/31.png' width = '100%;'>","null","","","","","","","","","",""
"","html-keyboard-response","169","408781","0.0-8.0-3.19","4f19fjp626","many_one","0","indirect_first","0","EL06ER28","0","25","1","1","3","2","","0","1","0","483","","","<img src = 'targets/mask.png' width = '100%;'>","75","pos","CS","CS","3","category3/CS2.png","targets/31.png","1","indirect","19",""
"","html-keyboard-response","170","410305","0.0-8.0-0.20","4f19fjp626","many_one","0","indirect_first","0","EL06ER28","0","25","1","1","3","2","","0","1","0","null","","","<div style=""font-size:60px;"">+</div>","null","","","","","","","","","",""
"","html-keyboard-response","171","410397","0.0-8.0-1.20","4f19fjp626","many_one","0","indirect_first","0","EL06ER28","0","25","1","1","3","2","","0","1","0","null","","","<img src = 'category2/CS2.png' width = '100%;'>","null","","","","","","","","","",""
"","html-keyboard-response","172","410676","0.0-8.0-2.20","4f19fjp626","many_one","0","indirect_first","0","EL06ER28","0","25","1","1","3","2","","0","1","0","null","","","<img src = 'targets/5.png' width = '100%;'>","null","","","","","","","","","",""
"","html-keyboard-response","173","411368","0.0-8.0-3.20","4f19fjp626","many_one","0","indirect_first","0","EL06ER28","0","25","1","1","3","2","","0","1","0","692","","","<img src = 'targets/mask.png' width = '100%;'>","75","neg","CS","CS","2","category2/CS2.png","targets/5.png","1","indirect","20",""
"","html-keyboard-response","174","412884","0.0-8.0-0.21","4f19fjp626","many_one","0","indirect_first","0","EL06ER28","0","25","1","1","3","2","","0","1","0","null","","","<div style=""font-size:60px;"">+</div>","null","","","","","","","","","",""
"","html-keyboard-response","175","412978","0.0-8.0-1.21","4f19fjp626","many_one","0","indirect_first","0","EL06ER28","0","25","1","1","3","2","","0","1","0","null","","","<img src = 'category3/CS9.png' width = '100%;'>","null","","","","","","","","","",""
"","html-keyboard-response","176","413258","0.0-8.0-2.21","4f19fjp626","many_one","0","indirect_first","0","EL06ER28","0","25","1","1","3","2","","0","1","0","null","","","<img src = 'targets/10.png' width = '100%;'>","null","","","","","","","","","",""
"","html-keyboard-response","177","414361","0.0-8.0-3.21","4f19fjp626","many_one","0","indirect_first","0","EL06ER28","0","25","1","1","3","2","","0","1","0","1103","","","<img src = 'targets/mask.png' width = '100%;'>","75","pos","CS","CS","3","category3/CS9.png","targets/10.png","1","indirect","21",""
"","html-keyboard-response","178","415882","0.0-8.0-0.22","4f19fjp626","many_one","0","indirect_first","0","EL06ER28","0","25","1","1","3","2","","0","1","0","null","","","<div style=""font-size:60px;"">+</div>","null","","","","","","","","","",""
"","html-keyboard-response","179","415975","0.0-8.0-1.22","4f19fjp626","many_one","0","indirect_first","0","EL06ER28","0","25","1","1","3","2","","0","1","0","null","","","<img src = 'category4/CS2.png' width = '100%;'>","null","","","","","","","","","",""
"","html-keyboard-response","180","416255","0.0-8.0-2.22","4f19fjp626","many_one","0","indirect_first","0","EL06ER28","0","25","1","1","3","2","","0","1","0","null","","","<img src = 'targets/1.png' width = '100%;'>","null","","","","","","","","","",""
"","html-keyboard-response","181","417498","0.0-8.0-3.22","4f19fjp626","many_one","0","indirect_first","0","EL06ER28","0","25","1","1","3","2","","0","1","0","1242","","","<img src = 'targets/mask.png' width = '100%;'>","68","neg","GS","GSold","4","category4/CS2.png","targets/1.png","0","indirect","22",""
"","html-keyboard-response","182","419024","0.0-8.0-0.23","4f19fjp626","many_one","0","indirect_first","0","EL06ER28","0","25","1","1","3","2","","0","1","0","null","","","<div style=""font-size:60px;"">+</div>","null","","","","","","","","","",""
"","html-keyboard-response","183","419117","0.0-8.0-1.23","4f19fjp626","many_one","0","indirect_first","0","EL06ER28","0","25","1","1","3","2","","0","1","0","null","","","<img src = 'category4/CS8.png' width = '100%;'>","null","","","","","","","","","",""
"","html-keyboard-response","184","419394","0.0-8.0-2.23","4f19fjp626","many_one","0","indirect_first","0","EL06ER28","0","25","1","1","3","2","","0","1","0","null","","","<img src = 'targets/19.png' width = '100%;'>","null","","","","","","","","","",""
"","html-keyboard-response","185","420402","0.0-8.0-3.23","4f19fjp626","many_one","0","indirect_first","0","EL06ER28","0","25","1","1","3","2","","0","1","0","1006","","","<img src = 'targets/mask.png' width = '100%;'>","75","neg","CS","CS","4","category4/CS8.png","targets/19.png","1","indirect","23",""
"","survey-html-form","186","424743","0.0-9.0","4f19fjp626","many_one","0","indirect_first","0","EL06ER28","0","25","1","1","3","2","","0","1","0","3836","","{}","","","","","","","","","","","",""
"","html-keyboard-response","187","427768","0.0-10.0-0.0","4f19fjp626","many_one","0","indirect_first","0","EL06ER28","0","25","1","1","3","2","","0","1","0","null","","","<div style=""font-size:60px;"">+</div>","null","","","","","","","","","",""
"","html-keyboard-response","188","427860","0.0-10.0-1.0","4f19fjp626","many_one","0","indirect_first","0","EL06ER28","0","25","1","1","3","2","","0","1","0","null","","","<img src = 'category1/ma.png' width = '100%;'>","null","","","","","","","","","",""
"","html-keyboard-response","189","428112","0.0-10.0-2.0","4f19fjp626","many_one","0","indirect_first","0","EL06ER28","0","25","1","1","3","2","","0","1","0","null","","","<img src = 'targets/14.png' width = '100%;'>","null","","","","","","","","","",""
"","html-keyboard-response","190","428669","0.0-10.0-3.0","4f19fjp626","many_one","0","indirect_first","0","EL06ER28","0","25","1","1","3","2","","0","1","0","558","","","<img src = 'targets/mask.png' width = '100%;'>","75","pos","GS","abstract","1","category1/ma.png","targets/14.png","1","indirect","24",""
"","html-keyboard-response","191","430183","0.0-10.0-0.1","4f19fjp626","many_one","0","indirect_first","0","EL06ER28","0","25","1","1","3","2","","0","1","0","null","","","<div style=""font-size:60px;"">+</div>","null","","","","","","","","","",""
"","html-keyboard-response","192","430277","0.0-10.0-1.1","4f19fjp626","many_one","0","indirect_first","0","EL06ER28","0","25","1","1","3","2","","0","1","0","null","","","<img src = 'category2/CS8.png' width = '100%;'>","null","","","","","","","","","",""
"","html-keyboard-response","193","430542","0.0-10.0-2.1","4f19fjp626","many_one","0","indirect_first","0","EL06ER28","0","25","1","1","3","2","","0","1","0","null","","","<img src = 'targets/30.png' width = '100%;'>","null","","","","","","","","","",""
"","html-keyboard-response","194","430877","0.0-10.0-3.1","4f19fjp626","many_one","0","indirect_first","0","EL06ER28","0","25","1","1","3","2","","0","1","0","334","","","<img src = 'targets/mask.png' width = '100%;'>","68","neg","GS","GSold","2","category2/CS8.png","targets/30.png","0","indirect","25",""
"","html-keyboard-response","195","432397","0.0-10.0-0.2","4f19fjp626","many_one","0","indirect_first","0","EL06ER28","0","25","1","1","3","2","","0","1","0","null","","","<div style=""font-size:60px;"">+</div>","null","","","","","","","","","",""
"","html-keyboard-response","196","432491","0.0-10.0-1.2","4f19fjp626","many_one","0","indirect_first","0","EL06ER28","0","25","1","1","3","2","","0","1","0","null","","","<img src = 'category4/GS2.png' width = '100%;'>","null","","","","","","","","","",""
"","html-keyboard-response","197","432771","0.0-10.0-2.2","4f19fjp626","many_one","0","indirect_first","0","EL06ER28","0","25","1","1","3","2","","0","1","0","null","","","<img src = 'targets/18.png' width = '100%;'>","null","","","","","","","","","",""
"","html-keyboard-response","198","433533","0.0-10.0-3.2","4f19fjp626","many_one","0","indirect_first","0","EL06ER28","0","25","1","1","3","2","","0","1","0","761","","","<img src = 'targets/mask.png' width = '100%;'>","75","neg","GS","GSnew","4","category4/GS2.png","targets/18.png","1","indirect","26",""
"","html-keyboard-response","199","435054","0.0-10.0-0.3","4f19fjp626","many_one","0","indirect_first","0","EL06ER28","0","25","1","1","3","2","","0","1","0","null","","","<div style=""font-size:60px;"">+</div>","null","","","","","","","","","",""
"","html-keyboard-response","200","435148","0.0-10.0-1.3","4f19fjp626","many_one","0","indirect_first","0","EL06ER28","0","25","1","1","3","2","","0","1","0","null","","","<img src = 'category3/CS4.png' width = '100%;'>","null","","","","","","","","","",""
"","html-keyboard-response","201","435426","0.0-10.0-2.3","4f19fjp626","many_one","0","indirect_first","0","EL06ER28","0","25","1","1","3","2","","0","1","0","null","","","<img src = 'targets/23.png' width = '100%;'>","null","","","","","","","","","",""
"","html-keyboard-response","202","435935","0.0-10.0-3.3","4f19fjp626","many_one","0","indirect_first","0","EL06ER28","0","25","1","1","3","2","","0","1","0","508","","","<img src = 'targets/mask.png' width = '100%;'>","75","pos","GS","GSold","3","category3/CS4.png","targets/23.png","1","indirect","27",""
"","html-keyboard-response","203","437450","0.0-10.0-0.4","4f19fjp626","many_one","0","indirect_first","0","EL06ER28","0","25","1","1","3","2","","0","1","0","null","","","<div style=""font-size:60px;"">+</div>","null","","","","","","","","","",""
"","html-keyboard-response","204","437543","0.0-10.0-1.4","4f19fjp626","many_one","0","indirect_first","0","EL06ER28","0","25","1","1","3","2","","0","1","0","null","","","<img src = 'category3/wang.png' width = '100%;'>","null","","","","","","","","","",""
"","html-keyboard-response","205","437809","0.0-10.0-2.4","4f19fjp626","many_one","0","indirect_first","0","EL06ER28","0","25","1","1","3","2","","0","1","0","null","","","<img src = 'targets/41.png' width = '100%;'>","null","","","","","","","","","",""
"","html-keyboard-response","206","439634","0.0-10.0-3.4","4f19fjp626","many_one","0","indirect_first","0","EL06ER28","0","25","1","1","3","2","","0","1","0","1826","","","<img src = 'targets/mask.png' width = '100%;'>","75","pos","GS","abstract","3","category3/wang.png","targets/41.png","1","indirect","28",""
"","html-keyboard-response","207","441156","0.0-10.0-0.5","4f19fjp626","many_one","0","indirect_first","0","EL06ER28","0","25","1","1","3","2","","0","1","0","null","","","<div style=""font-size:60px;"">+</div>","null","","","","","","","","","",""
"","html-keyboard-response","208","441249","0.0-10.0-1.5","4f19fjp626","many_one","0","indirect_first","0","EL06ER28","0","25","1","1","3","2","","0","1","0","null","","","<img src = 'category2/GS2.png' width = '100%;'>","null","","","","","","","","","",""
"","html-keyboard-response","209","441530","0.0-10.0-2.5","4f19fjp626","many_one","0","indirect_first","0","EL06ER28","0","25","1","1","3","2","","0","1","0","null","","","<img src = 'targets/12.png' width = '100%;'>","null","","","","","","","","","",""
"","html-keyboard-response","210","442343","0.0-10.0-3.5","4f19fjp626","many_one","0","indirect_first","0","EL06ER28","0","25","1","1","3","2","","0","1","0","812","","","<img src = 'targets/mask.png' width = '100%;'>","68","neg","GS","GSnew","2","category2/GS2.png","targets/12.png","0","indirect","29",""
"","html-keyboard-response","211","443865","0.0-10.0-0.6","4f19fjp626","many_one","0","indirect_first","0","EL06ER28","0","25","1","1","3","2","","0","1","0","null","","","<div style=""font-size:60px;"">+</div>","null","","","","","","","","","",""
"","html-keyboard-response","212","443957","0.0-10.0-1.6","4f19fjp626","many_one","0","indirect_first","0","EL06ER28","0","25","1","1","3","2","","0","1","0","null","","","<img src = 'category1/CS5.png' width = '100%;'>","null","","","","","","","","","",""
"","html-keyboard-response","213","444236","0.0-10.0-2.6","4f19fjp626","many_one","0","indirect_first","0","EL06ER28","0","25","1","1","3","2","","0","1","0","null","","","<img src = 'targets/25.png' width = '100%;'>","null","","","","","","","","","",""
"","html-keyboard-response","214","444953","0.0-10.0-3.6","4f19fjp626","many_one","0","indirect_first","0","EL06ER28","0","25","1","1","3","2","","0","1","0","716","","","<img src = 'targets/mask.png' width = '100%;'>","68","pos","GS","GSold","1","category1/CS5.png","targets/25.png","0","indirect","30",""
"","html-keyboard-response","215","446472","0.0-10.0-0.7","4f19fjp626","many_one","0","indirect_first","0","EL06ER28","0","25","1","1","3","2","","0","1","0","null","","","<div style=""font-size:60px;"">+</div>","null","","","","","","","","","",""
"","html-keyboard-response","216","446565","0.0-10.0-1.7","4f19fjp626","many_one","0","indirect_first","0","EL06ER28","0","25","1","1","3","2","","0","1","0","null","","","<img src = 'category2/CS9.png' width = '100%;'>","null","","","","","","","","","",""
"","html-keyboard-response","217","446844","0.0-10.0-2.7","4f19fjp626","many_one","0","indirect_first","0","EL06ER28","0","25","1","1","3","2","","0","1","0","null","","","<img src = 'targets/47.png' width = '100%;'>","null","","","","","","","","","",""
"","html-keyboard-response","218","447263","0.0-10.0-3.7","4f19fjp626","many_one","0","indirect_first","0","EL06ER28","0","25","1","1","3","2","","0","1","0","419","","","<img src = 'targets/mask.png' width = '100%;'>","68","neg","GS","GSold","2","category2/CS9.png","targets/47.png","0","indirect","31",""
"","html-keyboard-response","219","448786","0.0-10.0-0.8","4f19fjp626","many_one","0","indirect_first","0","EL06ER28","0","25","1","1","3","2","","0","1","0","null","","","<div style=""font-size:60px;"">+</div>","null","","","","","","","","","",""
"","html-keyboard-response","220","448879","0.0-10.0-1.8","4f19fjp626","many_one","0","indirect_first","0","EL06ER28","0","25","1","1","3","2","","0","1","0","null","","","<img src = 'category3/CS5.png' width = '100%;'>","null","","","","","","","","","",""
"","html-keyboard-response","221","449132","0.0-10.0-2.8","4f19fjp626","many_one","0","indirect_first","0","EL06ER28","0","25","1","1","3","2","","0","1","0","null","","","<img src = 'targets/38.png' width = '100%;'>","null","","","","","","","","","",""
"","html-keyboard-response","222","450791","0.0-10.0-3.8","4f19fjp626","many_one","0","indirect_first","0","EL06ER28","0","25","1","1","3","2","","0","1","0","1659","","","<img src = 'targets/mask.png' width = '100%;'>","75","pos","GS","GSold","3","category3/CS5.png","targets/38.png","1","indirect","32",""
"","html-keyboard-response","223","452303","0.0-10.0-0.9","4f19fjp626","many_one","0","indirect_first","0","EL06ER28","0","25","1","1","3","2","","0","1","0","null","","","<div style=""font-size:60px;"">+</div>","null","","","","","","","","","",""
"","html-keyboard-response","224","452396","0.0-10.0-1.9","4f19fjp626","many_one","0","indirect_first","0","EL06ER28","0","25","1","1","3","2","","0","1","0","null","","","<img src = 'category3/GS1.png' width = '100%;'>","null","","","","","","","","","",""
"","html-keyboard-response","225","452676","0.0-10.0-2.9","4f19fjp626","many_one","0","indirect_first","0","EL06ER28","0","25","1","1","3","2","","0","1","0","null","","","<img src = 'targets/16.png' width = '100%;'>","null","","","","","","","","","",""
"","html-keyboard-response","226","453753","0.0-10.0-3.9","4f19fjp626","many_one","0","indirect_first","0","EL06ER28","0","25","1","1","3","2","","0","1","0","1076","","","<img src = 'targets/mask.png' width = '100%;'>","75","pos","GS","GSnew","3","category3/GS1.png","targets/16.png","1","indirect","33",""
"","html-keyboard-response","227","455271","0.0-10.0-0.10","4f19fjp626","many_one","0","indirect_first","0","EL06ER28","0","25","1","1","3","2","","0","1","0","null","","","<div style=""font-size:60px;"">+</div>","null","","","","","","","","","",""
"","html-keyboard-response","228","455364","0.0-10.0-1.10","4f19fjp626","many_one","0","indirect_first","0","EL06ER28","0","25","1","1","3","2","","0","1","0","null","","","<img src = 'category4/GS3.png' width = '100%;'>","null","","","","","","","","","",""
"","html-keyboard-response","229","455643","0.0-10.0-2.10","4f19fjp626","many_one","0","indirect_first","0","EL06ER28","0","25","1","1","3","2","","0","1","0","null","","","<img src = 'targets/8.png' width = '100%;'>","null","","","","","","","","","",""
"","html-keyboard-response","230","456620","0.0-10.0-3.10","4f19fjp626","many_one","0","indirect_first","0","EL06ER28","0","25","1","1","3","2","","0","1","0","975","","","<img src = 'targets/mask.png' width = '100%;'>","68","neg","GS","GSnew","4","category4/GS3.png","targets/8.png","0","indirect","34",""
"","html-keyboard-response","231","458138","0.0-10.0-0.11","4f19fjp626","many_one","0","indirect_first","0","EL06ER28","0","25","1","1","3","2","","0","1","0","null","","","<div style=""font-size:60px;"">+</div>","null","","","","","","","","","",""
"","html-keyboard-response","232","458230","0.0-10.0-1.11","4f19fjp626","many_one","0","indirect_first","0","EL06ER28","0","25","1","1","3","2","","0","1","0","null","","","<img src = 'category3/CS6.png' width = '100%;'>","null","","","","","","","","","",""
"","html-keyboard-response","233","458511","0.0-10.0-2.11","4f19fjp626","many_one","0","indirect_first","0","EL06ER28","0","25","1","1","3","2","","0","1","0","null","","","<img src = 'targets/15.png' width = '100%;'>","null","","","","","","","","","",""
"","html-keyboard-response","234","459113","0.0-10.0-3.11","4f19fjp626","many_one","0","indirect_first","0","EL06ER28","0","25","1","1","3","2","","0","1","0","601","","","<img src = 'targets/mask.png' width = '100%;'>","75","pos","GS","GSold","3","category3/CS6.png","targets/15.png","1","indirect","35",""
"","html-keyboard-response","235","460626","0.0-10.0-0.12","4f19fjp626","many_one","0","indirect_first","0","EL06ER28","0","25","1","1","3","2","","0","1","0","null","","","<div style=""font-size:60px;"">+</div>","null","","","","","","","","","",""
"","html-keyboard-response","236","460719","0.0-10.0-1.12","4f19fjp626","many_one","0","indirect_first","0","EL06ER28","0","25","1","1","3","2","","0","1","0","null","","","<img src = 'category2/CS1.png' width = '100%;'>","null","","","","","","","","","",""
"","html-keyboard-response","237","460998","0.0-10.0-2.12","4f19fjp626","many_one","0","indirect_first","0","EL06ER28","0","25","1","1","3","2","","0","1","0","null","","","<img src = 'targets/35.png' width = '100%;'>","null","","","","","","","","","",""
"","html-keyboard-response","238","461310","0.0-10.0-3.12","4f19fjp626","many_one","0","indirect_first","0","EL06ER28","0","25","1","1","3","2","","0","1","0","311","","","<img src = 'targets/mask.png' width = '100%;'>","68","neg","GS","GSold","2","category2/CS1.png","targets/35.png","0","indirect","36",""
"","html-keyboard-response","239","462829","0.0-10.0-0.13","4f19fjp626","many_one","0","indirect_first","0","EL06ER28","0","25","1","1","3","2","","0","1","0","null","","","<div style=""font-size:60px;"">+</div>","null","","","","","","","","","",""
"","html-keyboard-response","240","462923","0.0-10.0-1.13","4f19fjp626","many_one","0","indirect_first","0","EL06ER28","0","25","1","1","3","2","","0","1","0","null","","","<img src = 'category3/GS3.png' width = '100%;'>","null","","","","","","","","","",""
"","html-keyboard-response","241","463188","0.0-10.0-2.13","4f19fjp626","many_one","0","indirect_first","0","EL06ER28","0","25","1","1","3","2","","0","1","0","null","","","<img src = 'targets/26.png' width = '100%;'>","null","","","","","","","","","",""
"","html-keyboard-response","242","463590","0.0-10.0-3.13","4f19fjp626","many_one","0","indirect_first","0","EL06ER28","0","25","1","1","3","2","","0","1","0","401","","","<img src = 'targets/mask.png' width = '100%;'>","75","pos","GS","GSnew","3","category3/GS3.png","targets/26.png","1","indirect","37",""
"","html-keyboard-response","243","465099","0.0-10.0-0.14","4f19fjp626","many_one","0","indirect_first","0","EL06ER28","0","25","1","1","3","2","","0","1","0","null","","","<div style=""font-size:60px;"">+</div>","null","","","","","","","","","",""
"","html-keyboard-response","244","465191","0.0-10.0-1.14","4f19fjp626","many_one","0","indirect_first","0","EL06ER28","0","25","1","1","3","2","","0","1","0","null","","","<img src = 'category2/men.png' width = '100%;'>","null","","","","","","","","","",""
"","html-keyboard-response","245","465471","0.0-10.0-2.14","4f19fjp626","many_one","0","indirect_first","0","EL06ER28","0","25","1","1","3","2","","0","1","0","null","","","<img src = 'targets/2.png' width = '100%;'>","null","","","","","","","","","",""
"","html-keyboard-response","246","465917","0.0-10.0-3.14","4f19fjp626","many_one","0","indirect_first","0","EL06ER28","0","25","1","1","3","2","","0","1","0","445","","","<img src = 'targets/mask.png' width = '100%;'>","68","neg","GS","abstract","2","category2/men.png","targets/2.png","0","indirect","38",""
"","html-keyboard-response","247","467429","0.0-10.0-0.15","4f19fjp626","many_one","0","indirect_first","0","EL06ER28","0","25","1","1","3","2","","0","1","0","null","","","<div style=""font-size:60px;"">+</div>","null","","","","","","","","","",""
"","html-keyboard-response","248","467522","0.0-10.0-1.15","4f19fjp626","many_one","0","indirect_first","0","EL06ER28","0","25","1","1","3","2","","0","1","0","null","","","<img src = 'category4/lin.png' width = '100%;'>","null","","","","","","","","","",""
"","html-keyboard-response","249","467802","0.0-10.0-2.15","4f19fjp626","many_one","0","indirect_first","0","EL06ER28","0","25","1","1","3","2","","0","1","0","null","","","<img src = 'targets/21.png' width = '100%;'>","null","","","","","","","","","",""
"","html-keyboard-response","250","468363","0.0-10.0-3.15","4f19fjp626","many_one","0","indirect_first","0","EL06ER28","0","25","1","1","3","2","","0","1","0","559","","","<img src = 'targets/mask.png' width = '100%;'>","75","neg","GS","abstract","4","category4/lin.png","targets/21.png","1","indirect","39",""
"","html-keyboard-response","251","469874","0.0-10.0-0.16","4f19fjp626","many_one","0","indirect_first","0","EL06ER28","0","25","1","1","3","2","","0","1","0","null","","","<div style=""font-size:60px;"">+</div>","null","","","","","","","","","",""
"","html-keyboard-response","252","469968","0.0-10.0-1.16","4f19fjp626","many_one","0","indirect_first","0","EL06ER28","0","25","1","1","3","2","","0","1","0","null","","","<img src = 'category4/GS1.png' width = '100%;'>","null","","","","","","","","","",""
"","html-keyboard-response","253","470245","0.0-10.0-2.16","4f19fjp626","many_one","0","indirect_first","0","EL06ER28","0","25","1","1","3","2","","0","1","0","null","","","<img src = 'targets/32.png' width = '100%;'>","null","","","","","","","","","",""
"","html-keyboard-response","254","470610","0.0-10.0-3.16","4f19fjp626","many_one","0","indirect_first","0","EL06ER28","0","25","1","1","3","2","","0","1","0","362","","","<img src = 'targets/mask.png' width = '100%;'>","68","neg","GS","GSnew","4","category4/GS1.png","targets/32.png","0","indirect","40",""
"","html-keyboard-response","255","472129","0.0-10.0-0.17","4f19fjp626","many_one","0","indirect_first","0","EL06ER28","0","25","1","1","3","2","","0","1","0","null","","","<div style=""font-size:60px;"">+</div>","null","","","","","","","","","",""
"","html-keyboard-response","256","472222","0.0-10.0-1.17","4f19fjp626","many_one","0","indirect_first","0","EL06ER28","0","25","1","1","3","2","","0","1","0","null","","","<img src = 'category2/GS3.png' width = '100%;'>","null","","","","","","","","","",""
"","html-keyboard-response","257","472502","0.0-10.0-2.17","4f19fjp626","many_one","0","indirect_first","0","EL06ER28","0","25","1","1","3","2","","0","1","0","null","","","<img src = 'targets/39.png' width = '100%;'>","null","","","","","","","","","",""
"","html-keyboard-response","258","472856","0.0-10.0-3.17","4f19fjp626","many_one","0","indirect_first","0","EL06ER28","0","25","1","1","3","2","","0","1","0","352","","","<img src = 'targets/mask.png' width = '100%;'>","68","neg","GS","GSnew","2","category2/GS3.png","targets/39.png","0","indirect","41",""
"","html-keyboard-response","259","474371","0.0-10.0-0.18","4f19fjp626","many_one","0","indirect_first","0","EL06ER28","0","25","1","1","3","2","","0","1","0","null","","","<div style=""font-size:60px;"">+</div>","null","","","","","","","","","",""
"","html-keyboard-response","260","474463","0.0-10.0-1.18","4f19fjp626","many_one","0","indirect_first","0","EL06ER28","0","25","1","1","3","2","","0","1","0","null","","","<img src = 'category1/GS2.png' width = '100%;'>","null","","","","","","","","","",""
"","html-keyboard-response","261","474743","0.0-10.0-2.18","4f19fjp626","many_one","0","indirect_first","0","EL06ER28","0","25","1","1","3","2","","0","1","0","null","","","<img src = 'targets/44.png' width = '100%;'>","null","","","","","","","","","",""
"","html-keyboard-response","262","475186","0.0-10.0-3.18","4f19fjp626","many_one","0","indirect_first","0","EL06ER28","0","25","1","1","3","2","","0","1","0","442","","","<img src = 'targets/mask.png' width = '100%;'>","68","pos","GS","GSnew","1","category1/GS2.png","targets/44.png","0","indirect","42",""
"","html-keyboard-response","263","476700","0.0-10.0-0.19","4f19fjp626","many_one","0","indirect_first","0","EL06ER28","0","25","1","1","3","2","","0","1","0","null","","","<div style=""font-size:60px;"">+</div>","null","","","","","","","","","",""
"","html-keyboard-response","264","476794","0.0-10.0-1.19","4f19fjp626","many_one","0","indirect_first","0","EL06ER28","0","25","1","1","3","2","","0","1","0","null","","","<img src = 'category1/GS3.png' width = '100%;'>","null","","","","","","","","","",""
"","html-keyboard-response","265","477072","0.0-10.0-2.19","4f19fjp626","many_one","0","indirect_first","0","EL06ER28","0","25","1","1","3","2","","0","1","0","null","","","<img src = 'targets/45.png' width = '100%;'>","null","","","","","","","","","",""
"","html-keyboard-response","266","477652","0.0-10.0-3.19","4f19fjp626","many_one","0","indirect_first","0","EL06ER28","0","25","1","1","3","2","","0","1","0","580","","","<img src = 'targets/mask.png' width = '100%;'>","75","pos","GS","GSnew","1","category1/GS3.png","targets/45.png","1","indirect","43",""
"","html-keyboard-response","267","479170","0.0-10.0-0.20","4f19fjp626","many_one","0","indirect_first","0","EL06ER28","0","25","1","1","3","2","","0","1","0","null","","","<div style=""font-size:60px;"">+</div>","null","","","","","","","","","",""
"","html-keyboard-response","268","479262","0.0-10.0-1.20","4f19fjp626","many_one","0","indirect_first","0","EL06ER28","0","25","1","1","3","2","","0","1","0","null","","","<img src = 'category1/GS1.png' width = '100%;'>","null","","","","","","","","","",""
"","html-keyboard-response","269","479542","0.0-10.0-2.20","4f19fjp626","many_one","0","indirect_first","0","EL06ER28","0","25","1","1","3","2","","0","1","0","null","","","<img src = 'targets/22.png' width = '100%;'>","null","","","","","","","","","",""
"","html-keyboard-response","270","480194","0.0-10.0-3.20","4f19fjp626","many_one","0","indirect_first","0","EL06ER28","0","25","1","1","3","2","","0","1","0","652","","","<img src = 'targets/mask.png' width = '100%;'>","75","pos","GS","GSnew","1","category1/GS1.png","targets/22.png","1","indirect","44",""
"","html-keyboard-response","271","481710","0.0-10.0-0.21","4f19fjp626","many_one","0","indirect_first","0","EL06ER28","0","25","1","1","3","2","","0","1","0","null","","","<div style=""font-size:60px;"">+</div>","null","","","","","","","","","",""
"","html-keyboard-response","272","481804","0.0-10.0-1.21","4f19fjp626","many_one","0","indirect_first","0","EL06ER28","0","25","1","1","3","2","","0","1","0","null","","","<img src = 'category3/GS2.png' width = '100%;'>","null","","","","","","","","","",""
"","html-keyboard-response","273","482082","0.0-10.0-2.21","4f19fjp626","many_one","0","indirect_first","0","EL06ER28","0","25","1","1","3","2","","0","1","0","null","","","<img src = 'targets/7.png' width = '100%;'>","null","","","","","","","","","",""
"","html-keyboard-response","274","482864","0.0-10.0-3.21","4f19fjp626","many_one","0","indirect_first","0","EL06ER28","0","25","1","1","3","2","","0","1","0","781","","","<img src = 'targets/mask.png' width = '100%;'>","75","pos","GS","GSnew","3","category3/GS2.png","targets/7.png","1","indirect","45",""
"","html-keyboard-response","275","484385","0.0-10.0-0.22","4f19fjp626","many_one","0","indirect_first","0","EL06ER28","0","25","1","1","3","2","","0","1","0","null","","","<div style=""font-size:60px;"">+</div>","null","","","","","","","","","",""
"","html-keyboard-response","276","484478","0.0-10.0-1.22","4f19fjp626","many_one","0","indirect_first","0","EL06ER28","0","25","1","1","3","2","","0","1","0","null","","","<img src = 'category1/CS4.png' width = '100%;'>","null","","","","","","","","","",""
"","html-keyboard-response","277","484743","0.0-10.0-2.22","4f19fjp626","many_one","0","indirect_first","0","EL06ER28","0","25","1","1","3","2","","0","1","0","null","","","<img src = 'targets/40.png' width = '100%;'>","null","","","","","","","","","",""
"","html-keyboard-response","278","485411","0.0-10.0-3.22","4f19fjp626","many_one","0","indirect_first","0","EL06ER28","0","25","1","1","3","2","","0","1","0","667","","","<img src = 'targets/mask.png' width = '100%;'>","75","pos","GS","GSold","1","category1/CS4.png","targets/40.png","1","indirect","46",""
"","html-keyboard-response","279","486936","0.0-10.0-0.23","4f19fjp626","many_one","0","indirect_first","0","EL06ER28","0","25","1","1","3","2","","0","1","0","null","","","<div style=""font-size:60px;"">+</div>","null","","","","","","","","","",""
"","html-keyboard-response","280","487029","0.0-10.0-1.23","4f19fjp626","many_one","0","indirect_first","0","EL06ER28","0","25","1","1","3","2","","0","1","0","null","","","<img src = 'category2/GS1.png' width = '100%;'>","null","","","","","","","","","",""
"","html-keyboard-response","281","487308","0.0-10.0-2.23","4f19fjp626","many_one","0","indirect_first","0","EL06ER28","0","25","1","1","3","2","","0","1","0","null","","","<img src = 'targets/34.png' width = '100%;'>","null","","","","","","","","","",""
"","html-keyboard-response","282","487728","0.0-10.0-3.23","4f19fjp626","many_one","0","indirect_first","0","EL06ER28","0","25","1","1","3","2","","0","1","0","419","","","<img src = 'targets/mask.png' width = '100%;'>","75","neg","GS","GSnew","2","category2/GS1.png","targets/34.png","1","indirect","47",""
"","survey-html-form","283","493439","0.0-11.0","4f19fjp626","many_one","0","indirect_first","0","EL06ER28","0","25","1","1","3","2","","0","1","0","5198","","{}","","","","","","","","","","","",""
"","image-slider-response","284","498335","0.0-12.0-0.0","4f19fjp626","many_one","0","indirect_first","0","EL06ER28","0","25","1","1","3","2","","0","1","0","2890","","","","","neg","GS","GSold","2","category2/CS1.png","targets/35.png","","direct","","-61"
"","image-slider-response","285","500751","0.0-12.0-0.1","4f19fjp626","many_one","0","indirect_first","0","EL06ER28","0","25","1","1","3","2","","0","1","0","2415","","","","","pos","GS","GSnew","3","category3/GS2.png","targets/7.png","","direct","","40"
"","image-slider-response","286","504159","0.0-12.0-0.2","4f19fjp626","many_one","0","indirect_first","0","EL06ER28","0","25","1","1","3","2","","0","1","0","3407","","","","","neg","CS","CS","4","category4/CS3.png","targets/6.png","","direct","","-41"
"","image-slider-response","287","506303","0.0-12.0-0.3","4f19fjp626","many_one","0","indirect_first","0","EL06ER28","0","25","1","1","3","2","","0","1","0","2143","","","","","pos","GS","GSnew","1","category1/GS3.png","targets/45.png","","direct","","43"
"","image-slider-response","288","509656","0.0-12.0-0.4","4f19fjp626","many_one","0","indirect_first","0","EL06ER28","0","25","1","1","3","2","","0","1","0","3351","","","","","neg","CS","CS","4","category4/CS8.png","targets/19.png","","direct","","42"
"","image-slider-response","289","511798","0.0-12.0-0.5","4f19fjp626","many_one","0","indirect_first","0","EL06ER28","0","25","1","1","3","2","","0","1","0","2141","","","","","neg","CS","CS","4","category4/CS1.png","targets/27.png","","direct","","-42"
"","image-slider-response","290","514024","0.0-12.0-0.6","4f19fjp626","many_one","0","indirect_first","0","EL06ER28","0","25","1","1","3","2","","0","1","0","2223","","","","","pos","GS","GSold","3","category3/CS4.png","targets/23.png","","direct","","52"
"","image-slider-response","291","519063","0.0-12.0-0.7","4f19fjp626","many_one","0","indirect_first","0","EL06ER28","0","25","1","1","3","2","","0","1","0","5039","","","","","neg","CS","CS","2","category2/CS3.png","targets/28.png","","direct","","-74"
"","image-slider-response","292","521055","0.0-12.0-0.8","4f19fjp626","many_one","0","indirect_first","0","EL06ER28","0","25","1","1","3","2","","0","1","0","1992","","","","","neg","CS","CS","2","category2/CS4.png","targets/13.png","","direct","","-62"
"","image-slider-response","293","524151","0.0-12.0-0.9","4f19fjp626","many_one","0","indirect_first","0","EL06ER28","0","25","1","1","3","2","","0","1","0","3095","","","","","neg","GS","GSnew","4","category4/GS1.png","targets/32.png","","direct","","47"
"","image-slider-response","294","526399","0.0-12.0-0.10","4f19fjp626","many_one","0","indirect_first","0","EL06ER28","0","25","1","1","3","2","","0","1","0","2246","","","","","pos","GS","GSold","3","category3/CS5.png","targets/38.png","","direct","","78"
"","image-slider-response","295","528815","0.0-12.0-0.11","4f19fjp626","many_one","0","indirect_first","0","EL06ER28","0","25","1","1","3","2","","0","1","0","2416","","","","","neg","CS","CS","4","category4/CS9.png","targets/24.png","","direct","","44"
"","image-slider-response","296","534255","0.0-12.0-0.12","4f19fjp626","many_one","0","indirect_first","0","EL06ER28","0","25","1","1","3","2","","0","1","0","5438","","","","","pos","CS","CS","3","category3/CS2.png","targets/31.png","","direct","","57"
"","image-slider-response","297","537655","0.0-12.0-0.13","4f19fjp626","many_one","0","indirect_first","0","EL06ER28","0","25","1","1","3","2","","0","1","0","3400","","","","","pos","CS","CS","3","category3/CS7.png","targets/11.png","","direct","","70"
"","image-slider-response","298","541927","0.0-12.0-0.14","4f19fjp626","many_one","0","indirect_first","0","EL06ER28","0","25","1","1","3","2","","0","1","0","4271","","","","","pos","GS","GSnew","3","category3/GS1.png","targets/16.png","","direct","","50"
"","image-slider-response","299","544447","0.0-12.0-0.15","4f19fjp626","many_one","0","indirect_first","0","EL06ER28","0","25","1","1","3","2","","0","1","0","2517","","","","","neg","GS","GSnew","4","category4/GS3.png","targets/8.png","","direct","","42"
"","image-slider-response","300","546991","0.0-12.0-0.16","4f19fjp626","many_one","0","indirect_first","0","EL06ER28","0","25","1","1","3","2","","0","1","0","2543","","","","","neg","CS","CS","2","category2/CS2.png","targets/5.png","","direct","","-62"
"","image-slider-response","301","549958","0.0-12.0-0.17","4f19fjp626","many_one","0","indirect_first","0","EL06ER28","0","25","1","1","3","2","","0","1","0","2966","","","","","neg","GS","abstract","2","category2/men.png","targets/2.png","","direct","","-77"
"","image-slider-response","302","552894","0.0-12.0-0.18","4f19fjp626","many_one","0","indirect_first","0","EL06ER28","0","25","1","1","3","2","","0","1","0","2935","","","","","pos","CS","CS","1","category1/CS8.png","targets/20.png","","direct","","-67"
"","image-slider-response","303","555359","0.0-12.0-0.19","4f19fjp626","many_one","0","indirect_first","0","EL06ER28","0","25","1","1","3","2","","0","1","0","2464","","","","","pos","GS","abstract","3","category3/wang.png","targets/41.png","","direct","","52"
"","image-slider-response","304","557783","0.0-12.0-0.20","4f19fjp626","many_one","0","indirect_first","0","EL06ER28","0","25","1","1","3","2","","0","1","0","2423","","","","","pos","GS","GSold","1","category1/CS3.png","targets/48.png","","direct","","61"
"","image-slider-response","305","562495","0.0-12.0-0.21","4f19fjp626","many_one","0","indirect_first","0","EL06ER28","0","25","1","1","3","2","","0","1","0","4711","","","","","pos","CS","CS","1","category1/CS6.png","targets/37.png","","direct","","49"
"","image-slider-response","306","567199","0.0-12.0-0.22","4f19fjp626","many_one","0","indirect_first","0","EL06ER28","0","25","1","1","3","2","","0","1","0","4703","","","","","pos","CS","CS","3","category3/CS9.png","targets/10.png","","direct","","20"
"","image-slider-response","307","570142","0.0-12.0-0.23","4f19fjp626","many_one","0","indirect_first","0","EL06ER28","0","25","1","1","3","2","","0","1","0","2942","","","","","neg","GS","GSold","4","category4/CS10.png","targets/29.png","","direct","","43"
"","image-slider-response","308","573487","0.0-12.0-0.24","4f19fjp626","many_one","0","indirect_first","0","EL06ER28","0","25","1","1","3","2","","0","1","0","3344","","","","","neg","GS","GSnew","2","category2/GS3.png","targets/39.png","","direct","","-59"
"","image-slider-response","309","575631","0.0-12.0-0.25","4f19fjp626","many_one","0","indirect_first","0","EL06ER28","0","25","1","1","3","2","","0","1","0","2143","","","","","pos","GS","GSnew","1","category1/GS2.png","targets/44.png","","direct","","-45"
"","image-slider-response","310","578479","0.0-12.0-0.26","4f19fjp626","many_one","0","indirect_first","0","EL06ER28","0","25","1","1","3","2","","0","1","0","2847","","","","","pos","GS","GSold","1","category1/CS4.png","targets/40.png","","direct","","62"
"","image-slider-response","311","580759","0.0-12.0-0.27","4f19fjp626","many_one","0","indirect_first","0","EL06ER28","0","25","1","1","3","2","","0","1","0","2279","","","","","pos","CS","CS","3","category3/CS3.png","targets/9.png","","direct","","67"
"","image-slider-response","312","583760","0.0-12.0-0.28","4f19fjp626","many_one","0","indirect_first","0","EL06ER28","0","25","1","1","3","2","","0","1","0","2999","","","","","neg","CS","CS","2","category2/CS7.png","targets/42.png","","direct","","-55"
"","image-slider-response","313","586974","0.0-12.0-0.29","4f19fjp626","many_one","0","indirect_first","0","EL06ER28","0","25","1","1","3","2","","0","1","0","3214","","","","","pos","GS","abstract","1","category1/ma.png","targets/14.png","","direct","","-19"
"","image-slider-response","314","590207","0.0-12.0-0.30","4f19fjp626","many_one","0","indirect_first","0","EL06ER28","0","25","1","1","3","2","","0","1","0","3232","","","","","pos","CS","CS","1","category1/CS1.png","targets/4.png","","direct","","-40"
"","image-slider-response","315","592527","0.0-12.0-0.31","4f19fjp626","many_one","0","indirect_first","0","EL06ER28","0","25","1","1","3","2","","0","1","0","2319","","","","","neg","GS","GSnew","2","category2/GS2.png","targets/12.png","","direct","","-57"
"","image-slider-response","316","594991","0.0-12.0-0.32","4f19fjp626","many_one","0","indirect_first","0","EL06ER28","0","25","1","1","3","2","","0","1","0","2463","","","","","neg","GS","GSold","2","category2/CS8.png","targets/30.png","","direct","","-100"
"","image-slider-response","317","596918","0.0-12.0-0.33","4f19fjp626","many_one","0","indirect_first","0","EL06ER28","0","25","1","1","3","2","","0","1","0","1925","","","","","neg","CS","CS","2","category2/CS5.png","targets/43.png","","direct","","-69"
"","image-slider-response","318","598670","0.0-12.0-0.34","4f19fjp626","many_one","0","indirect_first","0","EL06ER28","0","25","1","1","3","2","","0","1","0","1751","","","","","neg","GS","GSnew","2","category2/GS1.png","targets/34.png","","direct","","-65"
"","image-slider-response","319","604623","0.0-12.0-0.35","4f19fjp626","many_one","0","indirect_first","0","EL06ER28","0","25","1","1","3","2","","0","1","0","5951","","","","","pos","CS","CS","1","category1/CS10.png","targets/17.png","","direct","","50"
"","image-slider-response","320","606686","0.0-12.0-0.36","4f19fjp626","many_one","0","indirect_first","0","EL06ER28","0","25","1","1","3","2","","0","1","0","2063","","","","","pos","CS","CS","1","category1/CS2.png","targets/46.png","","direct","","40"
"","image-slider-response","321","609086","0.0-12.0-0.37","4f19fjp626","many_one","0","indirect_first","0","EL06ER28","0","25","1","1","3","2","","0","1","0","2398","","","","","neg","GS","GSold","4","category4/CS7.png","targets/33.png","","direct","","-35"
"","image-slider-response","322","611039","0.0-12.0-0.38","4f19fjp626","many_one","0","indirect_first","0","EL06ER28","0","25","1","1","3","2","","0","1","0","1951","","","","","pos","GS","GSold","3","category3/CS6.png","targets/15.png","","direct","","52"
"","image-slider-response","323","613367","0.0-12.0-0.39","4f19fjp626","many_one","0","indirect_first","0","EL06ER28","0","25","1","1","3","2","","0","1","0","2327","","","","","neg","CS","CS","4","category4/CS4.png","targets/36.png","","direct","","49"
"","image-slider-response","324","615350","0.0-12.0-0.40","4f19fjp626","many_one","0","indirect_first","0","EL06ER28","0","25","1","1","3","2","","0","1","0","1982","","","","","neg","GS","GSold","2","category2/CS9.png","targets/47.png","","direct","","-62"
"","image-slider-response","325","617520","0.0-12.0-0.41","4f19fjp626","many_one","0","indirect_first","0","EL06ER28","0","25","1","1","3","2","","0","1","0","2167","","","","","pos","GS","GSold","1","category1/CS5.png","targets/25.png","","direct","","-51"
"","image-slider-response","326","619336","0.0-12.0-0.42","4f19fjp626","many_one","0","indirect_first","0","EL06ER28","0","25","1","1","3","2","","0","1","0","1815","","","","","neg","GS","GSold","4","category4/CS2.png","targets/1.png","","direct","","-60"
"","image-slider-response","327","621031","0.0-12.0-0.43","4f19fjp626","many_one","0","indirect_first","0","EL06ER28","0","25","1","1","3","2","","0","1","0","1695","","","","","neg","GS","abstract","4","category4/lin.png","targets/21.png","","direct","","-61"
"","image-slider-response","328","623399","0.0-12.0-0.44","4f19fjp626","many_one","0","indirect_first","0","EL06ER28","0","25","1","1","3","2","","0","1","0","2366","","","","","neg","GS","GSnew","4","category4/GS2.png","targets/18.png","","direct","","41"
"","image-slider-response","329","625158","0.0-12.0-0.45","4f19fjp626","many_one","0","indirect_first","0","EL06ER28","0","25","1","1","3","2","","0","1","0","1759","","","","","pos","GS","GSnew","3","category3/GS3.png","targets/26.png","","direct","","48"
"","image-slider-response","330","627087","0.0-12.0-0.46","4f19fjp626","many_one","0","indirect_first","0","EL06ER28","0","25","1","1","3","2","","0","1","0","1928","","","","","pos","GS","GSnew","1","category1/GS1.png","targets/22.png","","direct","","49"
