"";"trial_index";"task";"subject";"type";"category";"response";"rt";"cs_selected"
"176";175;"direct";"04ty3gjk9u";"CS";"1";-40;"6368.795000002137";"1_3/CS8"
"177";176;"direct";"04ty3gjk9u";"CS";"1";22;"6350.525000001653";"1_3/CS9"
"178";177;"direct";"04ty3gjk9u";"CS";"1";-44;"6404.280000002473";"1_3/CS11"
"179";178;"direct";"04ty3gjk9u";"CS";"2";-77;"4449.145000005956";"2_3/CS8"
"180";179;"direct";"04ty3gjk9u";"CS";"3";-43;"4143.7650000007125";"3_3/CS7"
"181";180;"direct";"04ty3gjk9u";"CS";"3";-35;"5619.584999993094";"3_3/CS5"
"182";181;"direct";"04ty3gjk9u";"CS";"1";-40;"4271.480000010342";"1_3/CS3"
"183";182;"direct";"04ty3gjk9u";"CS";"3";-39;"4340.109999990091";"3_3/CS10"
"184";183;"direct";"04ty3gjk9u";"CS";"3";-30;"4124.4299999962095";"3_3/CS6"
"185";184;"direct";"04ty3gjk9u";"CS";"4";-100;"3706.934999994701";"4_3/CS11"
"186";185;"direct";"04ty3gjk9u";"CS";"4";-100;"4561.220000003232";"4_3/CS12"
"187";186;"direct";"04ty3gjk9u";"CS";"1";-59;"2740.415000007488";"1_3/CS2"
"188";187;"direct";"04ty3gjk9u";"CS";"2";13;"4742.144999996526";"2_3/CS5"
"189";188;"direct";"04ty3gjk9u";"CS";"2";-100;"2585.435000000871";"2_3/CS3"
"190";189;"direct";"04ty3gjk9u";"CS";"2";-100;"2966.4499999926193";"2_3/CS7"
"191";190;"direct";"04ty3gjk9u";"CS";"3";-57;"4077.7600000001257";"3_3/CS9"
"192";191;"direct";"04ty3gjk9u";"CS";"2";-100;"3390.5050000030315";"2_3/CS10"
"193";192;"direct";"04ty3gjk9u";"CS";"1";27;"3905.8700000023236";"1_3/CS7"
"194";193;"direct";"04ty3gjk9u";"CS";"2";-100;"2609.5449999993434";"2_3/CS4"
"195";194;"direct";"04ty3gjk9u";"CS";"4";-100;"5079.039999996894";"4_3/CS9"
"196";195;"direct";"04ty3gjk9u";"CS";"4";-100;"3667.6799999986542";"4_3/CS1"
"197";196;"direct";"04ty3gjk9u";"CS";"3";-100;"2693.809999997029";"3_3/CS3"
"198";197;"direct";"04ty3gjk9u";"CS";"2";-100;"2754.9749999889173";"2_3/CS9"
"199";198;"direct";"04ty3gjk9u";"CS";"4";-100;"3620.309999998426";"4_3/CS7"
"200";199;"direct";"04ty3gjk9u";"CS";"4";-100;"4328.22500000475";"4_3/CS3"
"201";200;"direct";"04ty3gjk9u";"CS";"2";38;"4078.834999992978";"2_3/CS1"
"202";201;"direct";"04ty3gjk9u";"CS";"4";-100;"2976.6550000058487";"4_3/CS2"
"203";202;"direct";"04ty3gjk9u";"CS";"1";32;"4080.7849999982864";"1_3/CS10"
"204";203;"direct";"04ty3gjk9u";"CS";"2";31;"3631.1700000078417";"2_3/CS2"
"205";204;"direct";"04ty3gjk9u";"CS";"4";-100;"5148.675000004005";"4_3/CS4"
"206";205;"direct";"04ty3gjk9u";"CS";"3";-33;"2856.854999990901";"3_3/CS4"
"207";206;"direct";"04ty3gjk9u";"CS";"4";6;"6164.814999996452";"4_3/CS6"
"208";207;"direct";"04ty3gjk9u";"CS";"1";5;"4027.4700000009034";"1_3/CS5"
"209";208;"direct";"04ty3gjk9u";"CS";"4";-95;"4040.804999996908";"4_3/CS8"
"210";209;"direct";"04ty3gjk9u";"CS";"2";-100;"3867.9400000110036";"2_3/CS6"
"211";210;"direct";"04ty3gjk9u";"CS";"3";-100;"3468.2150000007823";"3_3/CS8"
"212";211;"direct";"04ty3gjk9u";"CS";"1";-7;"4106.775000007474";"1_3/CS6"
"213";212;"direct";"04ty3gjk9u";"CS";"1";-60;"3410.570000007283";"1_3/CS12"
"214";213;"direct";"04ty3gjk9u";"CS";"3";-90;"4248.8849999936065";"3_3/CS1"
"215";214;"direct";"04ty3gjk9u";"CS";"3";-99;"3612.825000003795";"3_3/CS2"
"878";175;"direct";"0zq54143a6";"CS";"3";-41;"5322";"3_3/CS7"
"879";176;"direct";"0zq54143a6";"CS";"2";-28;"2379";"2_3/CS6"
"880";177;"direct";"0zq54143a6";"CS";"1";-100;"3070";"1_3/CS6"
"881";178;"direct";"0zq54143a6";"CS";"4";-33;"2483";"4_3/CS3"
"882";179;"direct";"0zq54143a6";"CS";"1";-44;"2332";"1_3/CS5"
"883";180;"direct";"0zq54143a6";"CS";"1";21;"2815";"1_3/CS10"
"884";181;"direct";"0zq54143a6";"CS";"3";32;"4107";"3_3/CS6"
"885";182;"direct";"0zq54143a6";"CS";"1";39;"3206";"1_3/CS4"
"886";183;"direct";"0zq54143a6";"CS";"3";-61;"2256";"3_3/CS8"
"887";184;"direct";"0zq54143a6";"CS";"2";-100;"2031";"2_3/CS3"
"888";185;"direct";"0zq54143a6";"CS";"2";-100;"2111";"2_3/CS9"
"889";186;"direct";"0zq54143a6";"CS";"4";-91;"3005";"4_3/CS9"
"890";187;"direct";"0zq54143a6";"CS";"4";-100;"2020";"4_3/CS6"
"891";188;"direct";"0zq54143a6";"CS";"4";-100;"2172";"4_3/CS1"
"892";189;"direct";"0zq54143a6";"CS";"4";-100;"2038";"4_3/CS10"
"893";190;"direct";"0zq54143a6";"CS";"2";-100;"2027";"2_3/CS8"
"894";191;"direct";"0zq54143a6";"CS";"2";-57;"2299";"2_3/CS1"
"895";192;"direct";"0zq54143a6";"CS";"3";14;"4077";"3_3/CS4"
"896";193;"direct";"0zq54143a6";"CS";"3";-100;"2102";"3_3/CS10"
"897";194;"direct";"0zq54143a6";"CS";"2";-100;"2006";"2_3/CS2"
"898";195;"direct";"0zq54143a6";"CS";"1";-100;"2543";"1_3/CS1"
"899";196;"direct";"0zq54143a6";"CS";"3";-59;"3953";"3_3/CS9"
"900";197;"direct";"0zq54143a6";"CS";"3";32;"2254";"3_3/CS5"
"901";198;"direct";"0zq54143a6";"CS";"2";-66;"3030";"2_3/CS4"
"902";199;"direct";"0zq54143a6";"CS";"1";47;"3371";"1_3/CS3"
"903";200;"direct";"0zq54143a6";"CS";"4";-57;"2548";"4_3/CS4"
"904";201;"direct";"0zq54143a6";"CS";"3";-100;"2054";"3_3/CS1"
"905";202;"direct";"0zq54143a6";"CS";"4";-100;"2126";"4_3/CS11"
"906";203;"direct";"0zq54143a6";"CS";"2";-35;"2117";"2_3/CS7"
"907";204;"direct";"0zq54143a6";"CS";"2";-100;"1793";"2_3/CS10"
"908";205;"direct";"0zq54143a6";"CS";"1";-49;"2223";"1_3/CS7"
"909";206;"direct";"0zq54143a6";"CS";"2";-72;"4305";"2_3/CS5"
"910";207;"direct";"0zq54143a6";"CS";"4";-100;"2046";"4_3/CS5"
"911";208;"direct";"0zq54143a6";"CS";"3";-100;"2245";"3_3/CS2"
"912";209;"direct";"0zq54143a6";"CS";"1";-100;"2474";"1_3/CS11"
"913";210;"direct";"0zq54143a6";"CS";"1";-54;"2295";"1_3/CS12"
"914";211;"direct";"0zq54143a6";"CS";"1";-69;"2306";"1_3/CS2"
"915";212;"direct";"0zq54143a6";"CS";"3";-100;"1975";"3_3/CS3"
"916";213;"direct";"0zq54143a6";"CS";"4";-100;"1974";"4_3/CS8"
"917";214;"direct";"0zq54143a6";"CS";"4";54;"2544";"4_3/CS7"
"1229";175;"direct";"19k5554njc";"CS";"4";-53;"3829";"4_3/CS1"
"1230";176;"direct";"19k5554njc";"CS";"1";100;"3210";"1_3/CS10"
"1231";177;"direct";"19k5554njc";"CS";"4";-63;"2577";"4_3/CS7"
"1232";178;"direct";"19k5554njc";"CS";"1";61;"2269";"1_3/CS7"
"1233";179;"direct";"19k5554njc";"CS";"1";89;"2414";"1_3/CS4"
"1234";180;"direct";"19k5554njc";"CS";"3";-100;"2852";"3_3/CS1"
"1235";181;"direct";"19k5554njc";"CS";"2";-10;"2741";"2_3/CS3"
"1236";182;"direct";"19k5554njc";"CS";"1";-37;"4098";"1_3/CS1"
"1237";183;"direct";"19k5554njc";"CS";"3";-17;"2958";"3_3/CS10"
"1238";184;"direct";"19k5554njc";"CS";"3";-62;"3100";"3_3/CS9"
"1239";185;"direct";"19k5554njc";"CS";"4";-90;"2483";"4_3/CS8"
"1240";186;"direct";"19k5554njc";"CS";"3";25;"2708";"3_3/CS4"
"1241";187;"direct";"19k5554njc";"CS";"2";-68;"2602";"2_3/CS4"
"1242";188;"direct";"19k5554njc";"CS";"2";62;"2549";"2_3/CS7"
"1243";189;"direct";"19k5554njc";"CS";"4";-81;"2174";"4_3/CS11"
"1244";190;"direct";"19k5554njc";"CS";"3";26;"3012";"3_3/CS5"
"1245";191;"direct";"19k5554njc";"CS";"3";67;"2606";"3_3/CS6"
"1246";192;"direct";"19k5554njc";"CS";"4";-90;"2128";"4_3/CS6"
"1247";193;"direct";"19k5554njc";"CS";"1";67;"2508";"1_3/CS8"
"1248";194;"direct";"19k5554njc";"CS";"2";15;"2414";"2_3/CS1"
"1249";195;"direct";"19k5554njc";"CS";"1";-14;"3035";"1_3/CS9"
"1250";196;"direct";"19k5554njc";"CS";"2";-64;"2188";"2_3/CS8"
"1251";197;"direct";"19k5554njc";"CS";"1";100;"2486";"1_3/CS6"
"1252";198;"direct";"19k5554njc";"CS";"1";100;"2754";"1_3/CS2"
"1253";199;"direct";"19k5554njc";"CS";"1";100;"2552";"1_3/CS3"
"1254";200;"direct";"19k5554njc";"CS";"4";-100;"2581";"4_3/CS4"
"1255";201;"direct";"19k5554njc";"CS";"2";49;"2618";"2_3/CS5"
"1256";202;"direct";"19k5554njc";"CS";"2";64;"2064";"2_3/CS10"
"1257";203;"direct";"19k5554njc";"CS";"3";-19;"2405";"3_3/CS3"
"1258";204;"direct";"19k5554njc";"CS";"1";91;"2503";"1_3/CS5"
"1259";205;"direct";"19k5554njc";"CS";"4";21;"3146";"4_3/CS2"
"1260";206;"direct";"19k5554njc";"CS";"2";-29;"2283";"2_3/CS6"
"1261";207;"direct";"19k5554njc";"CS";"4";-97;"2253";"4_3/CS10"
"1262";208;"direct";"19k5554njc";"CS";"3";-46;"4344";"3_3/CS7"
"1263";209;"direct";"19k5554njc";"CS";"3";-37;"2839";"3_3/CS2"
"1264";210;"direct";"19k5554njc";"CS";"2";-82;"2578";"2_3/CS9"
"1265";211;"direct";"19k5554njc";"CS";"3";-61;"3481";"3_3/CS8"
"1266";212;"direct";"19k5554njc";"CS";"4";-97;"2994";"4_3/CS5"
"1267";213;"direct";"19k5554njc";"CS";"4";-96;"3166";"4_3/CS9"
"1268";214;"direct";"19k5554njc";"CS";"2";37;"3642";"2_3/CS2"
"1580";175;"direct";"1kkguek4q5";"CS";"4";49;"8058";"4_3/CS9"
"1581";176;"direct";"1kkguek4q5";"CS";"1";-66;"4063";"1_3/CS12"
"1582";177;"direct";"1kkguek4q5";"CS";"3";-92;"4353.000000000116";"3_3/CS1"
"1583";178;"direct";"1kkguek4q5";"CS";"4";98;"5862";"4_3/CS5"
"1584";179;"direct";"1kkguek4q5";"CS";"4";51;"8150";"4_3/CS2"
"1585";180;"direct";"1kkguek4q5";"CS";"2";85;"7477";"2_3/CS5"
"1586";181;"direct";"1kkguek4q5";"CS";"4";-71;"10247";"4_3/CS11"
"1587";182;"direct";"1kkguek4q5";"CS";"2";-42;"6068";"2_3/CS10"
"1588";183;"direct";"1kkguek4q5";"CS";"2";-25;"6995";"2_3/CS7"
"1589";184;"direct";"1kkguek4q5";"CS";"1";-19;"6476";"1_3/CS2"
"1590";185;"direct";"1kkguek4q5";"CS";"4";100;"5297";"4_3/CS10"
"1591";186;"direct";"1kkguek4q5";"CS";"3";-80;"4978.999999999884";"3_3/CS9"
"1592";187;"direct";"1kkguek4q5";"CS";"2";-23;"10773";"2_3/CS2"
"1593";188;"direct";"1kkguek4q5";"CS";"4";-75;"4185";"4_3/CS4"
"1594";189;"direct";"1kkguek4q5";"CS";"4";82;"4383.999999999884";"4_3/CS7"
"1595";190;"direct";"1kkguek4q5";"CS";"3";-60;"3829";"3_3/CS3"
"1596";191;"direct";"1kkguek4q5";"CS";"1";-34;"7514";"1_3/CS11"
"1597";192;"direct";"1kkguek4q5";"CS";"1";-78;"4823";"1_3/CS1"
"1598";193;"direct";"1kkguek4q5";"CS";"1";-87;"3159";"1_3/CS8"
"1599";194;"direct";"1kkguek4q5";"CS";"2";35;"4857.999999999884";"2_3/CS6"
"1600";195;"direct";"1kkguek4q5";"CS";"2";-27;"3390";"2_3/CS1"
"1601";196;"direct";"1kkguek4q5";"CS";"3";-24;"4458";"3_3/CS8"
"1602";197;"direct";"1kkguek4q5";"CS";"4";22;"5633";"4_3/CS12"
"1603";198;"direct";"1kkguek4q5";"CS";"3";-29;"4866.999999999884";"3_3/CS7"
"1604";199;"direct";"1kkguek4q5";"CS";"3";-37;"3236.9999999998836";"3_3/CS5"
"1605";200;"direct";"1kkguek4q5";"CS";"3";-47;"2984";"3_3/CS4"
"1606";201;"direct";"1kkguek4q5";"CS";"2";-23;"6445";"2_3/CS9"
"1607";202;"direct";"1kkguek4q5";"CS";"4";-76;"3022";"4_3/CS3"
"1608";203;"direct";"1kkguek4q5";"CS";"3";-83;"3041";"3_3/CS10"
"1609";204;"direct";"1kkguek4q5";"CS";"1";-10;"6005";"1_3/CS6"
"1610";205;"direct";"1kkguek4q5";"CS";"1";15;"3782.9999999998836";"1_3/CS4"
"1611";206;"direct";"1kkguek4q5";"CS";"3";14;"3567";"3_3/CS6"
"1612";207;"direct";"1kkguek4q5";"CS";"1";48;"4858.999999999884";"1_3/CS5"
"1613";208;"direct";"1kkguek4q5";"CS";"1";-14;"6369";"1_3/CS9"
"1614";209;"direct";"1kkguek4q5";"CS";"3";18;"3194";"3_3/CS2"
"1615";210;"direct";"1kkguek4q5";"CS";"2";-87;"3496.9999999998836";"2_3/CS8"
"1616";211;"direct";"1kkguek4q5";"CS";"2";31;"2833";"2_3/CS3"
"1617";212;"direct";"1kkguek4q5";"CS";"1";-32;"3392";"1_3/CS7"
"1618";213;"direct";"1kkguek4q5";"CS";"4";-36;"2955";"4_3/CS8"
"1619";214;"direct";"1kkguek4q5";"CS";"2";-22;"4145";"2_3/CS4"
"1931";175;"direct";"1x6x8bednv";"CS";"3";31;"8118.105000001378";"3_3/CS9"
"1932";176;"direct";"1x6x8bednv";"CS";"3";31;"3754.819999972824";"3_3/CS7"
"1933";177;"direct";"1x6x8bednv";"CS";"1";-2;"4865.300000004936";"1_3/CS11"
"1934";178;"direct";"1x6x8bednv";"CS";"4";-2;"5994.230000011157";"4_3/CS1"
"1935";179;"direct";"1x6x8bednv";"CS";"1";-3;"4309.679999947548";"1_3/CS3"
"1936";180;"direct";"1x6x8bednv";"CS";"3";-3;"4256.079999962822";"3_3/CS2"
"1937";181;"direct";"1x6x8bednv";"CS";"4";-4;"3649.894999980461";"4_3/CS11"
"1938";182;"direct";"1x6x8bednv";"CS";"3";41;"4064.220000000205";"3_3/CS10"
"1939";183;"direct";"1x6x8bednv";"CS";"4";17;"3745.6399999791756";"4_3/CS7"
"1940";184;"direct";"1x6x8bednv";"CS";"4";-1;"3388.8199999928474";"4_3/CS3"
"1941";185;"direct";"1x6x8bednv";"CS";"2";53;"6236.529999994673";"2_3/CS1"
"1942";186;"direct";"1x6x8bednv";"CS";"4";-10;"5091.630000039004";"4_3/CS9"
"1943";187;"direct";"1x6x8bednv";"CS";"4";56;"3447.379999968689";"4_3/CS8"
"1944";188;"direct";"1x6x8bednv";"CS";"3";37;"3184.60999999661";"3_3/CS5"
"1945";189;"direct";"1x6x8bednv";"CS";"1";0;"3519.090000016149";"1_3/CS8"
"1946";190;"direct";"1x6x8bednv";"CS";"1";-2;"6235.404999984894";"1_3/CS5"
"1947";191;"direct";"1x6x8bednv";"CS";"3";-2;"3719.764999987092";"3_3/CS6"
"1948";192;"direct";"1x6x8bednv";"CS";"3";-53;"4770.810000016354";"3_3/CS1"
"1949";193;"direct";"1x6x8bednv";"CS";"1";-4;"3833.4049999830313";"1_3/CS2"
"1950";194;"direct";"1x6x8bednv";"CS";"2";-65;"3305.0550000043586";"2_3/CS3"
"1951";195;"direct";"1x6x8bednv";"CS";"3";26;"3607.654999999795";"3_3/CS4"
"1952";196;"direct";"1x6x8bednv";"CS";"3";68;"3908.9249999960884";"3_3/CS3"
"1953";197;"direct";"1x6x8bednv";"CS";"1";-5;"3761.9549999944866";"1_3/CS10"
"1954";198;"direct";"1x6x8bednv";"CS";"2";-33;"4112.98999999417";"2_3/CS7"
"1955";199;"direct";"1x6x8bednv";"CS";"2";-4;"4945.305000001099";"2_3/CS2"
"1956";200;"direct";"1x6x8bednv";"CS";"2";-24;"4745.140000013635";"2_3/CS4"
"1957";201;"direct";"1x6x8bednv";"CS";"1";-6;"4503.535000025295";"1_3/CS6"
"1958";202;"direct";"1x6x8bednv";"CS";"3";12;"5791.954999964219";"3_3/CS8"
"1959";203;"direct";"1x6x8bednv";"CS";"1";-4;"4329.089999955613";"1_3/CS7"
"1960";204;"direct";"1x6x8bednv";"CS";"2";-2;"4831.369999970775";"2_3/CS9"
"1961";205;"direct";"1x6x8bednv";"CS";"1";-4;"5725.444999989122";"1_3/CS9"
"1962";206;"direct";"1x6x8bednv";"CS";"1";-4;"7656.365000002552";"1_3/CS4"
"1963";207;"direct";"1x6x8bednv";"CS";"2";15;"5313.205000013113";"2_3/CS5"
"1964";208;"direct";"1x6x8bednv";"CS";"4";-3;"3743.0850000237115";"4_3/CS6"
"1965";209;"direct";"1x6x8bednv";"CS";"4";10;"5897.645000019111";"4_3/CS12"
"1966";210;"direct";"1x6x8bednv";"CS";"2";12;"4631.620000000112";"2_3/CS10"
"1967";211;"direct";"1x6x8bednv";"CS";"4";-5;"3288.7050000135787";"4_3/CS5"
"1968";212;"direct";"1x6x8bednv";"CS";"2";35;"3562.5";"2_3/CS6"
"1969";213;"direct";"1x6x8bednv";"CS";"2";-2;"4313.614999991842";"2_3/CS8"
"1970";214;"direct";"1x6x8bednv";"CS";"4";-2;"4074.045000015758";"4_3/CS10"
"2282";175;"direct";"23ovhx752x";"CS";"1";100;"17074.810000005527";"1_3/CS12"
"2283";176;"direct";"23ovhx752x";"CS";"4";28;"5805.89499999769";"4_3/CS7"
"2284";177;"direct";"23ovhx752x";"CS";"2";100;"5514.7799999977";"2_3/CS9"
"2285";178;"direct";"23ovhx752x";"CS";"4";100;"3973.1750000064494";"4_3/CS10"
"2286";179;"direct";"23ovhx752x";"CS";"4";100;"4830.9750000044005";"4_3/CS5"
"2287";180;"direct";"23ovhx752x";"CS";"3";14;"5613.920000003418";"3_3/CS10"
"2288";181;"direct";"23ovhx752x";"CS";"3";14;"5757.205000001704";"3_3/CS5"
"2289";182;"direct";"23ovhx752x";"CS";"3";15;"3754.5000000100117";"3_3/CS9"
"2290";183;"direct";"23ovhx752x";"CS";"3";13;"4441.520000007586";"3_3/CS2"
"2291";184;"direct";"23ovhx752x";"CS";"2";100;"3722.0850000012433";"2_3/CS10"
"2292";185;"direct";"23ovhx752x";"CS";"1";100;"2986.6000000038184";"1_3/CS7"
"2293";186;"direct";"23ovhx752x";"CS";"2";-31;"8418.834999989485";"2_3/CS8"
"2294";187;"direct";"23ovhx752x";"CS";"1";100;"5591.270000004442";"1_3/CS3"
"2295";188;"direct";"23ovhx752x";"CS";"4";99;"3480.5800000031013";"4_3/CS2"
"2296";189;"direct";"23ovhx752x";"CS";"1";100;"3184.210000006715";"1_3/CS9"
"2297";190;"direct";"23ovhx752x";"CS";"1";72;"8255.76000000001";"1_3/CS11"
"2298";191;"direct";"23ovhx752x";"CS";"1";-100;"7231.805000003078";"1_3/CS8"
"2299";192;"direct";"23ovhx752x";"CS";"4";100;"3920.3899999993155";"4_3/CS12"
"2300";193;"direct";"23ovhx752x";"CS";"3";16;"4142.604999986361";"3_3/CS6"
"2301";194;"direct";"23ovhx752x";"CS";"4";100;"7055.000000007567";"4_3/CS6"
"2302";195;"direct";"23ovhx752x";"CS";"1";100;"6052.32000000251";"1_3/CS4"
"2303";196;"direct";"23ovhx752x";"CS";"1";100;"3939.859999998589";"1_3/CS1"
"2304";197;"direct";"23ovhx752x";"CS";"4";100;"3089.3749999959255";"4_3/CS11"
"2305";198;"direct";"23ovhx752x";"CS";"3";16;"3739.6000000007916";"3_3/CS4"
"2306";199;"direct";"23ovhx752x";"CS";"2";77;"4595.690000001923";"2_3/CS4"
"2307";200;"direct";"23ovhx752x";"CS";"2";99;"3997.3250000039116";"2_3/CS2"
"2308";201;"direct";"23ovhx752x";"CS";"2";100;"2881.3049999880604";"2_3/CS3"
"2309";202;"direct";"23ovhx752x";"CS";"4";100;"4410.700000007637";"4_3/CS4"
"2310";203;"direct";"23ovhx752x";"CS";"1";100;"3679.9900000041816";"1_3/CS5"
"2311";204;"direct";"23ovhx752x";"CS";"3";100;"3361.384999996517";"3_3/CS3"
"2312";205;"direct";"23ovhx752x";"CS";"2";64;"9764.265000005253";"2_3/CS5"
"2313";206;"direct";"23ovhx752x";"CS";"3";100;"3983.284999994794";"3_3/CS8"
"2314";207;"direct";"23ovhx752x";"CS";"4";100;"4204.574999996112";"4_3/CS8"
"2315";208;"direct";"23ovhx752x";"CS";"4";99;"3198.8649999984773";"4_3/CS1"
"2316";209;"direct";"23ovhx752x";"CS";"3";-100;"3699.5849999948405";"3_3/CS1"
"2317";210;"direct";"23ovhx752x";"CS";"3";100;"5907.489999997779";"3_3/CS7"
"2318";211;"direct";"23ovhx752x";"CS";"1";100;"3751.154999990831";"1_3/CS10"
"2319";212;"direct";"23ovhx752x";"CS";"2";100;"3912.369999990915";"2_3/CS7"
"2320";213;"direct";"23ovhx752x";"CS";"2";100;"3156.8849999894155";"2_3/CS6"
"2321";214;"direct";"23ovhx752x";"CS";"2";100;"3470.6199999927776";"2_3/CS1"
"2633";175;"direct";"25xs5p6ax2";"CS";"1";26;"8108.514999999898";"1_3/CS6"
"2634";176;"direct";"25xs5p6ax2";"CS";"4";-8;"8076.114999999758";"4_3/CS9"
"2635";177;"direct";"25xs5p6ax2";"CS";"1";-38;"4900.37999999919";"1_3/CS11"
"2636";178;"direct";"25xs5p6ax2";"CS";"3";20;"5053.915000000503";"3_3/CS8"
"2637";179;"direct";"25xs5p6ax2";"CS";"3";-26;"4852.170000002021";"3_3/CS5"
"2638";180;"direct";"25xs5p6ax2";"CS";"4";-38;"3636.3349999992643";"4_3/CS7"
"2639";181;"direct";"25xs5p6ax2";"CS";"1";4;"7798.105000001611";"1_3/CS5"
"2640";182;"direct";"25xs5p6ax2";"CS";"4";-35;"2860.160000000149";"4_3/CS5"
"2641";183;"direct";"25xs5p6ax2";"CS";"2";-27;"3452.7500000004657";"2_3/CS9"
"2642";184;"direct";"25xs5p6ax2";"CS";"4";13;"6421.640000000363";"4_3/CS12"
"2643";185;"direct";"25xs5p6ax2";"CS";"3";-18;"4291.750000000466";"3_3/CS3"
"2644";186;"direct";"25xs5p6ax2";"CS";"4";-16;"4644.7249999982305";"4_3/CS3"
"2645";187;"direct";"25xs5p6ax2";"CS";"3";-26;"3452.235000000801";"3_3/CS9"
"2646";188;"direct";"25xs5p6ax2";"CS";"4";-24;"3261.3550000023097";"4_3/CS10"
"2647";189;"direct";"25xs5p6ax2";"CS";"2";19;"3852.869999998715";"2_3/CS5"
"2648";190;"direct";"25xs5p6ax2";"CS";"2";20;"4228.709999999497";"2_3/CS7"
"2649";191;"direct";"25xs5p6ax2";"CS";"2";31;"4722.93499999796";"2_3/CS2"
"2650";192;"direct";"25xs5p6ax2";"CS";"2";-32;"2622.114999998128";"2_3/CS10"
"2651";193;"direct";"25xs5p6ax2";"CS";"1";-17;"2788.8099999981932";"1_3/CS9"
"2652";194;"direct";"25xs5p6ax2";"CS";"1";20;"4205.550000002375";"1_3/CS12"
"2653";195;"direct";"25xs5p6ax2";"CS";"3";-52;"4147.874999998836";"3_3/CS1"
"2654";196;"direct";"25xs5p6ax2";"CS";"3";26;"4964.785000000149";"3_3/CS10"
"2655";197;"direct";"25xs5p6ax2";"CS";"4";18;"3468.9350000007544";"4_3/CS2"
"2656";198;"direct";"25xs5p6ax2";"CS";"3";22;"3949.0849999999627";"3_3/CS7"
"2657";199;"direct";"25xs5p6ax2";"CS";"4";-44;"2132.2849999996834";"4_3/CS8"
"2658";200;"direct";"25xs5p6ax2";"CS";"1";-44;"2909.149999999441";"1_3/CS2"
"2659";201;"direct";"25xs5p6ax2";"CS";"3";8;"3732.27499999851";"3_3/CS2"
"2660";202;"direct";"25xs5p6ax2";"CS";"1";-37;"2388.739999998361";"1_3/CS8"
"2661";203;"direct";"25xs5p6ax2";"CS";"4";-36;"2389.1350000014063";"4_3/CS4"
"2662";204;"direct";"25xs5p6ax2";"CS";"3";27;"3029.18499999959";"3_3/CS6"
"2663";205;"direct";"25xs5p6ax2";"CS";"4";-36;"3324.710000000894";"4_3/CS1"
"2664";206;"direct";"25xs5p6ax2";"CS";"1";32;"2988.7549999984913";"1_3/CS7"
"2665";207;"direct";"25xs5p6ax2";"CS";"2";38;"3572.439999999944";"2_3/CS8"
"2666";208;"direct";"25xs5p6ax2";"CS";"2";-34;"2348.2949999999255";"2_3/CS6"
"2667";209;"direct";"25xs5p6ax2";"CS";"1";-29;"3358.0500000026077";"1_3/CS1"
"2668";210;"direct";"25xs5p6ax2";"CS";"2";44;"2596.9650000005495";"2_3/CS1"
"2669";211;"direct";"25xs5p6ax2";"CS";"1";24;"3100.875";"1_3/CS3"
"2670";212;"direct";"25xs5p6ax2";"CS";"2";42;"2605.2099999978673";"2_3/CS4"
"2671";213;"direct";"25xs5p6ax2";"CS";"2";-28;"3363.949999999022";"2_3/CS3"
"2672";214;"direct";"25xs5p6ax2";"CS";"3";26;"4830.389999999199";"3_3/CS4"
"2984";175;"direct";"28bx3hmnkl";"CS";"2";-69;"8419";"2_3/CS10"
"2985";176;"direct";"28bx3hmnkl";"CS";"3";23;"6101";"3_3/CS9"
"2986";177;"direct";"28bx3hmnkl";"CS";"1";67;"4624";"1_3/CS3"
"2987";178;"direct";"28bx3hmnkl";"CS";"2";-15;"5857";"2_3/CS7"
"2988";179;"direct";"28bx3hmnkl";"CS";"2";-20;"5817";"2_3/CS1"
"2989";180;"direct";"28bx3hmnkl";"CS";"4";-100;"5277";"4_3/CS5"
"2990";181;"direct";"28bx3hmnkl";"CS";"1";35;"4975";"1_3/CS6"
"2991";182;"direct";"28bx3hmnkl";"CS";"3";80;"3032";"3_3/CS2"
"2992";183;"direct";"28bx3hmnkl";"CS";"4";-36;"4736";"4_3/CS2"
"2993";184;"direct";"28bx3hmnkl";"CS";"3";36;"5123";"3_3/CS10"
"2994";185;"direct";"28bx3hmnkl";"CS";"4";-9;"7598";"4_3/CS7"
"2995";186;"direct";"28bx3hmnkl";"CS";"1";69;"3294";"1_3/CS5"
"2996";187;"direct";"28bx3hmnkl";"CS";"4";-100;"5144";"4_3/CS8"
"2997";188;"direct";"28bx3hmnkl";"CS";"1";19;"4248";"1_3/CS7"
"2998";189;"direct";"28bx3hmnkl";"CS";"1";27;"3929";"1_3/CS12"
"2999";190;"direct";"28bx3hmnkl";"CS";"3";35;"3864";"3_3/CS4"
"3000";191;"direct";"28bx3hmnkl";"CS";"3";-15;"4812";"3_3/CS3"
"3001";192;"direct";"28bx3hmnkl";"CS";"2";32;"11123";"2_3/CS5"
"3002";193;"direct";"28bx3hmnkl";"CS";"2";-97;"6509";"2_3/CS3"
"3003";194;"direct";"28bx3hmnkl";"CS";"1";-36;"4297";"1_3/CS9"
"3004";195;"direct";"28bx3hmnkl";"CS";"3";-28;"4781";"3_3/CS5"
"3005";196;"direct";"28bx3hmnkl";"CS";"3";-45;"3506";"3_3/CS7"
"3006";197;"direct";"28bx3hmnkl";"CS";"1";28;"2918";"1_3/CS4"
"3007";198;"direct";"28bx3hmnkl";"CS";"3";-35;"5498";"3_3/CS8"
"3008";199;"direct";"28bx3hmnkl";"CS";"4";-100;"4321";"4_3/CS4"
"3009";200;"direct";"28bx3hmnkl";"CS";"4";-100;"2990";"4_3/CS11"
"3010";201;"direct";"28bx3hmnkl";"CS";"2";-27;"3896";"2_3/CS8"
"3011";202;"direct";"28bx3hmnkl";"CS";"3";70;"4152";"3_3/CS6"
"3012";203;"direct";"28bx3hmnkl";"CS";"2";-71;"9532";"2_3/CS4"
"3013";204;"direct";"28bx3hmnkl";"CS";"1";-18;"4951";"1_3/CS8"
"3014";205;"direct";"28bx3hmnkl";"CS";"1";-43;"7041";"1_3/CS11"
"3015";206;"direct";"28bx3hmnkl";"CS";"4";-100;"4738";"4_3/CS9"
"3016";207;"direct";"28bx3hmnkl";"CS";"2";52;"6127";"2_3/CS2"
"3017";208;"direct";"28bx3hmnkl";"CS";"4";48;"5294";"4_3/CS12"
"3018";209;"direct";"28bx3hmnkl";"CS";"1";55;"2843";"1_3/CS2"
"3019";210;"direct";"28bx3hmnkl";"CS";"2";-100;"5574";"2_3/CS9"
"3020";211;"direct";"28bx3hmnkl";"CS";"3";-30;"5254";"3_3/CS1"
"3021";212;"direct";"28bx3hmnkl";"CS";"4";-100;"2820";"4_3/CS3"
"3022";213;"direct";"28bx3hmnkl";"CS";"2";-50;"2541";"2_3/CS6"
"3023";214;"direct";"28bx3hmnkl";"CS";"4";56;"6595";"4_3/CS10"
"3686";175;"direct";"2lgd2prbaa";"CS";"4";27;"4601.980000035837";"4_3/CS12"
"3687";176;"direct";"2lgd2prbaa";"CS";"4";-78;"4763.395000016317";"4_3/CS6"
"3688";177;"direct";"2lgd2prbaa";"CS";"2";-100;"3286.4349998999387";"2_3/CS4"
"3689";178;"direct";"2lgd2prbaa";"CS";"3";43;"3176.9000000786036";"3_3/CS2"
"3690";179;"direct";"2lgd2prbaa";"CS";"3";-17;"3222.655000165105";"3_3/CS10"
"3691";180;"direct";"2lgd2prbaa";"CS";"1";13;"3459.9450000096112";"1_3/CS5"
"3692";181;"direct";"2lgd2prbaa";"CS";"1";-27;"3846.390000078827";"1_3/CS11"
"3693";182;"direct";"2lgd2prbaa";"CS";"1";30;"2725.6449998822063";"1_3/CS2"
"3694";183;"direct";"2lgd2prbaa";"CS";"4";-100;"3389.6549998316914";"4_3/CS9"
"3695";184;"direct";"2lgd2prbaa";"CS";"2";6;"3671.89500015229";"2_3/CS6"
"3696";185;"direct";"2lgd2prbaa";"CS";"2";13;"3010.115000186488";"2_3/CS9"
"3697";186;"direct";"2lgd2prbaa";"CS";"2";12;"2980.570000130683";"2_3/CS7"
"3698";187;"direct";"2lgd2prbaa";"CS";"4";-100;"2819.795000134036";"4_3/CS8"
"3699";188;"direct";"2lgd2prbaa";"CS";"3";-44;"3084.28500010632";"3_3/CS3"
"3700";189;"direct";"2lgd2prbaa";"CS";"3";-27;"15568.105000071228";"3_3/CS7"
"3701";190;"direct";"2lgd2prbaa";"CS";"3";26;"4042.1649999916553";"3_3/CS4"
"3702";191;"direct";"2lgd2prbaa";"CS";"3";-20;"4036.3400001078844";"3_3/CS9"
"3703";192;"direct";"2lgd2prbaa";"CS";"4";-100;"2646.944999927655";"4_3/CS3"
"3704";193;"direct";"2lgd2prbaa";"CS";"3";-44;"2974.739999976009";"3_3/CS8"
"3705";194;"direct";"2lgd2prbaa";"CS";"3";-24;"3723.9850000478327";"3_3/CS6"
"3706";195;"direct";"2lgd2prbaa";"CS";"2";-13;"3680.3150000050664";"2_3/CS10"
"3707";196;"direct";"2lgd2prbaa";"CS";"2";-23;"2807.035000063479";"2_3/CS8"
"3708";197;"direct";"2lgd2prbaa";"CS";"4";-100;"2523.2649999670684";"4_3/CS2"
"3709";198;"direct";"2lgd2prbaa";"CS";"2";-36;"2771.2550000287592";"2_3/CS5"
"3710";199;"direct";"2lgd2prbaa";"CS";"4";-100;"3869.5399998687208";"4_3/CS11"
"3711";200;"direct";"2lgd2prbaa";"CS";"1";-33;"2777.2850000765175";"1_3/CS6"
"3712";201;"direct";"2lgd2prbaa";"CS";"4";-100;"2784.864999819547";"4_3/CS7"
"3713";202;"direct";"2lgd2prbaa";"CS";"4";-100;"3032.6149999164045";"4_3/CS1"
"3714";203;"direct";"2lgd2prbaa";"CS";"4";-100;"3128.580000018701";"4_3/CS4"
"3715";204;"direct";"2lgd2prbaa";"CS";"2";29;"3271.324999863282";"2_3/CS1"
"3716";205;"direct";"2lgd2prbaa";"CS";"1";-100;"4160.470000002533";"1_3/CS12"
"3717";206;"direct";"2lgd2prbaa";"CS";"2";-36;"4335.1849999744445";"2_3/CS2"
"3718";207;"direct";"2lgd2prbaa";"CS";"2";-24;"5260.22500009276";"2_3/CS3"
"3719";208;"direct";"2lgd2prbaa";"CS";"1";38;"3570.6350000109524";"1_3/CS1"
"3720";209;"direct";"2lgd2prbaa";"CS";"1";-49;"2647.7299998514354";"1_3/CS8"
"3721";210;"direct";"2lgd2prbaa";"CS";"1";-29;"3169.590000063181";"1_3/CS9"
"3722";211;"direct";"2lgd2prbaa";"CS";"3";-23;"3083.2150001078844";"3_3/CS1"
"3723";212;"direct";"2lgd2prbaa";"CS";"3";-34;"6038.005000213161";"3_3/CS5"
"3724";213;"direct";"2lgd2prbaa";"CS";"1";-31;"2980.9799999929965";"1_3/CS7"
"3725";214;"direct";"2lgd2prbaa";"CS";"1";-30;"2755.6600000243634";"1_3/CS3"
"4037";175;"direct";"2oyobcd21b";"CS";"3";-35;"8440";"3_3/CS4"
"4038";176;"direct";"2oyobcd21b";"CS";"1";-71;"4498";"1_3/CS4"
"4039";177;"direct";"2oyobcd21b";"CS";"1";30;"2960";"1_3/CS9"
"4040";178;"direct";"2oyobcd21b";"CS";"2";-36;"4027";"2_3/CS10"
"4041";179;"direct";"2oyobcd21b";"CS";"4";21;"6253";"4_3/CS2"
"4042";180;"direct";"2oyobcd21b";"CS";"1";-58;"3270";"1_3/CS7"
"4043";181;"direct";"2oyobcd21b";"CS";"1";-43;"3012";"1_3/CS10"
"4044";182;"direct";"2oyobcd21b";"CS";"2";19;"2884";"2_3/CS6"
"4045";183;"direct";"2oyobcd21b";"CS";"4";-58;"3280";"4_3/CS4"
"4046";184;"direct";"2oyobcd21b";"CS";"4";-100;"4455";"4_3/CS6"
"4047";185;"direct";"2oyobcd21b";"CS";"3";-53;"2907";"3_3/CS1"
"4048";186;"direct";"2oyobcd21b";"CS";"2";43;"5746";"2_3/CS9"
"4049";187;"direct";"2oyobcd21b";"CS";"4";78;"3440";"4_3/CS12"
"4050";188;"direct";"2oyobcd21b";"CS";"1";21;"4900";"1_3/CS1"
"4051";189;"direct";"2oyobcd21b";"CS";"2";-68;"2703";"2_3/CS8"
"4052";190;"direct";"2oyobcd21b";"CS";"3";32;"4446";"3_3/CS8"
"4053";191;"direct";"2oyobcd21b";"CS";"3";-49;"2781";"3_3/CS6"
"4054";192;"direct";"2oyobcd21b";"CS";"2";-100;"3320";"2_3/CS2"
"4055";193;"direct";"2oyobcd21b";"CS";"2";9;"4196";"2_3/CS5"
"4056";194;"direct";"2oyobcd21b";"CS";"1";24;"3300";"1_3/CS12"
"4057";195;"direct";"2oyobcd21b";"CS";"3";-60;"2918";"3_3/CS2"
"4058";196;"direct";"2oyobcd21b";"CS";"4";27;"2638";"4_3/CS9"
"4059";197;"direct";"2oyobcd21b";"CS";"2";51;"2685";"2_3/CS7"
"4060";198;"direct";"2oyobcd21b";"CS";"2";19;"2745";"2_3/CS1"
"4061";199;"direct";"2oyobcd21b";"CS";"3";4;"3546";"3_3/CS3"
"4062";200;"direct";"2oyobcd21b";"CS";"3";-68;"4117";"3_3/CS5"
"4063";201;"direct";"2oyobcd21b";"CS";"4";-78;"3446";"4_3/CS1"
"4064";202;"direct";"2oyobcd21b";"CS";"2";-58;"2907";"2_3/CS4"
"4065";203;"direct";"2oyobcd21b";"CS";"3";-49;"3302";"3_3/CS7"
"4066";204;"direct";"2oyobcd21b";"CS";"4";45;"4018";"4_3/CS8"
"4067";205;"direct";"2oyobcd21b";"CS";"1";31;"3333";"1_3/CS5"
"4068";206;"direct";"2oyobcd21b";"CS";"1";9;"2341";"1_3/CS6"
"4069";207;"direct";"2oyobcd21b";"CS";"1";-47;"3984";"1_3/CS3"
"4070";208;"direct";"2oyobcd21b";"CS";"4";-41;"3696";"4_3/CS3"
"4071";209;"direct";"2oyobcd21b";"CS";"3";-34;"6160";"3_3/CS9"
"4072";210;"direct";"2oyobcd21b";"CS";"2";32;"3357";"2_3/CS3"
"4073";211;"direct";"2oyobcd21b";"CS";"4";17;"4209";"4_3/CS7"
"4074";212;"direct";"2oyobcd21b";"CS";"3";-46;"3483";"3_3/CS10"
"4075";213;"direct";"2oyobcd21b";"CS";"1";-41;"2631";"1_3/CS2"
"4076";214;"direct";"2oyobcd21b";"CS";"4";-25;"3525";"4_3/CS11"
"4388";175;"direct";"2rqw3kun2r";"CS";"2";-24;"12695.584999999497";"2_3/CS2"
"4389";176;"direct";"2rqw3kun2r";"CS";"3";100;"7563.135000000359";"3_3/CS6"
"4390";177;"direct";"2rqw3kun2r";"CS";"1";58;"4168.879999999306";"1_3/CS7"
"4391";178;"direct";"2rqw3kun2r";"CS";"4";-31;"7291.110000000102";"4_3/CS7"
"4392";179;"direct";"2rqw3kun2r";"CS";"3";-69;"5127.300000000163";"3_3/CS10"
"4393";180;"direct";"2rqw3kun2r";"CS";"3";100;"3509.7050000004238";"3_3/CS7"
"4394";181;"direct";"2rqw3kun2r";"CS";"4";-66;"5213.854999999981";"4_3/CS6"
"4395";182;"direct";"2rqw3kun2r";"CS";"2";-1;"8677.900000000605";"2_3/CS10"
"4396";183;"direct";"2rqw3kun2r";"CS";"1";58;"6370.360000000801";"1_3/CS6"
"4397";184;"direct";"2rqw3kun2r";"CS";"2";71;"3633.250000000815";"2_3/CS1"
"4398";185;"direct";"2rqw3kun2r";"CS";"1";17;"6576.739999998594";"1_3/CS2"
"4399";186;"direct";"2rqw3kun2r";"CS";"3";-91;"5787.8199999995995";"3_3/CS8"
"4400";187;"direct";"2rqw3kun2r";"CS";"2";100;"4105.379999999073";"2_3/CS7"
"4401";188;"direct";"2rqw3kun2r";"CS";"3";27;"5382.9049999985145";"3_3/CS2"
"4402";189;"direct";"2rqw3kun2r";"CS";"4";-25;"6978.945000000764";"4_3/CS2"
"4403";190;"direct";"2rqw3kun2r";"CS";"1";21;"4794.684999999008";"1_3/CS9"
"4404";191;"direct";"2rqw3kun2r";"CS";"4";100;"4715.874999999884";"4_3/CS12"
"4405";192;"direct";"2rqw3kun2r";"CS";"1";-13;"10970.899999998393";"1_3/CS5"
"4406";193;"direct";"2rqw3kun2r";"CS";"4";-56;"7677.499999999767";"4_3/CS4"
"4407";194;"direct";"2rqw3kun2r";"CS";"1";30;"4800.540000000154";"1_3/CS12"
"4408";195;"direct";"2rqw3kun2r";"CS";"2";20;"5819.8250000005355";"2_3/CS3"
"4409";196;"direct";"2rqw3kun2r";"CS";"1";73;"5469.4500000005355";"1_3/CS10"
"4410";197;"direct";"2rqw3kun2r";"CS";"2";-68;"4788.085000000196";"2_3/CS8"
"4411";198;"direct";"2rqw3kun2r";"CS";"3";-85;"6564.52499999979";"3_3/CS1"
"4412";199;"direct";"2rqw3kun2r";"CS";"1";-81;"4697.695000000764";"1_3/CS3"
"4413";200;"direct";"2rqw3kun2r";"CS";"4";-53;"3535.82000000088";"4_3/CS11"
"4414";201;"direct";"2rqw3kun2r";"CS";"4";72;"9092.68499999959";"4_3/CS1"
"4415";202;"direct";"2rqw3kun2r";"CS";"4";47;"4253.679999999818";"4_3/CS10"
"4416";203;"direct";"2rqw3kun2r";"CS";"3";-100;"3913.709999998915";"3_3/CS5"
"4417";204;"direct";"2rqw3kun2r";"CS";"4";-57;"5109.615000001155";"4_3/CS5"
"4418";205;"direct";"2rqw3kun2r";"CS";"3";40;"4300.765000000014";"3_3/CS4"
"4419";206;"direct";"2rqw3kun2r";"CS";"4";-57;"4821.81000000122";"4_3/CS9"
"4420";207;"direct";"2rqw3kun2r";"CS";"2";12;"7008.925000000163";"2_3/CS5"
"4421";208;"direct";"2rqw3kun2r";"CS";"3";-37;"6282.769999999786";"3_3/CS9"
"4422";209;"direct";"2rqw3kun2r";"CS";"2";81;"5385.915000000736";"2_3/CS6"
"4423";210;"direct";"2rqw3kun2r";"CS";"2";52;"4480.589999999269";"2_3/CS9"
"4424";211;"direct";"2rqw3kun2r";"CS";"3";-68;"7350.7900000003865";"3_3/CS3"
"4425";212;"direct";"2rqw3kun2r";"CS";"1";-100;"4219.900000000023";"1_3/CS4"
"4426";213;"direct";"2rqw3kun2r";"CS";"2";54;"16177.630000000121";"2_3/CS4"
"4427";214;"direct";"2rqw3kun2r";"CS";"1";46;"4362.979999999981";"1_3/CS1"
"4739";175;"direct";"2topmaxcp6";"CS";"3";25;"6131";"3_3/CS10"
"4740";176;"direct";"2topmaxcp6";"CS";"2";-56;"3825";"2_3/CS4"
"4741";177;"direct";"2topmaxcp6";"CS";"3";-6;"4443";"3_3/CS9"
"4742";178;"direct";"2topmaxcp6";"CS";"2";25;"5244";"2_3/CS1"
"4743";179;"direct";"2topmaxcp6";"CS";"1";-62;"4094";"1_3/CS11"
"4744";180;"direct";"2topmaxcp6";"CS";"1";62;"5015";"1_3/CS10"
"4745";181;"direct";"2topmaxcp6";"CS";"1";-34;"3605";"1_3/CS3"
"4746";182;"direct";"2topmaxcp6";"CS";"1";-67;"4014";"1_3/CS2"
"4747";183;"direct";"2topmaxcp6";"CS";"2";-49;"7264";"2_3/CS7"
"4748";184;"direct";"2topmaxcp6";"CS";"1";-11;"3285";"1_3/CS7"
"4749";185;"direct";"2topmaxcp6";"CS";"3";-32;"3635";"3_3/CS5"
"4750";186;"direct";"2topmaxcp6";"CS";"1";54;"5453";"1_3/CS1"
"4751";187;"direct";"2topmaxcp6";"CS";"3";-19;"4255";"3_3/CS6"
"4752";188;"direct";"2topmaxcp6";"CS";"3";-58;"4234";"3_3/CS8"
"4753";189;"direct";"2topmaxcp6";"CS";"4";11;"3855";"4_3/CS12"
"4754";190;"direct";"2topmaxcp6";"CS";"4";-18;"3205";"4_3/CS8"
"4755";191;"direct";"2topmaxcp6";"CS";"3";27;"4995";"3_3/CS7"
"4756";192;"direct";"2topmaxcp6";"CS";"4";30;"3130";"4_3/CS2"
"4757";193;"direct";"2topmaxcp6";"CS";"2";-49;"4180";"2_3/CS2"
"4758";194;"direct";"2topmaxcp6";"CS";"3";-28;"3326";"3_3/CS2"
"4759";195;"direct";"2topmaxcp6";"CS";"4";-30;"5196";"4_3/CS6"
"4760";196;"direct";"2topmaxcp6";"CS";"4";-45;"3355";"4_3/CS1"
"4761";197;"direct";"2topmaxcp6";"CS";"2";-53;"3467";"2_3/CS9"
"4762";198;"direct";"2topmaxcp6";"CS";"3";-9;"5342";"3_3/CS3"
"4763";199;"direct";"2topmaxcp6";"CS";"1";21;"3544";"1_3/CS4"
"4764";200;"direct";"2topmaxcp6";"CS";"2";-53;"4594";"2_3/CS8"
"4765";201;"direct";"2topmaxcp6";"CS";"4";11;"3756";"4_3/CS3"
"4766";202;"direct";"2topmaxcp6";"CS";"1";-27;"4744";"1_3/CS12"
"4767";203;"direct";"2topmaxcp6";"CS";"3";-39;"3835";"3_3/CS4"
"4768";204;"direct";"2topmaxcp6";"CS";"4";-38;"5684";"4_3/CS9"
"4769";205;"direct";"2topmaxcp6";"CS";"4";-18;"3065";"4_3/CS10"
"4770";206;"direct";"2topmaxcp6";"CS";"2";-65;"3244";"2_3/CS6"
"4771";207;"direct";"2topmaxcp6";"CS";"2";-44;"3434";"2_3/CS3"
"4772";208;"direct";"2topmaxcp6";"CS";"3";-49;"4155";"3_3/CS1"
"4773";209;"direct";"2topmaxcp6";"CS";"4";-29;"5265";"4_3/CS5"
"4774";210;"direct";"2topmaxcp6";"CS";"1";-34;"5674";"1_3/CS8"
"4775";211;"direct";"2topmaxcp6";"CS";"1";-5;"5112";"1_3/CS6"
"4776";212;"direct";"2topmaxcp6";"CS";"2";-51;"2865";"2_3/CS10"
"4777";213;"direct";"2topmaxcp6";"CS";"2";-2;"9703";"2_3/CS5"
"4778";214;"direct";"2topmaxcp6";"CS";"4";29;"4806";"4_3/CS7"
"5090";175;"direct";"31avj7mzjj";"CS";"3";4;"6515.354999999632";"3_3/CS7"
"5091";176;"direct";"31avj7mzjj";"CS";"3";3;"4267.195000000414";"3_3/CS3"
"5092";177;"direct";"31avj7mzjj";"CS";"4";67;"3927.274999998277";"4_3/CS2"
"5093";178;"direct";"31avj7mzjj";"CS";"3";-21;"2811.5400000023656";"3_3/CS1"
"5094";179;"direct";"31avj7mzjj";"CS";"4";-53;"3893.655000003404";"4_3/CS4"
"5095";180;"direct";"31avj7mzjj";"CS";"1";69;"5563.870000001742";"1_3/CS1"
"5096";181;"direct";"31avj7mzjj";"CS";"4";-66;"3387.6950000012293";"4_3/CS11"
"5097";182;"direct";"31avj7mzjj";"CS";"3";8;"2901.064999998198";"3_3/CS5"
"5098";183;"direct";"31avj7mzjj";"CS";"3";51;"3585.829999999958";"3_3/CS6"
"5099";184;"direct";"31avj7mzjj";"CS";"3";-11;"6136.305000000051";"3_3/CS9"
"5100";185;"direct";"31avj7mzjj";"CS";"2";-71;"4743.859999998589";"2_3/CS8"
"5101";186;"direct";"31avj7mzjj";"CS";"1";-75;"3492.7800000004936";"1_3/CS2"
"5102";187;"direct";"31avj7mzjj";"CS";"4";-100;"4705.689999998896";"4_3/CS9"
"5103";188;"direct";"31avj7mzjj";"CS";"2";-73;"5186.275000000023";"2_3/CS10"
"5104";189;"direct";"31avj7mzjj";"CS";"1";-76;"4502.120000001043";"1_3/CS12"
"5105";190;"direct";"31avj7mzjj";"CS";"3";-17;"5218.659999998636";"3_3/CS10"
"5106";191;"direct";"31avj7mzjj";"CS";"1";31;"4989.955000001006";"1_3/CS10"
"5107";192;"direct";"31avj7mzjj";"CS";"4";-87;"4450.629999999306";"4_3/CS3"
"5108";193;"direct";"31avj7mzjj";"CS";"2";-69;"6223.020000001183";"2_3/CS6"
"5109";194;"direct";"31avj7mzjj";"CS";"3";-41;"7773.434999999241";"3_3/CS4"
"5110";195;"direct";"31avj7mzjj";"CS";"4";-72;"5757.159999997355";"4_3/CS8"
"5111";196;"direct";"31avj7mzjj";"CS";"2";30;"5158.605000000563";"2_3/CS1"
"5112";197;"direct";"31avj7mzjj";"CS";"2";-97;"5494.815000001923";"2_3/CS9"
"5113";198;"direct";"31avj7mzjj";"CS";"1";15;"3603.689999999944";"1_3/CS8"
"5114";199;"direct";"31avj7mzjj";"CS";"4";52;"7433.4799999997485";"4_3/CS7"
"5115";200;"direct";"31avj7mzjj";"CS";"1";20;"6259.58499999973";"1_3/CS3"
"5116";201;"direct";"31avj7mzjj";"CS";"1";25;"4196.845000002184";"1_3/CS6"
"5117";202;"direct";"31avj7mzjj";"CS";"3";44;"3945.464999997057";"3_3/CS2"
"5118";203;"direct";"31avj7mzjj";"CS";"2";-65;"3810.369999999297";"2_3/CS7"
"5119";204;"direct";"31avj7mzjj";"CS";"2";-94;"7486.0249999983935";"2_3/CS3"
"5120";205;"direct";"31avj7mzjj";"CS";"4";-88;"4297.145000000368";"4_3/CS1"
"5121";206;"direct";"31avj7mzjj";"CS";"1";17;"4873.96499999892";"1_3/CS7"
"5122";207;"direct";"31avj7mzjj";"CS";"2";81;"5236.8899999965215";"2_3/CS5"
"5123";208;"direct";"31avj7mzjj";"CS";"2";45;"3889.8349999981";"2_3/CS2"
"5124";209;"direct";"31avj7mzjj";"CS";"1";18;"5984.27000000095";"1_3/CS4"
"5125";210;"direct";"31avj7mzjj";"CS";"1";14;"3651.6850000007544";"1_3/CS9"
"5126";211;"direct";"31avj7mzjj";"CS";"3";-60;"4158.070000001346";"3_3/CS8"
"5127";212;"direct";"31avj7mzjj";"CS";"4";-41;"4514.005000000936";"4_3/CS6"
"5128";213;"direct";"31avj7mzjj";"CS";"2";-66;"4542.884999998962";"2_3/CS4"
"5129";214;"direct";"31avj7mzjj";"CS";"4";-36;"6446.749999999185";"4_3/CS12"
"6143";175;"direct";"3lnf3nscga";"CS";"3";48;"5762.4549999891315";"3_3/CS3"
"6144";176;"direct";"3lnf3nscga";"CS";"3";-84;"4909.209999983432";"3_3/CS10"
"6145";177;"direct";"3lnf3nscga";"CS";"2";-100;"2341.874999983702";"2_3/CS3"
"6146";178;"direct";"3lnf3nscga";"CS";"3";-100;"3662.354999978561";"3_3/CS9"
"6147";179;"direct";"3lnf3nscga";"CS";"2";-100;"2605.730000010226";"2_3/CS6"
"6148";180;"direct";"3lnf3nscga";"CS";"3";-27;"3357.9700000118464";"3_3/CS4"
"6149";181;"direct";"3lnf3nscga";"CS";"1";-100;"2317.5950000004377";"1_3/CS2"
"6150";182;"direct";"3lnf3nscga";"CS";"4";-84;"3150.244999997085";"4_3/CS2"
"6151";183;"direct";"3lnf3nscga";"CS";"2";-100;"2597.5449999968987";"2_3/CS9"
"6152";184;"direct";"3lnf3nscga";"CS";"1";13;"3438.304999988759";"1_3/CS3"
"6153";185;"direct";"3lnf3nscga";"CS";"4";-100;"3205.4950000019744";"4_3/CS3"
"6154";186;"direct";"3lnf3nscga";"CS";"3";-100;"2613.695000007283";"3_3/CS5"
"6155";187;"direct";"3lnf3nscga";"CS";"4";-71;"2294.065000023693";"4_3/CS11"
"6156";188;"direct";"3lnf3nscga";"CS";"3";31;"3134.1450000181794";"3_3/CS2"
"6157";189;"direct";"3lnf3nscga";"CS";"2";90;"3214.204999996582";"2_3/CS5"
"6158";190;"direct";"3lnf3nscga";"CS";"4";83;"3774.2900000012014";"4_3/CS7"
"6159";191;"direct";"3lnf3nscga";"CS";"2";-100;"2293.0499999783933";"2_3/CS10"
"6160";192;"direct";"3lnf3nscga";"CS";"1";-76;"4015.0549999962095";"1_3/CS7"
"6161";193;"direct";"3lnf3nscga";"CS";"1";0;"3173.0050000187475";"1_3/CS1"
"6162";194;"direct";"3lnf3nscga";"CS";"1";-100;"3894.1549999872223";"1_3/CS8"
"6163";195;"direct";"3lnf3nscga";"CS";"1";-100;"3197.34499999322";"1_3/CS9"
"6164";196;"direct";"3lnf3nscga";"CS";"4";100;"2614.3600000068545";"4_3/CS6"
"6165";197;"direct";"3lnf3nscga";"CS";"4";-100;"2205.9599999920465";"4_3/CS1"
"6166";198;"direct";"3lnf3nscga";"CS";"2";-100;"2790.275000006659";"2_3/CS4"
"6167";199;"direct";"3lnf3nscga";"CS";"3";-100;"3205.6849999935366";"3_3/CS8"
"6168";200;"direct";"3lnf3nscga";"CS";"2";-100;"2365.9650000045076";"2_3/CS7"
"6169";201;"direct";"3lnf3nscga";"CS";"4";-100;"3037.9850000026636";"4_3/CS12"
"6170";202;"direct";"3lnf3nscga";"CS";"3";-100;"2686.389999988023";"3_3/CS6"
"6171";203;"direct";"3lnf3nscga";"CS";"3";-100;"2702.2649999998976";"3_3/CS1"
"6172";204;"direct";"3lnf3nscga";"CS";"2";-100;"3341.9949999952223";"2_3/CS2"
"6173";205;"direct";"3lnf3nscga";"CS";"4";-100;"2540.9599999838974";"4_3/CS5"
"6174";206;"direct";"3lnf3nscga";"CS";"1";-100;"3397.880000004079";"1_3/CS10"
"6175";207;"direct";"3lnf3nscga";"CS";"1";-100;"3718.510000006063";"1_3/CS12"
"6176";208;"direct";"3lnf3nscga";"CS";"2";-100;"2900.7699999783654";"2_3/CS8"
"6177";209;"direct";"3lnf3nscga";"CS";"3";-88;"2893.19499998237";"3_3/CS7"
"6178";210;"direct";"3lnf3nscga";"CS";"4";-100;"2862.2900000191294";"4_3/CS9"
"6179";211;"direct";"3lnf3nscga";"CS";"1";-100;"2140.879999991739";"1_3/CS4"
"6180";212;"direct";"3lnf3nscga";"CS";"4";-100;"2174.4150000158697";"4_3/CS4"
"6181";213;"direct";"3lnf3nscga";"CS";"2";-100;"2670.624999998836";"2_3/CS1"
"6182";214;"direct";"3lnf3nscga";"CS";"1";-100;"2517.9150000039954";"1_3/CS5"
"6494";175;"direct";"3vrnon1bwu";"CS";"1";-77;"4186";"1_3/CS2"
"6495";176;"direct";"3vrnon1bwu";"CS";"3";-85;"17345";"3_3/CS9"
"6496";177;"direct";"3vrnon1bwu";"CS";"3";-61;"3082";"3_3/CS10"
"6497";178;"direct";"3vrnon1bwu";"CS";"2";-37;"3825";"2_3/CS10"
"6498";179;"direct";"3vrnon1bwu";"CS";"4";92;"2717";"4_3/CS7"
"6499";180;"direct";"3vrnon1bwu";"CS";"4";89;"2458";"4_3/CS11"
"6500";181;"direct";"3vrnon1bwu";"CS";"4";74;"2353";"4_3/CS10"
"6501";182;"direct";"3vrnon1bwu";"CS";"4";33;"2865";"4_3/CS4"
"6502";183;"direct";"3vrnon1bwu";"CS";"4";-19;"4172";"4_3/CS5"
"6503";184;"direct";"3vrnon1bwu";"CS";"1";-31;"3179";"1_3/CS11"
"6504";185;"direct";"3vrnon1bwu";"CS";"2";86;"3742";"2_3/CS4"
"6505";186;"direct";"3vrnon1bwu";"CS";"2";-80;"2873";"2_3/CS3"
"6506";187;"direct";"3vrnon1bwu";"CS";"1";-85;"2671";"1_3/CS4"
"6507";188;"direct";"3vrnon1bwu";"CS";"3";81;"3591";"3_3/CS5"
"6508";189;"direct";"3vrnon1bwu";"CS";"1";90;"3856";"1_3/CS10"
"6509";190;"direct";"3vrnon1bwu";"CS";"2";-92;"2601";"2_3/CS2"
"6510";191;"direct";"3vrnon1bwu";"CS";"4";-100;"3713";"4_3/CS9"
"6511";192;"direct";"3vrnon1bwu";"CS";"4";100;"2608";"4_3/CS6"
"6512";193;"direct";"3vrnon1bwu";"CS";"3";-34;"2926";"3_3/CS4"
"6513";194;"direct";"3vrnon1bwu";"CS";"4";100;"3329";"4_3/CS8"
"6514";195;"direct";"3vrnon1bwu";"CS";"1";33;"2333";"1_3/CS9"
"6515";196;"direct";"3vrnon1bwu";"CS";"2";-60;"2008";"2_3/CS7"
"6516";197;"direct";"3vrnon1bwu";"CS";"1";-90;"3750";"1_3/CS8"
"6517";198;"direct";"3vrnon1bwu";"CS";"3";-70;"2341";"3_3/CS7"
"6518";199;"direct";"3vrnon1bwu";"CS";"2";-58;"2417";"2_3/CS6"
"6519";200;"direct";"3vrnon1bwu";"CS";"2";100;"2496";"2_3/CS5"
"6520";201;"direct";"3vrnon1bwu";"CS";"3";-83;"2385";"3_3/CS3"
"6521";202;"direct";"3vrnon1bwu";"CS";"1";32;"2178";"1_3/CS3"
"6522";203;"direct";"3vrnon1bwu";"CS";"1";-77;"2953";"1_3/CS12"
"6523";204;"direct";"3vrnon1bwu";"CS";"2";-91;"4386";"2_3/CS8"
"6524";205;"direct";"3vrnon1bwu";"CS";"4";100;"3154";"4_3/CS12"
"6525";206;"direct";"3vrnon1bwu";"CS";"1";-68;"2264";"1_3/CS5"
"6526";207;"direct";"3vrnon1bwu";"CS";"1";84;"2618";"1_3/CS7"
"6527";208;"direct";"3vrnon1bwu";"CS";"2";98;"2965";"2_3/CS1"
"6528";209;"direct";"3vrnon1bwu";"CS";"3";-92;"2567";"3_3/CS8"
"6529";210;"direct";"3vrnon1bwu";"CS";"4";100;"2462";"4_3/CS1"
"6530";211;"direct";"3vrnon1bwu";"CS";"3";42;"2831";"3_3/CS2"
"6531";212;"direct";"3vrnon1bwu";"CS";"3";-73;"2841";"3_3/CS1"
"6532";213;"direct";"3vrnon1bwu";"CS";"2";-100;"2478";"2_3/CS9"
"6533";214;"direct";"3vrnon1bwu";"CS";"3";79;"1793";"3_3/CS6"
"6845";175;"direct";"4261yws2f3";"CS";"1";-64;"5405";"1_3/CS3"
"6846";176;"direct";"4261yws2f3";"CS";"4";-47;"2658";"4_3/CS7"
"6847";177;"direct";"4261yws2f3";"CS";"1";-84;"2995";"1_3/CS4"
"6848";178;"direct";"4261yws2f3";"CS";"3";24;"3999";"3_3/CS3"
"6849";179;"direct";"4261yws2f3";"CS";"4";46;"3897";"4_3/CS12"
"6850";180;"direct";"4261yws2f3";"CS";"2";38;"3225";"2_3/CS10"
"6851";181;"direct";"4261yws2f3";"CS";"4";33;"4356";"4_3/CS2"
"6852";182;"direct";"4261yws2f3";"CS";"1";13;"3849";"1_3/CS5"
"6853";183;"direct";"4261yws2f3";"CS";"2";-85;"3621";"2_3/CS4"
"6854";184;"direct";"4261yws2f3";"CS";"3";85;"4850";"3_3/CS6"
"6855";185;"direct";"4261yws2f3";"CS";"1";60;"2783";"1_3/CS1"
"6856";186;"direct";"4261yws2f3";"CS";"4";35;"2400";"4_3/CS6"
"6857";187;"direct";"4261yws2f3";"CS";"1";24;"2459";"1_3/CS12"
"6858";188;"direct";"4261yws2f3";"CS";"2";62;"2598";"2_3/CS7"
"6859";189;"direct";"4261yws2f3";"CS";"3";9;"3373";"3_3/CS10"
"6860";190;"direct";"4261yws2f3";"CS";"3";0;"2638";"3_3/CS9"
"6861";191;"direct";"4261yws2f3";"CS";"4";12;"2320";"4_3/CS10"
"6862";192;"direct";"4261yws2f3";"CS";"2";13;"3483";"2_3/CS9"
"6863";193;"direct";"4261yws2f3";"CS";"4";24;"2569";"4_3/CS4"
"6864";194;"direct";"4261yws2f3";"CS";"3";-22;"4021";"3_3/CS1"
"6865";195;"direct";"4261yws2f3";"CS";"1";-10;"2369";"1_3/CS11"
"6866";196;"direct";"4261yws2f3";"CS";"3";-38;"3235";"3_3/CS8"
"6867";197;"direct";"4261yws2f3";"CS";"3";-42;"3295";"3_3/CS7"
"6868";198;"direct";"4261yws2f3";"CS";"1";-39;"2698";"1_3/CS8"
"6869";199;"direct";"4261yws2f3";"CS";"1";-36;"3352";"1_3/CS9"
"6870";200;"direct";"4261yws2f3";"CS";"2";-61;"2340";"2_3/CS1"
"6871";201;"direct";"4261yws2f3";"CS";"4";-37;"3950";"4_3/CS9"
"6872";202;"direct";"4261yws2f3";"CS";"2";-64;"3215";"2_3/CS6"
"6873";203;"direct";"4261yws2f3";"CS";"1";-75;"3245";"1_3/CS2"
"6874";204;"direct";"4261yws2f3";"CS";"2";-60;"3412";"2_3/CS5"
"6875";205;"direct";"4261yws2f3";"CS";"2";-58;"2386";"2_3/CS8"
"6876";206;"direct";"4261yws2f3";"CS";"3";-87;"2449";"3_3/CS5"
"6877";207;"direct";"4261yws2f3";"CS";"4";-56;"2799";"4_3/CS3"
"6878";208;"direct";"4261yws2f3";"CS";"4";-48;"2340";"4_3/CS1"
"6879";209;"direct";"4261yws2f3";"CS";"3";-99;"2450";"3_3/CS2"
"6880";210;"direct";"4261yws2f3";"CS";"1";55;"2568";"1_3/CS7"
"6881";211;"direct";"4261yws2f3";"CS";"4";28;"2945";"4_3/CS5"
"6882";212;"direct";"4261yws2f3";"CS";"2";-69;"2935";"2_3/CS2"
"6883";213;"direct";"4261yws2f3";"CS";"2";-50;"3115";"2_3/CS3"
"6884";214;"direct";"4261yws2f3";"CS";"3";24;"2956";"3_3/CS4"
"7196";175;"direct";"4gqsdtz9th";"CS";"2";-7;"6310.414999999921";"2_3/CS1"
"7197";176;"direct";"4gqsdtz9th";"CS";"1";-16;"5919.404999993276";"1_3/CS3"
"7198";177;"direct";"4gqsdtz9th";"CS";"4";-36;"2665.694999988773";"4_3/CS5"
"7199";178;"direct";"4gqsdtz9th";"CS";"1";-41;"3462.329999994836";"1_3/CS2"
"7200";179;"direct";"4gqsdtz9th";"CS";"2";13;"3119.569999995292";"2_3/CS9"
"7201";180;"direct";"4gqsdtz9th";"CS";"4";-54;"2716.1099999939324";"4_3/CS8"
"7202";181;"direct";"4gqsdtz9th";"CS";"4";16;"3753.870000000461";"4_3/CS12"
"7203";182;"direct";"4gqsdtz9th";"CS";"4";18;"3260.17999999749";"4_3/CS10"
"7204";183;"direct";"4gqsdtz9th";"CS";"2";-16;"3929.8450000060257";"2_3/CS6"
"7205";184;"direct";"4gqsdtz9th";"CS";"2";1;"3345.8099999988917";"2_3/CS3"
"7206";185;"direct";"4gqsdtz9th";"CS";"1";18;"3397.8300000017043";"1_3/CS6"
"7207";186;"direct";"4gqsdtz9th";"CS";"3";4;"5008.314999999129";"3_3/CS3"
"7208";187;"direct";"4gqsdtz9th";"CS";"1";-11;"4553.910000002361";"1_3/CS10"
"7209";188;"direct";"4gqsdtz9th";"CS";"3";-31;"3217.9249999899184";"3_3/CS5"
"7210";189;"direct";"4gqsdtz9th";"CS";"4";-92;"3653.935000009369";"4_3/CS9"
"7211";190;"direct";"4gqsdtz9th";"CS";"3";-31;"4815.985000008368";"3_3/CS9"
"7212";191;"direct";"4gqsdtz9th";"CS";"1";-3;"4127.970000001369";"1_3/CS11"
"7213";192;"direct";"4gqsdtz9th";"CS";"3";-71;"3693.859999999404";"3_3/CS8"
"7214";193;"direct";"4gqsdtz9th";"CS";"3";2;"5375.969999993686";"3_3/CS7"
"7215";194;"direct";"4gqsdtz9th";"CS";"2";-18;"4707.555000000866";"2_3/CS10"
"7216";195;"direct";"4gqsdtz9th";"CS";"4";-100;"2667.635000005248";"4_3/CS1"
"7217";196;"direct";"4gqsdtz9th";"CS";"3";1;"3950.089999998454";"3_3/CS1"
"7218";197;"direct";"4gqsdtz9th";"CS";"3";2;"4543.504999994184";"3_3/CS4"
"7219";198;"direct";"4gqsdtz9th";"CS";"4";-100;"2207.7250000002095";"4_3/CS11"
"7220";199;"direct";"4gqsdtz9th";"CS";"3";-5;"5291.874999995343";"3_3/CS10"
"7221";200;"direct";"4gqsdtz9th";"CS";"1";-32;"2823.835000002873";"1_3/CS4"
"7222";201;"direct";"4gqsdtz9th";"CS";"1";9;"3567.94500000251";"1_3/CS8"
"7223";202;"direct";"4gqsdtz9th";"CS";"2";5;"3256.1600000044564";"2_3/CS4"
"7224";203;"direct";"4gqsdtz9th";"CS";"2";25;"2791.960000002291";"2_3/CS5"
"7225";204;"direct";"4gqsdtz9th";"CS";"4";-100;"2490.1650000101654";"4_3/CS4"
"7226";205;"direct";"4gqsdtz9th";"CS";"2";6;"2595.979999998235";"2_3/CS8"
"7227";206;"direct";"4gqsdtz9th";"CS";"1";-15;"3088.2049999927403";"1_3/CS1"
"7228";207;"direct";"4gqsdtz9th";"CS";"1";-24;"3815.919999993639";"1_3/CS7"
"7229";208;"direct";"4gqsdtz9th";"CS";"3";-16;"3210.40000001085";"3_3/CS6"
"7230";209;"direct";"4gqsdtz9th";"CS";"4";15;"3310.989999998128";"4_3/CS7"
"7231";210;"direct";"4gqsdtz9th";"CS";"2";-8;"4411.919999998645";"2_3/CS2"
"7232";211;"direct";"4gqsdtz9th";"CS";"1";10;"2807.8999999997905";"1_3/CS5"
"7233";212;"direct";"4gqsdtz9th";"CS";"3";-24;"3090.284999998403";"3_3/CS2"
"7234";213;"direct";"4gqsdtz9th";"CS";"2";27;"2417.6450000086334";"2_3/CS7"
"7235";214;"direct";"4gqsdtz9th";"CS";"4";-100;"3272.100000001956";"4_3/CS2"
"8249";175;"direct";"4q96ebkutq";"CS";"3";-20;"7833";"3_3/CS9"
"8250";176;"direct";"4q96ebkutq";"CS";"3";-50;"3454";"3_3/CS1"
"8251";177;"direct";"4q96ebkutq";"CS";"4";-47;"6029";"4_3/CS7"
"8252";178;"direct";"4q96ebkutq";"CS";"1";-53;"2907";"1_3/CS11"
"8253";179;"direct";"4q96ebkutq";"CS";"4";-67;"2332";"4_3/CS1"
"8254";180;"direct";"4q96ebkutq";"CS";"2";-11;"32724";"2_3/CS5"
"8255";181;"direct";"4q96ebkutq";"CS";"4";-83;"2364";"4_3/CS11"
"8256";182;"direct";"4q96ebkutq";"CS";"1";13;"2644";"1_3/CS5"
"8257";183;"direct";"4q96ebkutq";"CS";"2";-30;"2812";"2_3/CS4"
"8258";184;"direct";"4q96ebkutq";"CS";"1";-16;"2221";"1_3/CS4"
"8259";185;"direct";"4q96ebkutq";"CS";"2";30;"2412";"2_3/CS9"
"8260";186;"direct";"4q96ebkutq";"CS";"4";-27;"2941";"4_3/CS2"
"8261";187;"direct";"4q96ebkutq";"CS";"1";-36;"2053";"1_3/CS3"
"8262";188;"direct";"4q96ebkutq";"CS";"3";-22;"1684";"3_3/CS4"
"8263";189;"direct";"4q96ebkutq";"CS";"3";-43;"1845";"3_3/CS6"
"8264";190;"direct";"4q96ebkutq";"CS";"1";-22;"2061";"1_3/CS2"
"8265";191;"direct";"4q96ebkutq";"CS";"3";-23;"2117";"3_3/CS2"
"8266";192;"direct";"4q96ebkutq";"CS";"3";2;"4869";"3_3/CS8"
"8267";193;"direct";"4q96ebkutq";"CS";"2";11;"1877";"2_3/CS1"
"8268";194;"direct";"4q96ebkutq";"CS";"2";-5;"2036";"2_3/CS10"
"8269";195;"direct";"4q96ebkutq";"CS";"2";7;"2548";"2_3/CS2"
"8270";196;"direct";"4q96ebkutq";"CS";"4";-59;"1852";"4_3/CS8"
"8271";197;"direct";"4q96ebkutq";"CS";"4";-27;"3467";"4_3/CS12"
"8272";198;"direct";"4q96ebkutq";"CS";"2";2;"1724";"2_3/CS7"
"8273";199;"direct";"4q96ebkutq";"CS";"3";-15;"2020";"3_3/CS7"
"8274";200;"direct";"4q96ebkutq";"CS";"4";-44;"4229";"4_3/CS6"
"8275";201;"direct";"4q96ebkutq";"CS";"1";-34;"2004";"1_3/CS10"
"8276";202;"direct";"4q96ebkutq";"CS";"3";-32;"1684";"3_3/CS3"
"8277";203;"direct";"4q96ebkutq";"CS";"1";-33;"1797";"1_3/CS8"
"8278";204;"direct";"4q96ebkutq";"CS";"4";-31;"1701";"4_3/CS10"
"8279";205;"direct";"4q96ebkutq";"CS";"4";-33;"1549";"4_3/CS3"
"8280";206;"direct";"4q96ebkutq";"CS";"1";-36;"1780";"1_3/CS9"
"8281";207;"direct";"4q96ebkutq";"CS";"1";-36;"2349";"1_3/CS1"
"8282";208;"direct";"4q96ebkutq";"CS";"2";-30;"2452";"2_3/CS8"
"8283";209;"direct";"4q96ebkutq";"CS";"3";-23;"2964";"3_3/CS5"
"8284";210;"direct";"4q96ebkutq";"CS";"2";-70;"3468";"2_3/CS3"
"8285";211;"direct";"4q96ebkutq";"CS";"2";-9;"2300";"2_3/CS6"
"8286";212;"direct";"4q96ebkutq";"CS";"4";-73;"2476";"4_3/CS9"
"8287";213;"direct";"4q96ebkutq";"CS";"1";-69;"2422";"1_3/CS7"
"8288";214;"direct";"4q96ebkutq";"CS";"3";-67;"2532";"3_3/CS10"
"8600";175;"direct";"4qj299ew43";"CS";"1";-32;"3723";"1_3/CS12"
"8601";176;"direct";"4qj299ew43";"CS";"2";-5;"3582";"2_3/CS5"
"8602";177;"direct";"4qj299ew43";"CS";"4";-43;"2447";"4_3/CS8"
"8603";178;"direct";"4qj299ew43";"CS";"4";11;"2225";"4_3/CS6"
"8604";179;"direct";"4qj299ew43";"CS";"1";-3;"2268";"1_3/CS11"
"8605";180;"direct";"4qj299ew43";"CS";"3";39;"2713";"3_3/CS4"
"8606";181;"direct";"4qj299ew43";"CS";"4";-29;"2329";"4_3/CS3"
"8607";182;"direct";"4qj299ew43";"CS";"2";18;"2983";"2_3/CS2"
"8608";183;"direct";"4qj299ew43";"CS";"1";16;"2672";"1_3/CS6"
"8609";184;"direct";"4qj299ew43";"CS";"3";-30;"2352";"3_3/CS5"
"8610";185;"direct";"4qj299ew43";"CS";"2";37;"2312";"2_3/CS1"
"8611";186;"direct";"4qj299ew43";"CS";"2";-15;"3440";"2_3/CS4"
"8612";187;"direct";"4qj299ew43";"CS";"3";-17;"2976";"3_3/CS7"
"8613";188;"direct";"4qj299ew43";"CS";"3";-26;"2269";"3_3/CS1"
"8614";189;"direct";"4qj299ew43";"CS";"2";-19;"1928";"2_3/CS7"
"8615";190;"direct";"4qj299ew43";"CS";"4";-32;"2752";"4_3/CS4"
"8616";191;"direct";"4qj299ew43";"CS";"3";11;"2608";"3_3/CS2"
"8617";192;"direct";"4qj299ew43";"CS";"4";5;"2160";"4_3/CS10"
"8618";193;"direct";"4qj299ew43";"CS";"3";-22;"2920";"3_3/CS8"
"8619";194;"direct";"4qj299ew43";"CS";"1";20;"2405";"1_3/CS3"
"8620";195;"direct";"4qj299ew43";"CS";"2";-3;"2354";"2_3/CS6"
"8621";196;"direct";"4qj299ew43";"CS";"3";1;"2016";"3_3/CS6"
"8622";197;"direct";"4qj299ew43";"CS";"1";-11;"5514";"1_3/CS10"
"8623";198;"direct";"4qj299ew43";"CS";"3";-51;"3178";"3_3/CS10"
"8624";199;"direct";"4qj299ew43";"CS";"1";-18;"2108";"1_3/CS7"
"8625";200;"direct";"4qj299ew43";"CS";"3";10;"2366";"3_3/CS9"
"8626";201;"direct";"4qj299ew43";"CS";"1";16;"1913";"1_3/CS2"
"8627";202;"direct";"4qj299ew43";"CS";"3";-15;"2136";"3_3/CS3"
"8628";203;"direct";"4qj299ew43";"CS";"4";-48;"1804";"4_3/CS1"
"8629";204;"direct";"4qj299ew43";"CS";"4";-6;"3023";"4_3/CS5"
"8630";205;"direct";"4qj299ew43";"CS";"1";39;"2711";"1_3/CS5"
"8631";206;"direct";"4qj299ew43";"CS";"4";-8;"2447";"4_3/CS11"
"8632";207;"direct";"4qj299ew43";"CS";"2";3;"1787";"2_3/CS3"
"8633";208;"direct";"4qj299ew43";"CS";"4";16;"1985";"4_3/CS7"
"8634";209;"direct";"4qj299ew43";"CS";"4";12;"2167";"4_3/CS12"
"8635";210;"direct";"4qj299ew43";"CS";"1";18;"1959";"1_3/CS1"
"8636";211;"direct";"4qj299ew43";"CS";"2";1;"2267";"2_3/CS9"
"8637";212;"direct";"4qj299ew43";"CS";"1";18;"2929";"1_3/CS9"
"8638";213;"direct";"4qj299ew43";"CS";"2";0;"2161";"2_3/CS10"
"8639";214;"direct";"4qj299ew43";"CS";"2";-12;"2120";"2_3/CS8"
"8951";175;"direct";"51cm0jqy2l";"CS";"4";-24;"8074.809999998193";"4_3/CS3"
"8952";176;"direct";"51cm0jqy2l";"CS";"1";38;"5616.829999999027";"1_3/CS9"
"8953";177;"direct";"51cm0jqy2l";"CS";"2";-65;"3941.0250000001397";"2_3/CS8"
"8954";178;"direct";"51cm0jqy2l";"CS";"3";69;"2803.8699999961536";"3_3/CS9"
"8955";179;"direct";"51cm0jqy2l";"CS";"2";66;"2208.1550000002608";"2_3/CS6"
"8956";180;"direct";"51cm0jqy2l";"CS";"1";34;"3324.8999999995576";"1_3/CS5"
"8957";181;"direct";"51cm0jqy2l";"CS";"4";-35;"4957.464999999502";"4_3/CS8"
"8958";182;"direct";"51cm0jqy2l";"CS";"1";39;"3126.8200000049546";"1_3/CS2"
"8959";183;"direct";"51cm0jqy2l";"CS";"4";-83;"4544.129999994766";"4_3/CS11"
"8960";184;"direct";"51cm0jqy2l";"CS";"2";85;"4173.170000001905";"2_3/CS7"
"8961";185;"direct";"51cm0jqy2l";"CS";"4";-15;"2237.1450000064215";"4_3/CS5"
"8962";186;"direct";"51cm0jqy2l";"CS";"1";53;"2388.25999999966";"1_3/CS4"
"8963";187;"direct";"51cm0jqy2l";"CS";"1";18;"2566.195000006701";"1_3/CS6"
"8964";188;"direct";"51cm0jqy2l";"CS";"3";44;"3628.6200000031386";"3_3/CS1"
"8965";189;"direct";"51cm0jqy2l";"CS";"3";26;"1804.1599999996834";"3_3/CS7"
"8966";190;"direct";"51cm0jqy2l";"CS";"3";-7;"3992.2199999927543";"3_3/CS2"
"8967";191;"direct";"51cm0jqy2l";"CS";"3";-67;"2512.1949999956414";"3_3/CS3"
"8968";192;"direct";"51cm0jqy2l";"CS";"4";11;"2378.2750000028173";"4_3/CS1"
"8969";193;"direct";"51cm0jqy2l";"CS";"2";76;"2418.3349999948405";"2_3/CS3"
"8970";194;"direct";"51cm0jqy2l";"CS";"4";100;"4024.4000000021188";"4_3/CS6"
"8971";195;"direct";"51cm0jqy2l";"CS";"3";32;"2138.984999997774";"3_3/CS6"
"8972";196;"direct";"51cm0jqy2l";"CS";"1";-37;"2468.385000000242";"1_3/CS12"
"8973";197;"direct";"51cm0jqy2l";"CS";"4";57;"2774.519999998971";"4_3/CS7"
"8974";198;"direct";"51cm0jqy2l";"CS";"2";61;"4343.09499999648";"2_3/CS5"
"8975";199;"direct";"51cm0jqy2l";"CS";"1";79;"2434.9999999976717";"1_3/CS10"
"8976";200;"direct";"51cm0jqy2l";"CS";"2";75;"2089.384999999311";"2_3/CS4"
"8977";201;"direct";"51cm0jqy2l";"CS";"2";-66;"4555.345000000671";"2_3/CS10"
"8978";202;"direct";"51cm0jqy2l";"CS";"1";-44;"2510.0700000037905";"1_3/CS8"
"8979";203;"direct";"51cm0jqy2l";"CS";"3";21;"2431.974999999511";"3_3/CS5"
"8980";204;"direct";"51cm0jqy2l";"CS";"1";-15;"2618.3149999997113";"1_3/CS3"
"8981";205;"direct";"51cm0jqy2l";"CS";"2";93;"5091.059999998892";"2_3/CS1"
"8982";206;"direct";"51cm0jqy2l";"CS";"3";53;"3240.1600000010803";"3_3/CS4"
"8983";207;"direct";"51cm0jqy2l";"CS";"4";-11;"3268.4149999986403";"4_3/CS12"
"8984";208;"direct";"51cm0jqy2l";"CS";"1";46;"2382.1850000021514";"1_3/CS1"
"8985";209;"direct";"51cm0jqy2l";"CS";"3";40;"2571.3600000017323";"3_3/CS10"
"8986";210;"direct";"51cm0jqy2l";"CS";"2";81;"2265.390000000363";"2_3/CS9"
"8987";211;"direct";"51cm0jqy2l";"CS";"4";23;"2461.285000004922";"4_3/CS9"
"8988";212;"direct";"51cm0jqy2l";"CS";"3";-38;"4444.7799999979325";"3_3/CS8"
"8989";213;"direct";"51cm0jqy2l";"CS";"2";31;"2818.9449999990175";"2_3/CS2"
"8990";214;"direct";"51cm0jqy2l";"CS";"4";-41;"3019.57499999844";"4_3/CS4"
"9302";175;"direct";"52d6lro21x";"CS";"3";-2;"8278";"3_3/CS4"
"9303";176;"direct";"52d6lro21x";"CS";"4";55;"10594";"4_3/CS7"
"9304";177;"direct";"52d6lro21x";"CS";"3";10;"11166";"3_3/CS3"
"9305";178;"direct";"52d6lro21x";"CS";"2";-1;"5615";"2_3/CS10"
"9306";179;"direct";"52d6lro21x";"CS";"2";-39;"9510";"2_3/CS5"
"9307";180;"direct";"52d6lro21x";"CS";"2";-48;"6174";"2_3/CS8"
"9308";181;"direct";"52d6lro21x";"CS";"4";26;"12034";"4_3/CS5"
"9309";182;"direct";"52d6lro21x";"CS";"4";34;"7133";"4_3/CS1"
"9310";183;"direct";"52d6lro21x";"CS";"4";57;"4643";"4_3/CS10"
"9311";184;"direct";"52d6lro21x";"CS";"1";-61;"7674";"1_3/CS11"
"9312";185;"direct";"52d6lro21x";"CS";"4";35;"4016";"4_3/CS11"
"9313";186;"direct";"52d6lro21x";"CS";"3";13;"6047";"3_3/CS7"
"9314";187;"direct";"52d6lro21x";"CS";"1";-13;"4985";"1_3/CS5"
"9315";188;"direct";"52d6lro21x";"CS";"1";-17;"6905";"1_3/CS1"
"9316";189;"direct";"52d6lro21x";"CS";"3";0;"6415";"3_3/CS5"
"9317";190;"direct";"52d6lro21x";"CS";"4";3;"11166";"4_3/CS6"
"9318";191;"direct";"52d6lro21x";"CS";"2";-36;"4866";"2_3/CS4"
"9319";192;"direct";"52d6lro21x";"CS";"3";-2;"4327";"3_3/CS10"
"9320";193;"direct";"52d6lro21x";"CS";"1";-1;"6517";"1_3/CS9"
"9321";194;"direct";"52d6lro21x";"CS";"1";-2;"4194";"1_3/CS10"
"9322";195;"direct";"52d6lro21x";"CS";"3";-14;"6784";"3_3/CS9"
"9323";196;"direct";"52d6lro21x";"CS";"1";6;"8903";"1_3/CS2"
"9324";197;"direct";"52d6lro21x";"CS";"2";0;"5336";"2_3/CS9"
"9325";198;"direct";"52d6lro21x";"CS";"4";28;"4677";"4_3/CS3"
"9326";199;"direct";"52d6lro21x";"CS";"2";1;"4737";"2_3/CS2"
"9327";200;"direct";"52d6lro21x";"CS";"4";8;"14604";"4_3/CS9"
"9328";201;"direct";"52d6lro21x";"CS";"3";0;"3636";"3_3/CS2"
"9329";202;"direct";"52d6lro21x";"CS";"2";-2;"4063";"2_3/CS3"
"9330";203;"direct";"52d6lro21x";"CS";"2";1;"3836";"2_3/CS1"
"9331";204;"direct";"52d6lro21x";"CS";"2";11;"3972";"2_3/CS6"
"9332";205;"direct";"52d6lro21x";"CS";"3";-1;"3076";"3_3/CS6"
"9333";206;"direct";"52d6lro21x";"CS";"3";-11;"5325";"3_3/CS8"
"9334";207;"direct";"52d6lro21x";"CS";"3";-33;"4328";"3_3/CS1"
"9335";208;"direct";"52d6lro21x";"CS";"4";16;"8306";"4_3/CS4"
"9336";209;"direct";"52d6lro21x";"CS";"4";16;"5044";"4_3/CS12"
"9337";210;"direct";"52d6lro21x";"CS";"1";-21;"4926";"1_3/CS3"
"9338";211;"direct";"52d6lro21x";"CS";"2";-2;"3454";"2_3/CS7"
"9339";212;"direct";"52d6lro21x";"CS";"1";-1;"4476";"1_3/CS7"
"9340";213;"direct";"52d6lro21x";"CS";"1";0;"3944";"1_3/CS6"
"9341";214;"direct";"52d6lro21x";"CS";"1";-1;"8614";"1_3/CS8"
"9653";175;"direct";"566brjvjjf";"CS";"1";-56;"4907.414999999688";"1_3/CS10"
"9654";176;"direct";"566brjvjjf";"CS";"4";-16;"3589.364999999758";"4_3/CS7"
"9655";177;"direct";"566brjvjjf";"CS";"1";24;"4006.2199999992736";"1_3/CS7"
"9656";178;"direct";"566brjvjjf";"CS";"4";61;"4932.83499999973";"4_3/CS5"
"9657";179;"direct";"566brjvjjf";"CS";"1";-35;"12153.524999999674";"1_3/CS11"
"9658";180;"direct";"566brjvjjf";"CS";"2";-6;"3745.920000001206";"2_3/CS7"
"9659";181;"direct";"566brjvjjf";"CS";"4";14;"3878.360000000568";"4_3/CS8"
"9660";182;"direct";"566brjvjjf";"CS";"4";11;"3791.9799999999814";"4_3/CS9"
"9661";183;"direct";"566brjvjjf";"CS";"1";7;"4944.080000001122";"1_3/CS6"
"9662";184;"direct";"566brjvjjf";"CS";"3";-15;"3245.795000000624";"3_3/CS4"
"9663";185;"direct";"566brjvjjf";"CS";"1";-37;"3343.6399999990826";"1_3/CS12"
"9664";186;"direct";"566brjvjjf";"CS";"3";-20;"3528.7650000009453";"3_3/CS7"
"9665";187;"direct";"566brjvjjf";"CS";"3";-17;"3121.9900000013877";"3_3/CS1"
"9666";188;"direct";"566brjvjjf";"CS";"3";42;"3876.819999999483";"3_3/CS6"
"9667";189;"direct";"566brjvjjf";"CS";"3";10;"2995.305000000284";"3_3/CS3"
"9668";190;"direct";"566brjvjjf";"CS";"3";-11;"3461.124999999767";"3_3/CS9"
"9669";191;"direct";"566brjvjjf";"CS";"1";-20;"3427.2449999989476";"1_3/CS8"
"9670";192;"direct";"566brjvjjf";"CS";"1";8;"3352.1999999993714";"1_3/CS1"
"9671";193;"direct";"566brjvjjf";"CS";"4";34;"3898.745000000461";"4_3/CS11"
"9672";194;"direct";"566brjvjjf";"CS";"3";-29;"3325.4799999995157";"3_3/CS8"
"9673";195;"direct";"566brjvjjf";"CS";"2";21;"3318.8700000009267";"2_3/CS1"
"9674";196;"direct";"566brjvjjf";"CS";"2";-12;"2961.405000000028";"2_3/CS6"
"9675";197;"direct";"566brjvjjf";"CS";"1";-36;"3710.4799999997485";"1_3/CS3"
"9676";198;"direct";"566brjvjjf";"CS";"4";21;"2932.614999999758";"4_3/CS10"
"9677";199;"direct";"566brjvjjf";"CS";"2";5;"4421.605000001378";"2_3/CS5"
"9678";200;"direct";"566brjvjjf";"CS";"2";-6;"3317.0350000000326";"2_3/CS3"
"9679";201;"direct";"566brjvjjf";"CS";"2";-12;"3649.844999999972";"2_3/CS4"
"9680";202;"direct";"566brjvjjf";"CS";"4";-7;"3058.7749999995576";"4_3/CS2"
"9681";203;"direct";"566brjvjjf";"CS";"3";-9;"3258.91500000027";"3_3/CS5"
"9682";204;"direct";"566brjvjjf";"CS";"3";20;"3033.5749999994878";"3_3/CS2"
"9683";205;"direct";"566brjvjjf";"CS";"4";53;"2733.9649999995017";"4_3/CS3"
"9684";206;"direct";"566brjvjjf";"CS";"3";7;"3400.9050000004936";"3_3/CS10"
"9685";207;"direct";"566brjvjjf";"CS";"1";14;"3405.274999999092";"1_3/CS9"
"9686";208;"direct";"566brjvjjf";"CS";"2";-11;"2916.1349999995437";"2_3/CS10"
"9687";209;"direct";"566brjvjjf";"CS";"4";27;"3264.4199999995762";"4_3/CS12"
"9688";210;"direct";"566brjvjjf";"CS";"1";18;"3413.2499999996508";"1_3/CS4"
"9689";211;"direct";"566brjvjjf";"CS";"2";-42;"4712.905000000377";"2_3/CS8"
"9690";212;"direct";"566brjvjjf";"CS";"4";20;"3274.2250000010245";"4_3/CS6"
"9691";213;"direct";"566brjvjjf";"CS";"2";-34;"3197.605000001262";"2_3/CS2"
"9692";214;"direct";"566brjvjjf";"CS";"2";-22;"3748.979999998468";"2_3/CS9"
"10004";175;"direct";"5qmdrnr678";"CS";"3";16;"5927.069999990636";"3_3/CS7"
"10005";176;"direct";"5qmdrnr678";"CS";"3";10;"2645.35999999498";"3_3/CS6"
"10006";177;"direct";"5qmdrnr678";"CS";"3";13;"2184.67000000237";"3_3/CS4"
"10007";178;"direct";"5qmdrnr678";"CS";"1";49;"4926.634999996168";"1_3/CS3"
"10008";179;"direct";"5qmdrnr678";"CS";"4";27;"3127.6099999959115";"4_3/CS8"
"10009";180;"direct";"5qmdrnr678";"CS";"3";10;"3131.410000001779";"3_3/CS8"
"10010";181;"direct";"5qmdrnr678";"CS";"4";-46;"4330.254999993485";"4_3/CS12"
"10011";182;"direct";"5qmdrnr678";"CS";"2";-69;"2431.045000004815";"2_3/CS3"
"10012";183;"direct";"5qmdrnr678";"CS";"2";-31;"3439.2700000025798";"2_3/CS1"
"10013";184;"direct";"5qmdrnr678";"CS";"4";16;"2309.130000008736";"4_3/CS11"
"10014";185;"direct";"5qmdrnr678";"CS";"2";19;"2350.0650000059977";"2_3/CS2"
"10015";186;"direct";"5qmdrnr678";"CS";"2";-95;"2482.4999999982538";"2_3/CS4"
"10016";187;"direct";"5qmdrnr678";"CS";"1";30;"2613.0649999977322";"1_3/CS5"
"10017";188;"direct";"5qmdrnr678";"CS";"3";-20;"3376.040000002831";"3_3/CS10"
"10018";189;"direct";"5qmdrnr678";"CS";"4";-37;"4356.335000004037";"4_3/CS9"
"10019";190;"direct";"5qmdrnr678";"CS";"4";-17;"2387.284999989788";"4_3/CS6"
"10020";191;"direct";"5qmdrnr678";"CS";"3";6;"2418.81000000285";"3_3/CS3"
"10021";192;"direct";"5qmdrnr678";"CS";"2";-52;"1916.559999997844";"2_3/CS6"
"10022";193;"direct";"5qmdrnr678";"CS";"3";-3;"2878.980000008596";"3_3/CS2"
"10023";194;"direct";"5qmdrnr678";"CS";"2";-82;"2852.4250000045868";"2_3/CS8"
"10024";195;"direct";"5qmdrnr678";"CS";"4";7;"3801.32000001322";"4_3/CS1"
"10025";196;"direct";"5qmdrnr678";"CS";"1";33;"2485.0549999973737";"1_3/CS6"
"10026";197;"direct";"5qmdrnr678";"CS";"4";18;"2475.349999993341";"4_3/CS10"
"10027";198;"direct";"5qmdrnr678";"CS";"2";-53;"2590.7850000075996";"2_3/CS9"
"10028";199;"direct";"5qmdrnr678";"CS";"3";-15;"2204.1299999982584";"3_3/CS1"
"10029";200;"direct";"5qmdrnr678";"CS";"1";12;"4479.849999988801";"1_3/CS2"
"10030";201;"direct";"5qmdrnr678";"CS";"1";-23;"4490.214999997988";"1_3/CS12"
"10031";202;"direct";"5qmdrnr678";"CS";"1";-15;"2101.3249999959953";"1_3/CS7"
"10032";203;"direct";"5qmdrnr678";"CS";"1";-23;"5580.95499999763";"1_3/CS11"
"10033";204;"direct";"5qmdrnr678";"CS";"2";-59;"1993.2349999871803";"2_3/CS10"
"10034";205;"direct";"5qmdrnr678";"CS";"4";15;"4258.62499998766";"4_3/CS4"
"10035";206;"direct";"5qmdrnr678";"CS";"2";-88;"2590.3850000031525";"2_3/CS7"
"10036";207;"direct";"5qmdrnr678";"CS";"4";8;"2483.0149999907007";"4_3/CS2"
"10037";208;"direct";"5qmdrnr678";"CS";"3";-22;"2234.8650000058115";"3_3/CS5"
"10038";209;"direct";"5qmdrnr678";"CS";"4";8;"2840.954999992391";"4_3/CS7"
"10039";210;"direct";"5qmdrnr678";"CS";"2";-17;"3358.814999999595";"2_3/CS5"
"10040";211;"direct";"5qmdrnr678";"CS";"1";-13;"5001.810000001569";"1_3/CS9"
"10041";212;"direct";"5qmdrnr678";"CS";"3";-57;"3922.520000007353";"3_3/CS9"
"10042";213;"direct";"5qmdrnr678";"CS";"1";17;"4926.735000000917";"1_3/CS10"
"10043";214;"direct";"5qmdrnr678";"CS";"1";-48;"4683.109999998123";"1_3/CS1"
"11408";175;"direct";"7wwk3b43yt";"CS";"2";25;"4731.120000011288";"2_3/CS7"
"11409";176;"direct";"7wwk3b43yt";"CS";"1";78;"8727.324999985285";"1_3/CS1"
"11410";177;"direct";"7wwk3b43yt";"CS";"3";-78;"5764.109999989159";"3_3/CS1"
"11411";178;"direct";"7wwk3b43yt";"CS";"4";-67;"3301.5400000149384";"4_3/CS5"
"11412";179;"direct";"7wwk3b43yt";"CS";"2";-32;"5233.724999940023";"2_3/CS10"
"11413";180;"direct";"7wwk3b43yt";"CS";"3";64;"4229.114999994636";"3_3/CS6"
"11414";181;"direct";"7wwk3b43yt";"CS";"2";-60;"3887.1499999659136";"2_3/CS8"
"11415";182;"direct";"7wwk3b43yt";"CS";"2";-7;"6639.764999970794";"2_3/CS9"
"11416";183;"direct";"7wwk3b43yt";"CS";"4";-57;"3058.490000083111";"4_3/CS8"
"11417";184;"direct";"7wwk3b43yt";"CS";"4";-70;"3105.4500000318512";"4_3/CS4"
"11418";185;"direct";"7wwk3b43yt";"CS";"1";-81;"4375.770000042394";"1_3/CS12"
"11419";186;"direct";"7wwk3b43yt";"CS";"1";33;"5425.86499999743";"1_3/CS11"
"11420";187;"direct";"7wwk3b43yt";"CS";"1";46;"4981.835000100546";"1_3/CS9"
"11421";188;"direct";"7wwk3b43yt";"CS";"4";-72;"2371.264999965206";"4_3/CS3"
"11422";189;"direct";"7wwk3b43yt";"CS";"1";22;"3384.195000049658";"1_3/CS6"
"11423";190;"direct";"7wwk3b43yt";"CS";"3";-76;"4244.910000008531";"3_3/CS9"
"11424";191;"direct";"7wwk3b43yt";"CS";"2";-64;"7066.609999979846";"2_3/CS3"
"11425";192;"direct";"7wwk3b43yt";"CS";"2";61;"3865.1150000514463";"2_3/CS1"
"11426";193;"direct";"7wwk3b43yt";"CS";"3";6;"4124.865000019781";"3_3/CS7"
"11427";194;"direct";"7wwk3b43yt";"CS";"4";-72;"2786.439999938011";"4_3/CS1"
"11428";195;"direct";"7wwk3b43yt";"CS";"4";-70;"3671.3250000029802";"4_3/CS11"
"11429";196;"direct";"7wwk3b43yt";"CS";"2";-16;"3129.220000002533";"2_3/CS4"
"11430";197;"direct";"7wwk3b43yt";"CS";"4";-76;"3631.7549999803305";"4_3/CS2"
"11431";198;"direct";"7wwk3b43yt";"CS";"2";-28;"6621.964999940246";"2_3/CS2"
"11432";199;"direct";"7wwk3b43yt";"CS";"4";-33;"6587.709999992512";"4_3/CS12"
"11433";200;"direct";"7wwk3b43yt";"CS";"2";-73;"4930.915000033565";"2_3/CS6"
"11434";201;"direct";"7wwk3b43yt";"CS";"1";-69;"2657.590000075288";"1_3/CS8"
"11435";202;"direct";"7wwk3b43yt";"CS";"1";19;"4418.07500005234";"1_3/CS2"
"11436";203;"direct";"7wwk3b43yt";"CS";"1";28;"3108.989999978803";"1_3/CS3"
"11437";204;"direct";"7wwk3b43yt";"CS";"4";-70;"3965.0649999966845";"4_3/CS7"
"11438";205;"direct";"7wwk3b43yt";"CS";"1";24;"2957.6299999607727";"1_3/CS5"
"11439";206;"direct";"7wwk3b43yt";"CS";"4";-24;"5110.890000010841";"4_3/CS10"
"11440";207;"direct";"7wwk3b43yt";"CS";"3";23;"3192.604999989271";"3_3/CS5"
"11441";208;"direct";"7wwk3b43yt";"CS";"3";-10;"3823.3999999938533";"3_3/CS10"
"11442";209;"direct";"7wwk3b43yt";"CS";"3";27;"4663.384999963455";"3_3/CS4"
"11443";210;"direct";"7wwk3b43yt";"CS";"1";32;"2632.49500002712";"1_3/CS7"
"11444";211;"direct";"7wwk3b43yt";"CS";"3";52;"2696.5949999867007";"3_3/CS8"
"11445";212;"direct";"7wwk3b43yt";"CS";"3";31;"2253.7000000011176";"3_3/CS3"
"11446";213;"direct";"7wwk3b43yt";"CS";"2";15;"4914.284999947995";"2_3/CS5"
"11447";214;"direct";"7wwk3b43yt";"CS";"3";49;"2807.355000055395";"3_3/CS2"
"11759";175;"direct";"7y8fx48gtn";"CS";"3";-17;"5668.399999995017";"3_3/CS9"
"11760";176;"direct";"7y8fx48gtn";"CS";"2";-21;"3239.5350000006147";"2_3/CS6"
"11761";177;"direct";"7y8fx48gtn";"CS";"3";-23;"4387.625000003027";"3_3/CS10"
"11762";178;"direct";"7y8fx48gtn";"CS";"3";-12;"3883.5050000052433";"3_3/CS1"
"11763";179;"direct";"7y8fx48gtn";"CS";"4";28;"3341.5850000164937";"4_3/CS4"
"11764";180;"direct";"7y8fx48gtn";"CS";"4";19;"2819.530000007944";"4_3/CS12"
"11765";181;"direct";"7y8fx48gtn";"CS";"2";-58;"2773.9849999779835";"2_3/CS8"
"11766";182;"direct";"7y8fx48gtn";"CS";"2";-33;"2803.4150000021327";"2_3/CS9"
"11767";183;"direct";"7y8fx48gtn";"CS";"2";-24;"2349.929999996675";"2_3/CS10"
"11768";184;"direct";"7y8fx48gtn";"CS";"4";-16;"3329.8499999800697";"4_3/CS3"
"11769";185;"direct";"7y8fx48gtn";"CS";"1";17;"2983.5650000022724";"1_3/CS3"
"11770";186;"direct";"7y8fx48gtn";"CS";"1";36;"2883.815000008326";"1_3/CS6"
"11771";187;"direct";"7y8fx48gtn";"CS";"1";59;"3133.689999987837";"1_3/CS7"
"11772";188;"direct";"7y8fx48gtn";"CS";"2";12;"3815.9600000071805";"2_3/CS4"
"11773";189;"direct";"7y8fx48gtn";"CS";"4";-33;"2683.599999989383";"4_3/CS9"
"11774";190;"direct";"7y8fx48gtn";"CS";"3";-19;"5481.549999996787";"3_3/CS4"
"11775";191;"direct";"7y8fx48gtn";"CS";"4";6;"4117.365000012796";"4_3/CS2"
"11776";192;"direct";"7y8fx48gtn";"CS";"4";-10;"2051.545000023907";"4_3/CS8"
"11777";193;"direct";"7y8fx48gtn";"CS";"3";-30;"2105.6449999741744";"3_3/CS3"
"11778";194;"direct";"7y8fx48gtn";"CS";"1";23;"2190.5450000194833";"1_3/CS2"
"11779";195;"direct";"7y8fx48gtn";"CS";"2";31;"5811.719999997877";"2_3/CS2"
"11780";196;"direct";"7y8fx48gtn";"CS";"1";21;"2885.6099999975413";"1_3/CS11"
"11781";197;"direct";"7y8fx48gtn";"CS";"4";6;"3623.5299999825656";"4_3/CS5"
"11782";198;"direct";"7y8fx48gtn";"CS";"1";-17;"3005.620000010822";"1_3/CS8"
"11783";199;"direct";"7y8fx48gtn";"CS";"1";23;"2905.895000003511";"1_3/CS9"
"11784";200;"direct";"7y8fx48gtn";"CS";"3";-37;"2479.4850000180304";"3_3/CS5"
"11785";201;"direct";"7y8fx48gtn";"CS";"4";-35;"2991.9049999734852";"4_3/CS7"
"11786";202;"direct";"7y8fx48gtn";"CS";"4";-24;"2471.879999997327";"4_3/CS1"
"11787";203;"direct";"7y8fx48gtn";"CS";"1";15;"2949.6999999973923";"1_3/CS4"
"11788";204;"direct";"7y8fx48gtn";"CS";"3";-40;"2763.779999979306";"3_3/CS7"
"11789";205;"direct";"7y8fx48gtn";"CS";"1";-9;"3205.9599999920465";"1_3/CS12"
"11790";206;"direct";"7y8fx48gtn";"CS";"2";51;"3073.6500000057276";"2_3/CS1"
"11791";207;"direct";"7y8fx48gtn";"CS";"2";26;"2807.5149999931455";"2_3/CS7"
"11792";208;"direct";"7y8fx48gtn";"CS";"1";35;"2531.9650000019465";"1_3/CS10"
"11793";209;"direct";"7y8fx48gtn";"CS";"2";14;"3419.934999983525";"2_3/CS5"
"11794";210;"direct";"7y8fx48gtn";"CS";"3";9;"3203.544999996666";"3_3/CS2"
"11795";211;"direct";"7y8fx48gtn";"CS";"3";20;"3149.4649999949615";"3_3/CS6"
"11796";212;"direct";"7y8fx48gtn";"CS";"2";-40;"1995.93500001356";"2_3/CS3"
"11797";213;"direct";"7y8fx48gtn";"CS";"4";44;"2969.9449999898206";"4_3/CS6"
"11798";214;"direct";"7y8fx48gtn";"CS";"3";-49;"3245.6250000104774";"3_3/CS8"
"12461";175;"direct";"7z33uxwdw1";"CS";"4";-80;"13422.239999999758";"4_3/CS2"
"12462";176;"direct";"7z33uxwdw1";"CS";"3";-47;"11108.465000001248";"3_3/CS10"
"12463";177;"direct";"7z33uxwdw1";"CS";"3";46;"5830.0449999985285";"3_3/CS7"
"12464";178;"direct";"7z33uxwdw1";"CS";"1";-5;"9669.400000002235";"1_3/CS12"
"12465";179;"direct";"7z33uxwdw1";"CS";"1";-79;"9557.33999999892";"1_3/CS1"
"12466";180;"direct";"7z33uxwdw1";"CS";"4";-7;"8158.160000002477";"4_3/CS8"
"12467";181;"direct";"7z33uxwdw1";"CS";"4";66;"11317.810000000522";"4_3/CS7"
"12468";182;"direct";"7z33uxwdw1";"CS";"1";52;"17396.325000001583";"1_3/CS8"
"12469";183;"direct";"7z33uxwdw1";"CS";"2";43;"22143.159999999683";"2_3/CS1"
"12470";184;"direct";"7z33uxwdw1";"CS";"1";77;"18110.560000000987";"1_3/CS3"
"12471";185;"direct";"7z33uxwdw1";"CS";"3";90;"13524.924999997951";"3_3/CS3"
"12472";186;"direct";"7z33uxwdw1";"CS";"3";7;"8830.795000001788";"3_3/CS8"
"12473";187;"direct";"7z33uxwdw1";"CS";"2";87;"23950.229999998584";"2_3/CS2"
"12474";188;"direct";"7z33uxwdw1";"CS";"1";-11;"35795.6249999986";"1_3/CS2"
"12475";189;"direct";"7z33uxwdw1";"CS";"3";25;"11391.290000000037";"3_3/CS5"
"12476";190;"direct";"7z33uxwdw1";"CS";"4";85;"17134.33000000054";"4_3/CS6"
"12477";191;"direct";"7z33uxwdw1";"CS";"1";85;"27321.195000000298";"1_3/CS7"
"12478";192;"direct";"7z33uxwdw1";"CS";"3";-27;"15514.139999999199";"3_3/CS4"
"12479";193;"direct";"7z33uxwdw1";"CS";"2";35;"38917.62999999989";"2_3/CS4"
"12480";194;"direct";"7z33uxwdw1";"CS";"1";57;"8933.699999997858";"1_3/CS10"
"12481";195;"direct";"7z33uxwdw1";"CS";"2";57;"6572.884999997914";"2_3/CS7"
"12482";196;"direct";"7z33uxwdw1";"CS";"2";60;"6526.009999997914";"2_3/CS9"
"12483";197;"direct";"7z33uxwdw1";"CS";"3";89;"7118.01500000013";"3_3/CS2"
"12484";198;"direct";"7z33uxwdw1";"CS";"4";-98;"12709.750000001863";"4_3/CS9"
"12485";199;"direct";"7z33uxwdw1";"CS";"1";76;"6725.614999999292";"1_3/CS9"
"12486";200;"direct";"7z33uxwdw1";"CS";"4";-58;"62917.28999999771";"4_3/CS5"
"12487";201;"direct";"7z33uxwdw1";"CS";"2";43;"11478.749999998603";"2_3/CS3"
"12488";202;"direct";"7z33uxwdw1";"CS";"1";-60;"9109.400000001304";"1_3/CS11"
"12489";203;"direct";"7z33uxwdw1";"CS";"4";17;"7117.874999999534";"4_3/CS10"
"12490";204;"direct";"7z33uxwdw1";"CS";"2";90;"7965.284999998752";"2_3/CS6"
"12491";205;"direct";"7z33uxwdw1";"CS";"4";-77;"4797.314999999944";"4_3/CS4"
"12492";206;"direct";"7z33uxwdw1";"CS";"2";55;"9037.09499999974";"2_3/CS8"
"12493";207;"direct";"7z33uxwdw1";"CS";"2";52;"39766.24000000069";"2_3/CS5"
"12494";208;"direct";"7z33uxwdw1";"CS";"4";-41;"37933.91999999946";"4_3/CS12"
"12495";209;"direct";"7z33uxwdw1";"CS";"3";68;"4677.14000000339";"3_3/CS9"
"12496";210;"direct";"7z33uxwdw1";"CS";"3";-61;"5853.305000000633";"3_3/CS1"
"12497";211;"direct";"7z33uxwdw1";"CS";"1";-33;"213102.46499999985";"1_3/CS6"
"12498";212;"direct";"7z33uxwdw1";"CS";"4";-67;"5470.125";"4_3/CS3"
"12499";213;"direct";"7z33uxwdw1";"CS";"3";79;"8397.095000000205";"3_3/CS6"
"12500";214;"direct";"7z33uxwdw1";"CS";"2";-100;"20565.25499999756";"2_3/CS10"
"12812";175;"direct";"89zcx0q07p";"CS";"2";66;"5892.060000041965";"2_3/CS7"
"12813";176;"direct";"89zcx0q07p";"CS";"1";20;"3105.4000000003725";"1_3/CS3"
"12814";177;"direct";"89zcx0q07p";"CS";"3";14;"3288.9800000120886";"3_3/CS5"
"12815";178;"direct";"89zcx0q07p";"CS";"2";-17;"4000.6450000219047";"2_3/CS8"
"12816";179;"direct";"89zcx0q07p";"CS";"1";-25;"5742.964999983087";"1_3/CS1"
"12817";180;"direct";"89zcx0q07p";"CS";"1";23;"2999.9400000087917";"1_3/CS7"
"12818";181;"direct";"89zcx0q07p";"CS";"2";76;"2665.434999973513";"2_3/CS1"
"12819";182;"direct";"89zcx0q07p";"CS";"2";33;"3155.7050000410527";"2_3/CS10"
"12820";183;"direct";"89zcx0q07p";"CS";"2";-9;"4235.869999974966";"2_3/CS2"
"12821";184;"direct";"89zcx0q07p";"CS";"4";-88;"3751.36500003282";"4_3/CS5"
"12822";185;"direct";"89zcx0q07p";"CS";"3";27;"3922.3499999498017";"3_3/CS4"
"12823";186;"direct";"89zcx0q07p";"CS";"2";6;"2872.2449999768287";"2_3/CS3"
"12824";187;"direct";"89zcx0q07p";"CS";"4";-100;"2987.200000032317";"4_3/CS3"
"12825";188;"direct";"89zcx0q07p";"CS";"3";22;"2801.8150000134483";"3_3/CS9"
"12826";189;"direct";"89zcx0q07p";"CS";"1";-53;"4165.649999980815";"1_3/CS11"
"12827";190;"direct";"89zcx0q07p";"CS";"2";49;"2935.364999982994";"2_3/CS5"
"12828";191;"direct";"89zcx0q07p";"CS";"4";-92;"2712.050000031013";"4_3/CS11"
"12829";192;"direct";"89zcx0q07p";"CS";"1";25;"4513.429999991786";"1_3/CS5"
"12830";193;"direct";"89zcx0q07p";"CS";"3";27;"2686.8950000498444";"3_3/CS8"
"12831";194;"direct";"89zcx0q07p";"CS";"4";-97;"3153.040000004694";"4_3/CS1"
"12832";195;"direct";"89zcx0q07p";"CS";"3";41;"2847.2250000340864";"3_3/CS10"
"12833";196;"direct";"89zcx0q07p";"CS";"2";40;"2820.3700000303797";"2_3/CS6"
"12834";197;"direct";"89zcx0q07p";"CS";"3";31;"2610.095000010915";"3_3/CS3"
"12835";198;"direct";"89zcx0q07p";"CS";"2";-10;"3040.964999992866";"2_3/CS4"
"12836";199;"direct";"89zcx0q07p";"CS";"3";16;"2573.8000000128523";"3_3/CS1"
"12837";200;"direct";"89zcx0q07p";"CS";"4";-95;"5057.410000008531";"4_3/CS12"
"12838";201;"direct";"89zcx0q07p";"CS";"1";15;"4106.960000004619";"1_3/CS10"
"12839";202;"direct";"89zcx0q07p";"CS";"3";17;"3520.890000043437";"3_3/CS7"
"12840";203;"direct";"89zcx0q07p";"CS";"1";23;"2768.179999955464";"1_3/CS8"
"12841";204;"direct";"89zcx0q07p";"CS";"4";-98;"2990.185000002384";"4_3/CS8"
"12842";205;"direct";"89zcx0q07p";"CS";"4";31;"5513.195000006817";"4_3/CS6"
"12843";206;"direct";"89zcx0q07p";"CS";"3";11;"3440.0150000001304";"3_3/CS2"
"12844";207;"direct";"89zcx0q07p";"CS";"2";9;"2533.3450000034645";"2_3/CS9"
"12845";208;"direct";"89zcx0q07p";"CS";"1";30;"2584.419999970123";"1_3/CS4"
"12846";209;"direct";"89zcx0q07p";"CS";"4";-100;"6683.450000011362";"4_3/CS9"
"12847";210;"direct";"89zcx0q07p";"CS";"3";22;"2809.384999971371";"3_3/CS6"
"12848";211;"direct";"89zcx0q07p";"CS";"4";11;"12689.36499999836";"4_3/CS10"
"12849";212;"direct";"89zcx0q07p";"CS";"1";41;"4789.380000031088";"1_3/CS12"
"12850";213;"direct";"89zcx0q07p";"CS";"1";21;"3480.5899999919347";"1_3/CS2"
"12851";214;"direct";"89zcx0q07p";"CS";"4";-35;"8383.800000010524";"4_3/CS2"
"13163";175;"direct";"8d3rn7jk9e";"CS";"2";62;"5619.274999946356";"2_3/CS5"
"13164";176;"direct";"8d3rn7jk9e";"CS";"2";-63;"3447.0899999141693";"2_3/CS6"
"13165";177;"direct";"8d3rn7jk9e";"CS";"1";-83;"4407.954999944195";"1_3/CS12"
"13166";178;"direct";"8d3rn7jk9e";"CS";"4";-100;"4065.3049999382347";"4_3/CS4"
"13167";179;"direct";"8d3rn7jk9e";"CS";"2";-46;"5114.270000020042";"2_3/CS4"
"13168";180;"direct";"8d3rn7jk9e";"CS";"3";-49;"3538.9600000344217";"3_3/CS3"
"13169";181;"direct";"8d3rn7jk9e";"CS";"3";-51;"6928.100000135601";"3_3/CS10"
"13170";182;"direct";"8d3rn7jk9e";"CS";"3";-25;"5774.140000110492";"3_3/CS7"
"13171";183;"direct";"8d3rn7jk9e";"CS";"3";-16;"3914.454999845475";"3_3/CS8"
"13172";184;"direct";"8d3rn7jk9e";"CS";"2";-53;"4038.3700001984835";"2_3/CS9"
"13173";185;"direct";"8d3rn7jk9e";"CS";"2";-4;"7706.63999998942";"2_3/CS2"
"13174";186;"direct";"8d3rn7jk9e";"CS";"4";-100;"5265.79499989748";"4_3/CS8"
"13175";187;"direct";"8d3rn7jk9e";"CS";"1";12;"5582.785000093281";"1_3/CS10"
"13176";188;"direct";"8d3rn7jk9e";"CS";"3";67;"6279.924999922514";"3_3/CS2"
"13177";189;"direct";"8d3rn7jk9e";"CS";"2";-74;"3873.3850000426173";"2_3/CS7"
"13178";190;"direct";"8d3rn7jk9e";"CS";"1";32;"3952.379999915138";"1_3/CS7"
"13179";191;"direct";"8d3rn7jk9e";"CS";"2";-40;"4986.409999895841";"2_3/CS8"
"13180";192;"direct";"8d3rn7jk9e";"CS";"1";-100;"6655.61500005424";"1_3/CS1"
"13181";193;"direct";"8d3rn7jk9e";"CS";"3";15;"7984.92499999702";"3_3/CS4"
"13182";194;"direct";"8d3rn7jk9e";"CS";"4";-98;"3483.860000036657";"4_3/CS10"
"13183";195;"direct";"8d3rn7jk9e";"CS";"3";-43;"5632.639999967068";"3_3/CS1"
"13184";196;"direct";"8d3rn7jk9e";"CS";"2";-45;"2935.8200000133365";"2_3/CS10"
"13185";197;"direct";"8d3rn7jk9e";"CS";"1";-15;"4421.639999840409";"1_3/CS11"
"13186";198;"direct";"8d3rn7jk9e";"CS";"3";-31;"6007.319999858737";"3_3/CS5"
"13187";199;"direct";"8d3rn7jk9e";"CS";"4";-100;"5554.800000041723";"4_3/CS12"
"13188";200;"direct";"8d3rn7jk9e";"CS";"1";-75;"5589.094999944791";"1_3/CS8"
"13189";201;"direct";"8d3rn7jk9e";"CS";"1";-53;"3663.8650000095367";"1_3/CS2"
"13190";202;"direct";"8d3rn7jk9e";"CS";"4";-100;"4450.69000008516";"4_3/CS5"
"13191";203;"direct";"8d3rn7jk9e";"CS";"4";-100;"3061.740000033751";"4_3/CS11"
"13192";204;"direct";"8d3rn7jk9e";"CS";"1";21;"12033.864999888465";"1_3/CS6"
"13193";205;"direct";"8d3rn7jk9e";"CS";"2";-82;"3483.0049998126924";"2_3/CS3"
"13194";206;"direct";"8d3rn7jk9e";"CS";"1";14;"4027.37500006333";"1_3/CS9"
"13195";207;"direct";"8d3rn7jk9e";"CS";"4";-100;"3695.504999952391";"4_3/CS6"
"13196";208;"direct";"8d3rn7jk9e";"CS";"3";50;"4842.164999805391";"3_3/CS6"
"13197";209;"direct";"8d3rn7jk9e";"CS";"4";18;"4296.924999915063";"4_3/CS7"
"13198";210;"direct";"8d3rn7jk9e";"CS";"2";-16;"3506.0250000096858";"2_3/CS1"
"13199";211;"direct";"8d3rn7jk9e";"CS";"4";-100;"4208.175000036135";"4_3/CS2"
"13200";212;"direct";"8d3rn7jk9e";"CS";"4";-100;"4520.3899999614805";"4_3/CS3"
"13201";213;"direct";"8d3rn7jk9e";"CS";"1";32;"4798.7750000320375";"1_3/CS4"
"13202";214;"direct";"8d3rn7jk9e";"CS";"3";5;"5098.574999952689";"3_3/CS9"
"13514";175;"direct";"8kamurgyts";"CS";"4";100;"4871";"4_3/CS10"
"13515";176;"direct";"8kamurgyts";"CS";"2";13;"5643";"2_3/CS2"
"13516";177;"direct";"8kamurgyts";"CS";"1";89;"4897";"1_3/CS7"
"13517";178;"direct";"8kamurgyts";"CS";"4";-89;"4297";"4_3/CS4"
"13518";179;"direct";"8kamurgyts";"CS";"1";-88;"2258";"1_3/CS4"
"13519";180;"direct";"8kamurgyts";"CS";"3";10;"5257";"3_3/CS5"
"13520";181;"direct";"8kamurgyts";"CS";"4";-82;"2779";"4_3/CS11"
"13521";182;"direct";"8kamurgyts";"CS";"1";-26;"6410";"1_3/CS1"
"13522";183;"direct";"8kamurgyts";"CS";"1";-86;"2618";"1_3/CS5"
"13523";184;"direct";"8kamurgyts";"CS";"2";-9;"3336";"2_3/CS1"
"13524";185;"direct";"8kamurgyts";"CS";"1";-17;"1954";"1_3/CS2"
"13525";186;"direct";"8kamurgyts";"CS";"1";-72;"2817";"1_3/CS9"
"13526";187;"direct";"8kamurgyts";"CS";"4";100;"3818";"4_3/CS12"
"13527";188;"direct";"8kamurgyts";"CS";"1";-100;"3001";"1_3/CS3"
"13528";189;"direct";"8kamurgyts";"CS";"3";16;"7281";"3_3/CS8"
"13529";190;"direct";"8kamurgyts";"CS";"3";-91;"2642";"3_3/CS1"
"13530";191;"direct";"8kamurgyts";"CS";"2";-22;"3609";"2_3/CS7"
"13531";192;"direct";"8kamurgyts";"CS";"3";-65;"2683";"3_3/CS10"
"13532";193;"direct";"8kamurgyts";"CS";"2";-100;"2352";"2_3/CS8"
"13533";194;"direct";"8kamurgyts";"CS";"3";8;"5890";"3_3/CS7"
"13534";195;"direct";"8kamurgyts";"CS";"3";-9;"4057";"3_3/CS4"
"13535";196;"direct";"8kamurgyts";"CS";"2";-63;"2491";"2_3/CS10"
"13536";197;"direct";"8kamurgyts";"CS";"4";-85;"4305";"4_3/CS5"
"13537";198;"direct";"8kamurgyts";"CS";"2";-28;"6816";"2_3/CS6"
"13538";199;"direct";"8kamurgyts";"CS";"4";68;"3083";"4_3/CS6"
"13539";200;"direct";"8kamurgyts";"CS";"3";12;"2587";"3_3/CS6"
"13540";201;"direct";"8kamurgyts";"CS";"4";-100;"3035";"4_3/CS1"
"13541";202;"direct";"8kamurgyts";"CS";"3";-57;"3211";"3_3/CS9"
"13542";203;"direct";"8kamurgyts";"CS";"3";-46;"2066";"3_3/CS2"
"13543";204;"direct";"8kamurgyts";"CS";"4";-49;"2457";"4_3/CS9"
"13544";205;"direct";"8kamurgyts";"CS";"1";-66;"1961";"1_3/CS10"
"13545";206;"direct";"8kamurgyts";"CS";"4";28;"3778";"4_3/CS2"
"13546";207;"direct";"8kamurgyts";"CS";"1";-93;"1946";"1_3/CS12"
"13547";208;"direct";"8kamurgyts";"CS";"2";20;"2823";"2_3/CS5"
"13548";209;"direct";"8kamurgyts";"CS";"2";-98;"2604";"2_3/CS9"
"13549";210;"direct";"8kamurgyts";"CS";"3";-15;"2683";"3_3/CS3"
"13550";211;"direct";"8kamurgyts";"CS";"2";-100;"2146";"2_3/CS3"
"13551";212;"direct";"8kamurgyts";"CS";"2";-97;"2042";"2_3/CS4"
"13552";213;"direct";"8kamurgyts";"CS";"1";-100;"2217";"1_3/CS6"
"13553";214;"direct";"8kamurgyts";"CS";"4";-98;"2386";"4_3/CS8"
"13865";175;"direct";"8ohfauxu5x";"CS";"2";-57;"8417.95999999158";"2_3/CS5"
"13866";176;"direct";"8ohfauxu5x";"CS";"1";-90;"7371.6199999907985";"1_3/CS1"
"13867";177;"direct";"8ohfauxu5x";"CS";"1";-27;"5480.990000010934";"1_3/CS9"
"13868";178;"direct";"8ohfauxu5x";"CS";"2";-62;"4034.2099999834318";"2_3/CS8"
"13869";179;"direct";"8ohfauxu5x";"CS";"2";-36;"4086.1600000062026";"2_3/CS9"
"13870";180;"direct";"8ohfauxu5x";"CS";"4";-3;"8326.065000001108";"4_3/CS2"
"13871";181;"direct";"8ohfauxu5x";"CS";"3";-5;"5224.610000004759";"3_3/CS10"
"13872";182;"direct";"8ohfauxu5x";"CS";"4";-12;"5994.479999993928";"4_3/CS9"
"13873";183;"direct";"8ohfauxu5x";"CS";"2";-26;"3932.780000002822";"2_3/CS1"
"13874";184;"direct";"8ohfauxu5x";"CS";"3";-46;"4397.67999999458";"3_3/CS3"
"13875";185;"direct";"8ohfauxu5x";"CS";"3";-100;"4385.074999998324";"3_3/CS8"
"13876";186;"direct";"8ohfauxu5x";"CS";"1";22;"5036.369999987073";"1_3/CS4"
"13877";187;"direct";"8ohfauxu5x";"CS";"3";-50;"4287.884999997914";"3_3/CS4"
"13878";188;"direct";"8ohfauxu5x";"CS";"3";0;"7113.550000009127";"3_3/CS7"
"13879";189;"direct";"8ohfauxu5x";"CS";"1";-42;"7740.22999999579";"1_3/CS8"
"13880";190;"direct";"8ohfauxu5x";"CS";"4";-26;"7023.92000000691";"4_3/CS5"
"13881";191;"direct";"8ohfauxu5x";"CS";"2";-42;"4028.7550000066403";"2_3/CS10"
"13882";192;"direct";"8ohfauxu5x";"CS";"4";-59;"3976.92499999539";"4_3/CS8"
"13883";193;"direct";"8ohfauxu5x";"CS";"3";5;"5669.280000001891";"3_3/CS2"
"13884";194;"direct";"8ohfauxu5x";"CS";"4";-45;"6169.640000007348";"4_3/CS11"
"13885";195;"direct";"8ohfauxu5x";"CS";"3";-100;"4705.725000007078";"3_3/CS1"
"13886";196;"direct";"8ohfauxu5x";"CS";"3";-93;"4420.13000001316";"3_3/CS5"
"13887";197;"direct";"8ohfauxu5x";"CS";"1";50;"6146.25999997952";"1_3/CS10"
"13888";198;"direct";"8ohfauxu5x";"CS";"1";35;"3929.730000003474";"1_3/CS6"
"13889";199;"direct";"8ohfauxu5x";"CS";"1";5;"5016.930000012508";"1_3/CS11"
"13890";200;"direct";"8ohfauxu5x";"CS";"4";7;"6366.619999986142";"4_3/CS7"
"13891";201;"direct";"8ohfauxu5x";"CS";"1";-26;"5538.094999996247";"1_3/CS7"
"13892";202;"direct";"8ohfauxu5x";"CS";"1";-8;"6053.914999996778";"1_3/CS3"
"13893";203;"direct";"8ohfauxu5x";"CS";"3";-73;"4558.450000011362";"3_3/CS9"
"13894";204;"direct";"8ohfauxu5x";"CS";"2";-58;"5905.889999994542";"2_3/CS4"
"13895";205;"direct";"8ohfauxu5x";"CS";"4";-37;"5658.404999994673";"4_3/CS12"
"13896";206;"direct";"8ohfauxu5x";"CS";"4";41;"5578.39999999851";"4_3/CS10"
"13897";207;"direct";"8ohfauxu5x";"CS";"2";-78;"3668.0300000007264";"2_3/CS6"
"13898";208;"direct";"8ohfauxu5x";"CS";"2";-11;"4145.11000001221";"2_3/CS2"
"13899";209;"direct";"8ohfauxu5x";"CS";"3";-31;"4135.4600000195205";"3_3/CS6"
"13900";210;"direct";"8ohfauxu5x";"CS";"2";-40;"5245.610000012675";"2_3/CS7"
"13901";211;"direct";"8ohfauxu5x";"CS";"4";22;"25458.11499998672";"4_3/CS1"
"13902";212;"direct";"8ohfauxu5x";"CS";"2";-51;"3911.9599999976344";"2_3/CS3"
"13903";213;"direct";"8ohfauxu5x";"CS";"4";9;"3842.2049999935552";"4_3/CS3"
"13904";214;"direct";"8ohfauxu5x";"CS";"1";-26;"3789.7499999962747";"1_3/CS12"
"14216";175;"direct";"8tklqdnvk2";"CS";"4";75;"5107";"4_3/CS3"
"14217";176;"direct";"8tklqdnvk2";"CS";"4";-47;"2869";"4_3/CS8"
"14218";177;"direct";"8tklqdnvk2";"CS";"3";21;"3348";"3_3/CS8"
"14219";178;"direct";"8tklqdnvk2";"CS";"3";89;"2277";"3_3/CS3"
"14220";179;"direct";"8tklqdnvk2";"CS";"1";-7;"5618";"1_3/CS9"
"14221";180;"direct";"8tklqdnvk2";"CS";"1";-32;"2684";"1_3/CS7"
"14222";181;"direct";"8tklqdnvk2";"CS";"1";-22;"3015";"1_3/CS4"
"14223";182;"direct";"8tklqdnvk2";"CS";"3";9;"3840";"3_3/CS1"
"14224";183;"direct";"8tklqdnvk2";"CS";"2";6;"4729";"2_3/CS4"
"14225";184;"direct";"8tklqdnvk2";"CS";"2";68;"2345";"2_3/CS1"
"14226";185;"direct";"8tklqdnvk2";"CS";"4";-9;"5704";"4_3/CS1"
"14227";186;"direct";"8tklqdnvk2";"CS";"2";-9;"3162";"2_3/CS8"
"14228";187;"direct";"8tklqdnvk2";"CS";"1";-7;"5047";"1_3/CS11"
"14229";188;"direct";"8tklqdnvk2";"CS";"1";6;"2888";"1_3/CS2"
"14230";189;"direct";"8tklqdnvk2";"CS";"1";-33;"5491";"1_3/CS5"
"14231";190;"direct";"8tklqdnvk2";"CS";"4";7;"4360";"4_3/CS7"
"14232";191;"direct";"8tklqdnvk2";"CS";"3";50;"3026";"3_3/CS6"
"14233";192;"direct";"8tklqdnvk2";"CS";"2";7;"6805";"2_3/CS2"
"14234";193;"direct";"8tklqdnvk2";"CS";"2";53;"3134";"2_3/CS5"
"14235";194;"direct";"8tklqdnvk2";"CS";"4";23;"3756";"4_3/CS11"
"14236";195;"direct";"8tklqdnvk2";"CS";"4";14;"4268";"4_3/CS2"
"14237";196;"direct";"8tklqdnvk2";"CS";"2";41;"3039";"2_3/CS10"
"14238";197;"direct";"8tklqdnvk2";"CS";"3";72;"2763";"3_3/CS9"
"14239";198;"direct";"8tklqdnvk2";"CS";"3";11;"2652";"3_3/CS5"
"14240";199;"direct";"8tklqdnvk2";"CS";"4";13;"4347";"4_3/CS12"
"14241";200;"direct";"8tklqdnvk2";"CS";"1";-6;"2928";"1_3/CS1"
"14242";201;"direct";"8tklqdnvk2";"CS";"2";69;"2277";"2_3/CS7"
"14243";202;"direct";"8tklqdnvk2";"CS";"1";19;"2793";"1_3/CS12"
"14244";203;"direct";"8tklqdnvk2";"CS";"2";67;"2992";"2_3/CS6"
"14245";204;"direct";"8tklqdnvk2";"CS";"3";32;"3169";"3_3/CS10"
"14246";205;"direct";"8tklqdnvk2";"CS";"2";14;"2554";"2_3/CS3"
"14247";206;"direct";"8tklqdnvk2";"CS";"1";-39;"5174";"1_3/CS8"
"14248";207;"direct";"8tklqdnvk2";"CS";"3";18;"2585";"3_3/CS7"
"14249";208;"direct";"8tklqdnvk2";"CS";"3";20;"2999";"3_3/CS4"
"14250";209;"direct";"8tklqdnvk2";"CS";"1";-15;"3386";"1_3/CS3"
"14251";210;"direct";"8tklqdnvk2";"CS";"3";17;"2973";"3_3/CS2"
"14252";211;"direct";"8tklqdnvk2";"CS";"2";49;"2761";"2_3/CS9"
"14253";212;"direct";"8tklqdnvk2";"CS";"4";-22;"4869";"4_3/CS9"
"14254";213;"direct";"8tklqdnvk2";"CS";"4";56;"2745";"4_3/CS10"
"14255";214;"direct";"8tklqdnvk2";"CS";"4";42;"2858";"4_3/CS6"
"14567";175;"direct";"8u00funta1";"CS";"2";39;"4449";"2_3/CS1"
"14568";176;"direct";"8u00funta1";"CS";"4";10;"3317";"4_3/CS3"
"14569";177;"direct";"8u00funta1";"CS";"1";-56;"2683";"1_3/CS2"
"14570";178;"direct";"8u00funta1";"CS";"4";-57;"3733";"4_3/CS11"
"14571";179;"direct";"8u00funta1";"CS";"3";5;"4497";"3_3/CS4"
"14572";180;"direct";"8u00funta1";"CS";"2";-89;"4160";"2_3/CS9"
"14573";181;"direct";"8u00funta1";"CS";"1";-23;"4501.999999999884";"1_3/CS6"
"14574";182;"direct";"8u00funta1";"CS";"3";-7;"4057.9999999998836";"3_3/CS2"
"14575";183;"direct";"8u00funta1";"CS";"1";22;"6070";"1_3/CS9"
"14576";184;"direct";"8u00funta1";"CS";"1";73;"3567";"1_3/CS1"
"14577";185;"direct";"8u00funta1";"CS";"1";-72;"3749";"1_3/CS12"
"14578";186;"direct";"8u00funta1";"CS";"4";-60;"3807";"4_3/CS8"
"14579";187;"direct";"8u00funta1";"CS";"4";-76;"2904";"4_3/CS4"
"14580";188;"direct";"8u00funta1";"CS";"2";-27;"3308";"2_3/CS4"
"14581";189;"direct";"8u00funta1";"CS";"2";12;"2960.9999999998836";"2_3/CS3"
"14582";190;"direct";"8u00funta1";"CS";"3";16;"3341";"3_3/CS9"
"14583";191;"direct";"8u00funta1";"CS";"3";-92;"4335";"3_3/CS1"
"14584";192;"direct";"8u00funta1";"CS";"4";67;"4007";"4_3/CS2"
"14585";193;"direct";"8u00funta1";"CS";"1";-84;"3582";"1_3/CS5"
"14586";194;"direct";"8u00funta1";"CS";"2";-47;"3871";"2_3/CS7"
"14587";195;"direct";"8u00funta1";"CS";"2";12;"3493";"2_3/CS8"
"14588";196;"direct";"8u00funta1";"CS";"1";-100;"2817";"1_3/CS7"
"14589";197;"direct";"8u00funta1";"CS";"3";-41;"3365";"3_3/CS5"
"14590";198;"direct";"8u00funta1";"CS";"2";28;"6615";"2_3/CS5"
"14591";199;"direct";"8u00funta1";"CS";"3";-26;"4423";"3_3/CS8"
"14592";200;"direct";"8u00funta1";"CS";"3";-64;"2665";"3_3/CS3"
"14593";201;"direct";"8u00funta1";"CS";"4";72;"2853";"4_3/CS12"
"14594";202;"direct";"8u00funta1";"CS";"3";12;"2979.9999999998836";"3_3/CS6"
"14595";203;"direct";"8u00funta1";"CS";"4";42;"3254";"4_3/CS1"
"14596";204;"direct";"8u00funta1";"CS";"3";-55;"3129";"3_3/CS7"
"14597";205;"direct";"8u00funta1";"CS";"1";-60;"3140";"1_3/CS8"
"14598";206;"direct";"8u00funta1";"CS";"3";47;"4231";"3_3/CS10"
"14599";207;"direct";"8u00funta1";"CS";"4";-71;"2884";"4_3/CS7"
"14600";208;"direct";"8u00funta1";"CS";"1";-73;"2696";"1_3/CS3"
"14601";209;"direct";"8u00funta1";"CS";"2";-35;"2875";"2_3/CS6"
"14602";210;"direct";"8u00funta1";"CS";"2";37;"3860";"2_3/CS2"
"14603";211;"direct";"8u00funta1";"CS";"2";9;"4734.999999999884";"2_3/CS10"
"14604";212;"direct";"8u00funta1";"CS";"4";-16;"3133";"4_3/CS5"
"14605";213;"direct";"8u00funta1";"CS";"4";49;"3198.0000000001164";"4_3/CS10"
"14606";214;"direct";"8u00funta1";"CS";"1";-84;"3573.0000000001164";"1_3/CS11"
"14918";175;"direct";"93cnnb8ppd";"CS";"3";49;"10032.49499999953";"3_3/CS6"
"14919";176;"direct";"93cnnb8ppd";"CS";"2";60;"4110.13500000257";"2_3/CS2"
"14920";177;"direct";"93cnnb8ppd";"CS";"1";66;"5391.660000001197";"1_3/CS1"
"14921";178;"direct";"93cnnb8ppd";"CS";"2";44;"3009.2299999960233";"2_3/CS10"
"14922";179;"direct";"93cnnb8ppd";"CS";"3";-50;"3074.174999994342";"3_3/CS10"
"14923";180;"direct";"93cnnb8ppd";"CS";"3";-46;"3277.2949999999255";"3_3/CS5"
"14924";181;"direct";"93cnnb8ppd";"CS";"4";100;"4119.984999997541";"4_3/CS11"
"14925";182;"direct";"93cnnb8ppd";"CS";"1";100;"4367.105000004871";"1_3/CS3"
"14926";183;"direct";"93cnnb8ppd";"CS";"3";-81;"2823.049999998999";"3_3/CS8"
"14927";184;"direct";"93cnnb8ppd";"CS";"4";-59;"2575.324999997858";"4_3/CS8"
"14928";185;"direct";"93cnnb8ppd";"CS";"2";90;"2554.3650000035996";"2_3/CS9"
"14929";186;"direct";"93cnnb8ppd";"CS";"4";-74;"4270.064999996917";"4_3/CS2"
"14930";187;"direct";"93cnnb8ppd";"CS";"4";89;"2888.054999995744";"4_3/CS7"
"14931";188;"direct";"93cnnb8ppd";"CS";"2";-76;"2689.139999995008";"2_3/CS7"
"14932";189;"direct";"93cnnb8ppd";"CS";"3";-56;"3204.664999997476";"3_3/CS3"
"14933";190;"direct";"93cnnb8ppd";"CS";"4";100;"3806.9099999992177";"4_3/CS4"
"14934";191;"direct";"93cnnb8ppd";"CS";"4";-100;"3514.0000000029104";"4_3/CS9"
"14935";192;"direct";"93cnnb8ppd";"CS";"1";8;"3416.770000003511";"1_3/CS5"
"14936";193;"direct";"93cnnb8ppd";"CS";"3";-100;"2766.125000001979";"3_3/CS7"
"14937";194;"direct";"93cnnb8ppd";"CS";"2";71;"2685.559999998077";"2_3/CS5"
"14938";195;"direct";"93cnnb8ppd";"CS";"3";-76;"3131.96999999485";"3_3/CS9"
"14939";196;"direct";"93cnnb8ppd";"CS";"3";-81;"2351.8350000012433";"3_3/CS2"
"14940";197;"direct";"93cnnb8ppd";"CS";"4";55;"2481.8250000025146";"4_3/CS3"
"14941";198;"direct";"93cnnb8ppd";"CS";"2";-57;"5396.219999995083";"2_3/CS4"
"14942";199;"direct";"93cnnb8ppd";"CS";"3";100;"3075.270000001183";"3_3/CS1"
"14943";200;"direct";"93cnnb8ppd";"CS";"2";-73;"2502.1049999995157";"2_3/CS1"
"14944";201;"direct";"93cnnb8ppd";"CS";"2";-96;"2400.8250000041444";"2_3/CS6"
"14945";202;"direct";"93cnnb8ppd";"CS";"1";-80;"3054.3499999985797";"1_3/CS11"
"14946";203;"direct";"93cnnb8ppd";"CS";"4";-34;"3968.9849999995204";"4_3/CS1"
"14947";204;"direct";"93cnnb8ppd";"CS";"1";-87;"2530.7350000003353";"1_3/CS4"
"14948";205;"direct";"93cnnb8ppd";"CS";"2";100;"2006.1849999983096";"2_3/CS3"
"14949";206;"direct";"93cnnb8ppd";"CS";"1";-100;"5450.069999999017";"1_3/CS8"
"14950";207;"direct";"93cnnb8ppd";"CS";"4";100;"2927.7799999981653";"4_3/CS10"
"14951";208;"direct";"93cnnb8ppd";"CS";"1";100;"3247.269999999902";"1_3/CS10"
"14952";209;"direct";"93cnnb8ppd";"CS";"3";100;"2582.464999999618";"3_3/CS4"
"14953";210;"direct";"93cnnb8ppd";"CS";"1";100;"3189.42000000237";"1_3/CS2"
"14954";211;"direct";"93cnnb8ppd";"CS";"2";-59;"3441.1600000020117";"2_3/CS8"
"14955";212;"direct";"93cnnb8ppd";"CS";"4";100;"2144.7750000006054";"4_3/CS6"
"14956";213;"direct";"93cnnb8ppd";"CS";"1";76;"3263.0250000001397";"1_3/CS12"
"14957";214;"direct";"93cnnb8ppd";"CS";"1";73;"3050.969999996596";"1_3/CS9"
"15269";175;"direct";"950l9uw735";"CS";"3";-49;"9546.944999834523";"3_3/CS5"
"15270";176;"direct";"950l9uw735";"CS";"3";-17;"11347.715000156313";"3_3/CS3"
"15271";177;"direct";"950l9uw735";"CS";"1";13;"5525.299999862909";"1_3/CS1"
"15272";178;"direct";"950l9uw735";"CS";"2";-33;"7182.340000057593";"2_3/CS2"
"15273";179;"direct";"950l9uw735";"CS";"3";12;"6165.470000123605";"3_3/CS9"
"15274";180;"direct";"950l9uw735";"CS";"2";-19;"9005.39999990724";"2_3/CS10"
"15275";181;"direct";"950l9uw735";"CS";"1";-16;"6525.905000045896";"1_3/CS5"
"15276";182;"direct";"950l9uw735";"CS";"4";32;"7390.655000228435";"4_3/CS3"
"15277";183;"direct";"950l9uw735";"CS";"3";14;"4301.5749999322";"3_3/CS6"
"15278";184;"direct";"950l9uw735";"CS";"2";11;"5166.075000073761";"2_3/CS6"
"15279";185;"direct";"950l9uw735";"CS";"4";8;"5933.824999956414";"4_3/CS6"
"15280";186;"direct";"950l9uw735";"CS";"3";-16;"4365.885000210255";"3_3/CS2"
"15281";187;"direct";"950l9uw735";"CS";"2";-10;"6525.524999946356";"2_3/CS1"
"15282";188;"direct";"950l9uw735";"CS";"4";-37;"7086.025000084192";"4_3/CS4"
"15283";189;"direct";"950l9uw735";"CS";"2";-92;"4966.099999845028";"2_3/CS8"
"15284";190;"direct";"950l9uw735";"CS";"3";-12;"10621.9300001394";"3_3/CS7"
"15285";191;"direct";"950l9uw735";"CS";"1";14;"3742.829999886453";"1_3/CS3"
"15286";192;"direct";"950l9uw735";"CS";"1";6;"4717.849999899045";"1_3/CS2"
"15287";193;"direct";"950l9uw735";"CS";"2";12;"6149.594999849796";"2_3/CS5"
"15288";194;"direct";"950l9uw735";"CS";"4";-3;"6375.680000055581";"4_3/CS1"
"15289";195;"direct";"950l9uw735";"CS";"3";-11;"5876.464999979362";"3_3/CS10"
"15290";196;"direct";"950l9uw735";"CS";"2";-30;"4269.379999954253";"2_3/CS3"
"15291";197;"direct";"950l9uw735";"CS";"2";26;"2966.1749999504536";"2_3/CS7"
"15292";198;"direct";"950l9uw735";"CS";"3";24;"6085.475000087172";"3_3/CS4"
"15293";199;"direct";"950l9uw735";"CS";"4";-10;"8526.065000100061";"4_3/CS9"
"15294";200;"direct";"950l9uw735";"CS";"3";-24;"3597.444999963045";"3_3/CS8"
"15295";201;"direct";"950l9uw735";"CS";"2";-18;"4142.7799998782575";"2_3/CS9"
"15296";202;"direct";"950l9uw735";"CS";"1";9;"14109.595000045374";"1_3/CS6"
"15297";203;"direct";"950l9uw735";"CS";"3";-14;"6093.910000054166";"3_3/CS1"
"15298";204;"direct";"950l9uw735";"CS";"1";20;"3566.3099999073893";"1_3/CS7"
"15299";205;"direct";"950l9uw735";"CS";"1";-4;"13998.779999790713";"1_3/CS9"
"15300";206;"direct";"950l9uw735";"CS";"1";-10;"4228.959999978542";"1_3/CS8"
"15301";207;"direct";"950l9uw735";"CS";"4";-40;"4973.664999939501";"4_3/CS7"
"15302";208;"direct";"950l9uw735";"CS";"4";12;"4877.7000000700355";"4_3/CS2"
"15303";209;"direct";"950l9uw735";"CS";"1";9;"11790.429999819025";"1_3/CS12"
"15304";210;"direct";"950l9uw735";"CS";"4";40;"3878.084999974817";"4_3/CS5"
"15305";211;"direct";"950l9uw735";"CS";"1";9;"4471.275000134483";"1_3/CS11"
"15306";212;"direct";"950l9uw735";"CS";"4";11;"4461.175000062212";"4_3/CS11"
"15307";213;"direct";"950l9uw735";"CS";"4";68;"9053.760000038892";"4_3/CS12"
"15308";214;"direct";"950l9uw735";"CS";"2";-65;"5774.589999811724";"2_3/CS4"
"15620";175;"direct";"95fgqg4qjj";"CS";"4";-74;"8368.129999842495";"4_3/CS5"
"15621";176;"direct";"95fgqg4qjj";"CS";"3";7;"4512.654999969527";"3_3/CS4"
"15622";177;"direct";"95fgqg4qjj";"CS";"2";74;"3392.185000004247";"2_3/CS1"
"15623";178;"direct";"95fgqg4qjj";"CS";"1";95;"4347.26499998942";"1_3/CS1"
"15624";179;"direct";"95fgqg4qjj";"CS";"2";52;"2968.58000010252";"2_3/CS9"
"15625";180;"direct";"95fgqg4qjj";"CS";"4";17;"2781.08000010252";"4_3/CS7"
"15626";181;"direct";"95fgqg4qjj";"CS";"3";40;"2619.165000040084";"3_3/CS7"
"15627";182;"direct";"95fgqg4qjj";"CS";"3";-34;"3655.670000007376";"3_3/CS1"
"15628";183;"direct";"95fgqg4qjj";"CS";"2";-46;"4720.555000007153";"2_3/CS5"
"15629";184;"direct";"95fgqg4qjj";"CS";"4";-90;"2242.5500000827014";"4_3/CS11"
"15630";185;"direct";"95fgqg4qjj";"CS";"3";31;"2429.550000000745";"3_3/CS5"
"15631";186;"direct";"95fgqg4qjj";"CS";"2";-9;"3335.8150001149625";"2_3/CS10"
"15632";187;"direct";"95fgqg4qjj";"CS";"1";57;"2406.8750001024455";"1_3/CS2"
"15633";188;"direct";"95fgqg4qjj";"CS";"1";9;"3641.5799998212606";"1_3/CS9"
"15634";189;"direct";"95fgqg4qjj";"CS";"3";7;"5476.890000049025";"3_3/CS9"
"15635";190;"direct";"95fgqg4qjj";"CS";"4";-84;"1891.719999955967";"4_3/CS1"
"15636";191;"direct";"95fgqg4qjj";"CS";"2";42;"2952.0250000059605";"2_3/CS3"
"15637";192;"direct";"95fgqg4qjj";"CS";"1";37;"2227.7699999976903";"1_3/CS6"
"15638";193;"direct";"95fgqg4qjj";"CS";"4";84;"5290.809999918565";"4_3/CS12"
"15639";194;"direct";"95fgqg4qjj";"CS";"4";-55;"2694.279999937862";"4_3/CS2"
"15640";195;"direct";"95fgqg4qjj";"CS";"1";15;"2468.58000010252";"1_3/CS4"
"15641";196;"direct";"95fgqg4qjj";"CS";"3";-27;"3842.7750000264496";"3_3/CS8"
"15642";197;"direct";"95fgqg4qjj";"CS";"1";-20;"2282.819999847561";"1_3/CS11"
"15643";198;"direct";"95fgqg4qjj";"CS";"2";-25;"3752.3800001945347";"2_3/CS4"
"15644";199;"direct";"95fgqg4qjj";"CS";"4";-91;"1693.7900001648813";"4_3/CS4"
"15645";200;"direct";"95fgqg4qjj";"CS";"4";97;"3040.325000183657";"4_3/CS10"
"15646";201;"direct";"95fgqg4qjj";"CS";"3";-1;"4086.650000186637";"3_3/CS10"
"15647";202;"direct";"95fgqg4qjj";"CS";"1";-13;"2726.814999943599";"1_3/CS5"
"15648";203;"direct";"95fgqg4qjj";"CS";"1";13;"2239.5549998618662";"1_3/CS3"
"15649";204;"direct";"95fgqg4qjj";"CS";"3";38;"5515.254999976605";"3_3/CS3"
"15650";205;"direct";"95fgqg4qjj";"CS";"2";15;"2143.3850000612438";"2_3/CS6"
"15651";206;"direct";"95fgqg4qjj";"CS";"2";-28;"1631.3000000081956";"2_3/CS8"
"15652";207;"direct";"95fgqg4qjj";"CS";"2";25;"1853.194999974221";"2_3/CS7"
"15653";208;"direct";"95fgqg4qjj";"CS";"4";-97;"2554.079999914393";"4_3/CS9"
"15654";209;"direct";"95fgqg4qjj";"CS";"4";-100;"2320.9199998527765";"4_3/CS8"
"15655";210;"direct";"95fgqg4qjj";"CS";"1";11;"1828.29499989748";"1_3/CS10"
"15656";211;"direct";"95fgqg4qjj";"CS";"3";22;"4985.039999941364";"3_3/CS2"
"15657";212;"direct";"95fgqg4qjj";"CS";"2";26;"3336.6199999582022";"2_3/CS2"
"15658";213;"direct";"95fgqg4qjj";"CS";"1";53;"2676.4150001108646";"1_3/CS7"
"15659";214;"direct";"95fgqg4qjj";"CS";"3";33;"1791.6149999946356";"3_3/CS6"
"15971";175;"direct";"9938rrupxs";"CS";"2";-100;"19562";"2_3/CS10"
"15972";176;"direct";"9938rrupxs";"CS";"3";-59;"11493";"3_3/CS1"
"15973";177;"direct";"9938rrupxs";"CS";"4";-78;"5090.999999999884";"4_3/CS9"
"15974";178;"direct";"9938rrupxs";"CS";"2";-100;"2420";"2_3/CS9"
