"";"trial_index";"task";"subject";"condition2";"type";"category";"rt";"timeout";"memory";"memoryResp";"nr_pres";"memoryCorrect";"cs_selected"
"291";290;"memory2";"04ty3gjk9u";"one_one";"GSold";"4";"1256.4899999997579";"false";"new";0;"0";"correct";"4_2/CS3"
"294";293;"memory2";"04ty3gjk9u";"one_one";"GSold";"3";"962.7299999992829";"false";"new";0;"1";"correct";"3_2/CS9"
"297";296;"memory2";"04ty3gjk9u";"one_one";"GSold";"3";"610.6399999989662";"false";"new";0;"2";"correct";"3_2/CS4"
"300";299;"memory2";"04ty3gjk9u";"one_one";"GSold";"3";"931.5849999984493";"false";"new";0;"3";"correct";"3_2/CS6"
"303";302;"memory2";"04ty3gjk9u";"one_one";"distractor";NA;"1359.165000001667";"false";"new";0;"4";"correct";"distractor_2/dis2"
"306";305;"memory2";"04ty3gjk9u";"one_one";"GSold";"2";"1014.7200000064913";"false";"new";0;"5";"correct";"2_2/CS3"
"309";308;"memory2";"04ty3gjk9u";"one_one";"GSold";"2";"673.2450000126846";"false";"new";0;"6";"correct";"2_2/CS5"
"312";311;"memory2";"04ty3gjk9u";"one_one";"distractor";NA;"818.9799999963725";"false";"new";0;"7";"correct";"distractor_2/dis4"
"315";314;"memory2";"04ty3gjk9u";"one_one";"CS";"4";"668.8500000018394";"false";"old";1;"8";"correct";"4_2/CS8"
"318";317;"memory2";"04ty3gjk9u";"one_one";"distractor";NA;"497.6150000002235";"false";"new";0;"9";"correct";"distractor_2/dis3"
"321";320;"memory2";"04ty3gjk9u";"one_one";"CS";"3";"562.579999997979";"false";"old";1;"10";"correct";"3_2/CS2"
"324";323;"memory2";"04ty3gjk9u";"one_one";"GSold";"4";"565.4499999945983";"false";"new";0;"11";"correct";"4_2/CS6"
"327";326;"memory2";"04ty3gjk9u";"one_one";"GSold";"1";"513.0400000052759";"false";"new";0;"12";"correct";"1_2/CS6"
"330";329;"memory2";"04ty3gjk9u";"one_one";"CS";"2";"691.1099999997532";"false";"old";1;"13";"correct";"2_2/CS9"
"333";332;"memory2";"04ty3gjk9u";"one_one";"CS";"1";"683.0500000069151";"false";"new";0;"14";"incorrect";"1_2/CS9"
"336";335;"memory2";"04ty3gjk9u";"one_one";"GSold";"1";"715.4699999955483";"false";"new";0;"15";"correct";"1_2/CS1"
"339";338;"memory2";"04ty3gjk9u";"one_one";"GSold";"4";"615.6500000070082";"false";"new";0;"16";"correct";"4_2/CS4"
"342";341;"memory2";"04ty3gjk9u";"one_one";"distractor";NA;"723.9799999952083";"false";"new";0;"17";"correct";"distractor_2/dis1"
"345";344;"memory2";"04ty3gjk9u";"one_one";"GSold";"2";"660.8099999866681";"false";"new";0;"18";"correct";"2_2/CS2"
"348";347;"memory2";"04ty3gjk9u";"one_one";"GSold";"1";"524.9999999941792";"false";"new";0;"19";"correct";"1_2/CS8"
"993";290;"memory2";"0zq54143a6";"one_one";"GSold";"2";"752";"false";"new";0;"0";"correct";"2_2/CS7"
"996";293;"memory2";"0zq54143a6";"one_one";"distractor";NA;"820";"false";"new";0;"1";"correct";"distractor_2/dis2"
"999";296;"memory2";"0zq54143a6";"one_one";"CS";"1";"578";"false";"old";1;"2";"correct";"1_2/CS6"
"1002";299;"memory2";"0zq54143a6";"one_one";"GSold";"1";"573";"false";"new";0;"3";"correct";"1_2/CS5"
"1005";302;"memory2";"0zq54143a6";"one_one";"GSold";"4";"700";"false";"new";0;"4";"correct";"4_2/CS9"
"1008";305;"memory2";"0zq54143a6";"one_one";"GSold";"4";"624";"false";"new";0;"5";"correct";"4_2/CS10"
"1011";308;"memory2";"0zq54143a6";"one_one";"GSold";"3";"534";"false";"new";0;"6";"correct";"3_2/CS7"
"1014";311;"memory2";"0zq54143a6";"one_one";"GSold";"3";"530";"false";"new";0;"7";"correct";"3_2/CS10"
"1017";314;"memory2";"0zq54143a6";"one_one";"GSold";"1";"443";"false";"new";0;"8";"correct";"1_2/CS9"
"1020";317;"memory2";"0zq54143a6";"one_one";"CS";"3";"761";"false";"old";1;"9";"correct";"3_2/CS6"
"1023";320;"memory2";"0zq54143a6";"one_one";"distractor";NA;"566";"false";"new";0;"10";"correct";"distractor_2/dis3"
"1026";323;"memory2";"0zq54143a6";"one_one";"distractor";NA;"654";"false";"new";0;"11";"correct";"distractor_2/dis4"
"1029";326;"memory2";"0zq54143a6";"one_one";"GSold";"3";"530";"false";"new";0;"12";"correct";"3_2/CS1"
"1032";329;"memory2";"0zq54143a6";"one_one";"distractor";NA;"549";"false";"new";0;"13";"correct";"distractor_2/dis1"
"1035";332;"memory2";"0zq54143a6";"one_one";"GSold";"2";"704";"false";"new";0;"14";"correct";"2_2/CS9"
"1038";335;"memory2";"0zq54143a6";"one_one";"GSold";"1";"745";"false";"new";0;"15";"correct";"1_2/CS2"
"1041";338;"memory2";"0zq54143a6";"one_one";"GSold";"4";"515";"false";"new";0;"16";"correct";"4_2/CS5"
"1044";341;"memory2";"0zq54143a6";"one_one";"GSold";"2";"564";"false";"new";0;"17";"correct";"2_2/CS3"
"1047";344;"memory2";"0zq54143a6";"one_one";"CS";"4";"707";"false";"old";1;"18";"correct";"4_2/CS2"
"1050";347;"memory2";"0zq54143a6";"one_one";"CS";"2";"775";"false";"old";1;"19";"correct";"2_2/CS4"
"1344";290;"memory2";"19k5554njc";"many_one";"GSold";"3";"928";"false";"new";0;"0";"correct";"3_2/CS2"
"1347";293;"memory2";"19k5554njc";"many_one";"GSold";"4";"1054";"false";"new";0;"1";"correct";"4_2/CS8"
"1350";296;"memory2";"19k5554njc";"many_one";"GSold";"4";"762";"false";"new";0;"2";"correct";"4_2/CS3"
"1353";299;"memory2";"19k5554njc";"many_one";"GSold";"3";"753";"false";"new";0;"3";"correct";"3_2/CS3"
"1356";302;"memory2";"19k5554njc";"many_one";"CS";"4";"819";"false";"old";1;"4";"correct";"4_2/CS4"
"1359";305;"memory2";"19k5554njc";"many_one";"CS";"1";"688";"false";"old";1;"5";"correct";"1_2/CS3"
"1362";308;"memory2";"19k5554njc";"many_one";"distractor";NA;"775";"false";"new";0;"6";"correct";"distractor_2/dis2"
"1365";311;"memory2";"19k5554njc";"many_one";"GSold";"2";"774";"false";"new";0;"7";"correct";"2_2/CS2"
"1368";314;"memory2";"19k5554njc";"many_one";"GSold";"1";"630";"false";"new";0;"8";"correct";"1_2/CS5"
"1371";317;"memory2";"19k5554njc";"many_one";"distractor";NA;"634";"false";"new";0;"9";"correct";"distractor_2/dis4"
"1374";320;"memory2";"19k5554njc";"many_one";"GSold";"1";"867";"false";"new";0;"10";"correct";"1_2/CS10"
"1377";323;"memory2";"19k5554njc";"many_one";"distractor";NA;"759";"false";"new";0;"11";"correct";"distractor_2/dis1"
"1380";326;"memory2";"19k5554njc";"many_one";"GSold";"1";"721";"false";"new";0;"12";"correct";"1_2/CS7"
"1383";329;"memory2";"19k5554njc";"many_one";"GSold";"3";"671";"false";"new";0;"13";"correct";"3_2/CS1"
"1386";332;"memory2";"19k5554njc";"many_one";"CS";"2";"1020";"false";"old";1;"14";"correct";"2_2/CS8"
"1389";335;"memory2";"19k5554njc";"many_one";"GSold";"2";"697";"false";"new";0;"15";"correct";"2_2/CS6"
"1392";338;"memory2";"19k5554njc";"many_one";"distractor";NA;"671";"false";"new";0;"16";"correct";"distractor_2/dis3"
"1395";341;"memory2";"19k5554njc";"many_one";"CS";"3";"793";"false";"old";1;"17";"correct";"3_2/CS5"
"1398";344;"memory2";"19k5554njc";"many_one";"GSold";"4";"609";"false";"new";0;"18";"correct";"4_2/CS1"
"1401";347;"memory2";"19k5554njc";"many_one";"GSold";"2";"609";"false";"new";0;"19";"correct";"2_2/CS10"
"1695";290;"memory2";"1kkguek4q5";"many_one";"GSold";"1";"957";"false";"new";0;"0";"correct";"1_2/CS6"
"1698";293;"memory2";"1kkguek4q5";"many_one";"GSold";"3";"1217";"false";"new";0;"1";"correct";"3_2/CS7"
"1701";296;"memory2";"1kkguek4q5";"many_one";"distractor";NA;"621";"false";"new";0;"2";"correct";"distractor_2/dis3"
"1704";299;"memory2";"1kkguek4q5";"many_one";"distractor";NA;"699";"false";"new";0;"3";"correct";"distractor_2/dis2"
"1707";302;"memory2";"1kkguek4q5";"many_one";"GSold";"2";"759";"false";"new";0;"4";"correct";"2_2/CS3"
"1710";305;"memory2";"1kkguek4q5";"many_one";"CS";"1";"717";"false";"old";1;"5";"correct";"1_2/CS7"
"1713";308;"memory2";"1kkguek4q5";"many_one";"CS";"3";"1959";"false";"old";1;"6";"correct";"3_2/CS4"
"1716";311;"memory2";"1kkguek4q5";"many_one";"GSold";"3";"1055.9999999998836";"false";"new";0;"7";"correct";"3_2/CS10"
"1719";314;"memory2";"1kkguek4q5";"many_one";"GSold";"1";"803";"false";"new";0;"8";"correct";"1_2/CS8"
"1722";317;"memory2";"1kkguek4q5";"many_one";"CS";"4";"1010.9999999998836";"false";"old";1;"9";"correct";"4_2/CS9"
"1725";320;"memory2";"1kkguek4q5";"many_one";"CS";"2";"722.0000000001164";"false";"old";1;"10";"correct";"2_2/CS5"
"1728";323;"memory2";"1kkguek4q5";"many_one";"GSold";"1";"940";"false";"new";0;"11";"correct";"1_2/CS1"
"1731";326;"memory2";"1kkguek4q5";"many_one";"distractor";NA;"668.9999999998836";"false";"new";0;"12";"correct";"distractor_2/dis1"
"1734";329;"memory2";"1kkguek4q5";"many_one";"GSold";"4";"1105.0000000001164";"false";"new";0;"13";"correct";"4_2/CS10"
"1737";332;"memory2";"1kkguek4q5";"many_one";"GSold";"2";"476";"false";"new";0;"14";"correct";"2_2/CS10"
"1740";335;"memory2";"1kkguek4q5";"many_one";"GSold";"4";"668.9999999998836";"false";"new";0;"15";"correct";"4_2/CS7"
"1743";338;"memory2";"1kkguek4q5";"many_one";"GSold";"3";"786.0000000001164";"false";"new";0;"16";"correct";"3_2/CS2"
"1746";341;"memory2";"1kkguek4q5";"many_one";"distractor";NA;"43";"false";"new";0;"17";"correct";"distractor_2/dis4"
"1749";344;"memory2";"1kkguek4q5";"many_one";"GSold";"4";"633";"false";"new";0;"18";"correct";"4_2/CS3"
"1752";347;"memory2";"1kkguek4q5";"many_one";"GSold";"2";"662";"false";"new";0;"19";"correct";"2_2/CS7"
"2046";290;"memory2";"1x6x8bednv";"one_one";"GSold";"1";"1170.3599999891594";"false";"new";0;"0";"correct";"1_2/CS4"
"2049";293;"memory2";"1x6x8bednv";"one_one";"CS";"1";"706.449999997858";"false";"old";1;"1";"correct";"1_2/CS8"
"2052";296;"memory2";"1x6x8bednv";"one_one";"distractor";NA;"580.2799999946728";"false";"new";0;"2";"correct";"distractor_2/dis4"
"2055";299;"memory2";"1x6x8bednv";"one_one";"GSold";"2";"722.7100000018254";"false";"new";0;"3";"correct";"2_2/CS5"
"2058";302;"memory2";"1x6x8bednv";"one_one";"GSold";"4";"546.2449999758974";"false";"new";0;"4";"correct";"4_2/CS5"
"2061";305;"memory2";"1x6x8bednv";"one_one";"GSold";"3";"559.7900000284426";"false";"new";0;"5";"correct";"3_2/CS1"
"2064";308;"memory2";"1x6x8bednv";"one_one";"GSold";"2";"521.7350000166334";"false";"new";0;"6";"correct";"2_2/CS6"
"2067";311;"memory2";"1x6x8bednv";"one_one";"GSold";"4";"531.1299999593757";"false";"new";0;"7";"correct";"4_2/CS10"
"2070";314;"memory2";"1x6x8bednv";"one_one";"CS";"2";"645.9749999921769";"false";"old";1;"8";"correct";"2_2/CS2"
"2073";317;"memory2";"1x6x8bednv";"one_one";"CS";"3";"564.3649999983609";"false";"old";1;"9";"correct";"3_2/CS6"
"2076";320;"memory2";"1x6x8bednv";"one_one";"distractor";NA;"548.880000016652";"false";"new";0;"10";"correct";"distractor_2/dis3"
"2079";323;"memory2";"1x6x8bednv";"one_one";"distractor";NA;"627.039999992121";"false";"new";0;"11";"correct";"distractor_2/dis2"
"2082";326;"memory2";"1x6x8bednv";"one_one";"GSold";"2";"603.304999996908";"false";"new";0;"12";"correct";"2_2/CS4"
"2085";329;"memory2";"1x6x8bednv";"one_one";"GSold";"1";"574.3950000032783";"false";"new";0;"13";"correct";"1_2/CS3"
"2088";332;"memory2";"1x6x8bednv";"one_one";"GSold";"3";"581.5799999982119";"false";"new";0;"14";"correct";"3_2/CS3"
"2091";335;"memory2";"1x6x8bednv";"one_one";"distractor";NA;"546.5250000124797";"false";"new";0;"15";"correct";"distractor_2/dis1"
"2094";338;"memory2";"1x6x8bednv";"one_one";"GSold";"1";"579.5600000419654";"false";"new";0;"16";"correct";"1_2/CS9"
"2097";341;"memory2";"1x6x8bednv";"one_one";"GSold";"4";"511.04499999200925";"false";"new";0;"17";"correct";"4_2/CS9"
"2100";344;"memory2";"1x6x8bednv";"one_one";"CS";"4";"636.2800000351854";"false";"old";1;"18";"correct";"4_2/CS4"
"2103";347;"memory2";"1x6x8bednv";"one_one";"GSold";"3";"527.7549999882467";"false";"new";0;"19";"correct";"3_2/CS8"
"2397";290;"memory2";"23ovhx752x";"many_one";"distractor";NA;"950.7149999990361";"false";"new";0;"0";"correct";"distractor_2/dis3"
"2400";293;"memory2";"23ovhx752x";"many_one";"GSold";"3";"701.920000006794";"false";"new";0;"1";"correct";"3_2/CS4"
"2403";296;"memory2";"23ovhx752x";"many_one";"GSold";"1";"815.664999987348";"false";"new";0;"2";"correct";"1_2/CS4"
"2406";299;"memory2";"23ovhx752x";"many_one";"distractor";NA;"607.8799999959301";"false";"new";0;"3";"correct";"distractor_2/dis1"
"2409";302;"memory2";"23ovhx752x";"many_one";"distractor";NA;"807.2050000046147";"false";"new";0;"4";"correct";"distractor_2/dis4"
"2412";305;"memory2";"23ovhx752x";"many_one";"GSold";"2";"763.8849999930244";"false";"new";0;"5";"correct";"2_2/CS6"
"2415";308;"memory2";"23ovhx752x";"many_one";"GSold";"1";"729.5600000070408";"false";"new";0;"6";"correct";"1_2/CS6"
"2418";311;"memory2";"23ovhx752x";"many_one";"CS";"4";"616.794999994454";"false";"old";1;"7";"correct";"4_2/CS10"
"2421";314;"memory2";"23ovhx752x";"many_one";"CS";"2";"1124.7349999903236";"false";"new";0;"8";"incorrect";"2_2/CS9"
"2424";317;"memory2";"23ovhx752x";"many_one";"GSold";"4";"670.0850000052014";"false";"new";0;"9";"correct";"4_2/CS1"
"2427";320;"memory2";"23ovhx752x";"many_one";"CS";"3";"605.1100000040606";"false";"old";1;"10";"correct";"3_2/CS8"
"2430";323;"memory2";"23ovhx752x";"many_one";"GSold";"4";"807.2350000002189";"false";"new";0;"11";"correct";"4_2/CS9"
"2433";326;"memory2";"23ovhx752x";"many_one";"GSold";"4";"602.4150000012014";"false";"new";0;"12";"correct";"4_2/CS8"
"2436";329;"memory2";"23ovhx752x";"many_one";"GSold";"2";"678.6500000016531";"false";"new";0;"13";"correct";"2_2/CS7"
"2439";332;"memory2";"23ovhx752x";"many_one";"GSold";"2";"596.4399999938905";"false";"new";0;"14";"correct";"2_2/CS2"
"2442";335;"memory2";"23ovhx752x";"many_one";"GSold";"3";"556.7100000043865";"false";"new";0;"15";"correct";"3_2/CS9"
"2445";338;"memory2";"23ovhx752x";"many_one";"GSold";"3";"686.5499999985332";"false";"new";0;"16";"correct";"3_2/CS6"
"2448";341;"memory2";"23ovhx752x";"many_one";"CS";"1";"684.175000002142";"false";"old";1;"17";"correct";"1_2/CS9"
"2451";344;"memory2";"23ovhx752x";"many_one";"GSold";"1";"560.4149999999208";"false";"new";0;"18";"correct";"1_2/CS8"
"2454";347;"memory2";"23ovhx752x";"many_one";"distractor";NA;"711.779999997816";"false";"new";0;"19";"correct";"distractor_2/dis2"
"2748";290;"memory2";"25xs5p6ax2";"one_one";"distractor";NA;"972.465000002645";"false";"new";0;"0";"correct";"distractor_2/dis1"
"2751";293;"memory2";"25xs5p6ax2";"one_one";"GSold";"1";"591.0900000017136";"false";"new";0;"1";"correct";"1_2/CS3"
"2754";296;"memory2";"25xs5p6ax2";"one_one";"GSold";"4";"522.6600000020117";"false";"new";0;"2";"correct";"4_2/CS1"
"2757";299;"memory2";"25xs5p6ax2";"one_one";"GSold";"1";"474.730000001844";"false";"new";0;"3";"correct";"1_2/CS10"
"2760";302;"memory2";"25xs5p6ax2";"one_one";"GSold";"1";"480.2249999991618";"false";"new";0;"4";"correct";"1_2/CS6"
"2763";305;"memory2";"25xs5p6ax2";"one_one";"GSold";"4";"507.73000000137836";"false";"new";0;"5";"correct";"4_2/CS3"
"2766";308;"memory2";"25xs5p6ax2";"one_one";"distractor";NA;"504.0050000026822";"false";"new";0;"6";"correct";"distractor_2/dis4"
"2769";311;"memory2";"25xs5p6ax2";"one_one";"GSold";"2";"591.164999997709";"false";"new";0;"7";"correct";"2_2/CS8"
"2772";314;"memory2";"25xs5p6ax2";"one_one";"distractor";NA;"447.1899999990128";"false";"new";0;"8";"correct";"distractor_2/dis3"
"2775";317;"memory2";"25xs5p6ax2";"one_one";"CS";"3";"572.9949999987148";"false";"old";1;"9";"correct";"3_2/CS3"
"2778";320;"memory2";"25xs5p6ax2";"one_one";"CS";"2";"619.1899999976158";"false";"old";1;"10";"correct";"2_2/CS5"
"2781";323;"memory2";"25xs5p6ax2";"one_one";"GSold";"3";"556.0299999997951";"false";"new";0;"11";"correct";"3_2/CS9"
"2784";326;"memory2";"25xs5p6ax2";"one_one";"CS";"1";"916.1649999986403";"false";"old";1;"12";"correct";"1_2/CS8"
"2787";329;"memory2";"25xs5p6ax2";"one_one";"GSold";"3";"509.9000000008382";"false";"new";0;"13";"correct";"3_2/CS10"
"2790";332;"memory2";"25xs5p6ax2";"one_one";"GSold";"4";"465.5200000018813";"false";"new";0;"14";"correct";"4_2/CS6"
"2793";335;"memory2";"25xs5p6ax2";"one_one";"GSold";"3";"614.4700000002049";"false";"new";0;"15";"correct";"3_2/CS2"
"2796";338;"memory2";"25xs5p6ax2";"one_one";"distractor";NA;"429.214999999851";"false";"new";0;"16";"correct";"distractor_2/dis2"
"2799";341;"memory2";"25xs5p6ax2";"one_one";"GSold";"2";"622.0099999993108";"false";"new";0;"17";"correct";"2_2/CS4"
"2802";344;"memory2";"25xs5p6ax2";"one_one";"GSold";"2";"556.7800000025891";"false";"new";0;"18";"correct";"2_2/CS3"
"2805";347;"memory2";"25xs5p6ax2";"one_one";"CS";"4";"685.9150000018999";"false";"old";1;"19";"correct";"4_2/CS7"
"3099";290;"memory2";"28bx3hmnkl";"one_one";"GSold";"1";"1671";"false";"new";0;"0";"correct";"1_2/CS4"
"3102";293;"memory2";"28bx3hmnkl";"one_one";"GSold";"1";"644";"false";"new";0;"1";"correct";"1_2/CS3"
"3105";296;"memory2";"28bx3hmnkl";"one_one";"GSold";"3";"828";"false";"new";0;"2";"correct";"3_2/CS3"
"3108";299;"memory2";"28bx3hmnkl";"one_one";"CS";"1";"1718";"false";"old";1;"3";"correct";"1_2/CS5"
"3111";302;"memory2";"28bx3hmnkl";"one_one";"GSold";"2";"627";"false";"new";0;"4";"correct";"2_2/CS10"
"3114";305;"memory2";"28bx3hmnkl";"one_one";"distractor";NA;"669";"false";"new";0;"5";"correct";"distractor_2/dis2"
"3117";308;"memory2";"28bx3hmnkl";"one_one";"GSold";"2";"619";"false";"new";0;"6";"correct";"2_2/CS2"
"3120";311;"memory2";"28bx3hmnkl";"one_one";"GSold";"2";"611";"false";"new";0;"7";"correct";"2_2/CS5"
"3123";314;"memory2";"28bx3hmnkl";"one_one";"CS";"2";"582";"false";"old";1;"8";"correct";"2_2/CS4"
"3126";317;"memory2";"28bx3hmnkl";"one_one";"distractor";NA;"613";"false";"new";0;"9";"correct";"distractor_2/dis3"
"3129";320;"memory2";"28bx3hmnkl";"one_one";"CS";"3";"676";"false";"old";1;"10";"correct";"3_2/CS8"
"3132";323;"memory2";"28bx3hmnkl";"one_one";"GSold";"4";"728";"false";"new";0;"11";"correct";"4_2/CS4"
"3135";326;"memory2";"28bx3hmnkl";"one_one";"GSold";"4";"569";"false";"new";0;"12";"correct";"4_2/CS5"
"3138";329;"memory2";"28bx3hmnkl";"one_one";"GSold";"1";"952";"false";"new";0;"13";"correct";"1_2/CS2"
"3141";332;"memory2";"28bx3hmnkl";"one_one";"distractor";NA;"497";"false";"new";0;"14";"correct";"distractor_2/dis1"
"3144";335;"memory2";"28bx3hmnkl";"one_one";"distractor";NA;"515";"false";"new";0;"15";"correct";"distractor_2/dis4"
"3147";338;"memory2";"28bx3hmnkl";"one_one";"GSold";"4";"654";"false";"new";0;"16";"correct";"4_2/CS3"
"3150";341;"memory2";"28bx3hmnkl";"one_one";"GSold";"3";"613";"false";"new";0;"17";"correct";"3_2/CS1"
"3153";344;"memory2";"28bx3hmnkl";"one_one";"GSold";"3";"585";"false";"new";0;"18";"correct";"3_2/CS6"
"3156";347;"memory2";"28bx3hmnkl";"one_one";"CS";"4";"782";"false";"old";1;"19";"correct";"4_2/CS2"
"3801";290;"memory2";"2lgd2prbaa";"one_one";"distractor";NA;"1091.010000091046";"false";"new";0;"0";"correct";"distractor_2/dis2"
"3804";293;"memory2";"2lgd2prbaa";"one_one";"distractor";NA;"1154.7250000294298";"false";"new";0;"1";"correct";"distractor_2/dis3"
"3807";296;"memory2";"2lgd2prbaa";"one_one";"CS";"4";"659.5699999015778";"false";"old";1;"2";"correct";"4_2/CS1"
"3810";299;"memory2";"2lgd2prbaa";"one_one";"CS";"1";"843.9749998506159";"false";"old";1;"3";"correct";"1_2/CS10"
"3813";302;"memory2";"2lgd2prbaa";"one_one";"GSold";"1";"560.8600000850856";"false";"new";0;"4";"correct";"1_2/CS9"
"3816";305;"memory2";"2lgd2prbaa";"one_one";"GSold";"2";"929.3700000271201";"false";"new";0;"5";"correct";"2_2/CS7"
"3819";308;"memory2";"2lgd2prbaa";"one_one";"distractor";NA;"625.2099999692291";"false";"old";1;"6";"incorrect";"distractor_2/dis1"
"3822";311;"memory2";"2lgd2prbaa";"one_one";"distractor";NA;"495.9299999754876";"false";"new";0;"7";"correct";"distractor_2/dis4"
"3825";314;"memory2";"2lgd2prbaa";"one_one";"GSold";"2";"363.61500015482306";"false";"new";0;"8";"correct";"2_2/CS8"
"3828";317;"memory2";"2lgd2prbaa";"one_one";"GSold";"3";"728.0449999962002";"false";"new";0;"9";"correct";"3_2/CS10"
"3831";320;"memory2";"2lgd2prbaa";"one_one";"CS";"2";"961.9350000284612";"false";"old";1;"10";"correct";"2_2/CS4"
"3834";323;"memory2";"2lgd2prbaa";"one_one";"CS";"3";"1031.2699999194592";"false";"old";1;"11";"correct";"3_2/CS7"
"3837";326;"memory2";"2lgd2prbaa";"one_one";"GSold";"3";"1179.8350000753999";"false";"new";0;"12";"correct";"3_2/CS9"
"3840";329;"memory2";"2lgd2prbaa";"one_one";"GSold";"1";"820.8899998571724";"false";"new";0;"13";"correct";"1_2/CS3"
"3843";332;"memory2";"2lgd2prbaa";"one_one";"GSold";"3";"838.0100000649691";"false";"new";0;"14";"correct";"3_2/CS5"
"3846";335;"memory2";"2lgd2prbaa";"one_one";"GSold";"1";"863.4850000962615";"false";"new";0;"15";"correct";"1_2/CS2"
"3849";338;"memory2";"2lgd2prbaa";"one_one";"GSold";"4";"780.7799999136478";"false";"new";0;"16";"correct";"4_2/CS5"
"3852";341;"memory2";"2lgd2prbaa";"one_one";"GSold";"4";"679.4649998191744";"false";"new";0;"17";"correct";"4_2/CS3"
"3855";344;"memory2";"2lgd2prbaa";"one_one";"GSold";"4";"675.4699999000877";"false";"new";0;"18";"correct";"4_2/CS2"
"3858";347;"memory2";"2lgd2prbaa";"one_one";"GSold";"2";"665.6349999830127";"false";"new";0;"19";"correct";"2_2/CS10"
"4152";290;"memory2";"2oyobcd21b";"one_one";"distractor";NA;"876";"false";"new";0;"0";"correct";"distractor_2/dis1"
"4155";293;"memory2";"2oyobcd21b";"one_one";"distractor";NA;"672";"false";"new";0;"1";"correct";"distractor_2/dis3"
"4158";296;"memory2";"2oyobcd21b";"one_one";"CS";"3";"548";"false";"old";1;"2";"correct";"3_2/CS9"
"4161";299;"memory2";"2oyobcd21b";"one_one";"GSold";"4";"722";"false";"new";0;"3";"correct";"4_2/CS4"
"4164";302;"memory2";"2oyobcd21b";"one_one";"GSold";"2";"1022";"false";"new";0;"4";"correct";"2_2/CS9"
"4167";305;"memory2";"2oyobcd21b";"one_one";"GSold";"4";"637";"false";"new";0;"5";"correct";"4_2/CS3"
"4170";308;"memory2";"2oyobcd21b";"one_one";"CS";"4";"526";"false";"old";1;"6";"correct";"4_2/CS1"
"4173";311;"memory2";"2oyobcd21b";"one_one";"GSold";"3";"665";"false";"new";0;"7";"correct";"3_2/CS3"
"4176";314;"memory2";"2oyobcd21b";"one_one";"CS";"1";"546";"false";"old";1;"8";"correct";"1_2/CS4"
"4179";317;"memory2";"2oyobcd21b";"one_one";"GSold";"3";"548";"false";"new";0;"9";"correct";"3_2/CS7"
"4182";320;"memory2";"2oyobcd21b";"one_one";"GSold";"4";"707";"false";"new";0;"10";"correct";"4_2/CS9"
"4185";323;"memory2";"2oyobcd21b";"one_one";"GSold";"1";"611";"false";"new";0;"11";"correct";"1_2/CS1"
"4188";326;"memory2";"2oyobcd21b";"one_one";"GSold";"1";"529";"false";"new";0;"12";"correct";"1_2/CS9"
"4191";329;"memory2";"2oyobcd21b";"one_one";"GSold";"2";"658";"false";"new";0;"13";"correct";"2_2/CS6"
"4194";332;"memory2";"2oyobcd21b";"one_one";"GSold";"2";"942";"false";"new";0;"14";"correct";"2_2/CS3"
"4197";335;"memory2";"2oyobcd21b";"one_one";"CS";"2";"636";"false";"old";1;"15";"correct";"2_2/CS2"
"4200";338;"memory2";"2oyobcd21b";"one_one";"GSold";"1";"551";"false";"new";0;"16";"correct";"1_2/CS5"
"4203";341;"memory2";"2oyobcd21b";"one_one";"GSold";"3";"544";"false";"new";0;"17";"correct";"3_2/CS8"
"4206";344;"memory2";"2oyobcd21b";"one_one";"distractor";NA;"572";"false";"new";0;"18";"correct";"distractor_2/dis4"
"4209";347;"memory2";"2oyobcd21b";"one_one";"distractor";NA;"645";"false";"new";0;"19";"correct";"distractor_2/dis2"
"4503";290;"memory2";"2rqw3kun2r";"many_one";"distractor";NA;"1275.5900000010151";"false";"new";0;"0";"correct";"distractor_2/dis3"
"4506";293;"memory2";"2rqw3kun2r";"many_one";"distractor";NA;"963.2150000015972";"false";"new";0;"1";"correct";"distractor_2/dis1"
"4509";296;"memory2";"2rqw3kun2r";"many_one";"CS";"1";"918.2749999999069";"false";"old";1;"2";"correct";"1_2/CS4"
"4512";299;"memory2";"2rqw3kun2r";"many_one";"GSold";"2";"1517.3800000010524";"false";"new";0;"3";"correct";"2_2/CS9"
"4515";302;"memory2";"2rqw3kun2r";"many_one";"CS";"2";"939.3600000002189";"false";"old";1;"4";"correct";"2_2/CS5"
"4518";305;"memory2";"2rqw3kun2r";"many_one";"GSold";"4";"1348.8949999992037";"false";"new";0;"5";"correct";"4_2/CS6"
"4521";308;"memory2";"2rqw3kun2r";"many_one";"CS";"4";"946.3699999996461";"false";"old";1;"6";"correct";"4_2/CS8"
"4524";311;"memory2";"2rqw3kun2r";"many_one";"distractor";NA;"1080.7899999999208";"false";"new";0;"7";"correct";"distractor_2/dis4"
"4527";314;"memory2";"2rqw3kun2r";"many_one";"GSold";"3";"1564.980000001029";"false";"new";0;"8";"correct";"3_2/CS9"
"4530";317;"memory2";"2rqw3kun2r";"many_one";"GSold";"4";"934.1199999998789";"false";"new";0;"9";"correct";"4_2/CS4"
"4533";320;"memory2";"2rqw3kun2r";"many_one";"GSold";"1";"979.3300000000745";"false";"new";0;"10";"correct";"1_2/CS3"
"4536";323;"memory2";"2rqw3kun2r";"many_one";"GSold";"1";"966.0750000001863";"false";"new";0;"11";"correct";"1_2/CS9"
"4539";326;"memory2";"2rqw3kun2r";"many_one";"GSold";"2";"1021.6300000010524";"false";"new";0;"12";"correct";"2_2/CS2"
"4542";329;"memory2";"2rqw3kun2r";"many_one";"GSold";"2";"1142.745000001043";"false";"new";0;"13";"correct";"2_2/CS3"
"4545";332;"memory2";"2rqw3kun2r";"many_one";"GSold";"4";"735.2950000005076";"false";"new";0;"14";"correct";"4_2/CS7"
"4548";335;"memory2";"2rqw3kun2r";"many_one";"GSold";"3";"1273.430000001099";"false";"new";0;"15";"correct";"3_2/CS2"
"4551";338;"memory2";"2rqw3kun2r";"many_one";"CS";"3";"728.6850000000559";"false";"old";1;"16";"correct";"3_2/CS6"
"4554";341;"memory2";"2rqw3kun2r";"many_one";"GSold";"3";"1827.0850000007777";"false";"new";0;"17";"correct";"3_2/CS8"
"4557";344;"memory2";"2rqw3kun2r";"many_one";"GSold";"1";"826.8599999991711";"false";"new";0;"18";"correct";"1_2/CS7"
"4560";347;"memory2";"2rqw3kun2r";"many_one";"distractor";NA;"1874.5300000009593";"false";"new";0;"19";"correct";"distractor_2/dis2"
"4854";290;"memory2";"2topmaxcp6";"one_one";"GSold";"3";"883";"false";"new";0;"0";"correct";"3_2/CS2"
"4857";293;"memory2";"2topmaxcp6";"one_one";"distractor";NA;"782";"false";"new";0;"1";"correct";"distractor_2/dis4"
"4860";296;"memory2";"2topmaxcp6";"one_one";"GSold";"1";"604";"false";"new";0;"2";"correct";"1_2/CS2"
"4863";299;"memory2";"2topmaxcp6";"one_one";"CS";"1";"639";"false";"old";1;"3";"correct";"1_2/CS4"
"4866";302;"memory2";"2topmaxcp6";"one_one";"GSold";"4";"1180";"false";"new";0;"4";"correct";"4_2/CS7"
"4869";305;"memory2";"2topmaxcp6";"one_one";"distractor";NA;"832";"false";"new";0;"5";"correct";"distractor_2/dis2"
"4872";308;"memory2";"2topmaxcp6";"one_one";"GSold";"3";"682";"false";"new";0;"6";"correct";"3_2/CS8"
"4875";311;"memory2";"2topmaxcp6";"one_one";"GSold";"1";"562";"false";"new";0;"7";"correct";"1_2/CS10"
"4878";314;"memory2";"2topmaxcp6";"one_one";"GSold";"2";"774";"false";"new";0;"8";"correct";"2_2/CS4"
"4881";317;"memory2";"2topmaxcp6";"one_one";"distractor";NA;"795";"false";"new";0;"9";"correct";"distractor_2/dis1"
"4884";320;"memory2";"2topmaxcp6";"one_one";"CS";"2";"826";"false";"old";1;"10";"correct";"2_2/CS6"
"4887";323;"memory2";"2topmaxcp6";"one_one";"CS";"4";"814";"false";"old";1;"11";"correct";"4_2/CS9"
"4890";326;"memory2";"2topmaxcp6";"one_one";"GSold";"4";"748";"false";"new";0;"12";"correct";"4_2/CS5"
"4893";329;"memory2";"2topmaxcp6";"one_one";"GSold";"3";"682";"false";"new";0;"13";"correct";"3_2/CS1"
"4896";332;"memory2";"2topmaxcp6";"one_one";"GSold";"2";"1012";"false";"new";0;"14";"correct";"2_2/CS9"
"4899";335;"memory2";"2topmaxcp6";"one_one";"GSold";"2";"737";"false";"new";0;"15";"correct";"2_2/CS7"
"4902";338;"memory2";"2topmaxcp6";"one_one";"distractor";NA;"641";"false";"new";0;"16";"correct";"distractor_2/dis3"
"4905";341;"memory2";"2topmaxcp6";"one_one";"CS";"3";"909";"false";"old";1;"17";"correct";"3_2/CS4"
"4908";344;"memory2";"2topmaxcp6";"one_one";"GSold";"1";"556";"false";"new";0;"18";"correct";"1_2/CS9"
"4911";347;"memory2";"2topmaxcp6";"one_one";"GSold";"4";"574";"false";"new";0;"19";"correct";"4_2/CS1"
"5205";290;"memory2";"31avj7mzjj";"many_one";"GSold";"3";"1134.9899999985937";"false";"new";0;"0";"correct";"3_2/CS6"
"5208";293;"memory2";"31avj7mzjj";"many_one";"GSold";"4";"873.2750000017695";"false";"new";0;"1";"correct";"4_2/CS6"
"5211";296;"memory2";"31avj7mzjj";"many_one";"GSold";"4";"623.0199999990873";"false";"new";0;"2";"correct";"4_2/CS1"
"5214";299;"memory2";"31avj7mzjj";"many_one";"distractor";NA;"608.1500000001397";"false";"new";0;"3";"correct";"distractor_2/dis4"
"5217";302;"memory2";"31avj7mzjj";"many_one";"distractor";NA;"791.8700000010431";"false";"new";0;"4";"correct";"distractor_2/dis3"
"5220";305;"memory2";"31avj7mzjj";"many_one";"GSold";"1";"717.895000001532";"false";"new";0;"5";"correct";"1_2/CS4"
"5223";308;"memory2";"31avj7mzjj";"many_one";"GSold";"4";"537.0450000009732";"false";"new";0;"6";"correct";"4_2/CS7"
"5226";311;"memory2";"31avj7mzjj";"many_one";"GSold";"2";"637.4050000013085";"false";"new";0;"7";"correct";"2_2/CS6"
"5229";314;"memory2";"31avj7mzjj";"many_one";"distractor";NA;"818.9299999977229";"false";"new";0;"8";"correct";"distractor_2/dis2"
"5232";317;"memory2";"31avj7mzjj";"many_one";"GSold";"1";"518.2150000000838";"false";"new";0;"9";"correct";"1_2/CS2"
"5235";320;"memory2";"31avj7mzjj";"many_one";"CS";"2";"579.669999999227";"false";"old";1;"10";"correct";"2_2/CS7"
"5238";323;"memory2";"31avj7mzjj";"many_one";"distractor";NA;"693.054999999702";"false";"new";0;"11";"correct";"distractor_2/dis1"
"5241";326;"memory2";"31avj7mzjj";"many_one";"GSold";"1";"710.9600000004284";"false";"new";0;"12";"correct";"1_2/CS10"
"5244";329;"memory2";"31avj7mzjj";"many_one";"CS";"3";"594.8199999984354";"false";"old";1;"13";"correct";"3_2/CS2"
"5247";332;"memory2";"31avj7mzjj";"many_one";"CS";"4";"675.6900000000605";"false";"old";1;"14";"correct";"4_2/CS10"
"5250";335;"memory2";"31avj7mzjj";"many_one";"GSold";"2";"727.8700000024401";"false";"new";0;"15";"correct";"2_2/CS10"
"5253";338;"memory2";"31avj7mzjj";"many_one";"GSold";"3";"533.5350000022445";"false";"new";0;"16";"correct";"3_2/CS1"
"5256";341;"memory2";"31avj7mzjj";"many_one";"GSold";"2";"689.0900000034599";"false";"new";0;"17";"correct";"2_2/CS2"
"5259";344;"memory2";"31avj7mzjj";"many_one";"GSold";"3";"511.77499999909196";"false";"new";0;"18";"correct";"3_2/CS5"
"5262";347;"memory2";"31avj7mzjj";"many_one";"CS";"1";"624.4299999999348";"false";"old";1;"19";"correct";"1_2/CS3"
"6258";290;"memory2";"3lnf3nscga";"one_one";"GSold";"4";"1309.9500000244007";"false";"new";0;"0";"correct";"4_2/CS10"
"6261";293;"memory2";"3lnf3nscga";"one_one";"GSold";"1";"625.1800000027288";"false";"new";0;"1";"correct";"1_2/CS4"
"6264";296;"memory2";"3lnf3nscga";"one_one";"CS";"1";"654.804999998305";"false";"old";1;"2";"correct";"1_2/CS10"
"6267";299;"memory2";"3lnf3nscga";"one_one";"distractor";NA;"555.2900000184309";"false";"new";0;"3";"correct";"distractor_2/dis3"
"6270";302;"memory2";"3lnf3nscga";"one_one";"CS";"2";"662.1150000137277";"false";"old";1;"4";"correct";"2_2/CS4"
"6273";305;"memory2";"3lnf3nscga";"one_one";"GSold";"3";"726.810000021942";"false";"new";0;"5";"correct";"3_2/CS6"
"6276";308;"memory2";"3lnf3nscga";"one_one";"GSold";"3";"504.95000000228174";"false";"new";0;"6";"correct";"3_2/CS7"
"6279";311;"memory2";"3lnf3nscga";"one_one";"CS";"3";"554.4149999914225";"false";"old";1;"7";"correct";"3_2/CS10"
"6282";314;"memory2";"3lnf3nscga";"one_one";"distractor";NA;"586.2699999997858";"false";"new";0;"8";"correct";"distractor_2/dis1"
"6285";317;"memory2";"3lnf3nscga";"one_one";"GSold";"2";"760.0000000093132";"false";"new";0;"9";"correct";"2_2/CS3"
"6288";320;"memory2";"3lnf3nscga";"one_one";"GSold";"1";"539.1300000192132";"false";"new";0;"10";"correct";"1_2/CS5"
"6291";323;"memory2";"3lnf3nscga";"one_one";"GSold";"3";"582.5800000166055";"false";"new";0;"11";"correct";"3_2/CS5"
"6294";326;"memory2";"3lnf3nscga";"one_one";"distractor";NA;"686.4500000083353";"false";"new";0;"12";"correct";"distractor_2/dis4"
"6297";329;"memory2";"3lnf3nscga";"one_one";"GSold";"1";"660.8800000103656";"false";"new";0;"13";"correct";"1_2/CS7"
"6300";332;"memory2";"3lnf3nscga";"one_one";"GSold";"2";"562.8149999829475";"false";"new";0;"14";"correct";"2_2/CS5"
"6303";335;"memory2";"3lnf3nscga";"one_one";"GSold";"2";"709.1749999963213";"false";"new";0;"15";"correct";"2_2/CS8"
"6306";338;"memory2";"3lnf3nscga";"one_one";"distractor";NA;"605.3400000091642";"false";"new";0;"16";"correct";"distractor_2/dis2"
"6309";341;"memory2";"3lnf3nscga";"one_one";"GSold";"4";"664.0049999987241";"false";"new";0;"17";"correct";"4_2/CS6"
"6312";344;"memory2";"3lnf3nscga";"one_one";"GSold";"4";"724.9500000034459";"false";"new";0;"18";"correct";"4_2/CS8"
"6315";347;"memory2";"3lnf3nscga";"one_one";"CS";"4";"1010.710000002291";"false";"old";1;"19";"correct";"4_2/CS7"
"6609";290;"memory2";"3vrnon1bwu";"one_one";"GSold";"4";"563";"false";"new";0;"0";"correct";"4_2/CS3"
"6612";293;"memory2";"3vrnon1bwu";"one_one";"distractor";NA;"485";"false";"new";0;"1";"correct";"distractor_2/dis2"
"6615";296;"memory2";"3vrnon1bwu";"one_one";"distractor";NA;"415";"false";"new";0;"2";"correct";"distractor_2/dis4"
"6618";299;"memory2";"3vrnon1bwu";"one_one";"GSold";"2";"598";"false";"new";0;"3";"correct";"2_2/CS1"
"6621";302;"memory2";"3vrnon1bwu";"one_one";"GSold";"3";"692";"false";"new";0;"4";"correct";"3_2/CS1"
"6624";305;"memory2";"3vrnon1bwu";"one_one";"GSold";"3";"486";"false";"new";0;"5";"correct";"3_2/CS5"
"6627";308;"memory2";"3vrnon1bwu";"one_one";"CS";"3";"572";"false";"old";1;"6";"correct";"3_2/CS10"
"6630";311;"memory2";"3vrnon1bwu";"one_one";"CS";"1";"537";"false";"old";1;"7";"correct";"1_2/CS8"
"6633";314;"memory2";"3vrnon1bwu";"one_one";"CS";"4";"553";"false";"new";0;"8";"incorrect";"4_2/CS1"
"6636";317;"memory2";"3vrnon1bwu";"one_one";"GSold";"4";"625";"false";"new";0;"9";"correct";"4_2/CS2"
"6639";320;"memory2";"3vrnon1bwu";"one_one";"GSold";"4";"622";"false";"new";0;"10";"correct";"4_2/CS6"
"6642";323;"memory2";"3vrnon1bwu";"one_one";"GSold";"2";"528";"false";"new";0;"11";"correct";"2_2/CS4"
"6645";326;"memory2";"3vrnon1bwu";"one_one";"CS";"2";"565";"false";"old";1;"12";"correct";"2_2/CS7"
"6648";329;"memory2";"3vrnon1bwu";"one_one";"GSold";"1";"695";"false";"new";0;"13";"correct";"1_2/CS6"
"6651";332;"memory2";"3vrnon1bwu";"one_one";"GSold";"3";"604";"false";"new";0;"14";"correct";"3_2/CS9"
"6654";335;"memory2";"3vrnon1bwu";"one_one";"distractor";NA;"499";"false";"new";0;"15";"correct";"distractor_2/dis1"
"6657";338;"memory2";"3vrnon1bwu";"one_one";"distractor";NA;"651";"false";"new";0;"16";"correct";"distractor_2/dis3"
"6660";341;"memory2";"3vrnon1bwu";"one_one";"GSold";"2";"382";"false";"new";0;"17";"correct";"2_2/CS5"
"6663";344;"memory2";"3vrnon1bwu";"one_one";"GSold";"1";"427";"false";"new";0;"18";"correct";"1_2/CS4"
"6666";347;"memory2";"3vrnon1bwu";"one_one";"GSold";"1";"735";"false";"new";0;"19";"correct";"1_2/CS9"
"6960";290;"memory2";"4261yws2f3";"many_one";"GSold";"1";"975";"false";"new";0;"0";"correct";"1_2/CS8"
"6963";293;"memory2";"4261yws2f3";"many_one";"GSold";"3";"607";"false";"new";0;"1";"correct";"3_2/CS3"
"6966";296;"memory2";"4261yws2f3";"many_one";"distractor";NA;"677";"false";"new";0;"2";"correct";"distractor_2/dis1"
"6969";299;"memory2";"4261yws2f3";"many_one";"GSold";"4";"656";"false";"new";0;"3";"correct";"4_2/CS1"
"6972";302;"memory2";"4261yws2f3";"many_one";"GSold";"4";"570";"false";"new";0;"4";"correct";"4_2/CS7"
"6975";305;"memory2";"4261yws2f3";"many_one";"GSold";"2";"702";"false";"new";0;"5";"correct";"2_2/CS5"
"6978";308;"memory2";"4261yws2f3";"many_one";"GSold";"4";"668";"false";"new";0;"6";"correct";"4_2/CS4"
"6981";311;"memory2";"4261yws2f3";"many_one";"distractor";NA;"576";"false";"new";0;"7";"correct";"distractor_2/dis3"
"6984";314;"memory2";"4261yws2f3";"many_one";"distractor";NA;"562";"false";"new";0;"8";"correct";"distractor_2/dis2"
"6987";317;"memory2";"4261yws2f3";"many_one";"distractor";NA;"606";"false";"new";0;"9";"correct";"distractor_2/dis4"
"6990";320;"memory2";"4261yws2f3";"many_one";"GSold";"3";"430";"false";"new";0;"10";"correct";"3_2/CS1"
"6993";323;"memory2";"4261yws2f3";"many_one";"GSold";"2";"422";"false";"new";0;"11";"correct";"2_2/CS8"
"6996";326;"memory2";"4261yws2f3";"many_one";"CS";"2";"404";"false";"new";0;"12";"incorrect";"2_2/CS3"
"6999";329;"memory2";"4261yws2f3";"many_one";"GSold";"2";"756";"false";"new";0;"13";"correct";"2_2/CS2"
"7002";332;"memory2";"4261yws2f3";"many_one";"GSold";"1";"716";"false";"new";0;"14";"correct";"1_2/CS5"
"7005";335;"memory2";"4261yws2f3";"many_one";"CS";"1";"554";"false";"new";0;"15";"incorrect";"1_2/CS1"
"7008";338;"memory2";"4261yws2f3";"many_one";"CS";"4";"631";"false";"old";1;"16";"correct";"4_2/CS10"
"7011";341;"memory2";"4261yws2f3";"many_one";"GSold";"3";"705";"false";"new";0;"17";"correct";"3_2/CS7"
"7014";344;"memory2";"4261yws2f3";"many_one";"CS";"3";"613";"false";"old";1;"18";"correct";"3_2/CS8"
"7017";347;"memory2";"4261yws2f3";"many_one";"GSold";"1";"702";"false";"new";0;"19";"correct";"1_2/CS3"
"7311";290;"memory2";"4gqsdtz9th";"many_one";"GSold";"2";"728.3899999893038";"false";"new";0;"0";"correct";"2_2/CS9"
"7314";293;"memory2";"4gqsdtz9th";"many_one";"CS";"2";"620.1350000046659";"false";"old";1;"1";"correct";"2_2/CS3"
"7317";296;"memory2";"4gqsdtz9th";"many_one";"GSold";"1";"658.0799999937881";"false";"new";0;"2";"correct";"1_2/CS7"
"7320";299;"memory2";"4gqsdtz9th";"many_one";"GSold";"3";"561.2249999976484";"false";"new";0;"3";"correct";"3_2/CS3"
"7323";302;"memory2";"4gqsdtz9th";"many_one";"CS";"3";"507.24999999511056";"false";"old";1;"4";"correct";"3_2/CS10"
"7326";305;"memory2";"4gqsdtz9th";"many_one";"GSold";"4";"669.6850000007544";"false";"new";0;"5";"correct";"4_2/CS9"
"7329";308;"memory2";"4gqsdtz9th";"many_one";"distractor";NA;"556.6450000042096";"false";"new";0;"6";"correct";"distractor_2/dis2"
"7332";311;"memory2";"4gqsdtz9th";"many_one";"distractor";NA;"549.6349999884842";"false";"new";0;"7";"correct";"distractor_2/dis3"
"7335";314;"memory2";"4gqsdtz9th";"many_one";"GSold";"3";"592.4599999998463";"false";"new";0;"8";"correct";"3_2/CS8"
"7338";317;"memory2";"4gqsdtz9th";"many_one";"GSold";"1";"599.130000002333";"false";"new";0;"9";"correct";"1_2/CS2"
"7341";320;"memory2";"4gqsdtz9th";"many_one";"distractor";NA;"538.6499999876833";"false";"new";0;"10";"correct";"distractor_2/dis1"
"7344";323;"memory2";"4gqsdtz9th";"many_one";"GSold";"1";"621.8349999981001";"false";"new";0;"11";"correct";"1_2/CS10"
"7347";326;"memory2";"4gqsdtz9th";"many_one";"distractor";NA;"476.58500001125503";"false";"new";0;"12";"correct";"distractor_2/dis4"
"7350";329;"memory2";"4gqsdtz9th";"many_one";"CS";"1";"773.7750000087544";"false";"old";1;"13";"correct";"1_2/CS4"
"7353";332;"memory2";"4gqsdtz9th";"many_one";"CS";"4";"613.8700000010431";"false";"old";1;"14";"correct";"4_2/CS10"
"7356";335;"memory2";"4gqsdtz9th";"many_one";"GSold";"2";"609.1049999959068";"false";"new";0;"15";"correct";"2_2/CS1"
"7359";338;"memory2";"4gqsdtz9th";"many_one";"GSold";"4";"705.3249999880791";"false";"new";0;"16";"correct";"4_2/CS5"
"7362";341;"memory2";"4gqsdtz9th";"many_one";"GSold";"3";"527.8000000107568";"false";"new";0;"17";"correct";"3_2/CS5"
"7365";344;"memory2";"4gqsdtz9th";"many_one";"GSold";"4";"736.495000004652";"false";"new";0;"18";"correct";"4_2/CS8"
"7368";347;"memory2";"4gqsdtz9th";"many_one";"GSold";"2";"533.0399999947986";"false";"new";0;"19";"correct";"2_2/CS8"
"8364";290;"memory2";"4q96ebkutq";"many_one";"GSold";"1";"1468";"false";"new";0;"0";"correct";"1_2/CS7"
"8367";293;"memory2";"4q96ebkutq";"many_one";"distractor";NA;"2769";"false";"new";0;"1";"correct";"distractor_2/dis2"
"8370";296;"memory2";"4q96ebkutq";"many_one";"GSold";"2";"807";"false";"new";0;"2";"correct";"2_2/CS10"
"8373";299;"memory2";"4q96ebkutq";"many_one";"GSold";"3";"1213";"false";"new";0;"3";"correct";"3_2/CS9"
"8376";302;"memory2";"4q96ebkutq";"many_one";"CS";"2";"891";"false";"old";1;"4";"correct";"2_2/CS3"
"8379";305;"memory2";"4q96ebkutq";"many_one";"GSold";"3";"940";"false";"new";0;"5";"correct";"3_2/CS3"
"8382";308;"memory2";"4q96ebkutq";"many_one";"GSold";"1";"891";"false";"old";1;"6";"incorrect";"1_2/CS4"
"8385";311;"memory2";"4q96ebkutq";"many_one";"GSold";"1";"774";"false";"new";0;"7";"correct";"1_2/CS5"
"8388";314;"memory2";"4q96ebkutq";"many_one";"GSold";"4";"978";"false";"new";0;"8";"correct";"4_2/CS2"
"8391";317;"memory2";"4q96ebkutq";"many_one";"GSold";"4";"2108";"false";"new";0;"9";"correct";"4_2/CS10"
"8394";320;"memory2";"4q96ebkutq";"many_one";"CS";"3";"730";"false";"old";1;"10";"correct";"3_2/CS8"
"8397";323;"memory2";"4q96ebkutq";"many_one";"distractor";NA;"938";"false";"new";0;"11";"correct";"distractor_2/dis1"
"8400";326;"memory2";"4q96ebkutq";"many_one";"CS";"1";"638";"false";"old";1;"12";"correct";"1_2/CS2"
"8403";329;"memory2";"4q96ebkutq";"many_one";"GSold";"3";"822";"false";"new";0;"13";"correct";"3_2/CS10"
"8406";332;"memory2";"4q96ebkutq";"many_one";"GSold";"4";"1282";"false";"new";0;"14";"correct";"4_2/CS5"
"8409";335;"memory2";"4q96ebkutq";"many_one";"CS";"4";"784";"false";"old";1;"15";"correct";"4_2/CS9"
"8412";338;"memory2";"4q96ebkutq";"many_one";"GSold";"2";"861";"false";"old";1;"16";"incorrect";"2_2/CS8"
"8415";341;"memory2";"4q96ebkutq";"many_one";"GSold";"2";"678";"false";"old";1;"17";"incorrect";"2_2/CS1"
"8418";344;"memory2";"4q96ebkutq";"many_one";"distractor";NA;"662";"false";"new";0;"18";"correct";"distractor_2/dis3"
"8421";347;"memory2";"4q96ebkutq";"many_one";"distractor";NA;"729";"false";"new";0;"19";"correct";"distractor_2/dis4"
"8715";290;"memory2";"4qj299ew43";"many_one";"CS";"3";"912";"false";"old";1;"0";"correct";"3_2/CS10"
"8718";293;"memory2";"4qj299ew43";"many_one";"GSold";"4";"673";"false";"new";0;"1";"correct";"4_2/CS7"
"8721";296;"memory2";"4qj299ew43";"many_one";"CS";"2";"1238";"false";"old";1;"2";"correct";"2_2/CS5"
"8724";299;"memory2";"4qj299ew43";"many_one";"GSold";"4";"1194";"false";"new";0;"3";"correct";"4_2/CS10"
"8727";302;"memory2";"4qj299ew43";"many_one";"CS";"4";"617";"false";"old";1;"4";"correct";"4_2/CS4"
"8730";305;"memory2";"4qj299ew43";"many_one";"GSold";"1";"925";"false";"new";0;"5";"correct";"1_2/CS7"
"8733";308;"memory2";"4qj299ew43";"many_one";"GSold";"3";"683";"false";"new";0;"6";"correct";"3_2/CS4"
"8736";311;"memory2";"4qj299ew43";"many_one";"GSold";"1";"651";"false";"new";0;"7";"correct";"1_2/CS10"
"8739";314;"memory2";"4qj299ew43";"many_one";"distractor";NA;"701";"false";"new";0;"8";"correct";"distractor_2/dis3"
"8742";317;"memory2";"4qj299ew43";"many_one";"GSold";"2";"816";"false";"old";1;"9";"incorrect";"2_2/CS1"
"8745";320;"memory2";"4qj299ew43";"many_one";"GSold";"2";"1164";"false";"new";0;"10";"correct";"2_2/CS3"
"8748";323;"memory2";"4qj299ew43";"many_one";"GSold";"3";"663";"false";"new";0;"11";"correct";"3_2/CS9"
"8751";326;"memory2";"4qj299ew43";"many_one";"distractor";NA;"691";"false";"new";0;"12";"correct";"distractor_2/dis4"
"8754";329;"memory2";"4qj299ew43";"many_one";"GSold";"3";"727";"false";"new";0;"13";"correct";"3_2/CS7"
"8757";332;"memory2";"4qj299ew43";"many_one";"CS";"1";"636";"false";"old";1;"14";"correct";"1_2/CS1"
"8760";335;"memory2";"4qj299ew43";"many_one";"GSold";"1";"668";"false";"new";0;"15";"correct";"1_2/CS5"
"8763";338;"memory2";"4qj299ew43";"many_one";"distractor";NA;"647";"false";"new";0;"16";"correct";"distractor_2/dis1"
"8766";341;"memory2";"4qj299ew43";"many_one";"GSold";"2";"761";"false";"new";0;"17";"correct";"2_2/CS7"
"8769";344;"memory2";"4qj299ew43";"many_one";"distractor";NA;"747";"false";"new";0;"18";"correct";"distractor_2/dis2"
"8772";347;"memory2";"4qj299ew43";"many_one";"GSold";"4";"2125";"false";"old";1;"19";"incorrect";"4_2/CS9"
"9066";290;"memory2";"51cm0jqy2l";"one_one";"GSold";"1";"676.4600000025239";"false";"new";0;"0";"correct";"1_2/CS5"
"9069";293;"memory2";"51cm0jqy2l";"one_one";"CS";"4";"542.8449999962468";"false";"old";1;"1";"correct";"4_2/CS7"
"9072";296;"memory2";"51cm0jqy2l";"one_one";"GSold";"1";"494.5799999986775";"false";"new";0;"2";"correct";"1_2/CS6"
"9075";299;"memory2";"51cm0jqy2l";"one_one";"GSold";"3";"559.6200000001118";"false";"new";0;"3";"correct";"3_2/CS3"
"9078";302;"memory2";"51cm0jqy2l";"one_one";"GSold";"2";"710.3350000034552";"false";"new";0;"4";"correct";"2_2/CS9"
"9081";305;"memory2";"51cm0jqy2l";"one_one";"CS";"2";"670.2000000004191";"false";"old";1;"5";"correct";"2_2/CS3"
"9084";308;"memory2";"51cm0jqy2l";"one_one";"distractor";NA;"582.809999999823";"false";"new";0;"6";"correct";"distractor_2/dis3"
"9087";311;"memory2";"51cm0jqy2l";"one_one";"GSold";"4";"542.9350000049453";"false";"new";0;"7";"correct";"4_2/CS1"
"9090";314;"memory2";"51cm0jqy2l";"one_one";"GSold";"1";"463.0899999975227";"false";"new";0;"8";"correct";"1_2/CS7"
"9093";317;"memory2";"51cm0jqy2l";"one_one";"CS";"1";"758.7249999996275";"false";"old";1;"9";"correct";"1_2/CS3"
"9096";320;"memory2";"51cm0jqy2l";"one_one";"GSold";"2";"543.4400000011083";"false";"new";0;"10";"correct";"2_2/CS2"
"9099";323;"memory2";"51cm0jqy2l";"one_one";"GSold";"3";"463.40000000037253";"false";"new";0;"11";"correct";"3_2/CS1"
"9102";326;"memory2";"51cm0jqy2l";"one_one";"distractor";NA;"526.9500000069384";"false";"new";0;"12";"correct";"distractor_2/dis4"
"9105";329;"memory2";"51cm0jqy2l";"one_one";"distractor";NA;"463.53000000095926";"false";"new";0;"13";"correct";"distractor_2/dis1"
"9108";332;"memory2";"51cm0jqy2l";"one_one";"distractor";NA;"591.0699999949429";"false";"new";0;"14";"correct";"distractor_2/dis2"
"9111";335;"memory2";"51cm0jqy2l";"one_one";"CS";"3";"622.8899999987334";"false";"old";1;"15";"correct";"3_2/CS2"
"9114";338;"memory2";"51cm0jqy2l";"one_one";"GSold";"4";"622.6850000021514";"false";"new";0;"16";"correct";"4_2/CS4"
"9117";341;"memory2";"51cm0jqy2l";"one_one";"GSold";"3";"487.65999999898486";"false";"new";0;"17";"correct";"3_2/CS5"
"9120";344;"memory2";"51cm0jqy2l";"one_one";"GSold";"2";"455.95999999926426";"false";"new";0;"18";"correct";"2_2/CS6"
"9123";347;"memory2";"51cm0jqy2l";"one_one";"GSold";"4";"542.1150000039488";"false";"new";0;"19";"correct";"4_2/CS3"
"9417";290;"memory2";"52d6lro21x";"many_one";"GSold";"4";"1172";"false";"new";0;"0";"correct";"4_2/CS2"
"9420";293;"memory2";"52d6lro21x";"many_one";"CS";"3";"1238";"false";"old";1;"1";"correct";"3_2/CS10"
"9423";296;"memory2";"52d6lro21x";"many_one";"GSold";"4";"1330";"false";"new";0;"2";"correct";"4_2/CS9"
"9426";299;"memory2";"52d6lro21x";"many_one";"GSold";"1";"1220";"false";"new";0;"3";"correct";"1_2/CS1"
"9429";302;"memory2";"52d6lro21x";"many_one";"CS";"1";"1179";"false";"old";1;"4";"correct";"1_2/CS2"
"9432";305;"memory2";"52d6lro21x";"many_one";"CS";"4";"1172";"false";"old";1;"5";"correct";"4_2/CS7"
"9435";308;"memory2";"52d6lro21x";"many_one";"CS";"2";"1139";"false";"old";1;"6";"correct";"2_2/CS5"
"9438";311;"memory2";"52d6lro21x";"many_one";"GSold";"1";"944";"false";"new";0;"7";"correct";"1_2/CS5"
"9441";314;"memory2";"52d6lro21x";"many_one";"distractor";NA;"1139";"false";"new";0;"8";"correct";"distractor_2/dis1"
"9444";317;"memory2";"52d6lro21x";"many_one";"GSold";"3";"1051";"false";"new";0;"9";"correct";"3_2/CS8"
"9447";320;"memory2";"52d6lro21x";"many_one";"GSold";"1";"1188";"false";"new";0;"10";"correct";"1_2/CS10"
"9450";323;"memory2";"52d6lro21x";"many_one";"GSold";"2";"1291";"false";"new";0;"11";"correct";"2_2/CS2"
"9453";326;"memory2";"52d6lro21x";"many_one";"distractor";NA;"1253";"false";"new";0;"12";"correct";"distractor_2/dis4"
"9456";329;"memory2";"52d6lro21x";"many_one";"GSold";"4";"1113";"false";"new";0;"13";"correct";"4_2/CS1"
"9459";332;"memory2";"52d6lro21x";"many_one";"GSold";"3";"1263";"false";"new";0;"14";"correct";"3_2/CS2"
"9462";335;"memory2";"52d6lro21x";"many_one";"GSold";"2";"1277";"false";"new";0;"15";"correct";"2_2/CS7"
"9465";338;"memory2";"52d6lro21x";"many_one";"distractor";NA;"1172";"false";"new";0;"16";"correct";"distractor_2/dis2"
"9468";341;"memory2";"52d6lro21x";"many_one";"GSold";"3";"1300";"false";"new";0;"17";"correct";"3_2/CS1"
"9471";344;"memory2";"52d6lro21x";"many_one";"GSold";"2";"1257";"false";"new";0;"18";"correct";"2_2/CS4"
"9474";347;"memory2";"52d6lro21x";"many_one";"distractor";NA;"1289";"false";"new";0;"19";"correct";"distractor_2/dis3"
"9768";290;"memory2";"566brjvjjf";"one_one";"CS";"2";"987.6249999997672";"false";"old";1;"0";"correct";"2_2/CS4"
"9771";293;"memory2";"566brjvjjf";"one_one";"GSold";"3";"828.7600000003586";"false";"new";0;"1";"correct";"3_2/CS5"
"9774";296;"memory2";"566brjvjjf";"one_one";"GSold";"1";"626.0600000005215";"false";"new";0;"2";"correct";"1_2/CS5"
"9777";299;"memory2";"566brjvjjf";"one_one";"GSold";"2";"1354.6100000003353";"false";"new";0;"3";"correct";"2_2/CS1"
"9780";302;"memory2";"566brjvjjf";"one_one";"CS";"4";"898.9999999995343";"false";"old";1;"4";"correct";"4_2/CS1"
"9783";305;"memory2";"566brjvjjf";"one_one";"distractor";NA;"628.0499999993481";"false";"new";0;"5";"correct";"distractor_2/dis4"
"9786";308;"memory2";"566brjvjjf";"one_one";"CS";"3";"800.5149999990826";"false";"old";1;"6";"correct";"3_2/CS4"
"9789";311;"memory2";"566brjvjjf";"one_one";"GSold";"4";"514.964999998454";"false";"new";0;"7";"correct";"4_2/CS2"
"9792";314;"memory2";"566brjvjjf";"one_one";"GSold";"1";"710.3250000000698";"false";"new";0;"8";"correct";"1_2/CS6"
"9795";317;"memory2";"566brjvjjf";"one_one";"GSold";"2";"663.6350000007078";"false";"new";0;"9";"correct";"2_2/CS8"
"9798";320;"memory2";"566brjvjjf";"one_one";"distractor";NA;"920.3600000001024";"false";"new";0;"10";"correct";"distractor_2/dis3"
"9801";323;"memory2";"566brjvjjf";"one_one";"GSold";"2";"781.9600000001956";"false";"new";0;"11";"correct";"2_2/CS3"
"9804";326;"memory2";"566brjvjjf";"one_one";"GSold";"3";"606.5099999995437";"false";"new";0;"12";"correct";"3_2/CS2"
"9807";329;"memory2";"566brjvjjf";"one_one";"distractor";NA;"605.4149999999208";"false";"new";0;"13";"correct";"distractor_2/dis1"
"9810";332;"memory2";"566brjvjjf";"one_one";"GSold";"4";"541.3550000011455";"false";"new";0;"14";"correct";"4_2/CS7"
"9813";335;"memory2";"566brjvjjf";"one_one";"GSold";"4";"616.4949999983655";"false";"new";0;"15";"correct";"4_2/CS10"
"9816";338;"memory2";"566brjvjjf";"one_one";"GSold";"3";"599.6799999993527";"false";"new";0;"16";"correct";"3_2/CS6"
"9819";341;"memory2";"566brjvjjf";"one_one";"distractor";NA;"630.3399999997346";"false";"new";0;"17";"correct";"distractor_2/dis2"
"9822";344;"memory2";"566brjvjjf";"one_one";"CS";"1";"777.9300000001676";"false";"old";1;"18";"correct";"1_2/CS7"
"9825";347;"memory2";"566brjvjjf";"one_one";"GSold";"1";"702.4899999996414";"false";"new";0;"19";"correct";"1_2/CS4"
"10119";290;"memory2";"5qmdrnr678";"many_one";"GSold";"2";"1539.14999999688";"false";"new";0;"0";"correct";"2_2/CS2"
"10122";293;"memory2";"5qmdrnr678";"many_one";"GSold";"3";"618.7799999897834";"false";"new";0;"1";"correct";"3_2/CS4"
"10125";296;"memory2";"5qmdrnr678";"many_one";"GSold";"4";"671.9450000091456";"false";"new";0;"2";"correct";"4_2/CS5"
"10128";299;"memory2";"5qmdrnr678";"many_one";"CS";"4";"553.1350000092061";"false";"old";1;"3";"correct";"4_2/CS4"
"10131";302;"memory2";"5qmdrnr678";"many_one";"GSold";"2";"780.5850000004284";"false";"new";0;"4";"correct";"2_2/CS6"
"10134";305;"memory2";"5qmdrnr678";"many_one";"distractor";NA;"599.7800000041025";"false";"new";0;"5";"correct";"distractor_2/dis1"
"10137";308;"memory2";"5qmdrnr678";"many_one";"CS";"3";"685.2499999949941";"false";"old";1;"6";"correct";"3_2/CS10"
"10140";311;"memory2";"5qmdrnr678";"many_one";"GSold";"1";"1000.6649999995716";"false";"new";0;"7";"correct";"1_2/CS10"
"10143";314;"memory2";"5qmdrnr678";"many_one";"GSold";"4";"854.6950000018114";"false";"new";0;"8";"correct";"4_2/CS2"
"10146";317;"memory2";"5qmdrnr678";"many_one";"CS";"1";"588.530000008177";"false";"old";1;"9";"correct";"1_2/CS4"
"10149";320;"memory2";"5qmdrnr678";"many_one";"distractor";NA;"760.3649999946356";"false";"new";0;"10";"correct";"distractor_2/dis3"
"10152";323;"memory2";"5qmdrnr678";"many_one";"distractor";NA;"1053.6449999926845";"false";"new";0;"11";"correct";"distractor_2/dis2"
"10155";326;"memory2";"5qmdrnr678";"many_one";"GSold";"2";"671.9599999923958";"false";"new";0;"12";"correct";"2_2/CS10"
"10158";329;"memory2";"5qmdrnr678";"many_one";"CS";"2";"835.5849999934435";"false";"old";1;"13";"correct";"2_2/CS5"
"10161";332;"memory2";"5qmdrnr678";"many_one";"GSold";"1";"900.8150000008754";"false";"new";0;"14";"correct";"1_2/CS9"
"10164";335;"memory2";"5qmdrnr678";"many_one";"GSold";"3";"851.0349999996834";"false";"new";0;"15";"correct";"3_2/CS2"
"10167";338;"memory2";"5qmdrnr678";"many_one";"GSold";"1";"987.7449999912642";"false";"new";0;"16";"correct";"1_2/CS3"
"10170";341;"memory2";"5qmdrnr678";"many_one";"GSold";"4";"1618.1000000069616";"false";"new";0;"17";"correct";"4_2/CS9"
"10173";344;"memory2";"5qmdrnr678";"many_one";"GSold";"3";"799.3350000033388";"false";"new";0;"18";"correct";"3_2/CS3"
"10176";347;"memory2";"5qmdrnr678";"many_one";"distractor";NA;"668.1749999988824";"false";"new";0;"19";"correct";"distractor_2/dis4"
"11523";290;"memory2";"7wwk3b43yt";"many_one";"GSold";"4";"996.9950000522658";"false";"new";0;"0";"correct";"4_2/CS6"
"11526";293;"memory2";"7wwk3b43yt";"many_one";"GSold";"3";"748.1799999950454";"false";"new";0;"1";"correct";"3_2/CS6"
"11529";296;"memory2";"7wwk3b43yt";"many_one";"CS";"1";"897.3349999869242";"false";"old";1;"2";"correct";"1_2/CS8"
"11532";299;"memory2";"7wwk3b43yt";"many_one";"GSold";"4";"740.7900000689551";"false";"new";0;"3";"correct";"4_2/CS5"
"11535";302;"memory2";"7wwk3b43yt";"many_one";"GSold";"2";"815.2700000209734";"false";"new";0;"4";"correct";"2_2/CS8"
"11538";305;"memory2";"7wwk3b43yt";"many_one";"GSold";"1";"588.4899999946356";"false";"new";0;"5";"correct";"1_2/CS10"
"11541";308;"memory2";"7wwk3b43yt";"many_one";"GSold";"3";"595.4899999778718";"false";"new";0;"6";"correct";"3_2/CS5"
"11544";311;"memory2";"7wwk3b43yt";"many_one";"distractor";NA;"689.5149999763817";"false";"new";0;"7";"correct";"distractor_2/dis2"
"11547";314;"memory2";"7wwk3b43yt";"many_one";"GSold";"1";"686.1650000791997";"false";"new";0;"8";"correct";"1_2/CS4"
"11550";317;"memory2";"7wwk3b43yt";"many_one";"CS";"4";"883.2500000717118";"false";"old";1;"9";"correct";"4_2/CS10"
"11553";320;"memory2";"7wwk3b43yt";"many_one";"GSold";"2";"619.899999932386";"false";"new";0;"10";"correct";"2_2/CS6"
"11556";323;"memory2";"7wwk3b43yt";"many_one";"distractor";NA;"625.7700000423938";"false";"new";0;"11";"correct";"distractor_2/dis3"
"11559";326;"memory2";"7wwk3b43yt";"many_one";"GSold";"2";"628.3449999755248";"false";"new";0;"12";"correct";"2_2/CS3"
"11562";329;"memory2";"7wwk3b43yt";"many_one";"GSold";"3";"627.5250000180677";"false";"new";0;"13";"correct";"3_2/CS3"
"11565";332;"memory2";"7wwk3b43yt";"many_one";"CS";"3";"788.8050000183284";"false";"old";1;"14";"correct";"3_2/CS7"
"11568";335;"memory2";"7wwk3b43yt";"many_one";"GSold";"4";"1124.1699999663979";"false";"new";0;"15";"correct";"4_2/CS2"
"11571";338;"memory2";"7wwk3b43yt";"many_one";"distractor";NA;"627.3949999595061";"false";"new";0;"16";"correct";"distractor_2/dis1"
"11574";341;"memory2";"7wwk3b43yt";"many_one";"GSold";"1";"745.3450000612065";"false";"new";0;"17";"correct";"1_2/CS7"
"11577";344;"memory2";"7wwk3b43yt";"many_one";"CS";"2";"442.2450000420213";"false";"new";0;"18";"incorrect";"2_2/CS9"
"11580";347;"memory2";"7wwk3b43yt";"many_one";"distractor";NA;"570.0400000205263";"false";"new";0;"19";"correct";"distractor_2/dis4"
"11874";290;"memory2";"7y8fx48gtn";"many_one";"CS";"3";"636.4250000042375";"false";"old";1;"0";"correct";"3_2/CS2"
"11877";293;"memory2";"7y8fx48gtn";"many_one";"GSold";"4";"760.5249999905936";"false";"new";0;"1";"correct";"4_2/CS4"
"11880";296;"memory2";"7y8fx48gtn";"many_one";"distractor";NA;"710.7449999894015";"false";"new";0;"2";"correct";"distractor_2/dis2"
"11883";299;"memory2";"7y8fx48gtn";"many_one";"GSold";"3";"751.2300000234973";"false";"new";0;"3";"correct";"3_2/CS7"
"11886";302;"memory2";"7y8fx48gtn";"many_one";"GSold";"1";"904.8899999761488";"false";"new";0;"4";"correct";"1_2/CS2"
"11889";305;"memory2";"7y8fx48gtn";"many_one";"distractor";NA;"791.1800000001676";"false";"new";0;"5";"correct";"distractor_2/dis3"
"11892";308;"memory2";"7y8fx48gtn";"many_one";"GSold";"2";"1152.1149999753106";"false";"new";0;"6";"correct";"2_2/CS2"
"11895";311;"memory2";"7y8fx48gtn";"many_one";"distractor";NA;"718.1649999984074";"false";"new";0;"7";"correct";"distractor_2/dis1"
"11898";314;"memory2";"7y8fx48gtn";"many_one";"GSold";"1";"821.1899999878369";"false";"new";0;"8";"correct";"1_2/CS9"
"11901";317;"memory2";"7y8fx48gtn";"many_one";"distractor";NA;"671.8800000089686";"false";"new";0;"9";"correct";"distractor_2/dis4"
"11904";320;"memory2";"7y8fx48gtn";"many_one";"GSold";"2";"1266.4850000001024";"false";"old";1;"10";"incorrect";"2_2/CS1"
"11907";323;"memory2";"7y8fx48gtn";"many_one";"CS";"4";"892.9300000017975";"false";"old";1;"11";"correct";"4_2/CS2"
"11910";326;"memory2";"7y8fx48gtn";"many_one";"GSold";"2";"782.8649999864865";"false";"new";0;"12";"correct";"2_2/CS7"
"11913";329;"memory2";"7y8fx48gtn";"many_one";"GSold";"3";"1711.6249999962747";"false";"new";0;"13";"correct";"3_2/CS4"
"11916";332;"memory2";"7y8fx48gtn";"many_one";"GSold";"1";"816.3249999925029";"false";"new";0;"14";"correct";"1_2/CS6"
"11919";335;"memory2";"7y8fx48gtn";"many_one";"GSold";"3";"872.0650000032037";"false";"new";0;"15";"correct";"3_2/CS5"
"11922";338;"memory2";"7y8fx48gtn";"many_one";"GSold";"4";"712.2500000114087";"false";"new";0;"16";"correct";"4_2/CS5"
"11925";341;"memory2";"7y8fx48gtn";"many_one";"CS";"1";"876.2649999989662";"false";"old";1;"17";"correct";"1_2/CS4"
"11928";344;"memory2";"7y8fx48gtn";"many_one";"CS";"2";"773.8200000021607";"false";"old";1;"18";"correct";"2_2/CS9"
"11931";347;"memory2";"7y8fx48gtn";"many_one";"GSold";"4";"743.5800000093877";"false";"new";0;"19";"correct";"4_2/CS10"
"12576";290;"memory2";"7z33uxwdw1";"one_one";"distractor";NA;"1027.605000003241";"false";"new";0;"0";"correct";"distractor_2/dis2"
"12579";293;"memory2";"7z33uxwdw1";"one_one";"GSold";"3";"593.1350000025705";"false";"new";0;"1";"correct";"3_2/CS4"
"12582";296;"memory2";"7z33uxwdw1";"one_one";"GSold";"1";"703.629999996163";"false";"new";0;"2";"correct";"1_2/CS8"
"12585";299;"memory2";"7z33uxwdw1";"one_one";"GSold";"4";"815.3450000025332";"false";"new";0;"3";"correct";"4_2/CS4"
"12588";302;"memory2";"7z33uxwdw1";"one_one";"distractor";NA;"631.4900000002235";"false";"new";0;"4";"correct";"distractor_2/dis3"
"12591";305;"memory2";"7z33uxwdw1";"one_one";"GSold";"2";"1021.6399999987334";"false";"new";0;"5";"correct";"2_2/CS9"
"12594";308;"memory2";"7z33uxwdw1";"one_one";"GSold";"2";"888.7150000017136";"false";"old";1;"6";"incorrect";"2_2/CS5"
"12597";311;"memory2";"7z33uxwdw1";"one_one";"CS";"4";"879.2949999980628";"false";"old";1;"7";"correct";"4_2/CS3"
"12600";314;"memory2";"7z33uxwdw1";"one_one";"CS";"3";"673.6849999949336";"false";"old";1;"8";"correct";"3_2/CS3"
"12603";317;"memory2";"7z33uxwdw1";"one_one";"CS";"1";"561.339999999851";"false";"old";1;"9";"correct";"1_2/CS10"
"12606";320;"memory2";"7z33uxwdw1";"one_one";"GSold";"4";"893.2050000000745";"false";"new";0;"10";"correct";"4_2/CS8"
"12609";323;"memory2";"7z33uxwdw1";"one_one";"GSold";"4";"603.5550000015646";"false";"new";0;"11";"correct";"4_2/CS7"
"12612";326;"memory2";"7z33uxwdw1";"one_one";"CS";"2";"862.2400000020862";"false";"old";1;"12";"correct";"2_2/CS3"
"12615";329;"memory2";"7z33uxwdw1";"one_one";"GSold";"1";"695.8099999977276";"false";"new";0;"13";"correct";"1_2/CS4"
"12618";332;"memory2";"7z33uxwdw1";"one_one";"GSold";"1";"841.019999999553";"false";"new";0;"14";"correct";"1_2/CS6"
"12621";335;"memory2";"7z33uxwdw1";"one_one";"distractor";NA;"515.9749999940395";"false";"new";0;"15";"correct";"distractor_2/dis1"
"12624";338;"memory2";"7z33uxwdw1";"one_one";"GSold";"3";"723.7950000055134";"false";"new";0;"16";"correct";"3_2/CS1"
"12627";341;"memory2";"7z33uxwdw1";"one_one";"GSold";"3";"625.4149999953806";"false";"new";0;"17";"correct";"3_2/CS5"
"12630";344;"memory2";"7z33uxwdw1";"one_one";"GSold";"2";"727.9249999988824";"false";"new";0;"18";"correct";"2_2/CS4"
"12633";347;"memory2";"7z33uxwdw1";"one_one";"distractor";NA;"559.4750000014901";"false";"new";0;"19";"correct";"distractor_2/dis4"
"12927";290;"memory2";"89zcx0q07p";"one_one";"CS";"3";"701.3349999906495";"false";"old";1;"0";"correct";"3_2/CS1"
"12930";293;"memory2";"89zcx0q07p";"one_one";"GSold";"2";"474.7699999716133";"false";"new";0;"1";"correct";"2_2/CS3"
"12933";296;"memory2";"89zcx0q07p";"one_one";"CS";"1";"743.3750000200234";"false";"old";1;"2";"correct";"1_2/CS7"
"12936";299;"memory2";"89zcx0q07p";"one_one";"distractor";NA;"637.7399999764748";"false";"new";0;"3";"correct";"distractor_2/dis2"
"12939";302;"memory2";"89zcx0q07p";"one_one";"GSold";"3";"515.7250000047497";"false";"new";0;"4";"correct";"3_2/CS6"
"12942";305;"memory2";"89zcx0q07p";"one_one";"GSold";"4";"572.0099999452941";"false";"new";0;"5";"correct";"4_2/CS2"
"12945";308;"memory2";"89zcx0q07p";"one_one";"distractor";NA;"488.744999980554";"false";"new";0;"6";"correct";"distractor_2/dis4"
"12948";311;"memory2";"89zcx0q07p";"one_one";"GSold";"4";"506.12499995622784";"false";"new";0;"7";"correct";"4_2/CS1"
"12951";314;"memory2";"89zcx0q07p";"one_one";"GSold";"2";"478.7750000250526";"false";"new";0;"8";"correct";"2_2/CS2"
"12954";317;"memory2";"89zcx0q07p";"one_one";"GSold";"1";"514.0450000180863";"false";"new";0;"9";"correct";"1_2/CS10"
"12957";320;"memory2";"89zcx0q07p";"one_one";"CS";"2";"605.6749999988824";"false";"old";1;"10";"correct";"2_2/CS9"
"12960";323;"memory2";"89zcx0q07p";"one_one";"distractor";NA;"558.5899999714456";"false";"new";0;"11";"correct";"distractor_2/dis1"
"12963";326;"memory2";"89zcx0q07p";"one_one";"distractor";NA;"479.894999996759";"false";"new";0;"12";"correct";"distractor_2/dis3"
"12966";329;"memory2";"89zcx0q07p";"one_one";"GSold";"3";"544.7900000144728";"false";"new";0;"13";"correct";"3_2/CS4"
"12969";332;"memory2";"89zcx0q07p";"one_one";"CS";"4";"615.3150000027381";"false";"old";1;"14";"correct";"4_2/CS5"
"12972";335;"memory2";"89zcx0q07p";"one_one";"GSold";"2";"561.3550000125542";"false";"new";0;"15";"correct";"2_2/CS6"
"12975";338;"memory2";"89zcx0q07p";"one_one";"GSold";"1";"439.50999999651685";"false";"new";0;"16";"correct";"1_2/CS4"
"12978";341;"memory2";"89zcx0q07p";"one_one";"GSold";"1";"448.57500004582107";"false";"new";0;"17";"correct";"1_2/CS3"
"12981";344;"memory2";"89zcx0q07p";"one_one";"GSold";"4";"519.5749999838881";"false";"new";0;"18";"correct";"4_2/CS6"
"12984";347;"memory2";"89zcx0q07p";"one_one";"GSold";"3";"446.04499998968095";"false";"new";0;"19";"correct";"3_2/CS3"
"13278";290;"memory2";"8d3rn7jk9e";"many_one";"distractor";NA;"967.2149999532849";"false";"new";0;"0";"correct";"distractor_2/dis3"
"13281";293;"memory2";"8d3rn7jk9e";"many_one";"distractor";NA;"761.0450000502169";"false";"new";0;"1";"correct";"distractor_2/dis2"
"13284";296;"memory2";"8d3rn7jk9e";"many_one";"GSold";"3";"709.5149999950081";"false";"new";0;"2";"correct";"3_2/CS4"
"13287";299;"memory2";"8d3rn7jk9e";"many_one";"GSold";"3";"698.0099999345839";"false";"new";0;"3";"correct";"3_2/CS8"
"13290";302;"memory2";"8d3rn7jk9e";"many_one";"CS";"2";"687.4400000087917";"false";"old";1;"4";"correct";"2_2/CS5"
"13293";305;"memory2";"8d3rn7jk9e";"many_one";"GSold";"3";"565.0349999777973";"false";"new";0;"5";"correct";"3_2/CS1"
"13296";308;"memory2";"8d3rn7jk9e";"many_one";"GSold";"1";"1505.9299999848008";"false";"new";0;"6";"correct";"1_2/CS10"
"13299";311;"memory2";"8d3rn7jk9e";"many_one";"CS";"4";"614.0699998941272";"false";"old";1;"7";"correct";"4_2/CS8"
"13302";314;"memory2";"8d3rn7jk9e";"many_one";"GSold";"4";"552.6000000536442";"false";"new";0;"8";"correct";"4_2/CS4"
"13305";317;"memory2";"8d3rn7jk9e";"many_one";"CS";"3";"724.3799997959286";"false";"old";1;"9";"correct";"3_2/CS3"
"13308";320;"memory2";"8d3rn7jk9e";"many_one";"CS";"1";"594.380000140518";"false";"old";1;"10";"correct";"1_2/CS1"
"13311";323;"memory2";"8d3rn7jk9e";"many_one";"GSold";"2";"620.7200000062585";"false";"new";0;"11";"correct";"2_2/CS3"
"13314";326;"memory2";"8d3rn7jk9e";"many_one";"GSold";"4";"763.2100000046194";"false";"new";0;"12";"correct";"4_2/CS3"
"13317";329;"memory2";"8d3rn7jk9e";"many_one";"GSold";"1";"694.1949999891222";"false";"new";0;"13";"correct";"1_2/CS4"
"13320";332;"memory2";"8d3rn7jk9e";"many_one";"distractor";NA;"558.6699999403208";"false";"new";0;"14";"correct";"distractor_2/dis1"
"13323";335;"memory2";"8d3rn7jk9e";"many_one";"GSold";"4";"662.8750001545995";"false";"new";0;"15";"correct";"4_2/CS5"
"13326";338;"memory2";"8d3rn7jk9e";"many_one";"GSold";"2";"569.965000031516";"false";"new";0;"16";"correct";"2_2/CS6"
"13329";341;"memory2";"8d3rn7jk9e";"many_one";"distractor";NA;"532.7999999281019";"false";"new";0;"17";"correct";"distractor_2/dis4"
"13332";344;"memory2";"8d3rn7jk9e";"many_one";"GSold";"2";"548.0949999764562";"false";"new";0;"18";"correct";"2_2/CS10"
"13335";347;"memory2";"8d3rn7jk9e";"many_one";"GSold";"1";"543.6850001569837";"false";"new";0;"19";"correct";"1_2/CS6"
"13629";290;"memory2";"8kamurgyts";"one_one";"GSold";"3";"1435";"false";"new";0;"0";"correct";"3_2/CS7"
"13632";293;"memory2";"8kamurgyts";"one_one";"GSold";"4";"721";"false";"new";0;"1";"correct";"4_2/CS7"
"13635";296;"memory2";"8kamurgyts";"one_one";"distractor";NA;"644";"false";"new";0;"2";"correct";"distractor_2/dis3"
"13638";299;"memory2";"8kamurgyts";"one_one";"distractor";NA;"559";"false";"new";0;"3";"correct";"distractor_2/dis4"
"13641";302;"memory2";"8kamurgyts";"one_one";"GSold";"1";"590";"false";"new";0;"4";"correct";"1_2/CS1"
"13644";305;"memory2";"8kamurgyts";"one_one";"GSold";"2";"510";"false";"new";0;"5";"correct";"2_2/CS7"
"13647";308;"memory2";"8kamurgyts";"one_one";"CS";"2";"703";"false";"old";1;"6";"correct";"2_2/CS10"
"13650";311;"memory2";"8kamurgyts";"one_one";"GSold";"2";"623";"false";"new";0;"7";"correct";"2_2/CS1"
"13653";314;"memory2";"8kamurgyts";"one_one";"CS";"4";"782";"false";"old";1;"8";"correct";"4_2/CS10"
"13656";317;"memory2";"8kamurgyts";"one_one";"GSold";"1";"617";"false";"new";0;"9";"correct";"1_2/CS10"
"13659";320;"memory2";"8kamurgyts";"one_one";"GSold";"4";"636";"false";"new";0;"10";"correct";"4_2/CS9"
"13662";323;"memory2";"8kamurgyts";"one_one";"distractor";NA;"623";"false";"new";0;"11";"correct";"distractor_2/dis2"
"13665";326;"memory2";"8kamurgyts";"one_one";"GSold";"1";"581";"false";"new";0;"12";"correct";"1_2/CS6"
"13668";329;"memory2";"8kamurgyts";"one_one";"CS";"1";"727";"false";"old";1;"13";"correct";"1_2/CS3"
"13671";332;"memory2";"8kamurgyts";"one_one";"CS";"3";"456";"false";"old";1;"14";"correct";"3_2/CS4"
"13674";335;"memory2";"8kamurgyts";"one_one";"distractor";NA;"569";"false";"new";0;"15";"correct";"distractor_2/dis1"
"13677";338;"memory2";"8kamurgyts";"one_one";"GSold";"2";"668";"false";"new";0;"16";"correct";"2_2/CS5"
"13680";341;"memory2";"8kamurgyts";"one_one";"GSold";"3";"577";"false";"new";0;"17";"correct";"3_2/CS9"
"13683";344;"memory2";"8kamurgyts";"one_one";"GSold";"4";"515";"false";"new";0;"18";"correct";"4_2/CS2"
"13686";347;"memory2";"8kamurgyts";"one_one";"GSold";"3";"554";"false";"new";0;"19";"correct";"3_2/CS3"
"13980";290;"memory2";"8ohfauxu5x";"one_one";"distractor";NA;"1558.7850000010803";"false";"new";0;"0";"correct";"distractor_2/dis1"
"13983";293;"memory2";"8ohfauxu5x";"one_one";"CS";"3";"995.7299999950919";"false";"old";1;"1";"correct";"3_2/CS4"
"13986";296;"memory2";"8ohfauxu5x";"one_one";"GSold";"4";"1002.4649999977555";"false";"new";0;"2";"correct";"4_2/CS1"
"13989";299;"memory2";"8ohfauxu5x";"one_one";"GSold";"4";"1042.9599999915808";"false";"new";0;"3";"correct";"4_2/CS4"
"13992";302;"memory2";"8ohfauxu5x";"one_one";"GSold";"2";"939.0449999773409";"false";"new";0;"4";"correct";"2_2/CS1"
"13995";305;"memory2";"8ohfauxu5x";"one_one";"GSold";"1";"948.9449999819044";"false";"new";0;"5";"correct";"1_2/CS3"
"13998";308;"memory2";"8ohfauxu5x";"one_one";"GSold";"2";"1060.0600000179838";"false";"new";0;"6";"correct";"2_2/CS9"
"14001";311;"memory2";"8ohfauxu5x";"one_one";"GSold";"3";"562.1699999901466";"false";"new";0;"7";"correct";"3_2/CS1"
"14004";314;"memory2";"8ohfauxu5x";"one_one";"distractor";NA;"690.0500000047032";"false";"new";0;"8";"correct";"distractor_2/dis3"
"14007";317;"memory2";"8ohfauxu5x";"one_one";"GSold";"1";"576.4149999886286";"false";"new";0;"9";"correct";"1_2/CS2"
"14010";320;"memory2";"8ohfauxu5x";"one_one";"distractor";NA;"792.6300000108313";"false";"new";0;"10";"correct";"distractor_2/dis4"
"14013";323;"memory2";"8ohfauxu5x";"one_one";"GSold";"1";"558.8099999877159";"false";"new";0;"11";"correct";"1_2/CS6"
"14016";326;"memory2";"8ohfauxu5x";"one_one";"CS";"1";"3078.3250000094995";"false";"old";1;"12";"correct";"1_2/CS4"
"14019";329;"memory2";"8ohfauxu5x";"one_one";"GSold";"3";"726.1849999777041";"false";"new";0;"13";"correct";"3_2/CS5"
"14022";332;"memory2";"8ohfauxu5x";"one_one";"CS";"2";"null";"true";"miss";NA;"14";"miss";"2_2/CS2"
"14025";335;"memory2";"8ohfauxu5x";"one_one";"CS";"4";"1252.3849999997765";"false";"old";1;"15";"correct";"4_2/CS9"
"14028";338;"memory2";"8ohfauxu5x";"one_one";"GSold";"3";"699.0350000269245";"false";"new";0;"16";"correct";"3_2/CS8"
"14031";341;"memory2";"8ohfauxu5x";"one_one";"GSold";"2";"972.1150000113994";"false";"new";0;"17";"correct";"2_2/CS10"
"14034";344;"memory2";"8ohfauxu5x";"one_one";"GSold";"4";"839.8450000095181";"false";"new";0;"18";"correct";"4_2/CS6"
"14037";347;"memory2";"8ohfauxu5x";"one_one";"distractor";NA;"738.8349999964703";"false";"new";0;"19";"correct";"distractor_2/dis2"
"14331";290;"memory2";"8tklqdnvk2";"many_one";"GSold";"4";"950";"false";"new";0;"0";"correct";"4_2/CS10"
"14334";293;"memory2";"8tklqdnvk2";"many_one";"GSold";"1";"893";"false";"new";0;"1";"correct";"1_2/CS3"
"14337";296;"memory2";"8tklqdnvk2";"many_one";"GSold";"2";"1121";"false";"new";0;"2";"correct";"2_2/CS4"
"14340";299;"memory2";"8tklqdnvk2";"many_one";"GSold";"2";"959";"false";"new";0;"3";"correct";"2_2/CS5"
"14343";302;"memory2";"8tklqdnvk2";"many_one";"GSold";"4";"951";"false";"new";0;"4";"correct";"4_2/CS3"
"14346";305;"memory2";"8tklqdnvk2";"many_one";"CS";"3";"760";"false";"old";1;"5";"correct";"3_2/CS8"
"14349";308;"memory2";"8tklqdnvk2";"many_one";"GSold";"2";"829";"false";"new";0;"6";"correct";"2_2/CS3"
"14352";311;"memory2";"8tklqdnvk2";"many_one";"GSold";"1";"946";"false";"new";0;"7";"correct";"1_2/CS7"
"14355";314;"memory2";"8tklqdnvk2";"many_one";"CS";"2";"1004";"false";"old";1;"8";"correct";"2_2/CS8"
"14358";317;"memory2";"8tklqdnvk2";"many_one";"GSold";"3";"705";"false";"new";0;"9";"correct";"3_2/CS10"
"14361";320;"memory2";"8tklqdnvk2";"many_one";"GSold";"1";"1514";"false";"new";0;"10";"correct";"1_2/CS2"
"14364";323;"memory2";"8tklqdnvk2";"many_one";"CS";"1";"726";"false";"old";1;"11";"correct";"1_2/CS1"
"14367";326;"memory2";"8tklqdnvk2";"many_one";"distractor";NA;"928";"false";"new";0;"12";"correct";"distractor_2/dis3"
"14370";329;"memory2";"8tklqdnvk2";"many_one";"CS";"4";"1212";"false";"old";1;"13";"correct";"4_2/CS2"
"14373";332;"memory2";"8tklqdnvk2";"many_one";"GSold";"4";"780";"false";"new";0;"14";"correct";"4_2/CS4"
"14376";335;"memory2";"8tklqdnvk2";"many_one";"GSold";"3";"890";"false";"new";0;"15";"correct";"3_2/CS5"
"14379";338;"memory2";"8tklqdnvk2";"many_one";"distractor";NA;"972";"false";"new";0;"16";"correct";"distractor_2/dis1"
"14382";341;"memory2";"8tklqdnvk2";"many_one";"GSold";"3";"775";"false";"new";0;"17";"correct";"3_2/CS6"
"14385";344;"memory2";"8tklqdnvk2";"many_one";"distractor";NA;"1014";"false";"new";0;"18";"correct";"distractor_2/dis2"
"14388";347;"memory2";"8tklqdnvk2";"many_one";"distractor";NA;"1346";"false";"new";0;"19";"correct";"distractor_2/dis4"
"14682";290;"memory2";"8u00funta1";"one_one";"GSold";"3";"686";"false";"new";0;"0";"correct";"3_2/CS4"
"14685";293;"memory2";"8u00funta1";"one_one";"distractor";NA;"745";"false";"new";0;"1";"correct";"distractor_2/dis2"
"14688";296;"memory2";"8u00funta1";"one_one";"GSold";"2";"571";"false";"new";0;"2";"correct";"2_2/CS1"
"14691";299;"memory2";"8u00funta1";"one_one";"CS";"2";"510";"false";"old";1;"3";"correct";"2_2/CS2"
"14694";302;"memory2";"8u00funta1";"one_one";"GSold";"3";"472";"false";"new";0;"4";"correct";"3_2/CS9"
"14697";305;"memory2";"8u00funta1";"one_one";"GSold";"2";"509";"false";"new";0;"5";"correct";"2_2/CS3"
"14700";308;"memory2";"8u00funta1";"one_one";"distractor";NA;"494";"false";"new";0;"6";"correct";"distractor_2/dis1"
"14703";311;"memory2";"8u00funta1";"one_one";"GSold";"3";"466";"false";"new";0;"7";"correct";"3_2/CS2"
"14706";314;"memory2";"8u00funta1";"one_one";"distractor";NA;"476";"false";"new";0;"8";"correct";"distractor_2/dis4"
"14709";317;"memory2";"8u00funta1";"one_one";"CS";"3";"551";"false";"old";1;"9";"correct";"3_2/CS3"
"14712";320;"memory2";"8u00funta1";"one_one";"GSold";"1";"491.9999999998836";"false";"new";0;"10";"correct";"1_2/CS3"
"14715";323;"memory2";"8u00funta1";"one_one";"GSold";"1";"587.9999999998836";"false";"new";0;"11";"correct";"1_2/CS9"
"14718";326;"memory2";"8u00funta1";"one_one";"CS";"4";"418.9999999998836";"false";"new";0;"12";"incorrect";"4_2/CS9"
"14721";329;"memory2";"8u00funta1";"one_one";"GSold";"4";"489";"false";"new";0;"13";"correct";"4_2/CS7"
"14724";332;"memory2";"8u00funta1";"one_one";"GSold";"4";"553";"false";"new";0;"14";"correct";"4_2/CS2"
"14727";335;"memory2";"8u00funta1";"one_one";"CS";"1";"610";"false";"old";1;"15";"correct";"1_2/CS7"
"14730";338;"memory2";"8u00funta1";"one_one";"GSold";"2";"549";"false";"new";0;"16";"correct";"2_2/CS9"
"14733";341;"memory2";"8u00funta1";"one_one";"GSold";"1";"532.9999999998836";"false";"new";0;"17";"correct";"1_2/CS10"
"14736";344;"memory2";"8u00funta1";"one_one";"distractor";NA;"496";"false";"new";0;"18";"correct";"distractor_2/dis3"
"14739";347;"memory2";"8u00funta1";"one_one";"GSold";"4";"596";"false";"new";0;"19";"correct";"4_2/CS10"
"15033";290;"memory2";"93cnnb8ppd";"many_one";"CS";"3";"597.8299999989104";"false";"old";1;"0";"correct";"3_2/CS4"
"15036";293;"memory2";"93cnnb8ppd";"many_one";"distractor";NA;"547.1050000051036";"false";"new";0;"1";"correct";"distractor_2/dis4"
"15039";296;"memory2";"93cnnb8ppd";"many_one";"GSold";"2";"968.7549999944167";"false";"new";0;"2";"correct";"2_2/CS3"
"15042";299;"memory2";"93cnnb8ppd";"many_one";"GSold";"2";"919.6349999983795";"false";"new";0;"3";"correct";"2_2/CS5"
"15045";302;"memory2";"93cnnb8ppd";"many_one";"GSold";"3";"1103.4999999974389";"false";"new";0;"4";"correct";"3_2/CS3"
"15048";305;"memory2";"93cnnb8ppd";"many_one";"CS";"4";"806.599999996135";"false";"old";1;"5";"correct";"4_2/CS1"
"15051";308;"memory2";"93cnnb8ppd";"many_one";"GSold";"4";"804.8850000050152";"false";"new";0;"6";"correct";"4_2/CS4"
"15054";311;"memory2";"93cnnb8ppd";"many_one";"GSold";"1";"865.3400000039255";"false";"old";1;"7";"incorrect";"1_2/CS10"
"15057";314;"memory2";"93cnnb8ppd";"many_one";"CS";"1";"582.2100000004284";"false";"old";1;"8";"correct";"1_2/CS2"
"15060";317;"memory2";"93cnnb8ppd";"many_one";"distractor";NA;"823.6350000007078";"false";"new";0;"9";"correct";"distractor_2/dis3"
"15063";320;"memory2";"93cnnb8ppd";"many_one";"GSold";"3";"867.2100000040373";"false";"new";0;"10";"correct";"3_2/CS10"
"15066";323;"memory2";"93cnnb8ppd";"many_one";"GSold";"1";"836.5649999977322";"false";"old";1;"11";"incorrect";"1_2/CS8"
"15069";326;"memory2";"93cnnb8ppd";"many_one";"GSold";"1";"780.5550000048243";"false";"new";0;"12";"correct";"1_2/CS4"
"15072";329;"memory2";"93cnnb8ppd";"many_one";"CS";"2";"864.0050000031479";"false";"old";1;"13";"correct";"2_2/CS6"
"15075";332;"memory2";"93cnnb8ppd";"many_one";"distractor";NA;"930.6999999971595";"false";"new";0;"14";"correct";"distractor_2/dis1"
"15078";335;"memory2";"93cnnb8ppd";"many_one";"GSold";"4";"470.6149999983609";"false";"old";1;"15";"incorrect";"4_2/CS10"
"15081";338;"memory2";"93cnnb8ppd";"many_one";"GSold";"2";"398.5000000030268";"false";"new";0;"16";"correct";"2_2/CS10"
"15084";341;"memory2";"93cnnb8ppd";"many_one";"GSold";"4";"467.32999999949243";"false";"new";0;"17";"correct";"4_2/CS9"
"15087";344;"memory2";"93cnnb8ppd";"many_one";"distractor";NA;"949.3350000048522";"false";"new";0;"18";"correct";"distractor_2/dis2"
"15090";347;"memory2";"93cnnb8ppd";"many_one";"GSold";"3";"673.7500000018626";"false";"old";1;"19";"incorrect";"3_2/CS8"
"15384";290;"memory2";"950l9uw735";"many_one";"GSold";"4";"940.3949999250472";"false";"new";0;"0";"correct";"4_2/CS5"
"15387";293;"memory2";"950l9uw735";"many_one";"CS";"4";"602.0349999889731";"false";"old";1;"1";"correct";"4_2/CS6"
"15390";296;"memory2";"950l9uw735";"many_one";"GSold";"3";"614.9500000756234";"false";"new";0;"2";"correct";"3_2/CS6"
"15393";299;"memory2";"950l9uw735";"many_one";"GSold";"3";"898.6299999523908";"false";"new";0;"3";"correct";"3_2/CS5"
"15396";302;"memory2";"950l9uw735";"many_one";"GSold";"4";"803.1899998895824";"false";"new";0;"4";"correct";"4_2/CS2"
"15399";305;"memory2";"950l9uw735";"many_one";"distractor";NA;"832.060000160709";"false";"new";0;"5";"correct";"distractor_2/dis1"
"15402";308;"memory2";"950l9uw735";"many_one";"GSold";"1";"647.8750000242144";"false";"new";0;"6";"correct";"1_2/CS2"
"15405";311;"memory2";"950l9uw735";"many_one";"GSold";"1";"636.9300000369549";"false";"new";0;"7";"correct";"1_2/CS7"
"15408";314;"memory2";"950l9uw735";"many_one";"GSold";"2";"702.9150000307709";"false";"new";0;"8";"correct";"2_2/CS3"
"15411";317;"memory2";"950l9uw735";"many_one";"distractor";NA;"569.4349999539554";"false";"new";0;"9";"correct";"distractor_2/dis2"
"15414";320;"memory2";"950l9uw735";"many_one";"CS";"3";"672.6350001990795";"false";"old";1;"10";"correct";"3_2/CS8"
"15417";323;"memory2";"950l9uw735";"many_one";"GSold";"2";"976.5850000549108";"false";"new";0;"11";"correct";"2_2/CS8"
"15420";326;"memory2";"950l9uw735";"many_one";"GSold";"3";"694.6350000798702";"false";"new";0;"12";"correct";"3_2/CS4"
"15423";329;"memory2";"950l9uw735";"many_one";"GSold";"1";"528.2900000456721";"false";"new";0;"13";"correct";"1_2/CS8"
"15426";332;"memory2";"950l9uw735";"many_one";"GSold";"4";"1192.754999967292";"false";"new";0;"14";"correct";"4_2/CS8"
"15429";335;"memory2";"950l9uw735";"many_one";"distractor";NA;"583.9649999979883";"false";"new";0;"15";"correct";"distractor_2/dis3"
"15432";338;"memory2";"950l9uw735";"many_one";"GSold";"2";"576.4800000470132";"false";"new";0;"16";"correct";"2_2/CS7"
"15435";341;"memory2";"950l9uw735";"many_one";"CS";"2";"656.9950000848621";"false";"old";1;"17";"correct";"2_2/CS9"
"15438";344;"memory2";"950l9uw735";"many_one";"CS";"1";"1210.0349999964237";"false";"old";1;"18";"correct";"1_2/CS9"
"15441";347;"memory2";"950l9uw735";"many_one";"distractor";NA;"577.9999999795109";"false";"new";0;"19";"correct";"distractor_2/dis4"
"15735";290;"memory2";"95fgqg4qjj";"one_one";"CS";"4";"1281.6550000570714";"false";"old";1;"0";"correct";"4_2/CS3"
"15738";293;"memory2";"95fgqg4qjj";"one_one";"GSold";"4";"1171.0099999327213";"false";"new";0;"1";"correct";"4_2/CS5"
"15741";296;"memory2";"95fgqg4qjj";"one_one";"distractor";NA;"934.9650000222027";"false";"new";0;"2";"correct";"distractor_2/dis3"
"15744";299;"memory2";"95fgqg4qjj";"one_one";"GSold";"1";"2105.815000133589";"false";"new";0;"3";"correct";"1_2/CS2"
"15747";302;"memory2";"95fgqg4qjj";"one_one";"GSold";"3";"2229.245000053197";"false";"new";0;"4";"correct";"3_2/CS6"
"15750";305;"memory2";"95fgqg4qjj";"one_one";"distractor";NA;"1018.7800000421703";"false";"new";0;"5";"correct";"distractor_2/dis2"
"15753";308;"memory2";"95fgqg4qjj";"one_one";"GSold";"4";"1427.1300002001226";"false";"new";0;"6";"correct";"4_2/CS10"
"15756";311;"memory2";"95fgqg4qjj";"one_one";"GSold";"2";"704.6150001697242";"false";"new";0;"7";"correct";"2_2/CS4"
"15759";314;"memory2";"95fgqg4qjj";"one_one";"CS";"2";"712.3549999669194";"false";"old";1;"8";"correct";"2_2/CS6"
"15762";317;"memory2";"95fgqg4qjj";"one_one";"GSold";"4";"1016.0449999384582";"false";"new";0;"9";"correct";"4_2/CS8"
"15765";320;"memory2";"95fgqg4qjj";"one_one";"CS";"1";"1532.7699999324977";"false";"old";1;"10";"correct";"1_2/CS8"
"15768";323;"memory2";"95fgqg4qjj";"one_one";"GSold";"2";"1944.2049998324364";"false";"new";0;"11";"correct";"2_2/CS2"
"15771";326;"memory2";"95fgqg4qjj";"one_one";"GSold";"3";"750.7650000043213";"false";"new";0;"12";"correct";"3_2/CS7"
"15774";329;"memory2";"95fgqg4qjj";"one_one";"GSold";"2";"1023.0350000783801";"false";"new";0;"13";"correct";"2_2/CS9"
"15777";332;"memory2";"95fgqg4qjj";"one_one";"GSold";"3";"741.5050000417978";"false";"new";0;"14";"correct";"3_2/CS1"
"15780";335;"memory2";"95fgqg4qjj";"one_one";"distractor";NA;"586.600000038743";"false";"new";0;"15";"correct";"distractor_2/dis1"
"15783";338;"memory2";"95fgqg4qjj";"one_one";"GSold";"1";"655.3199999034405";"false";"new";0;"16";"correct";"1_2/CS4"
"15786";341;"memory2";"95fgqg4qjj";"one_one";"GSold";"1";"612.0899999514222";"false";"new";0;"17";"correct";"1_2/CS5"
"15789";344;"memory2";"95fgqg4qjj";"one_one";"CS";"3";"717.2850000206381";"false";"old";1;"18";"correct";"3_2/CS10"
"15792";347;"memory2";"95fgqg4qjj";"one_one";"distractor";NA;"720.9300000686198";"false";"new";0;"19";"correct";"distractor_2/dis4"
"16086";290;"memory2";"9938rrupxs";"many_one";"GSold";"1";"1498.9999999998836";"false";"new";0;"0";"correct";"1_2/CS7"
"16089";293;"memory2";"9938rrupxs";"many_one";"GSold";"2";"1377.9999999998836";"false";"new";0;"1";"correct";"2_2/CS3"
"16092";296;"memory2";"9938rrupxs";"many_one";"GSold";"1";"784";"false";"new";0;"2";"correct";"1_2/CS6"
"16095";299;"memory2";"9938rrupxs";"many_one";"CS";"3";"590.0000000001164";"false";"old";1;"3";"correct";"3_2/CS10"
"16098";302;"memory2";"9938rrupxs";"many_one";"CS";"4";"602";"false";"old";1;"4";"correct";"4_2/CS7"
"16101";305;"memory2";"9938rrupxs";"many_one";"GSold";"4";"2081";"false";"new";0;"5";"correct";"4_2/CS10"
"16104";308;"memory2";"9938rrupxs";"many_one";"GSold";"2";"1485.0000000001164";"false";"new";0;"6";"correct";"2_2/CS7"
"16107";311;"memory2";"9938rrupxs";"many_one";"CS";"2";"920";"false";"old";1;"7";"correct";"2_2/CS8"
"16110";314;"memory2";"9938rrupxs";"many_one";"distractor";NA;"894";"false";"new";0;"8";"correct";"distractor_2/dis1"
"16113";317;"memory2";"9938rrupxs";"many_one";"GSold";"3";"1005";"false";"new";0;"9";"correct";"3_2/CS1"
"16116";320;"memory2";"9938rrupxs";"many_one";"GSold";"3";"792";"false";"new";0;"10";"correct";"3_2/CS8"
"16119";323;"memory2";"9938rrupxs";"many_one";"CS";"1";"850.0000000001164";"false";"old";1;"11";"correct";"1_2/CS1"
"16122";326;"memory2";"9938rrupxs";"many_one";"GSold";"1";"1135";"false";"new";0;"12";"correct";"1_2/CS2"
"16125";329;"memory2";"9938rrupxs";"many_one";"distractor";NA;"869";"false";"new";0;"13";"correct";"distractor_2/dis3"
"16128";332;"memory2";"9938rrupxs";"many_one";"GSold";"3";"777.9999999998836";"false";"new";0;"14";"correct";"3_2/CS3"
"16131";335;"memory2";"9938rrupxs";"many_one";"GSold";"2";"1285";"false";"new";0;"15";"correct";"2_2/CS6"
"16134";338;"memory2";"9938rrupxs";"many_one";"GSold";"4";"881";"false";"new";0;"16";"correct";"4_2/CS1"
"16137";341;"memory2";"9938rrupxs";"many_one";"distractor";NA;"921";"false";"new";0;"17";"correct";"distractor_2/dis2"
"16140";344;"memory2";"9938rrupxs";"many_one";"distractor";NA;"776";"false";"new";0;"18";"correct";"distractor_2/dis4"
"16143";347;"memory2";"9938rrupxs";"many_one";"GSold";"4";"897";"false";"new";0;"19";"correct";"4_2/CS3"
"16437";290;"memory2";"9pbwwz3uj7";"many_one";"CS";"2";"1727.9599999310449";"false";"old";1;"0";"correct";"2_2/CS10"
"16440";293;"memory2";"9pbwwz3uj7";"many_one";"distractor";NA;"1223.839999991469";"false";"new";0;"1";"correct";"distractor_2/dis3"
"16443";296;"memory2";"9pbwwz3uj7";"many_one";"distractor";NA;"1179.8799999523908";"false";"new";0;"2";"correct";"distractor_2/dis1"
"16446";299;"memory2";"9pbwwz3uj7";"many_one";"distractor";NA;"610.1749999215826";"false";"new";0;"3";"correct";"distractor_2/dis4"
"16449";302;"memory2";"9pbwwz3uj7";"many_one";"CS";"3";"850.7549999048933";"false";"old";1;"4";"correct";"3_2/CS1"
"16452";305;"memory2";"9pbwwz3uj7";"many_one";"GSold";"4";"657.7500000130385";"false";"new";0;"5";"correct";"4_2/CS2"
"16455";308;"memory2";"9pbwwz3uj7";"many_one";"GSold";"2";"735.344999935478";"false";"new";0;"6";"correct";"2_2/CS6"
"16458";311;"memory2";"9pbwwz3uj7";"many_one";"CS";"4";"644.7400000179186";"false";"old";1;"7";"correct";"4_2/CS4"
"16461";314;"memory2";"9pbwwz3uj7";"many_one";"GSold";"1";"788.7750000227243";"false";"new";0;"8";"correct";"1_2/CS2"
"16464";317;"memory2";"9pbwwz3uj7";"many_one";"GSold";"2";"1177.9350000433624";"false";"new";0;"9";"correct";"2_2/CS4"
"16467";320;"memory2";"9pbwwz3uj7";"many_one";"GSold";"4";"828.7400000263005";"false";"new";0;"10";"correct";"4_2/CS3"
"16470";323;"memory2";"9pbwwz3uj7";"many_one";"GSold";"3";"546.9100000336766";"false";"new";0;"11";"correct";"3_2/CS9"
"16473";326;"memory2";"9pbwwz3uj7";"many_one";"GSold";"4";"605.295000015758";"false";"new";0;"12";"correct";"4_2/CS7"
"16476";329;"memory2";"9pbwwz3uj7";"many_one";"CS";"1";"665.1300000958145";"false";"old";1;"13";"correct";"1_2/CS3"
"16479";332;"memory2";"9pbwwz3uj7";"many_one";"GSold";"3";"507.00500002130866";"false";"new";0;"14";"correct";"3_2/CS10"
"16482";335;"memory2";"9pbwwz3uj7";"many_one";"GSold";"2";"714.3499999074265";"false";"new";0;"15";"correct";"2_2/CS9"
"16485";338;"memory2";"9pbwwz3uj7";"many_one";"GSold";"3";"957.0150000508875";"false";"new";0;"16";"correct";"3_2/CS8"
"16488";341;"memory2";"9pbwwz3uj7";"many_one";"distractor";NA;"696.7250000452623";"false";"new";0;"17";"correct";"distractor_2/dis2"
"16491";344;"memory2";"9pbwwz3uj7";"many_one";"GSold";"1";"815.0649999734014";"false";"new";0;"18";"correct";"1_2/CS4"
"16494";347;"memory2";"9pbwwz3uj7";"many_one";"GSold";"1";"628.6700000055134";"false";"new";0;"19";"correct";"1_2/CS7"
"16788";290;"memory2";"9pott2dvy4";"many_one";"GSold";"4";"1269.670000008773";"false";"new";0;"0";"correct";"4_2/CS7"
"16791";293;"memory2";"9pott2dvy4";"many_one";"distractor";NA;"1355.8349999948405";"false";"new";0;"1";"correct";"distractor_2/dis2"
"16794";296;"memory2";"9pott2dvy4";"many_one";"distractor";NA;"775.4800000111572";"false";"new";0;"2";"correct";"distractor_2/dis1"
"16797";299;"memory2";"9pott2dvy4";"many_one";"GSold";"3";"840.5950000160374";"false";"new";0;"3";"correct";"3_2/CS9"
"16800";302;"memory2";"9pott2dvy4";"many_one";"CS";"2";"792.3149999696761";"false";"old";1;"4";"correct";"2_2/CS4"
"16803";305;"memory2";"9pott2dvy4";"many_one";"GSold";"1";"1301.0900000226684";"false";"new";0;"5";"correct";"1_2/CS6"
"16806";308;"memory2";"9pott2dvy4";"many_one";"distractor";NA;"958.0049999640323";"false";"new";0;"6";"correct";"distractor_2/dis3"
"16809";311;"memory2";"9pott2dvy4";"many_one";"GSold";"2";"1331.7099999985658";"false";"new";0;"7";"correct";"2_2/CS5"
"16812";314;"memory2";"9pott2dvy4";"many_one";"GSold";"3";"1391.5299999644049";"false";"new";0;"8";"correct";"3_2/CS10"
"16815";317;"memory2";"9pott2dvy4";"many_one";"GSold";"4";"1238.6949999490753";"false";"new";0;"9";"correct";"4_2/CS1"
"16818";320;"memory2";"9pott2dvy4";"many_one";"GSold";"1";"1031.5849999897182";"false";"new";0;"10";"correct";"1_2/CS3"
"16821";323;"memory2";"9pott2dvy4";"many_one";"GSold";"2";"969.089999969583";"false";"new";0;"11";"correct";"2_2/CS2"
"16824";326;"memory2";"9pott2dvy4";"many_one";"GSold";"3";"null";"true";"miss";NA;"12";"miss";"3_2/CS8"
"16827";329;"memory2";"9pott2dvy4";"many_one";"GSold";"2";"908.6149999639019";"false";"new";0;"13";"correct";"2_2/CS3"
"16830";332;"memory2";"9pott2dvy4";"many_one";"CS";"3";"913.6350000044331";"false";"old";1;"14";"correct";"3_2/CS7"
"16833";335;"memory2";"9pott2dvy4";"many_one";"distractor";NA;"725.3749999799766";"false";"new";0;"15";"correct";"distractor_2/dis4"
"16836";338;"memory2";"9pott2dvy4";"many_one";"CS";"1";"1194.504999963101";"false";"new";0;"16";"incorrect";"1_2/CS8"
"16839";341;"memory2";"9pott2dvy4";"many_one";"GSold";"1";"895.0150000164285";"false";"new";0;"17";"correct";"1_2/CS1"
"16842";344;"memory2";"9pott2dvy4";"many_one";"GSold";"4";"894.8600000003353";"false";"new";0;"18";"correct";"4_2/CS2"
"16845";347;"memory2";"9pott2dvy4";"many_one";"CS";"4";"765.2900000102818";"false";"old";1;"19";"correct";"4_2/CS6"
"17139";290;"memory2";"9soh06eg5r";"many_one";"GSold";"4";"1346";"false";"new";0;"0";"correct";"4_2/CS1"
"17142";293;"memory2";"9soh06eg5r";"many_one";"GSold";"1";"812";"false";"new";0;"1";"correct";"1_2/CS7"
"17145";296;"memory2";"9soh06eg5r";"many_one";"GSold";"3";"671";"false";"new";0;"2";"correct";"3_2/CS6"
"17148";299;"memory2";"9soh06eg5r";"many_one";"GSold";"3";"748";"false";"new";0;"3";"correct";"3_2/CS7"
"17151";302;"memory2";"9soh06eg5r";"many_one";"distractor";NA;"617";"false";"new";0;"4";"correct";"distractor_2/dis3"
"17154";305;"memory2";"9soh06eg5r";"many_one";"distractor";NA;"605";"false";"new";0;"5";"correct";"distractor_2/dis2"
"17157";308;"memory2";"9soh06eg5r";"many_one";"GSold";"4";"839";"false";"new";0;"6";"correct";"4_2/CS6"
"17160";311;"memory2";"9soh06eg5r";"many_one";"GSold";"2";"636";"false";"new";0;"7";"correct";"2_2/CS7"
"17163";314;"memory2";"9soh06eg5r";"many_one";"CS";"4";"639";"false";"old";1;"8";"correct";"4_2/CS10"
"17166";317;"memory2";"9soh06eg5r";"many_one";"CS";"1";"655";"false";"old";1;"9";"correct";"1_2/CS8"
"17169";320;"memory2";"9soh06eg5r";"many_one";"GSold";"2";"793";"false";"new";0;"10";"correct";"2_2/CS4"
"17172";323;"memory2";"9soh06eg5r";"many_one";"distractor";NA;"599";"false";"new";0;"11";"correct";"distractor_2/dis4"
"17175";326;"memory2";"9soh06eg5r";"many_one";"CS";"3";"715";"false";"old";1;"12";"correct";"3_2/CS4"
"17178";329;"memory2";"9soh06eg5r";"many_one";"GSold";"2";"778";"false";"new";0;"13";"correct";"2_2/CS6"
"17181";332;"memory2";"9soh06eg5r";"many_one";"GSold";"4";"668";"false";"new";0;"14";"correct";"4_2/CS3"
"17184";335;"memory2";"9soh06eg5r";"many_one";"GSold";"1";"679";"false";"old";1;"15";"incorrect";"1_2/CS10"
"17187";338;"memory2";"9soh06eg5r";"many_one";"distractor";NA;"634";"false";"new";0;"16";"correct";"distractor_2/dis1"
"17190";341;"memory2";"9soh06eg5r";"many_one";"CS";"2";"705";"false";"old";1;"17";"correct";"2_2/CS5"
"17193";344;"memory2";"9soh06eg5r";"many_one";"GSold";"1";"710";"false";"new";0;"18";"correct";"1_2/CS9"
"17196";347;"memory2";"9soh06eg5r";"many_one";"GSold";"3";"740";"false";"new";0;"19";"correct";"3_2/CS10"
"17490";290;"memory2";"9wl5sqyzhg";"many_one";"CS";"4";"1614";"false";"new";0;"0";"incorrect";"4_2/CS3"
"17493";293;"memory2";"9wl5sqyzhg";"many_one";"GSold";"2";"964";"false";"new";0;"1";"correct";"2_2/CS2"
"17496";296;"memory2";"9wl5sqyzhg";"many_one";"distractor";NA;"680";"false";"new";0;"2";"correct";"distractor_2/dis3"
"17499";299;"memory2";"9wl5sqyzhg";"many_one";"GSold";"4";"906";"false";"new";0;"3";"correct";"4_2/CS10"
"17502";302;"memory2";"9wl5sqyzhg";"many_one";"GSold";"3";"568";"false";"new";0;"4";"correct";"3_2/CS7"
"17505";305;"memory2";"9wl5sqyzhg";"many_one";"GSold";"4";"665";"false";"new";0;"5";"correct";"4_2/CS6"
"17508";308;"memory2";"9wl5sqyzhg";"many_one";"GSold";"1";"914";"false";"new";0;"6";"correct";"1_2/CS10"
"17511";311;"memory2";"9wl5sqyzhg";"many_one";"GSold";"1";"628";"false";"new";0;"7";"correct";"1_2/CS5"
"17514";314;"memory2";"9wl5sqyzhg";"many_one";"GSold";"1";"499";"false";"new";0;"8";"correct";"1_2/CS8"
"17517";317;"memory2";"9wl5sqyzhg";"many_one";"distractor";NA;"657";"false";"new";0;"9";"correct";"distractor_2/dis1"
"17520";320;"memory2";"9wl5sqyzhg";"many_one";"CS";"3";"732";"false";"old";1;"10";"correct";"3_2/CS9"
"17523";323;"memory2";"9wl5sqyzhg";"many_one";"GSold";"3";"594";"false";"new";0;"11";"correct";"3_2/CS5"
"17526";326;"memory2";"9wl5sqyzhg";"many_one";"distractor";NA;"599";"false";"new";0;"12";"correct";"distractor_2/dis4"
"17529";329;"memory2";"9wl5sqyzhg";"many_one";"CS";"2";"866";"false";"old";1;"13";"correct";"2_2/CS3"
"17532";332;"memory2";"9wl5sqyzhg";"many_one";"GSold";"2";"849";"false";"new";0;"14";"correct";"2_2/CS8"
"17535";335;"memory2";"9wl5sqyzhg";"many_one";"GSold";"3";"661";"false";"new";0;"15";"correct";"3_2/CS1"
"17538";338;"memory2";"9wl5sqyzhg";"many_one";"CS";"1";"945";"false";"old";1;"16";"correct";"1_2/CS6"
"17541";341;"memory2";"9wl5sqyzhg";"many_one";"distractor";NA;"682";"false";"new";0;"17";"correct";"distractor_2/dis2"
"17544";344;"memory2";"9wl5sqyzhg";"many_one";"GSold";"2";"794";"false";"new";0;"18";"correct";"2_2/CS10"
"17547";347;"memory2";"9wl5sqyzhg";"many_one";"GSold";"4";"756";"false";"new";0;"19";"correct";"4_2/CS5"
"17841";290;"memory2";"a39cfnprl8";"many_one";"GSold";"4";"1295";"false";"new";0;"0";"correct";"4_2/CS2"
"17844";293;"memory2";"a39cfnprl8";"many_one";"CS";"3";"1259";"false";"old";1;"1";"correct";"3_2/CS10"
"17847";296;"memory2";"a39cfnprl8";"many_one";"distractor";NA;"803";"false";"new";0;"2";"correct";"distractor_2/dis3"
"17850";299;"memory2";"a39cfnprl8";"many_one";"GSold";"2";"690";"false";"new";0;"3";"correct";"2_2/CS10"
"17853";302;"memory2";"a39cfnprl8";"many_one";"distractor";NA;"1039";"false";"new";0;"4";"correct";"distractor_2/dis2"
"17856";305;"memory2";"a39cfnprl8";"many_one";"CS";"2";"857";"false";"old";1;"5";"correct";"2_2/CS6"
"17859";308;"memory2";"a39cfnprl8";"many_one";"CS";"1";"867";"false";"old";1;"6";"correct";"1_2/CS2"
"17862";311;"memory2";"a39cfnprl8";"many_one";"GSold";"3";"806";"false";"new";0;"7";"correct";"3_2/CS6"
"17865";314;"memory2";"a39cfnprl8";"many_one";"GSold";"3";"713";"false";"new";0;"8";"correct";"3_2/CS9"
"17868";317;"memory2";"a39cfnprl8";"many_one";"GSold";"1";"811";"false";"new";0;"9";"correct";"1_2/CS10"
"17871";320;"memory2";"a39cfnprl8";"many_one";"GSold";"1";"697";"false";"new";0;"10";"correct";"1_2/CS6"
"17874";323;"memory2";"a39cfnprl8";"many_one";"CS";"4";"910";"false";"old";1;"11";"correct";"4_2/CS1"
"17877";326;"memory2";"a39cfnprl8";"many_one";"distractor";NA;"751";"false";"new";0;"12";"correct";"distractor_2/dis4"
"17880";329;"memory2";"a39cfnprl8";"many_one";"GSold";"4";"838";"false";"new";0;"13";"correct";"4_2/CS3"
"17883";332;"memory2";"a39cfnprl8";"many_one";"GSold";"3";"700";"false";"new";0;"14";"correct";"3_2/CS7"
"17886";335;"memory2";"a39cfnprl8";"many_one";"distractor";NA;"613";"false";"new";0;"15";"correct";"distractor_2/dis1"
"17889";338;"memory2";"a39cfnprl8";"many_one";"GSold";"1";"711";"false";"new";0;"16";"correct";"1_2/CS5"
"17892";341;"memory2";"a39cfnprl8";"many_one";"GSold";"2";"631";"false";"new";0;"17";"correct";"2_2/CS5"
"17895";344;"memory2";"a39cfnprl8";"many_one";"GSold";"2";"636";"false";"new";0;"18";"correct";"2_2/CS2"
"17898";347;"memory2";"a39cfnprl8";"many_one";"GSold";"4";"795";"false";"new";0;"19";"correct";"4_2/CS5"
"18192";290;"memory2";"a3kp77jykj";"one_one";"CS";"4";"1570";"false";"old";1;"0";"correct";"4_2/CS9"
"18195";293;"memory2";"a3kp77jykj";"one_one";"GSold";"3";"1077";"false";"new";0;"1";"correct";"3_2/CS4"
"18198";296;"memory2";"a3kp77jykj";"one_one";"GSold";"1";"1073";"false";"new";0;"2";"correct";"1_2/CS6"
"18201";299;"memory2";"a3kp77jykj";"one_one";"CS";"2";"854";"false";"old";1;"3";"correct";"2_2/CS2"
"18204";302;"memory2";"a3kp77jykj";"one_one";"GSold";"4";"806";"false";"new";0;"4";"correct";"4_2/CS3"
"18207";305;"memory2";"a3kp77jykj";"one_one";"GSold";"1";"761";"false";"new";0;"5";"correct";"1_2/CS4"
"18210";308;"memory2";"a3kp77jykj";"one_one";"distractor";NA;"714";"false";"new";0;"6";"correct";"distractor_2/dis1"
"18213";311;"memory2";"a3kp77jykj";"one_one";"GSold";"2";"793";"false";"new";0;"7";"correct";"2_2/CS9"
"18216";314;"memory2";"a3kp77jykj";"one_one";"GSold";"4";"610";"false";"new";0;"8";"correct";"4_2/CS5"
"18219";317;"memory2";"a3kp77jykj";"one_one";"CS";"3";"674";"false";"old";1;"9";"correct";"3_2/CS5"
"18222";320;"memory2";"a3kp77jykj";"one_one";"distractor";NA;"736";"false";"new";0;"10";"correct";"distractor_2/dis4"
"18225";323;"memory2";"a3kp77jykj";"one_one";"GSold";"2";"744";"false";"new";0;"11";"correct";"2_2/CS7"
"18228";326;"memory2";"a3kp77jykj";"one_one";"distractor";NA;"583";"false";"new";0;"12";"correct";"distractor_2/dis2"
"18231";329;"memory2";"a3kp77jykj";"one_one";"GSold";"1";"631";"false";"new";0;"13";"correct";"1_2/CS8"
"18234";332;"memory2";"a3kp77jykj";"one_one";"GSold";"3";"562";"false";"new";0;"14";"correct";"3_2/CS1"
"18237";335;"memory2";"a3kp77jykj";"one_one";"distractor";NA;"601";"false";"new";0;"15";"correct";"distractor_2/dis3"
"18240";338;"memory2";"a3kp77jykj";"one_one";"GSold";"3";"716";"false";"new";0;"16";"correct";"3_2/CS6"
"18243";341;"memory2";"a3kp77jykj";"one_one";"GSold";"2";"616";"false";"new";0;"17";"correct";"2_2/CS6"
"18246";344;"memory2";"a3kp77jykj";"one_one";"CS";"1";"807";"false";"old";1;"18";"correct";"1_2/CS10"
"18249";347;"memory2";"a3kp77jykj";"one_one";"GSold";"4";"713";"false";"new";0;"19";"correct";"4_2/CS4"
"18894";290;"memory2";"abjyz3z3en";"many_one";"distractor";NA;"1318";"false";"new";0;"0";"correct";"distractor_2/dis3"
"18897";293;"memory2";"abjyz3z3en";"many_one";"GSold";"4";"1068";"false";"new";0;"1";"correct";"4_2/CS8"
"18900";296;"memory2";"abjyz3z3en";"many_one";"GSold";"3";"842";"false";"new";0;"2";"correct";"3_2/CS7"
"18903";299;"memory2";"abjyz3z3en";"many_one";"distractor";NA;"1019";"false";"new";0;"3";"correct";"distractor_2/dis2"
"18906";302;"memory2";"abjyz3z3en";"many_one";"CS";"3";"690";"false";"old";1;"4";"correct";"3_2/CS9"
"18909";305;"memory2";"abjyz3z3en";"many_one";"GSold";"2";"970";"false";"new";0;"5";"correct";"2_2/CS10"
"18912";308;"memory2";"abjyz3z3en";"many_one";"GSold";"4";"931";"false";"new";0;"6";"correct";"4_2/CS7"
"18915";311;"memory2";"abjyz3z3en";"many_one";"distractor";NA;"688";"false";"new";0;"7";"correct";"distractor_2/dis4"
"18918";314;"memory2";"abjyz3z3en";"many_one";"GSold";"3";"635";"false";"new";0;"8";"correct";"3_2/CS8"
"18921";317;"memory2";"abjyz3z3en";"many_one";"GSold";"1";"664";"false";"new";0;"9";"correct";"1_2/CS7"
"18924";320;"memory2";"abjyz3z3en";"many_one";"GSold";"1";"1111";"false";"new";0;"10";"correct";"1_2/CS10"
"18927";323;"memory2";"abjyz3z3en";"many_one";"CS";"1";"763";"false";"old";1;"11";"correct";"1_2/CS3"
"18930";326;"memory2";"abjyz3z3en";"many_one";"CS";"2";"807";"false";"old";1;"12";"correct";"2_2/CS1"
"18933";329;"memory2";"abjyz3z3en";"many_one";"GSold";"2";"715";"false";"new";0;"13";"correct";"2_2/CS6"
"18936";332;"memory2";"abjyz3z3en";"many_one";"distractor";NA;"1231";"false";"new";0;"14";"correct";"distractor_2/dis1"
"18939";335;"memory2";"abjyz3z3en";"many_one";"GSold";"3";"699";"false";"new";0;"15";"correct";"3_2/CS2"
"18942";338;"memory2";"abjyz3z3en";"many_one";"GSold";"2";"966";"false";"new";0;"16";"correct";"2_2/CS9"
"18945";341;"memory2";"abjyz3z3en";"many_one";"GSold";"4";"880";"false";"new";0;"17";"correct";"4_2/CS5"
"18948";344;"memory2";"abjyz3z3en";"many_one";"CS";"4";"812";"false";"old";1;"18";"correct";"4_2/CS10"
"18951";347;"memory2";"abjyz3z3en";"many_one";"GSold";"1";"1066";"false";"new";0;"19";"correct";"1_2/CS4"
"19245";290;"memory2";"ag8y921crc";"one_one";"GSold";"3";"1715";"false";"new";0;"0";"correct";"3_2/CS3"
"19248";293;"memory2";"ag8y921crc";"one_one";"CS";"4";"1146.9999999998836";"false";"old";1;"1";"correct";"4_2/CS3"
"19251";296;"memory2";"ag8y921crc";"one_one";"GSold";"2";"1206";"false";"new";0;"2";"correct";"2_2/CS2"
"19254";299;"memory2";"ag8y921crc";"one_one";"GSold";"1";"861";"false";"new";0;"3";"correct";"1_2/CS5"
"19257";302;"memory2";"ag8y921crc";"one_one";"GSold";"1";"860";"false";"new";0;"4";"correct";"1_2/CS3"
"19260";305;"memory2";"ag8y921crc";"one_one";"GSold";"3";"1263";"false";"new";0;"5";"correct";"3_2/CS6"
"19263";308;"memory2";"ag8y921crc";"one_one";"GSold";"2";"1070.9999999998836";"false";"new";0;"6";"correct";"2_2/CS10"
"19266";311;"memory2";"ag8y921crc";"one_one";"GSold";"1";"1253";"false";"new";0;"7";"correct";"1_2/CS7"
"19269";314;"memory2";"ag8y921crc";"one_one";"distractor";NA;"793";"false";"new";0;"8";"correct";"distractor_2/dis3"
"19272";317;"memory2";"ag8y921crc";"one_one";"CS";"2";"656.9999999998836";"false";"old";1;"9";"correct";"2_2/CS9"
"19275";320;"memory2";"ag8y921crc";"one_one";"CS";"3";"772.0000000001164";"false";"old";1;"10";"correct";"3_2/CS4"
"19278";323;"memory2";"ag8y921crc";"one_one";"distractor";NA;"813";"false";"new";0;"11";"correct";"distractor_2/dis2"
"19281";326;"memory2";"ag8y921crc";"one_one";"GSold";"3";"817";"false";"new";0;"12";"correct";"3_2/CS8"
"19284";329;"memory2";"ag8y921crc";"one_one";"GSold";"4";"753";"false";"new";0;"13";"correct";"4_2/CS2"
"19287";332;"memory2";"ag8y921crc";"one_one";"GSold";"2";"932";"false";"new";0;"14";"correct";"2_2/CS8"
"19290";335;"memory2";"ag8y921crc";"one_one";"GSold";"4";"684.9999999998836";"false";"new";0;"15";"correct";"4_2/CS6"
"19293";338;"memory2";"ag8y921crc";"one_one";"distractor";NA;"578";"false";"new";0;"16";"correct";"distractor_2/dis4"
"19296";341;"memory2";"ag8y921crc";"one_one";"distractor";NA;"1185.0000000001164";"false";"new";0;"17";"correct";"distractor_2/dis1"
