"";"trial_index";"task";"subject";"condition1";"type";"category";"rt";"timeout";"memory";"memoryResp";"nr_pres";"memoryCorrect";"cs_selected"
"218";217;"memory1";"04ty3gjk9u";"many_fill";"GSold";"2";"2936.649999988731";"false";"new";0;"0";"correct";"2_1/CS7"
"221";220;"memory1";"04ty3gjk9u";"many_fill";"distractor";NA;"1728.739999991376";"false";"new";0;"1";"correct";"distractor_1/dis1"
"224";223;"memory1";"04ty3gjk9u";"many_fill";"GSold";"1";"1240.7600000005914";"false";"old";1;"2";"incorrect";"1_1/CS9"
"227";226;"memory1";"04ty3gjk9u";"many_fill";"CSpred";"2";"1351.3200000015786";"false";"old";1;"3";"incorrect";"2_1/CS8_pred"
"230";229;"memory1";"04ty3gjk9u";"many_fill";"CS";"3";"1479.6349999960512";"false";"new";0;"4";"incorrect";"3_1/CS2"
"233";232;"memory1";"04ty3gjk9u";"many_fill";"distractor";NA;"1029.1250000009313";"false";"new";0;"5";"correct";"distractor_1/dis3"
"236";235;"memory1";"04ty3gjk9u";"many_fill";"GSnew";"4";"1036.2349999923026";"false";"old";1;"6";"incorrect";"4_1/GS1"
"239";238;"memory1";"04ty3gjk9u";"many_fill";"CSpred";"4";"1490.3750000084983";"false";"old";1;"7";"incorrect";"4_1/CS8_pred"
"242";241;"memory1";"04ty3gjk9u";"many_fill";"GSnew";"3";"947.4999999947613";"false";"old";1;"8";"incorrect";"3_1/GS1"
"245";244;"memory1";"04ty3gjk9u";"many_fill";"CSnonpred";"4";"856.5850000013597";"false";"old";1;"9";"incorrect";"4_1/CS8_unpred"
"248";247;"memory1";"04ty3gjk9u";"many_fill";"CSnonpred";"1";"796.184999999241";"false";"old";1;"10";"incorrect";"1_1/CS10_unpred"
"251";250;"memory1";"04ty3gjk9u";"many_fill";"CSpred";"1";"656.7349999968428";"false";"new";0;"11";"correct";"1_1/CS10_pred"
"254";253;"memory1";"04ty3gjk9u";"many_fill";"GSold";"3";"788.990000000922";"false";"old";1;"12";"incorrect";"3_1/CS9"
"257";256;"memory1";"04ty3gjk9u";"many_fill";"distractor";NA;"919.7850000055041";"false";"new";0;"13";"correct";"distractor_1/dis2"
"260";259;"memory1";"04ty3gjk9u";"many_fill";"CSpred";"3";"1174.42999999912";"false";"old";1;"14";"incorrect";"3_1/CS2_pred"
"263";262;"memory1";"04ty3gjk9u";"many_fill";"distractor";NA;"801.9350000104168";"false";"old";1;"15";"incorrect";"distractor_1/dis4"
"266";265;"memory1";"04ty3gjk9u";"many_fill";"CS";"2";"1251.4049999881536";"false";"new";0;"16";"incorrect";"2_1/CS8"
"269";268;"memory1";"04ty3gjk9u";"many_fill";"CSnonpred";"3";"1101.3650000095367";"false";"old";1;"17";"incorrect";"3_1/CS2_unpred"
"272";271;"memory1";"04ty3gjk9u";"many_fill";"CS";"4";"773.5300000058487";"false";"new";0;"18";"incorrect";"4_1/CS8"
"275";274;"memory1";"04ty3gjk9u";"many_fill";"CS";"1";"1023.6949999962235";"false";"new";0;"19";"incorrect";"1_1/CS10"
"278";277;"memory1";"04ty3gjk9u";"many_fill";"GSnew";"1";"1187.7800000074785";"false";"old";1;"20";"incorrect";"1_1/GS1"
"281";280;"memory1";"04ty3gjk9u";"many_fill";"GSnew";"2";"1624.565000005532";"false";"new";0;"21";"correct";"2_1/GS1"
"284";283;"memory1";"04ty3gjk9u";"many_fill";"CSnonpred";"2";"823.9150000008522";"false";"new";0;"22";"correct";"2_1/CS8_unpred"
"287";286;"memory1";"04ty3gjk9u";"many_fill";"GSold";"4";"1078.0399999930523";"false";"old";1;"23";"incorrect";"4_1/CS2"
"920";217;"memory1";"0zq54143a6";"many_fill";"GSold";"2";"null";"true";"miss";NA;"0";"miss";"2_1/CS6"
"923";220;"memory1";"0zq54143a6";"many_fill";"CSpred";"2";"3780";"false";"old";1;"1";"incorrect";"2_1/CS7_pred"
"926";223;"memory1";"0zq54143a6";"many_fill";"GSnew";"4";"1236";"false";"old";1;"2";"incorrect";"4_1/GS1"
"929";226;"memory1";"0zq54143a6";"many_fill";"CS";"3";"1004";"false";"old";1;"3";"correct";"3_1/CS4"
"932";229;"memory1";"0zq54143a6";"many_fill";"distractor";NA;"901";"false";"new";0;"4";"correct";"distractor_1/dis2"
"935";232;"memory1";"0zq54143a6";"many_fill";"GSnew";"3";"881";"false";"new";0;"5";"correct";"3_1/GS1"
"938";235;"memory1";"0zq54143a6";"many_fill";"GSold";"1";"1525";"false";"new";0;"6";"correct";"1_1/CS9"
"941";238;"memory1";"0zq54143a6";"many_fill";"CSnonpred";"2";"1343";"false";"new";0;"7";"correct";"2_1/CS7_unpred"
"944";241;"memory1";"0zq54143a6";"many_fill";"CSpred";"3";"1197";"false";"old";1;"8";"incorrect";"3_1/CS4_pred"
"947";244;"memory1";"0zq54143a6";"many_fill";"distractor";NA;"1333";"false";"new";0;"9";"correct";"distractor_1/dis1"
"950";247;"memory1";"0zq54143a6";"many_fill";"CSpred";"1";"917";"false";"new";0;"10";"correct";"1_1/CS4_pred"
"953";250;"memory1";"0zq54143a6";"many_fill";"CSpred";"4";"895";"false";"old";1;"11";"incorrect";"4_1/CS2_pred"
"956";253;"memory1";"0zq54143a6";"many_fill";"distractor";NA;"1239";"false";"new";0;"12";"correct";"distractor_1/dis4"
"959";256;"memory1";"0zq54143a6";"many_fill";"GSold";"3";"828";"false";"new";0;"13";"correct";"3_1/CS1"
"962";259;"memory1";"0zq54143a6";"many_fill";"GSnew";"2";"1156";"false";"old";1;"14";"incorrect";"2_1/GS1"
"965";262;"memory1";"0zq54143a6";"many_fill";"CSnonpred";"3";"1003";"false";"old";1;"15";"incorrect";"3_1/CS4_unpred"
"968";265;"memory1";"0zq54143a6";"many_fill";"CSnonpred";"1";"1227";"false";"old";1;"16";"incorrect";"1_1/CS4_unpred"
"971";268;"memory1";"0zq54143a6";"many_fill";"CSnonpred";"4";"759";"false";"old";1;"17";"incorrect";"4_1/CS2_unpred"
"974";271;"memory1";"0zq54143a6";"many_fill";"CS";"2";"1050";"false";"old";1;"18";"correct";"2_1/CS7"
"977";274;"memory1";"0zq54143a6";"many_fill";"CS";"4";"667";"false";"old";1;"19";"correct";"4_1/CS2"
"980";277;"memory1";"0zq54143a6";"many_fill";"distractor";NA;"819";"false";"new";0;"20";"correct";"distractor_1/dis3"
"983";280;"memory1";"0zq54143a6";"many_fill";"GSold";"4";"990";"false";"new";0;"21";"correct";"4_1/CS8"
"986";283;"memory1";"0zq54143a6";"many_fill";"CS";"1";"1117";"false";"old";1;"22";"correct";"1_1/CS4"
"989";286;"memory1";"0zq54143a6";"many_fill";"GSnew";"1";"1643";"false";"new";0;"23";"correct";"1_1/GS1"
"1271";217;"memory1";"19k5554njc";"many_fill";"GSold";"4";"113";"false";"new";0;"0";"correct";"4_1/CS3"
"1274";220;"memory1";"19k5554njc";"many_fill";"distractor";NA;"1077";"false";"new";0;"1";"correct";"distractor_1/dis2"
"1277";223;"memory1";"19k5554njc";"many_fill";"CSpred";"1";"1017";"false";"old";1;"2";"incorrect";"1_1/CS4_pred"
"1280";226;"memory1";"19k5554njc";"many_fill";"distractor";NA;"711";"false";"old";1;"3";"incorrect";"distractor_1/dis1"
"1283";229;"memory1";"19k5554njc";"many_fill";"distractor";NA;"707";"false";"new";0;"4";"correct";"distractor_1/dis4"
"1286";232;"memory1";"19k5554njc";"many_fill";"CS";"4";"756";"false";"old";1;"5";"correct";"4_1/CS10"
"1289";235;"memory1";"19k5554njc";"many_fill";"GSold";"1";"1121";"false";"new";0;"6";"correct";"1_1/CS8"
"1292";238;"memory1";"19k5554njc";"many_fill";"CSnonpred";"1";"964";"false";"old";1;"7";"incorrect";"1_1/CS4_unpred"
"1295";241;"memory1";"19k5554njc";"many_fill";"CS";"1";"1022";"false";"old";1;"8";"correct";"1_1/CS4"
"1298";244;"memory1";"19k5554njc";"many_fill";"CS";"3";"771";"false";"old";1;"9";"correct";"3_1/CS4"
"1301";247;"memory1";"19k5554njc";"many_fill";"CSnonpred";"4";"826";"false";"old";1;"10";"incorrect";"4_1/CS10_unpred"
"1304";250;"memory1";"19k5554njc";"many_fill";"CSnonpred";"3";"838";"false";"old";1;"11";"incorrect";"3_1/CS4_unpred"
"1307";253;"memory1";"19k5554njc";"many_fill";"GSnew";"1";"928";"false";"new";0;"12";"correct";"1_1/GS1"
"1310";256;"memory1";"19k5554njc";"many_fill";"GSold";"3";"798";"false";"new";0;"13";"correct";"3_1/CS10"
"1313";259;"memory1";"19k5554njc";"many_fill";"CSnonpred";"2";"739";"false";"old";1;"14";"incorrect";"2_1/CS2_unpred"
"1316";262;"memory1";"19k5554njc";"many_fill";"CSpred";"3";"792";"false";"old";1;"15";"incorrect";"3_1/CS4_pred"
"1319";265;"memory1";"19k5554njc";"many_fill";"GSnew";"3";"1000";"false";"new";0;"16";"correct";"3_1/GS1"
"1322";268;"memory1";"19k5554njc";"many_fill";"CS";"2";"1030";"false";"old";1;"17";"correct";"2_1/CS2"
"1325";271;"memory1";"19k5554njc";"many_fill";"GSnew";"4";"1404";"false";"new";0;"18";"correct";"4_1/GS1"
"1328";274;"memory1";"19k5554njc";"many_fill";"distractor";NA;"930";"false";"new";0;"19";"correct";"distractor_1/dis3"
"1331";277;"memory1";"19k5554njc";"many_fill";"CSpred";"2";"1176";"false";"new";0;"20";"correct";"2_1/CS2_pred"
"1334";280;"memory1";"19k5554njc";"many_fill";"GSold";"2";"1358";"false";"new";0;"21";"correct";"2_1/CS6"
"1337";283;"memory1";"19k5554njc";"many_fill";"CSpred";"4";"772";"false";"old";1;"22";"incorrect";"4_1/CS10_pred"
"1340";286;"memory1";"19k5554njc";"many_fill";"GSnew";"2";"1150";"false";"new";0;"23";"correct";"2_1/GS1"
"1622";217;"memory1";"1kkguek4q5";"one_one";"CSpred";"2";"841";"false";"new";0;"0";"correct";"2_1/CS9_pred"
"1625";220;"memory1";"1kkguek4q5";"one_one";"CS";"2";"null";"true";"miss";NA;"1";"miss";"2_1/CS9"
"1628";223;"memory1";"1kkguek4q5";"one_one";"CS";"4";"1887";"false";"old";1;"2";"correct";"4_1/CS9"
"1631";226;"memory1";"1kkguek4q5";"one_one";"GSold";"2";"832";"false";"old";1;"3";"incorrect";"2_1/CS5"
"1634";229;"memory1";"1kkguek4q5";"one_one";"CS";"3";"1574";"false";"old";1;"4";"correct";"3_1/CS6"
"1637";232;"memory1";"1kkguek4q5";"one_one";"CS";"1";"1265";"false";"new";0;"5";"incorrect";"1_1/CS2"
"1640";235;"memory1";"1kkguek4q5";"one_one";"GSnew";"4";"169";"false";"new";0;"6";"correct";"4_1/GS1"
"1643";238;"memory1";"1kkguek4q5";"one_one";"GSnew";"1";"862";"false";"old";1;"7";"incorrect";"1_1/GS1"
"1646";241;"memory1";"1kkguek4q5";"one_one";"distractor";NA;"903";"false";"new";0;"8";"correct";"distractor_1/dis1"
"1649";244;"memory1";"1kkguek4q5";"one_one";"CSnonpred";"3";"1021.0000000001164";"false";"new";0;"9";"correct";"3_1/CS6_unpred"
"1652";247;"memory1";"1kkguek4q5";"one_one";"distractor";NA;"727";"false";"old";1;"10";"incorrect";"distractor_1/dis2"
"1655";250;"memory1";"1kkguek4q5";"one_one";"CSnonpred";"4";"1250";"false";"new";0;"11";"correct";"4_1/CS9_unpred"
"1658";253;"memory1";"1kkguek4q5";"one_one";"GSold";"1";"752";"false";"old";1;"12";"incorrect";"1_1/CS7"
"1661";256;"memory1";"1kkguek4q5";"one_one";"CSpred";"3";"1470";"false";"new";0;"13";"correct";"3_1/CS6_pred"
"1664";259;"memory1";"1kkguek4q5";"one_one";"distractor";NA;"819";"false";"new";0;"14";"correct";"distractor_1/dis3"
"1667";262;"memory1";"1kkguek4q5";"one_one";"GSnew";"2";"625";"false";"new";0;"15";"correct";"2_1/GS1"
"1670";265;"memory1";"1kkguek4q5";"one_one";"CSnonpred";"2";"960";"false";"old";1;"16";"incorrect";"2_1/CS9_unpred"
"1673";268;"memory1";"1kkguek4q5";"one_one";"GSnew";"3";"1490";"false";"new";0;"17";"correct";"3_1/GS1"
"1676";271;"memory1";"1kkguek4q5";"one_one";"CSpred";"1";"1326";"false";"old";1;"18";"incorrect";"1_1/CS2_pred"
"1679";274;"memory1";"1kkguek4q5";"one_one";"CSpred";"4";"975";"false";"old";1;"19";"incorrect";"4_1/CS9_pred"
"1682";277;"memory1";"1kkguek4q5";"one_one";"CSnonpred";"1";"847";"false";"new";0;"20";"correct";"1_1/CS2_unpred"
"1685";280;"memory1";"1kkguek4q5";"one_one";"distractor";NA;"1604";"false";"old";1;"21";"incorrect";"distractor_1/dis4"
"1688";283;"memory1";"1kkguek4q5";"one_one";"GSold";"3";"1188.9999999998836";"false";"new";0;"22";"correct";"3_1/CS9"
"1691";286;"memory1";"1kkguek4q5";"one_one";"GSold";"4";"1075.0000000001164";"false";"new";0;"23";"correct";"4_1/CS10"
"1973";217;"memory1";"1x6x8bednv";"many_one";"distractor";NA;"3342.049999977462";"false";"new";0;"0";"correct";"distractor_1/dis1"
"1976";220;"memory1";"1x6x8bednv";"many_one";"distractor";NA;"765.0949999806471";"false";"new";0;"1";"correct";"distractor_1/dis2"
"1979";223;"memory1";"1x6x8bednv";"many_one";"GSold";"4";"1091.1750000086613";"false";"new";0;"2";"correct";"4_1/CS4"
"1982";226;"memory1";"1x6x8bednv";"many_one";"CS";"2";"1024.1950000054203";"false";"old";1;"3";"correct";"2_1/CS6"
"1985";229;"memory1";"1x6x8bednv";"many_one";"CSnonpred";"2";"688.0549999768846";"false";"old";1;"4";"incorrect";"2_1/CS6_unpred"
"1988";232;"memory1";"1x6x8bednv";"many_one";"distractor";NA;"1123.3650000067428";"false";"new";0;"5";"correct";"distractor_1/dis4"
"1991";235;"memory1";"1x6x8bednv";"many_one";"CSpred";"3";"581.8750000325963";"false";"old";1;"6";"incorrect";"3_1/CS9_pred"
"1994";238;"memory1";"1x6x8bednv";"many_one";"CS";"1";"1227.004999993369";"false";"new";0;"7";"incorrect";"1_1/CS1"
"1997";241;"memory1";"1x6x8bednv";"many_one";"GSnew";"4";"943.0900000152178";"false";"old";1;"8";"incorrect";"4_1/GS1"
"2000";244;"memory1";"1x6x8bednv";"many_one";"CSpred";"1";"1227.2099999827333";"false";"old";1;"9";"incorrect";"1_1/CS1_pred"
"2003";247;"memory1";"1x6x8bednv";"many_one";"GSnew";"3";"820.049999980256";"false";"old";1;"10";"incorrect";"3_1/GS1"
"2006";250;"memory1";"1x6x8bednv";"many_one";"GSnew";"1";"1096.2949999957345";"false";"old";1;"11";"incorrect";"1_1/GS1"
"2009";253;"memory1";"1x6x8bednv";"many_one";"CSpred";"4";"721.1399999796413";"false";"old";1;"12";"incorrect";"4_1/CS5_pred"
"2012";256;"memory1";"1x6x8bednv";"many_one";"CS";"4";"549.6949999942444";"false";"old";1;"13";"correct";"4_1/CS5"
"2015";259;"memory1";"1x6x8bednv";"many_one";"CSnonpred";"1";"759.7299999906681";"false";"new";0;"14";"correct";"1_1/CS1_unpred"
"2018";262;"memory1";"1x6x8bednv";"many_one";"GSnew";"2";"1073.0899999616668";"false";"new";0;"15";"correct";"2_1/GS1"
"2021";265;"memory1";"1x6x8bednv";"many_one";"CSnonpred";"4";"834.0750000206754";"false";"new";0;"16";"correct";"4_1/CS5_unpred"
"2024";268;"memory1";"1x6x8bednv";"many_one";"CSnonpred";"3";"558.2900000154041";"false";"old";1;"17";"incorrect";"3_1/CS9_unpred"
"2027";271;"memory1";"1x6x8bednv";"many_one";"GSold";"2";"808.6600000387989";"false";"old";1;"18";"incorrect";"2_1/CS8"
"2030";274;"memory1";"1x6x8bednv";"many_one";"CS";"3";"595.0550000416115";"false";"old";1;"19";"correct";"3_1/CS9"
"2033";277;"memory1";"1x6x8bednv";"many_one";"GSold";"3";"716.5800000075251";"false";"old";1;"20";"incorrect";"3_1/CS5"
"2036";280;"memory1";"1x6x8bednv";"many_one";"GSold";"1";"818.1050000130199";"false";"new";0;"21";"correct";"1_1/CS6"
"2039";283;"memory1";"1x6x8bednv";"many_one";"CSpred";"2";"791.800000006333";"false";"old";1;"22";"incorrect";"2_1/CS6_pred"
"2042";286;"memory1";"1x6x8bednv";"many_one";"distractor";NA;"1847.8049999685027";"false";"new";0;"23";"correct";"distractor_1/dis3"
"2324";217;"memory1";"23ovhx752x";"many_one";"CS";"1";"2812.3000000050524";"false";"new";0;"0";"incorrect";"1_1/CS7"
"2327";220;"memory1";"23ovhx752x";"many_one";"GSold";"3";"1303.395000009914";"false";"new";0;"1";"correct";"3_1/CS7"
"2330";223;"memory1";"23ovhx752x";"many_one";"CSnonpred";"2";"1059.305000002496";"false";"old";1;"2";"incorrect";"2_1/CS8_unpred"
"2333";226;"memory1";"23ovhx752x";"many_one";"GSold";"4";"1161.4899999985937";"false";"old";1;"3";"incorrect";"4_1/CS5"
"2336";229;"memory1";"23ovhx752x";"many_one";"GSold";"2";"1064.8050000017975";"false";"old";1;"4";"incorrect";"2_1/CS7"
"2339";232;"memory1";"23ovhx752x";"many_one";"CS";"3";"725.7399999944028";"false";"old";1;"5";"correct";"3_1/CS5"
"2342";235;"memory1";"23ovhx752x";"many_one";"distractor";NA;"956.3649999909103";"false";"new";0;"6";"correct";"distractor_1/dis2"
"2345";238;"memory1";"23ovhx752x";"many_one";"CSpred";"3";"873.9000000059605";"false";"old";1;"7";"incorrect";"3_1/CS5_pred"
"2348";241;"memory1";"23ovhx752x";"many_one";"distractor";NA;"1016.2249999993946";"false";"old";1;"8";"incorrect";"distractor_1/dis4"
"2351";244;"memory1";"23ovhx752x";"many_one";"CSnonpred";"3";"1060.459999993327";"false";"old";1;"9";"incorrect";"3_1/CS5_unpred"
"2354";247;"memory1";"23ovhx752x";"many_one";"GSold";"1";"2150.1900000002934";"false";"old";1;"10";"incorrect";"1_1/CS3"
"2357";250;"memory1";"23ovhx752x";"many_one";"distractor";NA;"694.3049999972573";"false";"new";0;"11";"correct";"distractor_1/dis3"
"2360";253;"memory1";"23ovhx752x";"many_one";"CSnonpred";"4";"916.6949999926146";"false";"old";1;"12";"incorrect";"4_1/CS10_unpred"
"2363";256;"memory1";"23ovhx752x";"many_one";"CSpred";"4";"565.8499999990454";"false";"old";1;"13";"incorrect";"4_1/CS10_pred"
"2366";259;"memory1";"23ovhx752x";"many_one";"GSnew";"2";"749.710000003688";"false";"new";0;"14";"correct";"2_1/GS1"
"2369";262;"memory1";"23ovhx752x";"many_one";"CSnonpred";"1";"713.369999997667";"false";"new";0;"15";"correct";"1_1/CS7_unpred"
"2372";265;"memory1";"23ovhx752x";"many_one";"CSpred";"1";"1162.624999997206";"false";"old";1;"16";"incorrect";"1_1/CS7_pred"
"2375";268;"memory1";"23ovhx752x";"many_one";"GSnew";"3";"667.4050000001444";"false";"new";0;"17";"correct";"3_1/GS1"
"2378";271;"memory1";"23ovhx752x";"many_one";"GSnew";"1";"308.019999996759";"false";"new";0;"18";"correct";"1_1/GS1"
"2381";274;"memory1";"23ovhx752x";"many_one";"CSpred";"2";"600.5400000140071";"false";"new";0;"19";"correct";"2_1/CS8_pred"
"2384";277;"memory1";"23ovhx752x";"many_one";"CS";"4";"826.6750000038883";"false";"old";1;"20";"correct";"4_1/CS10"
"2387";280;"memory1";"23ovhx752x";"many_one";"distractor";NA;"1073.3199999958742";"false";"new";0;"21";"correct";"distractor_1/dis1"
"2390";283;"memory1";"23ovhx752x";"many_one";"GSnew";"4";"660.6199999951059";"false";"new";0;"22";"correct";"4_1/GS1"
"2393";286;"memory1";"23ovhx752x";"many_one";"CS";"2";"568.0049999937182";"false";"old";1;"23";"correct";"2_1/CS8"
"2675";217;"memory1";"25xs5p6ax2";"many_one";"CSnonpred";"1";"2130.6899999980815";"false";"new";0;"0";"correct";"1_1/CS4_unpred"
"2678";220;"memory1";"25xs5p6ax2";"many_one";"GSold";"4";"1572.1300000005867";"false";"new";0;"1";"correct";"4_1/CS4"
"2681";223;"memory1";"25xs5p6ax2";"many_one";"GSnew";"4";"1159.260000000475";"false";"new";0;"2";"correct";"4_1/GS1"
"2684";226;"memory1";"25xs5p6ax2";"many_one";"CS";"1";"1733.2549999991897";"false";"old";1;"3";"correct";"1_1/CS4"
"2687";229;"memory1";"25xs5p6ax2";"many_one";"CSpred";"3";"700.324999997858";"false";"old";1;"4";"incorrect";"3_1/CS9_pred"
"2690";232;"memory1";"25xs5p6ax2";"many_one";"CS";"3";"1293.6699999989942";"false";"old";1;"5";"correct";"3_1/CS9"
"2693";235;"memory1";"25xs5p6ax2";"many_one";"CS";"4";"1325.3000000002794";"false";"old";1;"6";"correct";"4_1/CS6"
"2696";238;"memory1";"25xs5p6ax2";"many_one";"CS";"2";"865.3649999976624";"false";"old";1;"7";"correct";"2_1/CS7"
"2699";241;"memory1";"25xs5p6ax2";"many_one";"CSpred";"4";"1862.7200000009034";"false";"old";1;"8";"incorrect";"4_1/CS6_pred"
"2702";244;"memory1";"25xs5p6ax2";"many_one";"GSold";"2";"1671.7650000029244";"false";"new";0;"9";"correct";"2_1/CS8"
"2705";247;"memory1";"25xs5p6ax2";"many_one";"GSnew";"1";"1624.8400000003166";"false";"new";0;"10";"correct";"1_1/GS1"
"2708";250;"memory1";"25xs5p6ax2";"many_one";"distractor";NA;"830.5599999986589";"false";"new";0;"11";"correct";"distractor_1/dis1"
"2711";253;"memory1";"25xs5p6ax2";"many_one";"CSnonpred";"4";"1143.3099999995902";"false";"old";1;"12";"incorrect";"4_1/CS6_unpred"
"2714";256;"memory1";"25xs5p6ax2";"many_one";"CSnonpred";"3";"786.7949999999255";"false";"old";1;"13";"incorrect";"3_1/CS9_unpred"
"2717";259;"memory1";"25xs5p6ax2";"many_one";"GSold";"1";"1136.2650000010617";"false";"old";1;"14";"incorrect";"1_1/CS1"
"2720";262;"memory1";"25xs5p6ax2";"many_one";"distractor";NA;"1346.700000002049";"false";"new";0;"15";"correct";"distractor_1/dis2"
"2723";265;"memory1";"25xs5p6ax2";"many_one";"GSold";"3";"921.4700000011362";"false";"old";1;"16";"incorrect";"3_1/CS3"
"2726";268;"memory1";"25xs5p6ax2";"many_one";"CSpred";"1";"1309.470000000205";"false";"old";1;"17";"incorrect";"1_1/CS4_pred"
"2729";271;"memory1";"25xs5p6ax2";"many_one";"CSnonpred";"2";"874.7450000010431";"false";"old";1;"18";"incorrect";"2_1/CS7_unpred"
"2732";274;"memory1";"25xs5p6ax2";"many_one";"distractor";NA;"966.8149999999441";"false";"new";0;"19";"correct";"distractor_1/dis4"
"2735";277;"memory1";"25xs5p6ax2";"many_one";"distractor";NA;"1041.404999999795";"false";"new";0;"20";"correct";"distractor_1/dis3"
"2738";280;"memory1";"25xs5p6ax2";"many_one";"GSnew";"3";"859.2949999985285";"false";"new";0;"21";"correct";"3_1/GS1"
"2741";283;"memory1";"25xs5p6ax2";"many_one";"GSnew";"2";"1019.8750000018626";"false";"new";0;"22";"correct";"2_1/GS1"
"2744";286;"memory1";"25xs5p6ax2";"many_one";"CSpred";"2";"731.7299999995157";"false";"old";1;"23";"incorrect";"2_1/CS7_pred"
"3026";217;"memory1";"28bx3hmnkl";"one_one";"CSnonpred";"4";"null";"true";"miss";NA;"0";"miss";"4_1/CS5_unpred"
"3029";220;"memory1";"28bx3hmnkl";"one_one";"CS";"2";"1457";"false";"old";1;"1";"correct";"2_1/CS10"
"3032";223;"memory1";"28bx3hmnkl";"one_one";"CS";"4";"1206";"false";"old";1;"2";"correct";"4_1/CS5"
"3035";226;"memory1";"28bx3hmnkl";"one_one";"CSnonpred";"1";"1649";"false";"old";1;"3";"incorrect";"1_1/CS8_unpred"
"3038";229;"memory1";"28bx3hmnkl";"one_one";"CSpred";"1";"2913";"false";"new";0;"4";"correct";"1_1/CS8_pred"
"3041";232;"memory1";"28bx3hmnkl";"one_one";"CSnonpred";"2";"2706";"false";"old";1;"5";"incorrect";"2_1/CS10_unpred"
"3044";235;"memory1";"28bx3hmnkl";"one_one";"GSold";"3";"1609";"false";"new";0;"6";"correct";"3_1/CS7"
"3047";238;"memory1";"28bx3hmnkl";"one_one";"CSpred";"2";"1582";"false";"new";0;"7";"correct";"2_1/CS10_pred"
"3050";241;"memory1";"28bx3hmnkl";"one_one";"distractor";NA;"1118";"false";"new";0;"8";"correct";"distractor_1/dis1"
"3053";244;"memory1";"28bx3hmnkl";"one_one";"CSnonpred";"3";"2689";"false";"old";1;"9";"incorrect";"3_1/CS10_unpred"
"3056";247;"memory1";"28bx3hmnkl";"one_one";"GSnew";"3";"1336";"false";"new";0;"10";"correct";"3_1/GS1"
"3059";250;"memory1";"28bx3hmnkl";"one_one";"GSold";"4";"1822";"false";"new";0;"11";"correct";"4_1/CS7"
"3062";253;"memory1";"28bx3hmnkl";"one_one";"distractor";NA;"781";"false";"new";0;"12";"correct";"distractor_1/dis2"
"3065";256;"memory1";"28bx3hmnkl";"one_one";"GSold";"1";"826";"false";"new";0;"13";"correct";"1_1/CS1"
"3068";259;"memory1";"28bx3hmnkl";"one_one";"CSpred";"4";"1840";"false";"old";1;"14";"incorrect";"4_1/CS5_pred"
"3071";262;"memory1";"28bx3hmnkl";"one_one";"GSnew";"2";"915";"false";"new";0;"15";"correct";"2_1/GS1"
"3074";265;"memory1";"28bx3hmnkl";"one_one";"distractor";NA;"708";"false";"new";0;"16";"correct";"distractor_1/dis4"
"3077";268;"memory1";"28bx3hmnkl";"one_one";"GSnew";"4";"645";"false";"new";0;"17";"correct";"4_1/GS1"
"3080";271;"memory1";"28bx3hmnkl";"one_one";"GSnew";"1";"741";"false";"new";0;"18";"correct";"1_1/GS1"
"3083";274;"memory1";"28bx3hmnkl";"one_one";"CSpred";"3";"1898";"false";"old";1;"19";"incorrect";"3_1/CS10_pred"
"3086";277;"memory1";"28bx3hmnkl";"one_one";"CS";"3";"916";"false";"old";1;"20";"correct";"3_1/CS10"
"3089";280;"memory1";"28bx3hmnkl";"one_one";"distractor";NA;"725";"false";"new";0;"21";"correct";"distractor_1/dis3"
"3092";283;"memory1";"28bx3hmnkl";"one_one";"CS";"1";"2523";"false";"old";1;"22";"correct";"1_1/CS8"
"3095";286;"memory1";"28bx3hmnkl";"one_one";"GSold";"2";"888";"false";"new";0;"23";"correct";"2_1/CS7"
"3728";217;"memory1";"2lgd2prbaa";"many_fill";"GSold";"2";"314.78000013157725";"false";"new";0;"0";"correct";"2_1/CS1"
"3731";220;"memory1";"2lgd2prbaa";"many_fill";"CSnonpred";"4";"481.340000173077";"false";"old";1;"1";"incorrect";"4_1/CS9_unpred"
"3734";223;"memory1";"2lgd2prbaa";"many_fill";"GSold";"1";"743.4549999888986";"false";"old";1;"2";"incorrect";"1_1/CS6"
"3737";226;"memory1";"2lgd2prbaa";"many_fill";"CSnonpred";"2";"946.1199999786913";"false";"new";0;"3";"correct";"2_1/CS6_unpred"
"3740";229;"memory1";"2lgd2prbaa";"many_fill";"GSnew";"1";"814.1649998724461";"false";"new";0;"4";"correct";"1_1/GS1"
"3743";232;"memory1";"2lgd2prbaa";"many_fill";"CS";"3";"638.0849999841303";"false";"old";1;"5";"correct";"3_1/CS3"
"3746";235;"memory1";"2lgd2prbaa";"many_fill";"distractor";NA;"1015.0500000454485";"false";"new";0;"6";"correct";"distractor_1/dis4"
"3749";238;"memory1";"2lgd2prbaa";"many_fill";"GSnew";"2";"487.26999992504716";"false";"old";1;"7";"incorrect";"2_1/GS1"
"3752";241;"memory1";"2lgd2prbaa";"many_fill";"CS";"2";"527.6549998670816";"false";"new";0;"8";"incorrect";"2_1/CS6"
"3755";244;"memory1";"2lgd2prbaa";"many_fill";"distractor";NA;"348.71000004932284";"false";"new";0;"9";"correct";"distractor_1/dis2"
"3758";247;"memory1";"2lgd2prbaa";"many_fill";"GSnew";"3";"1159.2650001402944";"false";"new";0;"10";"correct";"3_1/GS1"
"3761";250;"memory1";"2lgd2prbaa";"many_fill";"CSpred";"4";"2014.3299999181181";"false";"new";0;"11";"correct";"4_1/CS9_pred"
"3764";253;"memory1";"2lgd2prbaa";"many_fill";"GSold";"3";"33.220000099390745";"false";"new";0;"12";"correct";"3_1/CS1"
"3767";256;"memory1";"2lgd2prbaa";"many_fill";"GSnew";"4";"473.6750000156462";"false";"new";0;"13";"correct";"4_1/GS1"
"3770";259;"memory1";"2lgd2prbaa";"many_fill";"CSpred";"3";"460.6049999129027";"false";"new";0;"14";"correct";"3_1/CS3_pred"
"3773";262;"memory1";"2lgd2prbaa";"many_fill";"distractor";NA;"296.9649999868125";"false";"old";1;"15";"incorrect";"distractor_1/dis1"
"3776";265;"memory1";"2lgd2prbaa";"many_fill";"CSnonpred";"3";"31.165000051259995";"false";"old";1;"16";"incorrect";"3_1/CS3_unpred"
"3779";268;"memory1";"2lgd2prbaa";"many_fill";"GSold";"4";"274.0249999333173";"false";"new";0;"17";"correct";"4_1/CS8"
"3782";271;"memory1";"2lgd2prbaa";"many_fill";"CSpred";"1";"442.2200000844896";"false";"old";1;"18";"incorrect";"1_1/CS4_pred"
"3785";274;"memory1";"2lgd2prbaa";"many_fill";"CS";"1";"307.0300000254065";"false";"new";0;"19";"incorrect";"1_1/CS4"
"3788";277;"memory1";"2lgd2prbaa";"many_fill";"CS";"4";"361.100000096485";"false";"old";1;"20";"correct";"4_1/CS9"
"3791";280;"memory1";"2lgd2prbaa";"many_fill";"CSnonpred";"1";"326.0999999474734";"false";"new";0;"21";"correct";"1_1/CS4_unpred"
"3794";283;"memory1";"2lgd2prbaa";"many_fill";"CSpred";"2";"259.4850000459701";"false";"old";1;"22";"incorrect";"2_1/CS6_pred"
"3797";286;"memory1";"2lgd2prbaa";"many_fill";"distractor";NA;"1348.2299998868257";"false";"new";0;"23";"correct";"distractor_1/dis3"
"4079";217;"memory1";"2oyobcd21b";"many_one";"GSold";"3";"null";"true";"miss";NA;"0";"miss";"3_1/CS6"
"4082";220;"memory1";"2oyobcd21b";"many_one";"CS";"2";"1255";"false";"old";1;"1";"correct";"2_1/CS7"
"4085";223;"memory1";"2oyobcd21b";"many_one";"CS";"1";"1001";"false";"new";0;"2";"incorrect";"1_1/CS7"
"4088";226;"memory1";"2oyobcd21b";"many_one";"CSnonpred";"2";"512";"false";"old";1;"3";"incorrect";"2_1/CS7_unpred"
"4091";229;"memory1";"2oyobcd21b";"many_one";"GSold";"1";"878";"false";"old";1;"4";"incorrect";"1_1/CS3"
"4094";232;"memory1";"2oyobcd21b";"many_one";"CSpred";"2";"752";"false";"old";1;"5";"incorrect";"2_1/CS7_pred"
"4097";235;"memory1";"2oyobcd21b";"many_one";"distractor";NA;"719";"false";"new";0;"6";"correct";"distractor_1/dis1"
"4100";238;"memory1";"2oyobcd21b";"many_one";"CSpred";"4";"766";"false";"old";1;"7";"incorrect";"4_1/CS1_pred"
"4103";241;"memory1";"2oyobcd21b";"many_one";"CSnonpred";"4";"1008";"false";"new";0;"8";"correct";"4_1/CS1_unpred"
"4106";244;"memory1";"2oyobcd21b";"many_one";"GSnew";"3";"949";"false";"new";0;"9";"correct";"3_1/GS1"
"4109";247;"memory1";"2oyobcd21b";"many_one";"distractor";NA;"1033";"false";"new";0;"10";"correct";"distractor_1/dis3"
"4112";250;"memory1";"2oyobcd21b";"many_one";"CSnonpred";"3";"904";"false";"old";1;"11";"incorrect";"3_1/CS4_unpred"
"4115";253;"memory1";"2oyobcd21b";"many_one";"CSpred";"1";"976";"false";"old";1;"12";"incorrect";"1_1/CS7_pred"
"4118";256;"memory1";"2oyobcd21b";"many_one";"GSnew";"2";"1279";"false";"new";0;"13";"correct";"2_1/GS1"
"4121";259;"memory1";"2oyobcd21b";"many_one";"CSnonpred";"1";"768";"false";"old";1;"14";"incorrect";"1_1/CS7_unpred"
"4124";262;"memory1";"2oyobcd21b";"many_one";"GSnew";"4";"994";"false";"old";1;"15";"incorrect";"4_1/GS1"
"4127";265;"memory1";"2oyobcd21b";"many_one";"GSold";"2";"1135";"false";"old";1;"16";"incorrect";"2_1/CS6"
"4130";268;"memory1";"2oyobcd21b";"many_one";"distractor";NA;"1080";"false";"new";0;"17";"correct";"distractor_1/dis2"
"4133";271;"memory1";"2oyobcd21b";"many_one";"CSpred";"3";"1411";"false";"old";1;"18";"incorrect";"3_1/CS4_pred"
"4136";274;"memory1";"2oyobcd21b";"many_one";"CS";"4";"646";"false";"old";1;"19";"correct";"4_1/CS1"
"4139";277;"memory1";"2oyobcd21b";"many_one";"GSnew";"1";"724";"false";"new";0;"20";"correct";"1_1/GS1"
"4142";280;"memory1";"2oyobcd21b";"many_one";"GSold";"4";"1926";"false";"new";0;"21";"correct";"4_1/CS2"
"4145";283;"memory1";"2oyobcd21b";"many_one";"distractor";NA;"1013";"false";"new";0;"22";"correct";"distractor_1/dis4"
"4148";286;"memory1";"2oyobcd21b";"many_one";"CS";"3";"1773";"false";"old";1;"23";"correct";"3_1/CS4"
"4430";217;"memory1";"2rqw3kun2r";"one_one";"CSnonpred";"2";"2305.0450000010896";"false";"old";1;"0";"incorrect";"2_1/CS10_unpred"
"4433";220;"memory1";"2rqw3kun2r";"one_one";"CSpred";"1";"2196.49000000034";"false";"old";1;"1";"incorrect";"1_1/CS5_pred"
"4436";223;"memory1";"2rqw3kun2r";"one_one";"CS";"3";"944.5300000007264";"false";"old";1;"2";"correct";"3_1/CS2"
"4439";226;"memory1";"2rqw3kun2r";"one_one";"CS";"2";"1292.2200000012526";"false";"old";1;"3";"correct";"2_1/CS10"
"4442";229;"memory1";"2rqw3kun2r";"one_one";"CSpred";"3";"1291.9550000005402";"false";"old";1;"4";"incorrect";"3_1/CS2_pred"
"4445";232;"memory1";"2rqw3kun2r";"one_one";"distractor";NA;"1591.9150000009686";"false";"new";0;"5";"correct";"distractor_1/dis4"
"4448";235;"memory1";"2rqw3kun2r";"one_one";"distractor";NA;"1249.7400000010384";"false";"new";0;"6";"correct";"distractor_1/dis1"
"4451";238;"memory1";"2rqw3kun2r";"one_one";"CSnonpred";"1";"1344.0750000008848";"false";"old";1;"7";"incorrect";"1_1/CS5_unpred"
"4454";241;"memory1";"2rqw3kun2r";"one_one";"GSnew";"4";"1173.464999999851";"false";"new";0;"8";"correct";"4_1/GS1"
"4457";244;"memory1";"2rqw3kun2r";"one_one";"CS";"4";"2922.104999999632";"false";"old";1;"9";"correct";"4_1/CS8"
"4460";247;"memory1";"2rqw3kun2r";"one_one";"GSold";"1";"1495.4849999995204";"false";"new";0;"10";"correct";"1_1/CS2"
"4463";250;"memory1";"2rqw3kun2r";"one_one";"GSnew";"3";"1852.6799999999348";"false";"new";0;"11";"correct";"3_1/GS1"
"4466";253;"memory1";"2rqw3kun2r";"one_one";"CSnonpred";"4";"null";"true";"miss";NA;"12";"miss";"4_1/CS8_unpred"
"4469";256;"memory1";"2rqw3kun2r";"one_one";"CS";"1";"1438.5650000004098";"false";"old";1;"13";"correct";"1_1/CS5"
"4472";259;"memory1";"2rqw3kun2r";"one_one";"distractor";NA;"1018.5750000000698";"false";"new";0;"14";"correct";"distractor_1/dis3"
"4475";262;"memory1";"2rqw3kun2r";"one_one";"GSold";"3";"1011.7149999988033";"false";"new";0;"15";"correct";"3_1/CS5"
"4478";265;"memory1";"2rqw3kun2r";"one_one";"GSnew";"1";"921.1950000007637";"false";"new";0;"16";"correct";"1_1/GS1"
"4481";268;"memory1";"2rqw3kun2r";"one_one";"CSpred";"2";"1975.6550000001444";"false";"old";1;"17";"incorrect";"2_1/CS10_pred"
"4484";271;"memory1";"2rqw3kun2r";"one_one";"CSpred";"4";"1358.5299999995623";"false";"old";1;"18";"incorrect";"4_1/CS8_pred"
"4487";274;"memory1";"2rqw3kun2r";"one_one";"GSold";"2";"1060.105000000447";"false";"new";0;"19";"correct";"2_1/CS4"
"4490";277;"memory1";"2rqw3kun2r";"one_one";"distractor";NA;"1037.1749999994645";"false";"new";0;"20";"correct";"distractor_1/dis2"
"4493";280;"memory1";"2rqw3kun2r";"one_one";"GSnew";"2";"1203.9050000003772";"false";"new";0;"21";"correct";"2_1/GS1"
"4496";283;"memory1";"2rqw3kun2r";"one_one";"GSold";"4";"891.079999999376";"false";"new";0;"22";"correct";"4_1/CS10"
"4499";286;"memory1";"2rqw3kun2r";"one_one";"CSnonpred";"3";"1759.3050000014482";"false";"new";0;"23";"correct";"3_1/CS2_unpred"
"4781";217;"memory1";"2topmaxcp6";"many_fill";"GSnew";"3";"1587";"false";"new";0;"0";"correct";"3_1/GS1"
"4784";220;"memory1";"2topmaxcp6";"many_fill";"CSpred";"1";"847";"false";"old";1;"1";"incorrect";"1_1/CS7_pred"
"4787";223;"memory1";"2topmaxcp6";"many_fill";"CS";"1";"1206";"false";"old";1;"2";"correct";"1_1/CS7"
"4790";226;"memory1";"2topmaxcp6";"many_fill";"GSold";"3";"2040";"false";"old";1;"3";"incorrect";"3_1/CS5"
"4793";229;"memory1";"2topmaxcp6";"many_fill";"GSold";"2";"1603";"false";"new";0;"4";"correct";"2_1/CS3"
"4796";232;"memory1";"2topmaxcp6";"many_fill";"GSold";"4";"846";"false";"old";1;"5";"incorrect";"4_1/CS3"
"4799";235;"memory1";"2topmaxcp6";"many_fill";"CSnonpred";"1";"1691";"false";"old";1;"6";"incorrect";"1_1/CS7_unpred"
"4802";238;"memory1";"2topmaxcp6";"many_fill";"CSnonpred";"4";"842";"false";"old";1;"7";"incorrect";"4_1/CS7_unpred"
"4805";241;"memory1";"2topmaxcp6";"many_fill";"GSnew";"2";"1915";"false";"new";0;"8";"correct";"2_1/GS1"
"4808";244;"memory1";"2topmaxcp6";"many_fill";"distractor";NA;"2025";"false";"new";0;"9";"correct";"distractor_1/dis1"
"4811";247;"memory1";"2topmaxcp6";"many_fill";"CSpred";"4";"1071";"false";"old";1;"10";"incorrect";"4_1/CS7_pred"
"4814";250;"memory1";"2topmaxcp6";"many_fill";"CSnonpred";"3";"1352";"false";"old";1;"11";"incorrect";"3_1/CS10_unpred"
"4817";253;"memory1";"2topmaxcp6";"many_fill";"distractor";NA;"1513";"false";"new";0;"12";"correct";"distractor_1/dis3"
"4820";256;"memory1";"2topmaxcp6";"many_fill";"CSpred";"2";"893";"false";"old";1;"13";"incorrect";"2_1/CS1_pred"
"4823";259;"memory1";"2topmaxcp6";"many_fill";"GSold";"1";"2049";"false";"new";0;"14";"correct";"1_1/CS1"
"4826";262;"memory1";"2topmaxcp6";"many_fill";"GSnew";"4";"1554";"false";"old";1;"15";"incorrect";"4_1/GS1"
"4829";265;"memory1";"2topmaxcp6";"many_fill";"CSpred";"3";"977";"false";"old";1;"16";"incorrect";"3_1/CS10_pred"
"4832";268;"memory1";"2topmaxcp6";"many_fill";"CS";"3";"1175";"false";"old";1;"17";"correct";"3_1/CS10"
"4835";271;"memory1";"2topmaxcp6";"many_fill";"CS";"2";"821";"false";"old";1;"18";"correct";"2_1/CS1"
"4838";274;"memory1";"2topmaxcp6";"many_fill";"GSnew";"1";"2039";"false";"new";0;"19";"correct";"1_1/GS1"
"4841";277;"memory1";"2topmaxcp6";"many_fill";"CSnonpred";"2";"1472";"false";"old";1;"20";"incorrect";"2_1/CS1_unpred"
"4844";280;"memory1";"2topmaxcp6";"many_fill";"CS";"4";"1151";"false";"old";1;"21";"correct";"4_1/CS7"
"4847";283;"memory1";"2topmaxcp6";"many_fill";"distractor";NA;"1481";"false";"new";0;"22";"correct";"distractor_1/dis4"
"4850";286;"memory1";"2topmaxcp6";"many_fill";"distractor";NA;"1136";"false";"new";0;"23";"correct";"distractor_1/dis2"
"5132";217;"memory1";"31avj7mzjj";"many_fill";"CS";"4";"1385.224999998114";"false";"new";0;"0";"incorrect";"4_1/CS5"
"5135";220;"memory1";"31avj7mzjj";"many_fill";"CSnonpred";"4";"1339.0699999980861";"false";"new";0;"1";"correct";"4_1/CS5_unpred"
"5138";223;"memory1";"31avj7mzjj";"many_fill";"distractor";NA;"1037.0150000016438";"false";"new";0;"2";"correct";"distractor_1/dis1"
"5141";226;"memory1";"31avj7mzjj";"many_fill";"CS";"1";"864.4150000000373";"false";"old";1;"3";"correct";"1_1/CS3"
"5144";229;"memory1";"31avj7mzjj";"many_fill";"CSpred";"3";"687.565000000177";"false";"old";1;"4";"incorrect";"3_1/CS6_pred"
"5147";232;"memory1";"31avj7mzjj";"many_fill";"GSold";"2";"714.0350000008475";"false";"new";0;"5";"correct";"2_1/CS10"
"5150";235;"memory1";"31avj7mzjj";"many_fill";"GSnew";"2";"801.6349999997765";"false";"new";0;"6";"correct";"2_1/GS1"
"5153";238;"memory1";"31avj7mzjj";"many_fill";"CSpred";"4";"1245.4400000023888";"false";"new";0;"7";"correct";"4_1/CS5_pred"
"5156";241;"memory1";"31avj7mzjj";"many_fill";"GSnew";"4";"1060.5050000012852";"false";"old";1;"8";"incorrect";"4_1/GS1"
"5159";244;"memory1";"31avj7mzjj";"many_fill";"CSnonpred";"1";"768.7599999989616";"false";"old";1;"9";"incorrect";"1_1/CS3_unpred"
"5162";247;"memory1";"31avj7mzjj";"many_fill";"GSold";"1";"955.1550000032876";"false";"old";1;"10";"incorrect";"1_1/CS4"
"5165";250;"memory1";"31avj7mzjj";"many_fill";"CSnonpred";"3";"894.2299999980023";"false";"old";1;"11";"incorrect";"3_1/CS6_unpred"
"5168";253;"memory1";"31avj7mzjj";"many_fill";"distractor";NA;"725.9100000010803";"false";"new";0;"12";"correct";"distractor_1/dis2"
"5171";256;"memory1";"31avj7mzjj";"many_fill";"CSnonpred";"2";"1075.9500000021653";"false";"old";1;"13";"incorrect";"2_1/CS7_unpred"
"5174";259;"memory1";"31avj7mzjj";"many_fill";"CS";"3";"693.9899999997579";"false";"old";1;"14";"correct";"3_1/CS6"
"5177";262;"memory1";"31avj7mzjj";"many_fill";"GSnew";"3";"694.7149999978719";"false";"new";0;"15";"correct";"3_1/GS1"
"5180";265;"memory1";"31avj7mzjj";"many_fill";"GSold";"3";"829.2249999976484";"false";"new";0;"16";"correct";"3_1/CS10"
"5183";268;"memory1";"31avj7mzjj";"many_fill";"distractor";NA;"645.9450000001816";"false";"new";0;"17";"correct";"distractor_1/dis3"
"5186";271;"memory1";"31avj7mzjj";"many_fill";"CSpred";"2";"999.7399999992922";"false";"old";1;"18";"incorrect";"2_1/CS7_pred"
"5189";274;"memory1";"31avj7mzjj";"many_fill";"distractor";NA;"811.9799999985844";"false";"new";0;"19";"correct";"distractor_1/dis4"
"5192";277;"memory1";"31avj7mzjj";"many_fill";"CS";"2";"733.8950000011828";"false";"old";1;"20";"correct";"2_1/CS7"
"5195";280;"memory1";"31avj7mzjj";"many_fill";"CSpred";"1";"764.2049999996088";"false";"old";1;"21";"incorrect";"1_1/CS3_pred"
"5198";283;"memory1";"31avj7mzjj";"many_fill";"GSnew";"1";"818.680000000284";"false";"new";0;"22";"correct";"1_1/GS1"
"5201";286;"memory1";"31avj7mzjj";"many_fill";"GSold";"4";"1105.8950000006007";"false";"new";0;"23";"correct";"4_1/CS7"
"6185";217;"memory1";"3lnf3nscga";"many_fill";"distractor";NA;"2298.0749999987893";"false";"new";0;"0";"correct";"distractor_1/dis3"
"6188";220;"memory1";"3lnf3nscga";"many_fill";"CSnonpred";"1";"1711.4550000114832";"false";"old";1;"1";"incorrect";"1_1/CS7_unpred"
"6191";223;"memory1";"3lnf3nscga";"many_fill";"GSold";"2";"1686.634999990929";"false";"new";0;"2";"correct";"2_1/CS4"
"6194";226;"memory1";"3lnf3nscga";"many_fill";"CS";"1";"1345.004999981029";"false";"old";1;"3";"correct";"1_1/CS7"
"6197";229;"memory1";"3lnf3nscga";"many_fill";"GSnew";"2";"1335.289999988163";"false";"old";1;"4";"incorrect";"2_1/GS1"
"6200";232;"memory1";"3lnf3nscga";"many_fill";"GSold";"1";"1673.1049999943934";"false";"old";1;"5";"incorrect";"1_1/CS10"
"6203";235;"memory1";"3lnf3nscga";"many_fill";"GSold";"4";"1109.5900000073016";"false";"new";0;"6";"correct";"4_1/CS8"
"6206";238;"memory1";"3lnf3nscga";"many_fill";"distractor";NA;"2238.695000007283";"false";"old";1;"7";"incorrect";"distractor_1/dis4"
"6209";241;"memory1";"3lnf3nscga";"many_fill";"CSnonpred";"2";"1322.4549999868032";"false";"new";0;"8";"correct";"2_1/CS3_unpred"
"6212";244;"memory1";"3lnf3nscga";"many_fill";"distractor";NA;"1024.795000004815";"false";"new";0;"9";"correct";"distractor_1/dis1"
"6215";247;"memory1";"3lnf3nscga";"many_fill";"GSnew";"1";"854.6499999938533";"false";"new";0;"10";"correct";"1_1/GS1"
"6218";250;"memory1";"3lnf3nscga";"many_fill";"GSnew";"3";"1087.7099999925122";"false";"old";1;"11";"incorrect";"3_1/GS1"
"6221";253;"memory1";"3lnf3nscga";"many_fill";"GSnew";"4";"1148.285000002943";"false";"old";1;"12";"incorrect";"4_1/GS1"
"6224";256;"memory1";"3lnf3nscga";"many_fill";"CSnonpred";"3";"975.044999999227";"false";"old";1;"13";"incorrect";"3_1/CS9_unpred"
"6227";259;"memory1";"3lnf3nscga";"many_fill";"CS";"3";"991.4200000057463";"false";"old";1;"14";"correct";"3_1/CS9"
"6230";262;"memory1";"3lnf3nscga";"many_fill";"CSpred";"4";"914.294999995036";"false";"old";1;"15";"incorrect";"4_1/CS9_pred"
"6233";265;"memory1";"3lnf3nscga";"many_fill";"CSpred";"2";"1615.3500000073109";"false";"new";0;"16";"correct";"2_1/CS3_pred"
"6236";268;"memory1";"3lnf3nscga";"many_fill";"distractor";NA;"919.3500000110362";"false";"new";0;"17";"correct";"distractor_1/dis2"
"6239";271;"memory1";"3lnf3nscga";"many_fill";"CS";"2";"1629.784999997355";"false";"new";0;"18";"incorrect";"2_1/CS3"
"6242";274;"memory1";"3lnf3nscga";"many_fill";"CSnonpred";"4";"1412.175000004936";"false";"old";1;"19";"incorrect";"4_1/CS9_unpred"
"6245";277;"memory1";"3lnf3nscga";"many_fill";"CSpred";"1";"1136.050000000978";"false";"old";1;"20";"incorrect";"1_1/CS7_pred"
"6248";280;"memory1";"3lnf3nscga";"many_fill";"CS";"4";"1231.0799999977462";"false";"old";1;"21";"correct";"4_1/CS9"
"6251";283;"memory1";"3lnf3nscga";"many_fill";"CSpred";"3";"1157.5099999899976";"false";"old";1;"22";"incorrect";"3_1/CS9_pred"
"6254";286;"memory1";"3lnf3nscga";"many_fill";"GSold";"3";"1275.3350000130013";"false";"new";0;"23";"correct";"3_1/CS4"
"6536";217;"memory1";"3vrnon1bwu";"many_one";"distractor";NA;"396";"false";"new";0;"0";"correct";"distractor_1/dis1"
"6539";220;"memory1";"3vrnon1bwu";"many_one";"CS";"1";"2302";"false";"old";1;"1";"correct";"1_1/CS6"
"6542";223;"memory1";"3vrnon1bwu";"many_one";"distractor";NA;"851";"false";"new";0;"2";"correct";"distractor_1/dis3"
"6545";226;"memory1";"3vrnon1bwu";"many_one";"GSold";"1";"686";"false";"new";0;"3";"correct";"1_1/CS7"
"6548";229;"memory1";"3vrnon1bwu";"many_one";"GSnew";"4";"666";"false";"old";1;"4";"incorrect";"4_1/GS1"
"6551";232;"memory1";"3vrnon1bwu";"many_one";"CSnonpred";"4";"659";"false";"old";1;"5";"incorrect";"4_1/CS1_unpred"
"6554";235;"memory1";"3vrnon1bwu";"many_one";"GSold";"3";"657";"false";"old";1;"6";"incorrect";"3_1/CS4"
"6557";238;"memory1";"3vrnon1bwu";"many_one";"GSnew";"3";"402";"false";"new";0;"7";"correct";"3_1/GS1"
"6560";241;"memory1";"3vrnon1bwu";"many_one";"CS";"4";"513";"false";"old";1;"8";"correct";"4_1/CS1"
"6563";244;"memory1";"3vrnon1bwu";"many_one";"GSnew";"2";"846";"false";"new";0;"9";"correct";"2_1/GS1"
"6566";247;"memory1";"3vrnon1bwu";"many_one";"CSpred";"3";"612";"false";"old";1;"10";"incorrect";"3_1/CS6_pred"
"6569";250;"memory1";"3vrnon1bwu";"many_one";"GSnew";"1";"856";"false";"new";0;"11";"correct";"1_1/GS1"
"6572";253;"memory1";"3vrnon1bwu";"many_one";"distractor";NA;"832";"false";"new";0;"12";"correct";"distractor_1/dis4"
"6575";256;"memory1";"3vrnon1bwu";"many_one";"GSold";"4";"943";"false";"new";0;"13";"correct";"4_1/CS4"
"6578";259;"memory1";"3vrnon1bwu";"many_one";"CSnonpred";"1";"859";"false";"old";1;"14";"incorrect";"1_1/CS6_unpred"
"6581";262;"memory1";"3vrnon1bwu";"many_one";"CSpred";"1";"910";"false";"new";0;"15";"correct";"1_1/CS6_pred"
"6584";265;"memory1";"3vrnon1bwu";"many_one";"CSnonpred";"3";"673";"false";"old";1;"16";"incorrect";"3_1/CS6_unpred"
"6587";268;"memory1";"3vrnon1bwu";"many_one";"CSpred";"2";"863";"false";"old";1;"17";"incorrect";"2_1/CS6_pred"
"6590";271;"memory1";"3vrnon1bwu";"many_one";"CSnonpred";"2";"611";"false";"old";1;"18";"incorrect";"2_1/CS6_unpred"
"6593";274;"memory1";"3vrnon1bwu";"many_one";"GSold";"2";"760";"false";"old";1;"19";"incorrect";"2_1/CS8"
"6596";277;"memory1";"3vrnon1bwu";"many_one";"CS";"2";"530";"false";"old";1;"20";"correct";"2_1/CS6"
"6599";280;"memory1";"3vrnon1bwu";"many_one";"CSpred";"4";"833";"false";"old";1;"21";"incorrect";"4_1/CS1_pred"
"6602";283;"memory1";"3vrnon1bwu";"many_one";"CS";"3";"800";"false";"old";1;"22";"correct";"3_1/CS6"
"6605";286;"memory1";"3vrnon1bwu";"many_one";"distractor";NA;"649";"false";"new";0;"23";"correct";"distractor_1/dis2"
"6887";217;"memory1";"4261yws2f3";"many_fill";"GSnew";"2";"null";"true";"miss";NA;"0";"miss";"2_1/GS1"
"6890";220;"memory1";"4261yws2f3";"many_fill";"GSnew";"1";"2284";"false";"new";0;"1";"correct";"1_1/GS1"
"6893";223;"memory1";"4261yws2f3";"many_fill";"GSold";"1";"1847";"false";"new";0;"2";"correct";"1_1/CS3"
"6896";226;"memory1";"4261yws2f3";"many_fill";"distractor";NA;"1002";"false";"new";0;"3";"correct";"distractor_1/dis2"
"6899";229;"memory1";"4261yws2f3";"many_fill";"GSold";"3";"1260";"false";"new";0;"4";"correct";"3_1/CS7"
"6902";232;"memory1";"4261yws2f3";"many_fill";"CS";"3";"855";"false";"old";1;"5";"correct";"3_1/CS8"
"6905";235;"memory1";"4261yws2f3";"many_fill";"CSpred";"2";"1134";"false";"new";0;"6";"correct";"2_1/CS7_pred"
"6908";238;"memory1";"4261yws2f3";"many_fill";"CS";"4";"797";"false";"old";1;"7";"correct";"4_1/CS1"
"6911";241;"memory1";"4261yws2f3";"many_fill";"GSnew";"3";"1085";"false";"new";0;"8";"correct";"3_1/GS1"
"6914";244;"memory1";"4261yws2f3";"many_fill";"CSpred";"1";"871";"false";"old";1;"9";"incorrect";"1_1/CS4_pred"
"6917";247;"memory1";"4261yws2f3";"many_fill";"CS";"1";"973";"false";"old";1;"10";"correct";"1_1/CS4"
"6920";250;"memory1";"4261yws2f3";"many_fill";"CSnonpred";"1";"771";"false";"old";1;"11";"incorrect";"1_1/CS4_unpred"
"6923";253;"memory1";"4261yws2f3";"many_fill";"CSnonpred";"4";"1223";"false";"new";0;"12";"correct";"4_1/CS1_unpred"
"6926";256;"memory1";"4261yws2f3";"many_fill";"GSold";"2";"1116";"false";"new";0;"13";"correct";"2_1/CS9"
"6929";259;"memory1";"4261yws2f3";"many_fill";"CSnonpred";"2";"959";"false";"new";0;"14";"correct";"2_1/CS7_unpred"
"6932";262;"memory1";"4261yws2f3";"many_fill";"CSnonpred";"3";"1914";"false";"old";1;"15";"incorrect";"3_1/CS8_unpred"
"6935";265;"memory1";"4261yws2f3";"many_fill";"distractor";NA;"793";"false";"new";0;"16";"correct";"distractor_1/dis3"
"6938";268;"memory1";"4261yws2f3";"many_fill";"GSnew";"4";"1061";"false";"new";0;"17";"correct";"4_1/GS1"
"6941";271;"memory1";"4261yws2f3";"many_fill";"distractor";NA;"1072";"false";"new";0;"18";"correct";"distractor_1/dis1"
"6944";274;"memory1";"4261yws2f3";"many_fill";"CSpred";"4";"1068";"false";"old";1;"19";"incorrect";"4_1/CS1_pred"
"6947";277;"memory1";"4261yws2f3";"many_fill";"distractor";NA;"855";"false";"new";0;"20";"correct";"distractor_1/dis4"
"6950";280;"memory1";"4261yws2f3";"many_fill";"CS";"2";"870";"false";"old";1;"21";"correct";"2_1/CS7"
"6953";283;"memory1";"4261yws2f3";"many_fill";"CSpred";"3";"761";"false";"old";1;"22";"incorrect";"3_1/CS8_pred"
"6956";286;"memory1";"4261yws2f3";"many_fill";"GSold";"4";"1129";"false";"new";0;"23";"correct";"4_1/CS2"
"7238";217;"memory1";"4gqsdtz9th";"many_one";"CS";"3";"2368.929999996908";"false";"old";1;"0";"correct";"3_1/CS4"
"7241";220;"memory1";"4gqsdtz9th";"many_one";"GSold";"3";"1513.6700000002747";"false";"new";0;"1";"correct";"3_1/CS2"
"7244";223;"memory1";"4gqsdtz9th";"many_one";"GSold";"2";"1794.580000001588";"false";"new";0;"2";"correct";"2_1/CS2"
"7247";226;"memory1";"4gqsdtz9th";"many_one";"CSnonpred";"3";"1523.0149999988498";"false";"old";1;"3";"incorrect";"3_1/CS4_unpred"
"7250";229;"memory1";"4gqsdtz9th";"many_one";"CSpred";"2";"1665.3200000000652";"false";"new";0;"4";"correct";"2_1/CS8_pred"
"7253";232;"memory1";"4gqsdtz9th";"many_one";"GSnew";"3";"2610.625000001164";"false";"new";0;"5";"correct";"3_1/GS1"
"7256";235;"memory1";"4gqsdtz9th";"many_one";"GSnew";"2";"1973.230000003241";"false";"new";0;"6";"correct";"2_1/GS1"
"7259";238;"memory1";"4gqsdtz9th";"many_one";"distractor";NA;"1921.5799999947194";"false";"new";0;"7";"correct";"distractor_1/dis1"
"7262";241;"memory1";"4gqsdtz9th";"many_one";"CS";"4";"1084.934999991674";"false";"old";1;"8";"correct";"4_1/CS1"
"7265";244;"memory1";"4gqsdtz9th";"many_one";"GSold";"1";"3283.174999989569";"false";"new";0;"9";"correct";"1_1/CS2"
"7268";247;"memory1";"4gqsdtz9th";"many_one";"CSnonpred";"4";"1082.3999999993248";"false";"new";0;"10";"correct";"4_1/CS1_unpred"
"7271";250;"memory1";"4gqsdtz9th";"many_one";"CS";"1";"695.1049999915995";"false";"old";1;"11";"correct";"1_1/CS10"
"7274";253;"memory1";"4gqsdtz9th";"many_one";"distractor";NA;"1126.235000003362";"false";"new";0;"12";"correct";"distractor_1/dis4"
"7277";256;"memory1";"4gqsdtz9th";"many_one";"CSpred";"3";"878.0900000128895";"false";"old";1;"13";"incorrect";"3_1/CS4_pred"
"7280";259;"memory1";"4gqsdtz9th";"many_one";"distractor";NA;"889.1600000060862";"false";"new";0;"14";"correct";"distractor_1/dis3"
"7283";262;"memory1";"4gqsdtz9th";"many_one";"GSnew";"1";"3128.6850000033155";"false";"new";0;"15";"correct";"1_1/GS1"
"7286";265;"memory1";"4gqsdtz9th";"many_one";"distractor";NA;"854.6950000018114";"false";"new";0;"16";"correct";"distractor_1/dis2"
"7289";268;"memory1";"4gqsdtz9th";"many_one";"GSnew";"4";"1023.5499999980675";"false";"new";0;"17";"correct";"4_1/GS1"
"7292";271;"memory1";"4gqsdtz9th";"many_one";"CSnonpred";"2";"1258.6699999956181";"false";"new";0;"18";"correct";"2_1/CS8_unpred"
"7295";274;"memory1";"4gqsdtz9th";"many_one";"CSpred";"4";"703.1699999934062";"false";"old";1;"19";"incorrect";"4_1/CS1_pred"
"7298";277;"memory1";"4gqsdtz9th";"many_one";"CSnonpred";"1";"1223.4750000061467";"false";"new";0;"20";"correct";"1_1/CS10_unpred"
"7301";280;"memory1";"4gqsdtz9th";"many_one";"GSold";"4";"959.8100000002887";"false";"new";0;"21";"correct";"4_1/CS5"
"7304";283;"memory1";"4gqsdtz9th";"many_one";"CSpred";"1";"817.1050000091782";"false";"old";1;"22";"incorrect";"1_1/CS10_pred"
"7307";286;"memory1";"4gqsdtz9th";"many_one";"CS";"2";"1946.0499999986496";"false";"old";1;"23";"correct";"2_1/CS8"
"8291";217;"memory1";"4q96ebkutq";"many_fill";"CS";"1";"2916";"false";"new";0;"0";"incorrect";"1_1/CS2"
"8294";220;"memory1";"4q96ebkutq";"many_fill";"CSpred";"1";"943";"false";"old";1;"1";"incorrect";"1_1/CS2_pred"
"8297";223;"memory1";"4q96ebkutq";"many_fill";"GSold";"3";"996";"false";"old";1;"2";"incorrect";"3_1/CS3"
"8300";226;"memory1";"4q96ebkutq";"many_fill";"GSnew";"1";"1206";"false";"new";0;"3";"correct";"1_1/GS1"
"8303";229;"memory1";"4q96ebkutq";"many_fill";"CS";"3";"703";"false";"old";1;"4";"correct";"3_1/CS9"
"8306";232;"memory1";"4q96ebkutq";"many_fill";"GSnew";"3";"1610";"false";"old";1;"5";"incorrect";"3_1/GS1"
"8309";235;"memory1";"4q96ebkutq";"many_fill";"GSnew";"2";"825";"false";"new";0;"6";"correct";"2_1/GS1"
"8312";238;"memory1";"4q96ebkutq";"many_fill";"CSpred";"2";"958";"false";"new";0;"7";"correct";"2_1/CS5_pred"
"8315";241;"memory1";"4q96ebkutq";"many_fill";"distractor";NA;"1631";"false";"new";0;"8";"correct";"distractor_1/dis4"
"8318";244;"memory1";"4q96ebkutq";"many_fill";"GSold";"1";"1161";"false";"old";1;"9";"incorrect";"1_1/CS1"
"8321";247;"memory1";"4q96ebkutq";"many_fill";"CSnonpred";"3";"702";"false";"old";1;"10";"incorrect";"3_1/CS9_unpred"
"8324";250;"memory1";"4q96ebkutq";"many_fill";"GSnew";"4";"941";"false";"old";1;"11";"incorrect";"4_1/GS1"
"8327";253;"memory1";"4q96ebkutq";"many_fill";"CSnonpred";"1";"1327";"false";"old";1;"12";"incorrect";"1_1/CS2_unpred"
"8330";256;"memory1";"4q96ebkutq";"many_fill";"CS";"4";"728";"false";"new";0;"13";"incorrect";"4_1/CS3"
"8333";259;"memory1";"4q96ebkutq";"many_fill";"CSpred";"4";"1446";"false";"old";1;"14";"incorrect";"4_1/CS3_pred"
"8336";262;"memory1";"4q96ebkutq";"many_fill";"CS";"2";"975";"false";"new";0;"15";"incorrect";"2_1/CS5"
"8339";265;"memory1";"4q96ebkutq";"many_fill";"CSnonpred";"2";"1067";"false";"new";0;"16";"correct";"2_1/CS5_unpred"
"8342";268;"memory1";"4q96ebkutq";"many_fill";"distractor";NA;"1183";"false";"old";1;"17";"incorrect";"distractor_1/dis2"
"8345";271;"memory1";"4q96ebkutq";"many_fill";"GSold";"4";"1458";"false";"new";0;"18";"correct";"4_1/CS2"
"8348";274;"memory1";"4q96ebkutq";"many_fill";"distractor";NA;"1122";"false";"new";0;"19";"correct";"distractor_1/dis3"
"8351";277;"memory1";"4q96ebkutq";"many_fill";"CSnonpred";"4";"3233";"false";"new";0;"20";"correct";"4_1/CS3_unpred"
"8354";280;"memory1";"4q96ebkutq";"many_fill";"CSpred";"3";"729";"false";"old";1;"21";"incorrect";"3_1/CS9_pred"
"8357";283;"memory1";"4q96ebkutq";"many_fill";"GSold";"2";"895";"false";"new";0;"22";"correct";"2_1/CS3"
"8360";286;"memory1";"4q96ebkutq";"many_fill";"distractor";NA;"976";"false";"new";0;"23";"correct";"distractor_1/dis1"
"8642";217;"memory1";"4qj299ew43";"many_one";"GSold";"1";"2224";"false";"new";0;"0";"correct";"1_1/CS6"
"8645";220;"memory1";"4qj299ew43";"many_one";"CSpred";"4";"1062";"false";"old";1;"1";"incorrect";"4_1/CS6_pred"
"8648";223;"memory1";"4qj299ew43";"many_one";"CS";"4";"696";"false";"old";1;"2";"correct";"4_1/CS6"
"8651";226;"memory1";"4qj299ew43";"many_one";"distractor";NA;"1506";"false";"new";0;"3";"correct";"distractor_1/dis2"
"8654";229;"memory1";"4qj299ew43";"many_one";"CSnonpred";"1";"761";"false";"old";1;"4";"incorrect";"1_1/CS9_unpred"
"8657";232;"memory1";"4qj299ew43";"many_one";"distractor";NA;"1050";"false";"old";1;"5";"incorrect";"distractor_1/dis4"
"8660";235;"memory1";"4qj299ew43";"many_one";"CS";"3";"668";"false";"old";1;"6";"correct";"3_1/CS7"
"8663";238;"memory1";"4qj299ew43";"many_one";"GSnew";"2";"820";"false";"old";1;"7";"incorrect";"2_1/GS1"
"8666";241;"memory1";"4qj299ew43";"many_one";"CSnonpred";"4";"653";"false";"old";1;"8";"incorrect";"4_1/CS6_unpred"
"8669";244;"memory1";"4qj299ew43";"many_one";"CSpred";"2";"680";"false";"old";1;"9";"incorrect";"2_1/CS10_pred"
"8672";247;"memory1";"4qj299ew43";"many_one";"GSold";"2";"1510";"false";"new";0;"10";"correct";"2_1/CS8"
"8675";250;"memory1";"4qj299ew43";"many_one";"CS";"2";"695";"false";"old";1;"11";"correct";"2_1/CS10"
"8678";253;"memory1";"4qj299ew43";"many_one";"GSnew";"3";"1270";"false";"new";0;"12";"correct";"3_1/GS1"
"8681";256;"memory1";"4qj299ew43";"many_one";"GSold";"4";"475";"false";"old";1;"13";"incorrect";"4_1/CS4"
"8684";259;"memory1";"4qj299ew43";"many_one";"GSnew";"1";"1075";"false";"old";1;"14";"incorrect";"1_1/GS1"
"8687";262;"memory1";"4qj299ew43";"many_one";"GSnew";"4";"1687";"false";"old";1;"15";"incorrect";"4_1/GS1"
"8690";265;"memory1";"4qj299ew43";"many_one";"distractor";NA;"1239";"false";"old";1;"16";"incorrect";"distractor_1/dis1"
"8693";268;"memory1";"4qj299ew43";"many_one";"CSpred";"1";"887";"false";"old";1;"17";"incorrect";"1_1/CS9_pred"
"8696";271;"memory1";"4qj299ew43";"many_one";"distractor";NA;"729";"false";"old";1;"18";"incorrect";"distractor_1/dis3"
"8699";274;"memory1";"4qj299ew43";"many_one";"CSpred";"3";"637";"false";"old";1;"19";"incorrect";"3_1/CS7_pred"
"8702";277;"memory1";"4qj299ew43";"many_one";"CSnonpred";"3";"592";"false";"old";1;"20";"incorrect";"3_1/CS7_unpred"
"8705";280;"memory1";"4qj299ew43";"many_one";"GSold";"3";"676";"false";"old";1;"21";"incorrect";"3_1/CS9"
"8708";283;"memory1";"4qj299ew43";"many_one";"CS";"1";"789";"false";"old";1;"22";"correct";"1_1/CS9"
"8711";286;"memory1";"4qj299ew43";"many_one";"CSnonpred";"2";"665";"false";"old";1;"23";"incorrect";"2_1/CS10_unpred"
"8993";217;"memory1";"51cm0jqy2l";"many_one";"CSnonpred";"1";"1724.0949999977602";"false";"old";1;"0";"incorrect";"1_1/CS1_unpred"
"8996";220;"memory1";"51cm0jqy2l";"many_one";"CS";"1";"1598.1600000014296";"false";"old";1;"1";"correct";"1_1/CS1"
"8999";223;"memory1";"51cm0jqy2l";"many_one";"distractor";NA;"967.4349999986589";"false";"new";0;"2";"correct";"distractor_1/dis1"
"9002";226;"memory1";"51cm0jqy2l";"many_one";"GSold";"2";"910.5249999993248";"false";"old";1;"3";"incorrect";"2_1/CS10"
"9005";229;"memory1";"51cm0jqy2l";"many_one";"CS";"4";"606.629999994766";"false";"old";1;"4";"correct";"4_1/CS1"
"9008";232;"memory1";"51cm0jqy2l";"many_one";"GSold";"4";"927.5100000014063";"false";"new";0;"5";"correct";"4_1/CS7"
"9011";235;"memory1";"51cm0jqy2l";"many_one";"GSnew";"1";"903.4050000045681";"false";"new";0;"6";"correct";"1_1/GS1"
"9014";238;"memory1";"51cm0jqy2l";"many_one";"GSold";"1";"1103.2349999949802";"false";"new";0;"7";"correct";"1_1/CS9"
"9017";241;"memory1";"51cm0jqy2l";"many_one";"CSpred";"2";"583.2100000043865";"false";"old";1;"8";"incorrect";"2_1/CS3_pred"
"9020";244;"memory1";"51cm0jqy2l";"many_one";"CS";"2";"662.8049999999348";"false";"old";1;"9";"correct";"2_1/CS3"
"9023";247;"memory1";"51cm0jqy2l";"many_one";"GSnew";"2";"847.1750000026077";"false";"new";0;"10";"correct";"2_1/GS1"
"9026";250;"memory1";"51cm0jqy2l";"many_one";"CSpred";"1";"846.3999999947846";"false";"old";1;"11";"incorrect";"1_1/CS1_pred"
"9029";253;"memory1";"51cm0jqy2l";"many_one";"GSnew";"4";"687.579999997979";"false";"new";0;"12";"correct";"4_1/GS1"
"9032";256;"memory1";"51cm0jqy2l";"many_one";"distractor";NA;"806.4250000023749";"false";"new";0;"13";"correct";"distractor_1/dis2"
"9035";259;"memory1";"51cm0jqy2l";"many_one";"CSnonpred";"2";"775.585000003106";"false";"old";1;"14";"incorrect";"2_1/CS3_unpred"
"9038";262;"memory1";"51cm0jqy2l";"many_one";"GSnew";"3";"943.2249999954365";"false";"new";0;"15";"correct";"3_1/GS1"
"9041";265;"memory1";"51cm0jqy2l";"many_one";"CSpred";"3";"887.0900000038091";"false";"old";1;"16";"incorrect";"3_1/CS8_pred"
"9044";268;"memory1";"51cm0jqy2l";"many_one";"distractor";NA;"758.4550000028685";"false";"new";0;"17";"correct";"distractor_1/dis3"
"9047";271;"memory1";"51cm0jqy2l";"many_one";"CSnonpred";"4";"887.0600000008708";"false";"new";0;"18";"correct";"4_1/CS1_unpred"
"9050";274;"memory1";"51cm0jqy2l";"many_one";"CS";"3";"918.53500000434";"false";"old";1;"19";"correct";"3_1/CS8"
"9053";277;"memory1";"51cm0jqy2l";"many_one";"CSpred";"4";"879.0650000009919";"false";"old";1;"20";"incorrect";"4_1/CS1_pred"
"9056";280;"memory1";"51cm0jqy2l";"many_one";"CSnonpred";"3";"871.129999999539";"false";"old";1;"21";"incorrect";"3_1/CS8_unpred"
"9059";283;"memory1";"51cm0jqy2l";"many_one";"GSold";"3";"703.3999999985099";"false";"new";0;"22";"correct";"3_1/CS9"
"9062";286;"memory1";"51cm0jqy2l";"many_one";"distractor";NA;"766.7399999991758";"false";"new";0;"23";"correct";"distractor_1/dis4"
"9344";217;"memory1";"52d6lro21x";"many_one";"GSnew";"2";"null";"true";"miss";NA;"0";"miss";"2_1/GS1"
"9347";220;"memory1";"52d6lro21x";"many_one";"CSpred";"1";"3458";"false";"new";0;"1";"correct";"1_1/CS5_pred"
"9350";223;"memory1";"52d6lro21x";"many_one";"distractor";NA;"2307";"false";"new";0;"2";"correct";"distractor_1/dis3"
"9353";226;"memory1";"52d6lro21x";"many_one";"GSold";"3";"1427";"false";"old";1;"3";"incorrect";"3_1/CS2"
"9356";229;"memory1";"52d6lro21x";"many_one";"CSnonpred";"3";"1652";"false";"old";1;"4";"incorrect";"3_1/CS7_unpred"
"9359";232;"memory1";"52d6lro21x";"many_one";"CSnonpred";"2";"2297";"false";"old";1;"5";"incorrect";"2_1/CS6_unpred"
"9362";235;"memory1";"52d6lro21x";"many_one";"CS";"3";"2228";"false";"old";1;"6";"correct";"3_1/CS7"
"9365";238;"memory1";"52d6lro21x";"many_one";"CS";"4";"1796";"false";"old";1;"7";"correct";"4_1/CS1"
"9368";241;"memory1";"52d6lro21x";"many_one";"distractor";NA;"null";"true";"miss";NA;"8";"miss";"distractor_1/dis1"
"9371";244;"memory1";"52d6lro21x";"many_one";"GSnew";"3";"1449";"false";"new";0;"9";"correct";"3_1/GS1"
"9374";247;"memory1";"52d6lro21x";"many_one";"CSpred";"4";"1422";"false";"old";1;"10";"incorrect";"4_1/CS1_pred"
"9377";250;"memory1";"52d6lro21x";"many_one";"GSnew";"1";"1878";"false";"new";0;"11";"correct";"1_1/GS1"
"9380";253;"memory1";"52d6lro21x";"many_one";"CSpred";"3";"1773";"false";"old";1;"12";"incorrect";"3_1/CS7_pred"
"9383";256;"memory1";"52d6lro21x";"many_one";"CS";"2";"1204";"false";"old";1;"13";"correct";"2_1/CS6"
"9386";259;"memory1";"52d6lro21x";"many_one";"distractor";NA;"1879";"false";"new";0;"14";"correct";"distractor_1/dis4"
"9389";262;"memory1";"52d6lro21x";"many_one";"CS";"1";"1569";"false";"old";1;"15";"correct";"1_1/CS5"
"9392";265;"memory1";"52d6lro21x";"many_one";"GSold";"2";"1211";"false";"old";1;"16";"incorrect";"2_1/CS2"
"9395";268;"memory1";"52d6lro21x";"many_one";"CSnonpred";"4";"1435";"false";"new";0;"17";"correct";"4_1/CS1_unpred"
"9398";271;"memory1";"52d6lro21x";"many_one";"CSnonpred";"1";"1912";"false";"old";1;"18";"incorrect";"1_1/CS5_unpred"
"9401";274;"memory1";"52d6lro21x";"many_one";"CSpred";"2";"1415";"false";"old";1;"19";"incorrect";"2_1/CS6_pred"
"9404";277;"memory1";"52d6lro21x";"many_one";"GSold";"4";"1723";"false";"old";1;"20";"incorrect";"4_1/CS9"
"9407";280;"memory1";"52d6lro21x";"many_one";"GSnew";"4";"1785";"false";"old";1;"21";"incorrect";"4_1/GS1"
"9410";283;"memory1";"52d6lro21x";"many_one";"GSold";"1";"1638";"false";"new";0;"22";"correct";"1_1/CS10"
"9413";286;"memory1";"52d6lro21x";"many_one";"distractor";NA;"2058";"false";"new";0;"23";"correct";"distractor_1/dis2"
"9695";217;"memory1";"566brjvjjf";"many_one";"GSnew";"4";"1617.9350000001723";"false";"old";1;"0";"incorrect";"4_1/GS1"
"9698";220;"memory1";"566brjvjjf";"many_one";"CS";"1";"1203.7099999998463";"false";"old";1;"1";"correct";"1_1/CS2"
"9701";223;"memory1";"566brjvjjf";"many_one";"GSnew";"2";"935.1750000005122";"false";"new";0;"2";"correct";"2_1/GS1"
"9704";226;"memory1";"566brjvjjf";"many_one";"CSpred";"2";"442.63499999942724";"false";"new";0;"3";"correct";"2_1/CS8_pred"
"9707";229;"memory1";"566brjvjjf";"many_one";"GSold";"2";"938.3099999995902";"false";"new";0;"4";"correct";"2_1/CS2"
"9710";232;"memory1";"566brjvjjf";"many_one";"distractor";NA;"918.479999998468";"false";"new";0;"5";"correct";"distractor_1/dis1"
"9713";235;"memory1";"566brjvjjf";"many_one";"CS";"4";"753.9800000013784";"false";"old";1;"6";"correct";"4_1/CS10"
"9716";238;"memory1";"566brjvjjf";"many_one";"GSnew";"1";"699.1649999999208";"false";"new";0;"7";"correct";"1_1/GS1"
"9719";241;"memory1";"566brjvjjf";"many_one";"GSnew";"3";"623.3400000000838";"false";"new";0;"8";"correct";"3_1/GS1"
"9722";244;"memory1";"566brjvjjf";"many_one";"CSnonpred";"4";"811.2250000013737";"false";"old";1;"9";"incorrect";"4_1/CS10_unpred"
"9725";247;"memory1";"566brjvjjf";"many_one";"GSold";"4";"688.0000000001164";"false";"new";0;"10";"correct";"4_1/CS8"
"9728";250;"memory1";"566brjvjjf";"many_one";"CS";"2";"743.2550000011688";"false";"old";1;"11";"correct";"2_1/CS8"
"9731";253;"memory1";"566brjvjjf";"many_one";"GSold";"1";"583.6499999987427";"false";"new";0;"12";"correct";"1_1/CS6"
"9734";256;"memory1";"566brjvjjf";"many_one";"CSpred";"4";"626.6049999995157";"false";"old";1;"13";"incorrect";"4_1/CS10_pred"
"9737";259;"memory1";"566brjvjjf";"many_one";"CSpred";"1";"671.6300000008196";"false";"new";0;"14";"correct";"1_1/CS2_pred"
"9740";262;"memory1";"566brjvjjf";"many_one";"distractor";NA;"793.9549999991432";"false";"new";0;"15";"correct";"distractor_1/dis2"
"9743";265;"memory1";"566brjvjjf";"many_one";"distractor";NA;"588.6250000003492";"false";"old";1;"16";"incorrect";"distractor_1/dis3"
"9746";268;"memory1";"566brjvjjf";"many_one";"CSnonpred";"1";"898.2400000003399";"false";"new";0;"17";"correct";"1_1/CS2_unpred"
"9749";271;"memory1";"566brjvjjf";"many_one";"distractor";NA;"894.6800000012154";"false";"new";0;"18";"correct";"distractor_1/dis4"
"9752";274;"memory1";"566brjvjjf";"many_one";"CS";"3";"892.3350000004284";"false";"old";1;"19";"correct";"3_1/CS2"
"9755";277;"memory1";"566brjvjjf";"many_one";"CSnonpred";"2";"1154.7300000002142";"false";"old";1;"20";"incorrect";"2_1/CS8_unpred"
"9758";280;"memory1";"566brjvjjf";"many_one";"GSold";"3";"825.7199999989243";"false";"old";1;"21";"incorrect";"3_1/CS3"
"9761";283;"memory1";"566brjvjjf";"many_one";"CSnonpred";"3";"640.359999999404";"false";"old";1;"22";"incorrect";"3_1/CS2_unpred"
"9764";286;"memory1";"566brjvjjf";"many_one";"CSpred";"3";"926.6349999998929";"false";"old";1;"23";"incorrect";"3_1/CS2_pred"
"10046";217;"memory1";"5qmdrnr678";"many_one";"distractor";NA;"2973.5399999917718";"false";"new";0;"0";"correct";"distractor_1/dis3"
"10049";220;"memory1";"5qmdrnr678";"many_one";"GSold";"4";"1642.0800000050804";"false";"old";1;"1";"incorrect";"4_1/CS3"
"10052";223;"memory1";"5qmdrnr678";"many_one";"CSnonpred";"2";"1023.2300000061514";"false";"old";1;"2";"incorrect";"2_1/CS3_unpred"
"10055";226;"memory1";"5qmdrnr678";"many_one";"CSpred";"4";"1447.7849999966566";"false";"old";1;"3";"incorrect";"4_1/CS5_pred"
"10058";229;"memory1";"5qmdrnr678";"many_one";"GSold";"3";"1042.7749999944353";"false";"new";0;"4";"correct";"3_1/CS10"
"10061";232;"memory1";"5qmdrnr678";"many_one";"CSpred";"1";"901.480000000447";"false";"new";0;"5";"correct";"1_1/CS1_pred"
"10064";235;"memory1";"5qmdrnr678";"many_one";"distractor";NA;"1577.0300000003772";"false";"new";0;"6";"correct";"distractor_1/dis1"
"10067";238;"memory1";"5qmdrnr678";"many_one";"CSnonpred";"1";"869.5699999952922";"false";"new";0;"7";"correct";"1_1/CS1_unpred"
"10070";241;"memory1";"5qmdrnr678";"many_one";"CS";"3";"1064.6799999958603";"false";"new";0;"8";"incorrect";"3_1/CS4"
"10073";244;"memory1";"5qmdrnr678";"many_one";"GSold";"2";"1311.375000004773";"false";"new";0;"9";"correct";"2_1/CS10"
"10076";247;"memory1";"5qmdrnr678";"many_one";"CSnonpred";"3";"655.5349999980535";"false";"old";1;"10";"incorrect";"3_1/CS4_unpred"
"10079";250;"memory1";"5qmdrnr678";"many_one";"CSpred";"2";"878.564999991795";"false";"old";1;"11";"incorrect";"2_1/CS3_pred"
"10082";253;"memory1";"5qmdrnr678";"many_one";"CSpred";"3";"2427.994999990915";"false";"old";1;"12";"incorrect";"3_1/CS4_pred"
"10085";256;"memory1";"5qmdrnr678";"many_one";"GSnew";"1";"674.4100000069011";"false";"new";0;"13";"correct";"1_1/GS1"
"10088";259;"memory1";"5qmdrnr678";"many_one";"CS";"2";"1017.2650000022259";"false";"old";1;"14";"correct";"2_1/CS3"
"10091";262;"memory1";"5qmdrnr678";"many_one";"GSnew";"3";"811.1700000008568";"false";"new";0;"15";"correct";"3_1/GS1"
"10094";265;"memory1";"5qmdrnr678";"many_one";"GSold";"1";"1007.6249999983702";"false";"new";0;"16";"correct";"1_1/CS3"
"10097";268;"memory1";"5qmdrnr678";"many_one";"distractor";NA;"1021.5299999981653";"false";"new";0;"17";"correct";"distractor_1/dis4"
"10100";271;"memory1";"5qmdrnr678";"many_one";"GSnew";"2";"1037.4449999944773";"false";"new";0;"18";"correct";"2_1/GS1"
"10103";274;"memory1";"5qmdrnr678";"many_one";"CS";"1";"772.1650000021327";"false";"new";0;"19";"incorrect";"1_1/CS1"
"10106";277;"memory1";"5qmdrnr678";"many_one";"CSnonpred";"4";"774.585000006482";"false";"old";1;"20";"incorrect";"4_1/CS5_unpred"
"10109";280;"memory1";"5qmdrnr678";"many_one";"distractor";NA;"975.6300000008196";"false";"new";0;"21";"correct";"distractor_1/dis2"
"10112";283;"memory1";"5qmdrnr678";"many_one";"CS";"4";"908.4850000072038";"false";"old";1;"22";"correct";"4_1/CS5"
"10115";286;"memory1";"5qmdrnr678";"many_one";"GSnew";"4";"1264.1750000038883";"false";"new";0;"23";"correct";"4_1/GS1"
"11450";217;"memory1";"7wwk3b43yt";"many_fill";"GSold";"2";"3088.469999958761";"false";"new";0;"0";"correct";"2_1/CS9"
"11453";220;"memory1";"7wwk3b43yt";"many_fill";"CS";"1";"892.0549999456853";"false";"old";1;"1";"correct";"1_1/CS10"
"11456";223;"memory1";"7wwk3b43yt";"many_fill";"CSpred";"4";"781.1300000175834";"false";"old";1;"2";"incorrect";"4_1/CS10_pred"
"11459";226;"memory1";"7wwk3b43yt";"many_fill";"CSnonpred";"1";"862.1049999492243";"false";"new";0;"3";"correct";"1_1/CS10_unpred"
"11462";229;"memory1";"7wwk3b43yt";"many_fill";"GSnew";"1";"866.8499999912456";"false";"new";0;"4";"correct";"1_1/GS1"
"11465";232;"memory1";"7wwk3b43yt";"many_fill";"CSnonpred";"2";"1050.4249999066815";"false";"new";0;"5";"correct";"2_1/CS3_unpred"
"11468";235;"memory1";"7wwk3b43yt";"many_fill";"distractor";NA;"1065.3000000165775";"false";"new";0;"6";"correct";"distractor_1/dis1"
"11471";238;"memory1";"7wwk3b43yt";"many_fill";"CSpred";"2";"830.2550000371411";"false";"old";1;"7";"incorrect";"2_1/CS3_pred"
"11474";241;"memory1";"7wwk3b43yt";"many_fill";"GSnew";"2";"1511.144999996759";"false";"new";0;"8";"correct";"2_1/GS1"
"11477";244;"memory1";"7wwk3b43yt";"many_fill";"CS";"3";"1111.945000011474";"false";"old";1;"9";"correct";"3_1/CS9"
"11480";247;"memory1";"7wwk3b43yt";"many_fill";"CSnonpred";"4";"639.3900000257418";"false";"old";1;"10";"incorrect";"4_1/CS10_unpred"
"11483";250;"memory1";"7wwk3b43yt";"many_fill";"CS";"2";"784.8650000523776";"false";"old";1;"11";"correct";"2_1/CS3"
"11486";253;"memory1";"7wwk3b43yt";"many_fill";"distractor";NA;"962.6350000035018";"false";"new";0;"12";"correct";"distractor_1/dis3"
"11489";256;"memory1";"7wwk3b43yt";"many_fill";"GSnew";"3";"898.6099999165162";"false";"new";0;"13";"correct";"3_1/GS1"
"11492";259;"memory1";"7wwk3b43yt";"many_fill";"distractor";NA;"958.5649999789894";"false";"new";0;"14";"correct";"distractor_1/dis4"
"11495";262;"memory1";"7wwk3b43yt";"many_fill";"GSold";"4";"838.7799999909475";"false";"old";1;"15";"incorrect";"4_1/CS1"
"11498";265;"memory1";"7wwk3b43yt";"many_fill";"distractor";NA;"745.3499999828637";"false";"new";0;"16";"correct";"distractor_1/dis2"
"11501";268;"memory1";"7wwk3b43yt";"many_fill";"CSpred";"1";"719.370000064373";"false";"old";1;"17";"incorrect";"1_1/CS10_pred"
"11504";271;"memory1";"7wwk3b43yt";"many_fill";"GSold";"1";"1064.505000016652";"false";"new";0;"18";"correct";"1_1/CS7"
"11507";274;"memory1";"7wwk3b43yt";"many_fill";"CSpred";"3";"801.5149999409914";"false";"old";1;"19";"incorrect";"3_1/CS9_pred"
"11510";277;"memory1";"7wwk3b43yt";"many_fill";"CS";"4";"684.2199999373406";"false";"old";1;"20";"correct";"4_1/CS10"
"11513";280;"memory1";"7wwk3b43yt";"many_fill";"GSold";"3";"1849.2799999658018";"false";"new";0;"21";"correct";"3_1/CS6"
"11516";283;"memory1";"7wwk3b43yt";"many_fill";"CSnonpred";"3";"848.5700000310317";"false";"old";1;"22";"incorrect";"3_1/CS9_unpred"
"11519";286;"memory1";"7wwk3b43yt";"many_fill";"GSnew";"4";"1717.145000002347";"false";"new";0;"23";"correct";"4_1/GS1"
"11801";217;"memory1";"7y8fx48gtn";"many_one";"CSpred";"1";"1615.010000008624";"false";"new";0;"0";"correct";"1_1/CS10_pred"
"11804";220;"memory1";"7y8fx48gtn";"many_one";"distractor";NA;"1245.1050000090618";"false";"new";0;"1";"correct";"distractor_1/dis1"
"11807";223;"memory1";"7y8fx48gtn";"many_one";"distractor";NA;"1030.3649999841582";"false";"old";1;"2";"incorrect";"distractor_1/dis2"
"11810";226;"memory1";"7y8fx48gtn";"many_one";"GSnew";"4";"940.9949999826495";"false";"new";0;"3";"correct";"4_1/GS1"
"11813";229;"memory1";"7y8fx48gtn";"many_one";"GSold";"3";"770.63499999349";"false";"old";1;"4";"incorrect";"3_1/CS2"
"11816";232;"memory1";"7y8fx48gtn";"many_one";"GSold";"1";"970.2500000130385";"false";"old";1;"5";"incorrect";"1_1/CS3"
"11819";235;"memory1";"7y8fx48gtn";"many_one";"CSnonpred";"4";"775.2150000014808";"false";"old";1;"6";"incorrect";"4_1/CS10_unpred"
"11822";238;"memory1";"7y8fx48gtn";"many_one";"CSpred";"3";"825.8100000093691";"false";"old";1;"7";"incorrect";"3_1/CS8_pred"
"11825";241;"memory1";"7y8fx48gtn";"many_one";"CSnonpred";"1";"732.9450000252109";"false";"old";1;"8";"incorrect";"1_1/CS10_unpred"
"11828";244;"memory1";"7y8fx48gtn";"many_one";"distractor";NA;"990.0949999864679";"false";"old";1;"9";"incorrect";"distractor_1/dis4"
"11831";247;"memory1";"7y8fx48gtn";"many_one";"GSold";"4";"1389.2099999939092";"false";"old";1;"10";"incorrect";"4_1/CS9"
"11834";250;"memory1";"7y8fx48gtn";"many_one";"CS";"3";"1044.9199999857228";"false";"old";1;"11";"correct";"3_1/CS8"
"11837";253;"memory1";"7y8fx48gtn";"many_one";"CSpred";"4";"802.6900000113528";"false";"old";1;"12";"incorrect";"4_1/CS10_pred"
"11840";256;"memory1";"7y8fx48gtn";"many_one";"CS";"1";"765.2649999945424";"false";"old";1;"13";"correct";"1_1/CS10"
"11843";259;"memory1";"7y8fx48gtn";"many_one";"CSpred";"2";"1043.485000001965";"false";"old";1;"14";"incorrect";"2_1/CS4_pred"
"11846";262;"memory1";"7y8fx48gtn";"many_one";"GSnew";"1";"1236.8200000200886";"false";"new";0;"15";"correct";"1_1/GS1"
"11849";265;"memory1";"7y8fx48gtn";"many_one";"CS";"4";"588.9749999914784";"false";"old";1;"16";"correct";"4_1/CS10"
"11852";268;"memory1";"7y8fx48gtn";"many_one";"CSnonpred";"3";"842.0250000199303";"false";"old";1;"17";"incorrect";"3_1/CS8_unpred"
"11855";271;"memory1";"7y8fx48gtn";"many_one";"GSnew";"3";"1127.3799999908078";"false";"old";1;"18";"incorrect";"3_1/GS1"
"11858";274;"memory1";"7y8fx48gtn";"many_one";"CSnonpred";"2";"760.7650000136346";"false";"old";1;"19";"incorrect";"2_1/CS4_unpred"
"11861";277;"memory1";"7y8fx48gtn";"many_one";"GSold";"2";"1039.8600000189617";"false";"old";1;"20";"incorrect";"2_1/CS8"
"11864";280;"memory1";"7y8fx48gtn";"many_one";"CS";"2";"765.095000009751";"false";"old";1;"21";"correct";"2_1/CS4"
"11867";283;"memory1";"7y8fx48gtn";"many_one";"distractor";NA;"953.2400000025518";"false";"new";0;"22";"correct";"distractor_1/dis3"
"11870";286;"memory1";"7y8fx48gtn";"many_one";"GSnew";"2";"1639.5250000059605";"false";"new";0;"23";"correct";"2_1/GS1"
"12503";217;"memory1";"7z33uxwdw1";"many_fill";"distractor";NA;"null";"true";"miss";NA;"0";"miss";"distractor_1/dis3"
"12506";220;"memory1";"7z33uxwdw1";"many_fill";"CS";"1";"null";"true";"miss";NA;"1";"miss";"1_1/CS6"
"12509";223;"memory1";"7z33uxwdw1";"many_fill";"CSnonpred";"1";"null";"true";"miss";NA;"2";"miss";"1_1/CS6_unpred"
"12512";226;"memory1";"7z33uxwdw1";"many_fill";"GSold";"1";"1039.4100000010803";"false";"old";1;"3";"incorrect";"1_1/CS8"
"12515";229;"memory1";"7z33uxwdw1";"many_fill";"CSpred";"2";"1672.840000002645";"false";"old";1;"4";"incorrect";"2_1/CS8_pred"
"12518";232;"memory1";"7z33uxwdw1";"many_fill";"CSpred";"3";"1558.8349999999627";"false";"old";1;"5";"incorrect";"3_1/CS5_pred"
"12521";235;"memory1";"7z33uxwdw1";"many_fill";"distractor";NA;"1607.4350000019185";"false";"old";1;"6";"incorrect";"distractor_1/dis2"
"12524";238;"memory1";"7z33uxwdw1";"many_fill";"CSnonpred";"2";"1318.6400000015274";"false";"old";1;"7";"incorrect";"2_1/CS8_unpred"
"12527";241;"memory1";"7z33uxwdw1";"many_fill";"GSnew";"4";"1669.9999999981374";"false";"old";1;"8";"incorrect";"4_1/GS1"
"12530";244;"memory1";"7z33uxwdw1";"many_fill";"CSnonpred";"4";"1922.4699999978766";"false";"old";1;"9";"incorrect";"4_1/CS8_unpred"
"12533";247;"memory1";"7z33uxwdw1";"many_fill";"GSold";"3";"1256.2849999992177";"false";"old";1;"10";"incorrect";"3_1/CS3"
"12536";250;"memory1";"7z33uxwdw1";"many_fill";"distractor";NA;"2057.3050000020303";"false";"new";0;"11";"correct";"distractor_1/dis1"
"12539";253;"memory1";"7z33uxwdw1";"many_fill";"distractor";NA;"1769.244999999646";"false";"old";1;"12";"incorrect";"distractor_1/dis4"
"12542";256;"memory1";"7z33uxwdw1";"many_fill";"GSold";"4";"1992.7750000022352";"false";"old";1;"13";"incorrect";"4_1/CS1"
"12545";259;"memory1";"7z33uxwdw1";"many_fill";"GSold";"2";"1137.5050000026822";"false";"new";0;"14";"correct";"2_1/CS2"
"12548";262;"memory1";"7z33uxwdw1";"many_fill";"CS";"3";"1267.1249999981374";"false";"old";1;"15";"correct";"3_1/CS5"
"12551";265;"memory1";"7z33uxwdw1";"many_fill";"CSpred";"1";"1950.219999998808";"false";"old";1;"16";"incorrect";"1_1/CS6_pred"
"12554";268;"memory1";"7z33uxwdw1";"many_fill";"CS";"4";"1326.4599999999627";"false";"old";1;"17";"correct";"4_1/CS8"
"12557";271;"memory1";"7z33uxwdw1";"many_fill";"CSnonpred";"3";"1067.3399999975227";"false";"old";1;"18";"incorrect";"3_1/CS5_unpred"
"12560";274;"memory1";"7z33uxwdw1";"many_fill";"GSnew";"3";"886.3799999998882";"false";"old";1;"19";"incorrect";"3_1/GS1"
"12563";277;"memory1";"7z33uxwdw1";"many_fill";"CSpred";"4";"1055.609999999404";"false";"old";1;"20";"incorrect";"4_1/CS8_pred"
"12566";280;"memory1";"7z33uxwdw1";"many_fill";"GSnew";"1";"1330.3850000011735";"false";"new";0;"21";"correct";"1_1/GS1"
"12569";283;"memory1";"7z33uxwdw1";"many_fill";"CS";"2";"1134.714999999851";"false";"old";1;"22";"correct";"2_1/CS8"
"12572";286;"memory1";"7z33uxwdw1";"many_fill";"GSnew";"2";"1314.5100000002421";"false";"new";0;"23";"correct";"2_1/GS1"
"12854";217;"memory1";"89zcx0q07p";"one_one";"distractor";NA;"986.7450000019744";"false";"new";0;"0";"correct";"distractor_1/dis2"
"12857";220;"memory1";"89zcx0q07p";"one_one";"CSnonpred";"3";"810.5249999789521";"false";"old";1;"1";"incorrect";"3_1/CS5_unpred"
"12860";223;"memory1";"89zcx0q07p";"one_one";"GSnew";"2";"1453.4200000343844";"false";"new";0;"2";"correct";"2_1/GS1"
"12863";226;"memory1";"89zcx0q07p";"one_one";"distractor";NA;"743.8949999632314";"false";"new";0;"3";"correct";"distractor_1/dis3"
"12866";229;"memory1";"89zcx0q07p";"one_one";"CSpred";"1";"886.7549999849871";"false";"old";1;"4";"incorrect";"1_1/CS4_pred"
"12869";232;"memory1";"89zcx0q07p";"one_one";"CSpred";"3";"1031.604999967385";"false";"new";0;"5";"correct";"3_1/CS5_pred"
"12872";235;"memory1";"89zcx0q07p";"one_one";"GSold";"4";"842.5649999990128";"false";"new";0;"6";"correct";"4_1/CS9"
"12875";238;"memory1";"89zcx0q07p";"one_one";"CSpred";"2";"975.3100000089034";"false";"old";1;"7";"incorrect";"2_1/CS9_pred"
"12878";241;"memory1";"89zcx0q07p";"one_one";"CSpred";"4";"997.7300000027753";"false";"old";1;"8";"incorrect";"4_1/CS2_pred"
"12881";244;"memory1";"89zcx0q07p";"one_one";"GSold";"1";"765.7899999758229";"false";"new";0;"9";"correct";"1_1/CS6"
"12884";247;"memory1";"89zcx0q07p";"one_one";"GSnew";"4";"719.455000013113";"false";"new";0;"10";"correct";"4_1/GS1"
"12887";250;"memory1";"89zcx0q07p";"one_one";"CSnonpred";"1";"null";"true";"miss";NA;"11";"miss";"1_1/CS4_unpred"
"12890";253;"memory1";"89zcx0q07p";"one_one";"GSnew";"1";"816.1700000055134";"false";"new";0;"12";"correct";"1_1/GS1"
"12893";256;"memory1";"89zcx0q07p";"one_one";"CS";"4";"808.2799999974668";"false";"old";1;"13";"correct";"4_1/CS2"
"12896";259;"memory1";"89zcx0q07p";"one_one";"CS";"2";"1078.4700000076555";"false";"old";1;"14";"correct";"2_1/CS9"
"12899";262;"memory1";"89zcx0q07p";"one_one";"distractor";NA;"731.9550000247546";"false";"new";0;"15";"correct";"distractor_1/dis1"
"12902";265;"memory1";"89zcx0q07p";"one_one";"GSnew";"3";"647.2850000136532";"false";"new";0;"16";"correct";"3_1/GS1"
"12905";268;"memory1";"89zcx0q07p";"one_one";"distractor";NA;"691.0700000007637";"false";"new";0;"17";"correct";"distractor_1/dis4"
"12908";271;"memory1";"89zcx0q07p";"one_one";"CSnonpred";"4";"1357.8850000048988";"false";"new";0;"18";"correct";"4_1/CS2_unpred"
"12911";274;"memory1";"89zcx0q07p";"one_one";"GSold";"2";"712.1599999954924";"false";"new";0;"19";"correct";"2_1/CS8"
"12914";277;"memory1";"89zcx0q07p";"one_one";"CS";"1";"1187.3500000219792";"false";"old";1;"20";"correct";"1_1/CS4"
"12917";280;"memory1";"89zcx0q07p";"one_one";"CSnonpred";"2";"1233.8800000143237";"false";"old";1;"21";"incorrect";"2_1/CS9_unpred"
"12920";283;"memory1";"89zcx0q07p";"one_one";"GSold";"3";"754.0900000021793";"false";"new";0;"22";"correct";"3_1/CS10"
"12923";286;"memory1";"89zcx0q07p";"one_one";"CS";"3";"801.4800000237301";"false";"old";1;"23";"correct";"3_1/CS5"
"13205";217;"memory1";"8d3rn7jk9e";"one_one";"CS";"3";"2673.6700001638383";"false";"old";1;"0";"correct";"3_1/CS8"
"13208";220;"memory1";"8d3rn7jk9e";"one_one";"CSnonpred";"3";"646.5799999423325";"false";"old";1;"1";"incorrect";"3_1/CS8_unpred"
"13211";223;"memory1";"8d3rn7jk9e";"one_one";"GSold";"2";"916.9099999126047";"false";"new";0;"2";"correct";"2_1/CS5"
"13214";226;"memory1";"8d3rn7jk9e";"one_one";"GSnew";"1";"791.3649999536574";"false";"new";0;"3";"correct";"1_1/GS1"
"13217";229;"memory1";"8d3rn7jk9e";"one_one";"CSnonpred";"1";"709.9500000476837";"false";"old";1;"4";"incorrect";"1_1/CS9_unpred"
"13220";232;"memory1";"8d3rn7jk9e";"one_one";"distractor";NA;"746.7700000852346";"false";"new";0;"5";"correct";"distractor_1/dis2"
"13223";235;"memory1";"8d3rn7jk9e";"one_one";"GSold";"1";"610.1850001141429";"false";"new";0;"6";"correct";"1_1/CS10"
"13226";238;"memory1";"8d3rn7jk9e";"one_one";"distractor";NA;"679.8799999523908";"false";"new";0;"7";"correct";"distractor_1/dis3"
"13229";241;"memory1";"8d3rn7jk9e";"one_one";"GSnew";"3";"610.249999910593";"false";"new";0;"8";"correct";"3_1/GS1"
"13232";244;"memory1";"8d3rn7jk9e";"one_one";"CS";"4";"574.3050000164658";"false";"old";1;"9";"correct";"4_1/CS3"
"13235";247;"memory1";"8d3rn7jk9e";"one_one";"CSnonpred";"4";"1087.9949999507517";"false";"new";0;"10";"correct";"4_1/CS3_unpred"
"13238";250;"memory1";"8d3rn7jk9e";"one_one";"CSpred";"4";"881.2450000550598";"false";"old";1;"11";"incorrect";"4_1/CS3_pred"
"13241";253;"memory1";"8d3rn7jk9e";"one_one";"CS";"1";"731.9249999709427";"false";"old";1;"12";"correct";"1_1/CS9"
"13244";256;"memory1";"8d3rn7jk9e";"one_one";"GSold";"4";"728.995000012219";"false";"new";0;"13";"correct";"4_1/CS6"
"13247";259;"memory1";"8d3rn7jk9e";"one_one";"GSnew";"2";"658.6349999997765";"false";"new";0;"14";"correct";"2_1/GS1"
"13250";262;"memory1";"8d3rn7jk9e";"one_one";"CSpred";"2";"750.4099998623133";"false";"old";1;"15";"incorrect";"2_1/CS1_pred"
"13253";265;"memory1";"8d3rn7jk9e";"one_one";"GSnew";"4";"575.209999922663";"false";"new";0;"16";"correct";"4_1/GS1"
"13256";268;"memory1";"8d3rn7jk9e";"one_one";"CSpred";"3";"998.09499992989";"false";"old";1;"17";"incorrect";"3_1/CS8_pred"
"13259";271;"memory1";"8d3rn7jk9e";"one_one";"CSnonpred";"2";"1269.3250000011176";"false";"old";1;"18";"incorrect";"2_1/CS1_unpred"
"13262";274;"memory1";"8d3rn7jk9e";"one_one";"distractor";NA;"676.2650001328439";"false";"new";0;"19";"correct";"distractor_1/dis1"
"13265";277;"memory1";"8d3rn7jk9e";"one_one";"CS";"2";"747.8750001173466";"false";"old";1;"20";"correct";"2_1/CS1"
"13268";280;"memory1";"8d3rn7jk9e";"one_one";"GSold";"3";"1066.069999942556";"false";"new";0;"21";"correct";"3_1/CS3"
"13271";283;"memory1";"8d3rn7jk9e";"one_one";"distractor";NA;"635.3599999565631";"false";"new";0;"22";"correct";"distractor_1/dis4"
"13274";286;"memory1";"8d3rn7jk9e";"one_one";"CSpred";"1";"1308.5450001526624";"false";"old";1;"23";"incorrect";"1_1/CS9_pred"
"13556";217;"memory1";"8kamurgyts";"many_one";"CSnonpred";"4";"2943";"false";"new";0;"0";"correct";"4_1/CS1_unpred"
"13559";220;"memory1";"8kamurgyts";"many_one";"CS";"1";"null";"true";"miss";NA;"1";"miss";"1_1/CS7"
"13562";223;"memory1";"8kamurgyts";"many_one";"GSold";"2";"1028";"false";"new";0;"2";"correct";"2_1/CS9"
"13565";226;"memory1";"8kamurgyts";"many_one";"distractor";NA;"996";"false";"new";0;"3";"correct";"distractor_1/dis1"
"13568";229;"memory1";"8kamurgyts";"many_one";"CSnonpred";"1";"1129";"false";"new";0;"4";"correct";"1_1/CS7_unpred"
"13571";232;"memory1";"8kamurgyts";"many_one";"GSnew";"4";"928";"false";"new";0;"5";"correct";"4_1/GS1"
"13574";235;"memory1";"8kamurgyts";"many_one";"CS";"4";"1944";"false";"old";1;"6";"correct";"4_1/CS1"
"13577";238;"memory1";"8kamurgyts";"many_one";"GSold";"1";"976";"false";"new";0;"7";"correct";"1_1/CS10"
"13580";241;"memory1";"8kamurgyts";"many_one";"distractor";NA;"934";"false";"new";0;"8";"correct";"distractor_1/dis2"
"13583";244;"memory1";"8kamurgyts";"many_one";"CS";"3";"1217";"false";"old";1;"9";"correct";"3_1/CS3"
"13586";247;"memory1";"8kamurgyts";"many_one";"CSpred";"2";"704";"false";"new";0;"10";"correct";"2_1/CS6_pred"
"13589";250;"memory1";"8kamurgyts";"many_one";"CSpred";"4";"1045";"false";"old";1;"11";"incorrect";"4_1/CS1_pred"
"13592";253;"memory1";"8kamurgyts";"many_one";"CSnonpred";"3";"1040";"false";"old";1;"12";"incorrect";"3_1/CS3_unpred"
"13595";256;"memory1";"8kamurgyts";"many_one";"CSpred";"3";"902";"false";"old";1;"13";"incorrect";"3_1/CS3_pred"
"13598";259;"memory1";"8kamurgyts";"many_one";"GSnew";"3";"1168";"false";"new";0;"14";"correct";"3_1/GS1"
"13601";262;"memory1";"8kamurgyts";"many_one";"GSnew";"1";"1443";"false";"new";0;"15";"correct";"1_1/GS1"
"13604";265;"memory1";"8kamurgyts";"many_one";"CS";"2";"950";"false";"old";1;"16";"correct";"2_1/CS6"
"13607";268;"memory1";"8kamurgyts";"many_one";"CSnonpred";"2";"708";"false";"old";1;"17";"incorrect";"2_1/CS6_unpred"
"13610";271;"memory1";"8kamurgyts";"many_one";"distractor";NA;"1044";"false";"new";0;"18";"correct";"distractor_1/dis4"
"13613";274;"memory1";"8kamurgyts";"many_one";"GSold";"3";"1369";"false";"new";0;"19";"correct";"3_1/CS7"
"13616";277;"memory1";"8kamurgyts";"many_one";"GSold";"4";"1246";"false";"old";1;"20";"incorrect";"4_1/CS6"
"13619";280;"memory1";"8kamurgyts";"many_one";"CSpred";"1";"1421";"false";"new";0;"21";"correct";"1_1/CS7_pred"
"13622";283;"memory1";"8kamurgyts";"many_one";"distractor";NA;"944";"false";"new";0;"22";"correct";"distractor_1/dis3"
"13625";286;"memory1";"8kamurgyts";"many_one";"GSnew";"2";"1213";"false";"new";0;"23";"correct";"2_1/GS1"
"13907";217;"memory1";"8ohfauxu5x";"many_fill";"CSpred";"2";"null";"true";"miss";NA;"0";"miss";"2_1/CS4_pred"
"13910";220;"memory1";"8ohfauxu5x";"many_fill";"distractor";NA;"1444.660000008298";"false";"new";0;"1";"correct";"distractor_1/dis4"
"13913";223;"memory1";"8ohfauxu5x";"many_fill";"CSpred";"1";"990.1150000223424";"false";"new";0;"2";"correct";"1_1/CS6_pred"
"13916";226;"memory1";"8ohfauxu5x";"many_fill";"CSnonpred";"3";"1098.519999999553";"false";"old";1;"3";"incorrect";"3_1/CS10_unpred"
"13919";229;"memory1";"8ohfauxu5x";"many_fill";"CS";"3";"1256.9550000189338";"false";"old";1;"4";"correct";"3_1/CS10"
"13922";232;"memory1";"8ohfauxu5x";"many_fill";"CS";"1";"1676.2850000231992";"false";"new";0;"5";"incorrect";"1_1/CS6"
"13925";235;"memory1";"8ohfauxu5x";"many_fill";"CSnonpred";"4";"2201.9950000103563";"false";"old";1;"6";"incorrect";"4_1/CS3_unpred"
"13928";238;"memory1";"8ohfauxu5x";"many_fill";"CS";"2";"1148.4550000168383";"false";"new";0;"7";"incorrect";"2_1/CS4"
"13931";241;"memory1";"8ohfauxu5x";"many_fill";"GSold";"2";"2495.710000017425";"false";"new";0;"8";"correct";"2_1/CS10"
"13934";244;"memory1";"8ohfauxu5x";"many_fill";"distractor";NA;"1600.670000014361";"false";"new";0;"9";"correct";"distractor_1/dis2"
"13937";247;"memory1";"8ohfauxu5x";"many_fill";"CSpred";"3";"1076.95000001695";"false";"old";1;"10";"incorrect";"3_1/CS10_pred"
"13940";250;"memory1";"8ohfauxu5x";"many_fill";"GSold";"4";"1840.6649999960791";"false";"old";1;"11";"incorrect";"4_1/CS8"
"13943";253;"memory1";"8ohfauxu5x";"many_fill";"GSold";"1";"1451.924999972107";"false";"new";0;"12";"correct";"1_1/CS5"
"13946";256;"memory1";"8ohfauxu5x";"many_fill";"GSnew";"1";"1062.2650000150315";"false";"new";0;"13";"correct";"1_1/GS1"
"13949";259;"memory1";"8ohfauxu5x";"many_fill";"GSnew";"2";"3627.589999989141";"false";"old";1;"14";"incorrect";"2_1/GS1"
"13952";262;"memory1";"8ohfauxu5x";"many_fill";"CS";"4";"2636.140000016894";"false";"old";1;"15";"correct";"4_1/CS3"
"13955";265;"memory1";"8ohfauxu5x";"many_fill";"GSnew";"3";"3162.655000021914";"false";"new";0;"16";"correct";"3_1/GS1"
"13958";268;"memory1";"8ohfauxu5x";"many_fill";"distractor";NA;"1144.655000010971";"false";"new";0;"17";"correct";"distractor_1/dis1"
"13961";271;"memory1";"8ohfauxu5x";"many_fill";"GSnew";"4";"1286.9399999908637";"false";"old";1;"18";"incorrect";"4_1/GS1"
"13964";274;"memory1";"8ohfauxu5x";"many_fill";"distractor";NA;"1049.2549999908078";"false";"new";0;"19";"correct";"distractor_1/dis3"
"13967";277;"memory1";"8ohfauxu5x";"many_fill";"CSnonpred";"1";"1642.0600000128616";"false";"new";0;"20";"correct";"1_1/CS6_unpred"
"13970";280;"memory1";"8ohfauxu5x";"many_fill";"GSold";"3";"905.6200000050012";"false";"new";0;"21";"correct";"3_1/CS4"
"13973";283;"memory1";"8ohfauxu5x";"many_fill";"CSnonpred";"2";"1037.4099999899045";"false";"new";0;"22";"correct";"2_1/CS4_unpred"
"13976";286;"memory1";"8ohfauxu5x";"many_fill";"CSpred";"4";"967.3750000074506";"false";"old";1;"23";"incorrect";"4_1/CS3_pred"
"14258";217;"memory1";"8tklqdnvk2";"many_fill";"GSnew";"2";"1270";"false";"old";1;"0";"incorrect";"2_1/GS1"
"14261";220;"memory1";"8tklqdnvk2";"many_fill";"CS";"2";"2186";"false";"old";1;"1";"correct";"2_1/CS4"
"14264";223;"memory1";"8tklqdnvk2";"many_fill";"CSnonpred";"3";"986";"false";"old";1;"2";"incorrect";"3_1/CS9_unpred"
"14267";226;"memory1";"8tklqdnvk2";"many_fill";"GSold";"3";"921";"false";"old";1;"3";"incorrect";"3_1/CS5"
"14270";229;"memory1";"8tklqdnvk2";"many_fill";"GSold";"2";"1095";"false";"old";1;"4";"incorrect";"2_1/CS2"
"14273";232;"memory1";"8tklqdnvk2";"many_fill";"GSnew";"3";"2762";"false";"old";1;"5";"incorrect";"3_1/GS1"
"14276";235;"memory1";"8tklqdnvk2";"many_fill";"distractor";NA;"2669";"false";"new";0;"6";"correct";"distractor_1/dis2"
"14279";238;"memory1";"8tklqdnvk2";"many_fill";"GSold";"4";"1417";"false";"new";0;"7";"correct";"4_1/CS4"
"14282";241;"memory1";"8tklqdnvk2";"many_fill";"distractor";NA;"1996";"false";"new";0;"8";"correct";"distractor_1/dis3"
"14285";244;"memory1";"8tklqdnvk2";"many_fill";"CSpred";"1";"1327";"false";"old";1;"9";"incorrect";"1_1/CS7_pred"
"14288";247;"memory1";"8tklqdnvk2";"many_fill";"distractor";NA;"1986";"false";"new";0;"10";"correct";"distractor_1/dis1"
"14291";250;"memory1";"8tklqdnvk2";"many_fill";"CSnonpred";"2";"1157";"false";"old";1;"11";"incorrect";"2_1/CS4_unpred"
"14294";253;"memory1";"8tklqdnvk2";"many_fill";"CSnonpred";"4";"964";"false";"old";1;"12";"incorrect";"4_1/CS7_unpred"
"14297";256;"memory1";"8tklqdnvk2";"many_fill";"GSold";"1";"3094";"false";"new";0;"13";"correct";"1_1/CS9"
"14300";259;"memory1";"8tklqdnvk2";"many_fill";"CSpred";"2";"1018";"false";"old";1;"14";"incorrect";"2_1/CS4_pred"
"14303";262;"memory1";"8tklqdnvk2";"many_fill";"CS";"1";"1268";"false";"old";1;"15";"correct";"1_1/CS7"
"14306";265;"memory1";"8tklqdnvk2";"many_fill";"CS";"3";"957";"false";"old";1;"16";"correct";"3_1/CS9"
"14309";268;"memory1";"8tklqdnvk2";"many_fill";"GSnew";"1";"2065";"false";"new";0;"17";"correct";"1_1/GS1"
"14312";271;"memory1";"8tklqdnvk2";"many_fill";"CSnonpred";"1";"1124";"false";"old";1;"18";"incorrect";"1_1/CS7_unpred"
"14315";274;"memory1";"8tklqdnvk2";"many_fill";"CSpred";"3";"761";"false";"old";1;"19";"incorrect";"3_1/CS9_pred"
"14318";277;"memory1";"8tklqdnvk2";"many_fill";"CSpred";"4";"993";"false";"old";1;"20";"incorrect";"4_1/CS7_pred"
"14321";280;"memory1";"8tklqdnvk2";"many_fill";"CS";"4";"1883";"false";"old";1;"21";"correct";"4_1/CS7"
"14324";283;"memory1";"8tklqdnvk2";"many_fill";"GSnew";"4";"3528";"false";"new";0;"22";"correct";"4_1/GS1"
"14327";286;"memory1";"8tklqdnvk2";"many_fill";"distractor";NA;"2666";"false";"new";0;"23";"correct";"distractor_1/dis4"
"14609";217;"memory1";"8u00funta1";"many_one";"GSnew";"3";"1787.9999999998836";"false";"old";1;"0";"incorrect";"3_1/GS1"
"14612";220;"memory1";"8u00funta1";"many_one";"CSnonpred";"3";"1001.0000000001164";"false";"old";1;"1";"incorrect";"3_1/CS8_unpred"
"14615";223;"memory1";"8u00funta1";"many_one";"CSpred";"1";"782";"false";"old";1;"2";"incorrect";"1_1/CS8_pred"
"14618";226;"memory1";"8u00funta1";"many_one";"GSnew";"1";"1013.0000000001164";"false";"new";0;"3";"correct";"1_1/GS1"
"14621";229;"memory1";"8u00funta1";"many_one";"GSnew";"4";"921";"false";"new";0;"4";"correct";"4_1/GS1"
"14624";232;"memory1";"8u00funta1";"many_one";"GSold";"3";"951";"false";"old";1;"5";"incorrect";"3_1/CS9"
"14627";235;"memory1";"8u00funta1";"many_one";"CSpred";"3";"881";"false";"old";1;"6";"incorrect";"3_1/CS8_pred"
"14630";238;"memory1";"8u00funta1";"many_one";"distractor";NA;"1090.0000000001164";"false";"new";0;"7";"correct";"distractor_1/dis3"
"14633";241;"memory1";"8u00funta1";"many_one";"CSnonpred";"2";"789";"false";"old";1;"8";"incorrect";"2_1/CS4_unpred"
"14636";244;"memory1";"8u00funta1";"many_one";"CSpred";"2";"791.9999999998836";"false";"old";1;"9";"incorrect";"2_1/CS4_pred"
"14639";247;"memory1";"8u00funta1";"many_one";"CSnonpred";"1";"832";"false";"old";1;"10";"incorrect";"1_1/CS8_unpred"
"14642";250;"memory1";"8u00funta1";"many_one";"CS";"3";"723";"false";"old";1;"11";"correct";"3_1/CS8"
"14645";253;"memory1";"8u00funta1";"many_one";"GSold";"1";"886";"false";"old";1;"12";"incorrect";"1_1/CS2"
"14648";256;"memory1";"8u00funta1";"many_one";"GSnew";"2";"688";"false";"new";0;"13";"correct";"2_1/GS1"
"14651";259;"memory1";"8u00funta1";"many_one";"CSpred";"4";"641";"false";"old";1;"14";"incorrect";"4_1/CS1_pred"
"14654";262;"memory1";"8u00funta1";"many_one";"CS";"2";"916";"false";"old";1;"15";"correct";"2_1/CS4"
"14657";265;"memory1";"8u00funta1";"many_one";"CS";"1";"690.0000000001164";"false";"old";1;"16";"correct";"1_1/CS8"
"14660";268;"memory1";"8u00funta1";"many_one";"GSold";"2";"791";"false";"old";1;"17";"incorrect";"2_1/CS6"
"14663";271;"memory1";"8u00funta1";"many_one";"distractor";NA;"927";"false";"new";0;"18";"correct";"distractor_1/dis2"
"14666";274;"memory1";"8u00funta1";"many_one";"CS";"4";"626";"false";"old";1;"19";"correct";"4_1/CS1"
"14669";277;"memory1";"8u00funta1";"many_one";"CSnonpred";"4";"1357.9999999998836";"false";"new";0;"20";"correct";"4_1/CS1_unpred"
"14672";280;"memory1";"8u00funta1";"many_one";"GSold";"4";"882.9999999998836";"false";"old";1;"21";"incorrect";"4_1/CS9"
"14675";283;"memory1";"8u00funta1";"many_one";"distractor";NA;"787.0000000001164";"false";"old";1;"22";"incorrect";"distractor_1/dis4"
"14678";286;"memory1";"8u00funta1";"many_one";"distractor";NA;"856";"false";"new";0;"23";"correct";"distractor_1/dis1"
"14960";217;"memory1";"93cnnb8ppd";"many_fill";"GSold";"4";"1831.6150000027847";"false";"new";0;"0";"correct";"4_1/CS3"
"14963";220;"memory1";"93cnnb8ppd";"many_fill";"CSpred";"4";"922.2699999954784";"false";"old";1;"1";"incorrect";"4_1/CS2_pred"
"14966";223;"memory1";"93cnnb8ppd";"many_fill";"GSold";"2";"756.5150000010617";"false";"old";1;"2";"incorrect";"2_1/CS1"
"14969";226;"memory1";"93cnnb8ppd";"many_fill";"GSnew";"3";"737.1149999962654";"false";"new";0;"3";"correct";"3_1/GS1"
"14972";229;"memory1";"93cnnb8ppd";"many_fill";"CS";"4";"461.06999999750406";"false";"old";1;"4";"correct";"4_1/CS2"
"14975";232;"memory1";"93cnnb8ppd";"many_fill";"CSpred";"3";"410.8349999951897";"false";"old";1;"5";"incorrect";"3_1/CS3_pred"
"14978";235;"memory1";"93cnnb8ppd";"many_fill";"CS";"3";"635.1300000024494";"false";"new";0;"6";"incorrect";"3_1/CS3"
"14981";238;"memory1";"93cnnb8ppd";"many_fill";"distractor";NA;"604.0849999990314";"false";"new";0;"7";"correct";"distractor_1/dis1"
"14984";241;"memory1";"93cnnb8ppd";"many_fill";"CSnonpred";"2";"389.5550000015646";"false";"old";1;"8";"incorrect";"2_1/CS8_unpred"
"14987";244;"memory1";"93cnnb8ppd";"many_fill";"GSnew";"4";"547.1800000013318";"false";"new";0;"9";"correct";"4_1/GS1"
"14990";247;"memory1";"93cnnb8ppd";"many_fill";"distractor";NA;"430.980000004638";"false";"new";0;"10";"correct";"distractor_1/dis3"
"14993";250;"memory1";"93cnnb8ppd";"many_fill";"distractor";NA;"1028.6699999996927";"false";"old";1;"11";"incorrect";"distractor_1/dis4"
"14996";253;"memory1";"93cnnb8ppd";"many_fill";"CSpred";"1";"468.9349999972619";"false";"new";0;"12";"correct";"1_1/CS4_pred"
"14999";256;"memory1";"93cnnb8ppd";"many_fill";"GSnew";"1";"485.71999999694526";"false";"old";1;"13";"incorrect";"1_1/GS1"
"15002";259;"memory1";"93cnnb8ppd";"many_fill";"CS";"2";"462.2799999997951";"false";"old";1;"14";"correct";"2_1/CS8"
"15005";262;"memory1";"93cnnb8ppd";"many_fill";"GSnew";"2";"787.5849999981001";"false";"new";0;"15";"correct";"2_1/GS1"
"15008";265;"memory1";"93cnnb8ppd";"many_fill";"distractor";NA;"489.6699999953853";"false";"new";0;"16";"correct";"distractor_1/dis2"
"15011";268;"memory1";"93cnnb8ppd";"many_fill";"CSnonpred";"1";"418.33999999659136";"false";"old";1;"17";"incorrect";"1_1/CS4_unpred"
"15014";271;"memory1";"93cnnb8ppd";"many_fill";"GSold";"1";"521.5049999970943";"false";"old";1;"18";"incorrect";"1_1/CS9"
"15017";274;"memory1";"93cnnb8ppd";"many_fill";"CSnonpred";"4";"399.1449999958277";"false";"new";0;"19";"correct";"4_1/CS2_unpred"
"15020";277;"memory1";"93cnnb8ppd";"many_fill";"CS";"1";"492.77999999327585";"false";"new";0;"20";"incorrect";"1_1/CS4"
"15023";280;"memory1";"93cnnb8ppd";"many_fill";"CSpred";"2";"81.36999999987893";"false";"old";1;"21";"incorrect";"2_1/CS8_pred"
"15026";283;"memory1";"93cnnb8ppd";"many_fill";"GSold";"3";"310.2149999977555";"false";"new";0;"22";"correct";"3_1/CS8"
"15029";286;"memory1";"93cnnb8ppd";"many_fill";"CSnonpred";"3";"419.87499999965075";"false";"new";0;"23";"correct";"3_1/CS3_unpred"
"15311";217;"memory1";"950l9uw735";"many_one";"CSnonpred";"2";"1272.4500000476837";"false";"old";1;"0";"incorrect";"2_1/CS10_unpred"
"15314";220;"memory1";"950l9uw735";"many_one";"GSnew";"4";"1173.454999923706";"false";"new";0;"1";"correct";"4_1/GS1"
"15317";223;"memory1";"950l9uw735";"many_one";"CSnonpred";"1";"1974.0699999965727";"false";"old";1;"2";"incorrect";"1_1/CS7_unpred"
"15320";226;"memory1";"950l9uw735";"many_one";"distractor";NA;"55.619999999180436";"false";"new";0;"3";"correct";"distractor_1/dis2"
"15323";229;"memory1";"950l9uw735";"many_one";"distractor";NA;"1700.1600000075996";"false";"new";0;"4";"correct";"distractor_1/dis4"
"15326";232;"memory1";"950l9uw735";"many_one";"CSpred";"4";"973.2999999541789";"false";"old";1;"5";"incorrect";"4_1/CS10_pred"
"15329";235;"memory1";"950l9uw735";"many_one";"GSold";"4";"1590.620000148192";"false";"old";1;"6";"incorrect";"4_1/CS9"
"15332";238;"memory1";"950l9uw735";"many_one";"CS";"3";"1167.650000192225";"false";"old";1;"7";"correct";"3_1/CS4"
"15335";241;"memory1";"950l9uw735";"many_one";"CS";"2";"726.0300000198185";"false";"old";1;"8";"correct";"2_1/CS10"
"15338";244;"memory1";"950l9uw735";"many_one";"GSold";"3";"1235.0749999750406";"false";"new";0;"9";"correct";"3_1/CS9"
"15341";247;"memory1";"950l9uw735";"many_one";"GSold";"2";"1991.0850001033396";"false";"old";1;"10";"incorrect";"2_1/CS1"
"15344";250;"memory1";"950l9uw735";"many_one";"GSnew";"2";"1559.6950000617653";"false";"new";0;"11";"correct";"2_1/GS1"
"15347";253;"memory1";"950l9uw735";"many_one";"CS";"1";"1221.1050000041723";"false";"old";1;"12";"correct";"1_1/CS7"
"15350";256;"memory1";"950l9uw735";"many_one";"CSnonpred";"3";"851.3050000183284";"false";"old";1;"13";"incorrect";"3_1/CS4_unpred"
"15353";259;"memory1";"950l9uw735";"many_one";"GSold";"1";"1287.6049999613315";"false";"new";0;"14";"correct";"1_1/CS8"
"15356";262;"memory1";"950l9uw735";"many_one";"CSpred";"2";"851.7100000753999";"false";"old";1;"15";"incorrect";"2_1/CS10_pred"
"15359";265;"memory1";"950l9uw735";"many_one";"GSnew";"3";"2147.564999992028";"false";"new";0;"16";"correct";"3_1/GS1"
"15362";268;"memory1";"950l9uw735";"many_one";"CSnonpred";"4";"759.9450000561774";"false";"old";1;"17";"incorrect";"4_1/CS10_unpred"
"15365";271;"memory1";"950l9uw735";"many_one";"distractor";NA;"1088.4300000034273";"false";"new";0;"18";"correct";"distractor_1/dis3"
"15368";274;"memory1";"950l9uw735";"many_one";"CSpred";"3";"786.2450000829995";"false";"old";1;"19";"incorrect";"3_1/CS4_pred"
"15371";277;"memory1";"950l9uw735";"many_one";"CS";"4";"602.0100000314415";"false";"old";1;"20";"correct";"4_1/CS10"
"15374";280;"memory1";"950l9uw735";"many_one";"distractor";NA;"1220.2250000555068";"false";"new";0;"21";"correct";"distractor_1/dis1"
"15377";283;"memory1";"950l9uw735";"many_one";"CSpred";"1";"931.5549999009818";"false";"old";1;"22";"incorrect";"1_1/CS7_pred"
"15380";286;"memory1";"950l9uw735";"many_one";"GSnew";"1";"995.6750001292676";"false";"new";0;"23";"correct";"1_1/GS1"
"15662";217;"memory1";"95fgqg4qjj";"many_one";"CS";"4";"1552.5050000287592";"false";"new";0;"0";"incorrect";"4_1/CS3"
"15665";220;"memory1";"95fgqg4qjj";"many_one";"CS";"1";"2026.6050000209361";"false";"old";1;"1";"correct";"1_1/CS5"
"15668";223;"memory1";"95fgqg4qjj";"many_one";"GSold";"1";"1035.1650000084192";"false";"old";1;"2";"incorrect";"1_1/CS3"
"15671";226;"memory1";"95fgqg4qjj";"many_one";"CSpred";"2";"1366.6749999392778";"false";"old";1;"3";"incorrect";"2_1/CS9_pred"
"15674";229;"memory1";"95fgqg4qjj";"many_one";"CSpred";"1";"850.2950000111014";"false";"new";0;"4";"correct";"1_1/CS5_pred"
"15677";232;"memory1";"95fgqg4qjj";"many_one";"distractor";NA;"894.0300000831485";"false";"new";0;"5";"correct";"distractor_1/dis1"
"15680";235;"memory1";"95fgqg4qjj";"many_one";"CS";"3";"633.5100000724196";"false";"new";0;"6";"incorrect";"3_1/CS6"
"15683";238;"memory1";"95fgqg4qjj";"many_one";"GSnew";"1";"1317.7650000434369";"false";"new";0;"7";"correct";"1_1/GS1"
"15686";241;"memory1";"95fgqg4qjj";"many_one";"CSnonpred";"2";"722.4000000860542";"false";"old";1;"8";"incorrect";"2_1/CS9_unpred"
"15689";244;"memory1";"95fgqg4qjj";"many_one";"GSnew";"3";"1466.8299998156726";"false";"old";1;"9";"incorrect";"3_1/GS1"
"15692";247;"memory1";"95fgqg4qjj";"many_one";"CSnonpred";"1";"2070.2850001398474";"false";"old";1;"10";"incorrect";"1_1/CS5_unpred"
"15695";250;"memory1";"95fgqg4qjj";"many_one";"CS";"2";"1163.7300001457334";"false";"new";0;"11";"incorrect";"2_1/CS9"
"15698";253;"memory1";"95fgqg4qjj";"many_one";"GSold";"3";"594.3750001024455";"false";"new";0;"12";"correct";"3_1/CS4"
"15701";256;"memory1";"95fgqg4qjj";"many_one";"CSnonpred";"4";"909.3750000465661";"false";"old";1;"13";"incorrect";"4_1/CS3_unpred"
"15704";259;"memory1";"95fgqg4qjj";"many_one";"GSnew";"2";"798.4449998475611";"false";"new";0;"14";"correct";"2_1/GS1"
"15707";262;"memory1";"95fgqg4qjj";"many_one";"CSpred";"4";"1055.5249999742955";"false";"new";0;"15";"correct";"4_1/CS3_pred"
"15710";265;"memory1";"95fgqg4qjj";"many_one";"CSnonpred";"3";"641.0299998242408";"false";"old";1;"16";"incorrect";"3_1/CS6_unpred"
"15713";268;"memory1";"95fgqg4qjj";"many_one";"distractor";NA;"1940.0349999777973";"false";"new";0;"17";"correct";"distractor_1/dis3"
"15716";271;"memory1";"95fgqg4qjj";"many_one";"distractor";NA;"1469.730000011623";"false";"new";0;"18";"correct";"distractor_1/dis4"
"15719";274;"memory1";"95fgqg4qjj";"many_one";"GSold";"4";"1642.8449999075383";"false";"new";0;"19";"correct";"4_1/CS10"
"15722";277;"memory1";"95fgqg4qjj";"many_one";"GSnew";"4";"969.8149999603629";"false";"new";0;"20";"correct";"4_1/GS1"
"15725";280;"memory1";"95fgqg4qjj";"many_one";"distractor";NA;"null";"true";"miss";NA;"21";"miss";"distractor_1/dis2"
"15728";283;"memory1";"95fgqg4qjj";"many_one";"CSpred";"3";"683.6900000926107";"false";"new";0;"22";"correct";"3_1/CS6_pred"
"15731";286;"memory1";"95fgqg4qjj";"many_one";"GSold";"2";"2517.0700000599027";"false";"old";1;"23";"incorrect";"2_1/CS6"
"16013";217;"memory1";"9938rrupxs";"one_one";"GSnew";"2";"null";"true";"miss";NA;"0";"miss";"2_1/GS1"
"16016";220;"memory1";"9938rrupxs";"one_one";"CS";"1";"1722";"false";"old";1;"1";"correct";"1_1/CS9"
