"success","trial_type","trial_index","time_elapsed","internal_node_id","subject","condition","condition_code","measure","measure_code","codeword","gender","age","education","chinese","fach","handedness","comment","hinschauen","ablenkung","gewissenhaft","rt","url","responses","stimulus","key_press","val","type","type_specific","category","cs_selected","target","indirect","task","nr_pres","response"
"true","fullscreen","0","6419","0.0-0.0","6xb5aupvc2","many_one","0","indirect_first","0","lz03ld31","0","69","4","1","3","1","Ich habe mich nie mit chinesischen Zeichen beschäftigt und war jetzt erstaunt, wie ""ästhetisch"" sie sind. Allerdingsversuchte ich, einen ""Sinn"" darin zu finden, eine Art story und das hat mich verwirrt. Vielen Dank!","0","1","0","","","","","","","","","","","","","","",""
"","external-html","1","28489","0.0-1.0","6xb5aupvc2","many_one","0","indirect_first","0","lz03ld31","0","69","4","1","3","1","Ich habe mich nie mit chinesischen Zeichen beschäftigt und war jetzt erstaunt, wie ""ästhetisch"" sie sind. Allerdingsversuchte ich, einen ""Sinn"" darin zu finden, eine Art story und das hat mich verwirrt. Vielen Dank!","0","1","0","21967.999999877065","text/information.html","","","","","","","","","","","","",""
"","external-html","2","37201","0.0-2.0","6xb5aupvc2","many_one","0","indirect_first","0","lz03ld31","0","69","4","1","3","1","Ich habe mich nie mit chinesischen Zeichen beschäftigt und war jetzt erstaunt, wie ""ästhetisch"" sie sind. Allerdingsversuchte ich, einen ""Sinn"" darin zu finden, eine Art story und das hat mich verwirrt. Vielen Dank!","0","1","0","8632.000000216067","text/consent.html","","","","","","","","","","","","",""
"","survey-html-form","3","104323","0.0-3.0","6xb5aupvc2","many_one","0","indirect_first","0","lz03ld31","0","69","4","1","3","1","Ich habe mich nie mit chinesischen Zeichen beschäftigt und war jetzt erstaunt, wie ""ästhetisch"" sie sind. Allerdingsversuchte ich, einen ""Sinn"" darin zu finden, eine Art story und das hat mich verwirrt. Vielen Dank!","0","1","0","67118.0000002496","","{""codeword_enter"":""lz03ld31""}","","","","","","","","","","","",""
"","survey-html-form","4","145945","0.0-4.0","6xb5aupvc2","many_one","0","indirect_first","0","lz03ld31","0","69","4","1","3","1","Ich habe mich nie mit chinesischen Zeichen beschäftigt und war jetzt erstaunt, wie ""ästhetisch"" sie sind. Allerdingsversuchte ich, einen ""Sinn"" darin zu finden, eine Art story und das hat mich verwirrt. Vielen Dank!","0","1","0","41608.9999997057","","{""age"":""69"",""education"":""4"",""subject"":""3"",""gender"":""0"",""handedness"":""1"",""chinese"":""1""}","","","","","","","","","","","",""
"","survey-html-form","5","155737","0.0-5.0","6xb5aupvc2","many_one","0","indirect_first","0","lz03ld31","0","69","4","1","3","1","Ich habe mich nie mit chinesischen Zeichen beschäftigt und war jetzt erstaunt, wie ""ästhetisch"" sie sind. Allerdingsversuchte ich, einen ""Sinn"" darin zu finden, eine Art story und das hat mich verwirrt. Vielen Dank!","0","1","0","9785.999999847263","","{}","","","","","","","","","","","",""
"","html-keyboard-response","6","159745","0.0-6.0-0.0-0.0","6xb5aupvc2","many_one","0","indirect_first","0","lz03ld31","0","69","4","1","3","1","Ich habe mich nie mit chinesischen Zeichen beschäftigt und war jetzt erstaunt, wie ""ästhetisch"" sie sind. Allerdingsversuchte ich, einen ""Sinn"" darin zu finden, eine Art story und das hat mich verwirrt. Vielen Dank!","0","1","0","null","","","<div class = 'row'><div class = 'column'><img src = 'uspos/8540.bmp' width = '100%;'></div><div class = 'column'><img src = 'category2/CS10.png' width = '70%;'></div></div>","null","pos","CS","CS","2","category2/CS10.png","","","","",""
"","html-keyboard-response","7","162251","0.0-6.0-0.0-0.1","6xb5aupvc2","many_one","0","indirect_first","0","lz03ld31","0","69","4","1","3","1","Ich habe mich nie mit chinesischen Zeichen beschäftigt und war jetzt erstaunt, wie ""ästhetisch"" sie sind. Allerdingsversuchte ich, einen ""Sinn"" darin zu finden, eine Art story und das hat mich verwirrt. Vielen Dank!","0","1","0","null","","","<div class = 'row'><div class = 'column'><img src = 'usneg/9000.bmp' width = '100%;'></div><div class = 'column'><img src = 'category1/CS9.png' width = '70%;'></div></div>","null","neg","CS","CS","1","category1/CS9.png","","","","",""
"","html-keyboard-response","8","164755","0.0-6.0-0.0-0.2","6xb5aupvc2","many_one","0","indirect_first","0","lz03ld31","0","69","4","1","3","1","Ich habe mich nie mit chinesischen Zeichen beschäftigt und war jetzt erstaunt, wie ""ästhetisch"" sie sind. Allerdingsversuchte ich, einen ""Sinn"" darin zu finden, eine Art story und das hat mich verwirrt. Vielen Dank!","0","1","0","null","","","<div class = 'row'><div class = 'column'><img src = 'uspos/4599.bmp' width = '100%;'></div><div class = 'column'><img src = 'category4/CS9.png' width = '70%;'></div></div>","null","pos","CS","CS","4","category4/CS9.png","","","","",""
"","html-keyboard-response","9","167259","0.0-6.0-0.0-0.3","6xb5aupvc2","many_one","0","indirect_first","0","lz03ld31","0","69","4","1","3","1","Ich habe mich nie mit chinesischen Zeichen beschäftigt und war jetzt erstaunt, wie ""ästhetisch"" sie sind. Allerdingsversuchte ich, einen ""Sinn"" darin zu finden, eine Art story und das hat mich verwirrt. Vielen Dank!","0","1","0","null","","","<div class = 'row'><div class = 'column'><img src = 'usneg/6838.bmp' width = '100%;'></div><div class = 'column'><img src = 'category1/CS5.png' width = '70%;'></div></div>","null","neg","CS","CS","1","category1/CS5.png","","","","",""
"","html-keyboard-response","10","169761","0.0-6.0-0.0-0.4","6xb5aupvc2","many_one","0","indirect_first","0","lz03ld31","0","69","4","1","3","1","Ich habe mich nie mit chinesischen Zeichen beschäftigt und war jetzt erstaunt, wie ""ästhetisch"" sie sind. Allerdingsversuchte ich, einen ""Sinn"" darin zu finden, eine Art story und das hat mich verwirrt. Vielen Dank!","0","1","0","null","","","<div class = 'row'><div class = 'column'><img src = 'category4/CS7.png' width = '70%;'></div><div class = 'column'><img src = 'uspos/2165.bmp' width = '100%;'></div></div>","null","pos","CS","CS","4","category4/CS7.png","","","","",""
"","html-keyboard-response","11","172264","0.0-6.0-0.0-0.5","6xb5aupvc2","many_one","0","indirect_first","0","lz03ld31","0","69","4","1","3","1","Ich habe mich nie mit chinesischen Zeichen beschäftigt und war jetzt erstaunt, wie ""ästhetisch"" sie sind. Allerdingsversuchte ich, einen ""Sinn"" darin zu finden, eine Art story und das hat mich verwirrt. Vielen Dank!","0","1","0","null","","","<div class = 'row'><div class = 'column'><img src = 'category4/CS4.png' width = '70%;'></div><div class = 'column'><img src = 'uspos/5470.bmp' width = '100%;'></div></div>","null","pos","CS","CS","4","category4/CS4.png","","","","",""
"","html-keyboard-response","12","174767","0.0-6.0-0.0-0.6","6xb5aupvc2","many_one","0","indirect_first","0","lz03ld31","0","69","4","1","3","1","Ich habe mich nie mit chinesischen Zeichen beschäftigt und war jetzt erstaunt, wie ""ästhetisch"" sie sind. Allerdingsversuchte ich, einen ""Sinn"" darin zu finden, eine Art story und das hat mich verwirrt. Vielen Dank!","0","1","0","null","","","<div class = 'row'><div class = 'column'><img src = 'category1/CS7.png' width = '70%;'></div><div class = 'column'><img src = 'usneg/9560.bmp' width = '100%;'></div></div>","null","neg","CS","CS","1","category1/CS7.png","","","","",""
"","html-keyboard-response","13","177271","0.0-6.0-0.0-0.7","6xb5aupvc2","many_one","0","indirect_first","0","lz03ld31","0","69","4","1","3","1","Ich habe mich nie mit chinesischen Zeichen beschäftigt und war jetzt erstaunt, wie ""ästhetisch"" sie sind. Allerdingsversuchte ich, einen ""Sinn"" darin zu finden, eine Art story und das hat mich verwirrt. Vielen Dank!","0","1","0","null","","","<div class = 'row'><div class = 'column'><img src = 'category1/CS1.png' width = '70%;'></div><div class = 'column'><img src = 'usneg/9340.bmp' width = '100%;'></div></div>","null","neg","CS","CS","1","category1/CS1.png","","","","",""
"","html-keyboard-response","14","179773","0.0-6.0-0.0-0.8","6xb5aupvc2","many_one","0","indirect_first","0","lz03ld31","0","69","4","1","3","1","Ich habe mich nie mit chinesischen Zeichen beschäftigt und war jetzt erstaunt, wie ""ästhetisch"" sie sind. Allerdingsversuchte ich, einen ""Sinn"" darin zu finden, eine Art story und das hat mich verwirrt. Vielen Dank!","0","1","0","null","","","<div class = 'row'><div class = 'column'><img src = 'category3/CS10.png' width = '70%;'></div><div class = 'column'><img src = 'usneg/9050.bmp' width = '100%;'></div></div>","null","neg","CS","CS","3","category3/CS10.png","","","","",""
"","html-keyboard-response","15","182276","0.0-6.0-0.0-0.9","6xb5aupvc2","many_one","0","indirect_first","0","lz03ld31","0","69","4","1","3","1","Ich habe mich nie mit chinesischen Zeichen beschäftigt und war jetzt erstaunt, wie ""ästhetisch"" sie sind. Allerdingsversuchte ich, einen ""Sinn"" darin zu finden, eine Art story und das hat mich verwirrt. Vielen Dank!","0","1","0","null","","","<div class = 'row'><div class = 'column'><img src = 'category2/CS1.png' width = '70%;'></div><div class = 'column'><img src = 'uspos/2360.bmp' width = '100%;'></div></div>","null","pos","CS","CS","2","category2/CS1.png","","","","",""
"","html-keyboard-response","16","184781","0.0-6.0-0.0-0.10","6xb5aupvc2","many_one","0","indirect_first","0","lz03ld31","0","69","4","1","3","1","Ich habe mich nie mit chinesischen Zeichen beschäftigt und war jetzt erstaunt, wie ""ästhetisch"" sie sind. Allerdingsversuchte ich, einen ""Sinn"" darin zu finden, eine Art story und das hat mich verwirrt. Vielen Dank!","0","1","0","null","","","<div class = 'row'><div class = 'column'><img src = 'usneg/9041.bmp' width = '100%;'></div><div class = 'column'><img src = 'category3/CS9.png' width = '70%;'></div></div>","null","neg","CS","CS","3","category3/CS9.png","","","","",""
"","html-keyboard-response","17","187285","0.0-6.0-0.0-0.11","6xb5aupvc2","many_one","0","indirect_first","0","lz03ld31","0","69","4","1","3","1","Ich habe mich nie mit chinesischen Zeichen beschäftigt und war jetzt erstaunt, wie ""ästhetisch"" sie sind. Allerdingsversuchte ich, einen ""Sinn"" darin zu finden, eine Art story und das hat mich verwirrt. Vielen Dank!","0","1","0","null","","","<div class = 'row'><div class = 'column'><img src = 'usneg/9180.bmp' width = '100%;'></div><div class = 'column'><img src = 'category3/CS8.png' width = '70%;'></div></div>","null","neg","CS","CS","3","category3/CS8.png","","","","",""
"","html-keyboard-response","18","189788","0.0-6.0-0.0-0.12","6xb5aupvc2","many_one","0","indirect_first","0","lz03ld31","0","69","4","1","3","1","Ich habe mich nie mit chinesischen Zeichen beschäftigt und war jetzt erstaunt, wie ""ästhetisch"" sie sind. Allerdingsversuchte ich, einen ""Sinn"" darin zu finden, eine Art story und das hat mich verwirrt. Vielen Dank!","0","1","0","null","","","<div class = 'row'><div class = 'column'><img src = 'usneg/2750.bmp' width = '100%;'></div><div class = 'column'><img src = 'category3/CS4.png' width = '70%;'></div></div>","null","neg","CS","CS","3","category3/CS4.png","","","","",""
"","html-keyboard-response","19","192291","0.0-6.0-0.0-0.13","6xb5aupvc2","many_one","0","indirect_first","0","lz03ld31","0","69","4","1","3","1","Ich habe mich nie mit chinesischen Zeichen beschäftigt und war jetzt erstaunt, wie ""ästhetisch"" sie sind. Allerdingsversuchte ich, einen ""Sinn"" darin zu finden, eine Art story und das hat mich verwirrt. Vielen Dank!","0","1","0","null","","","<div class = 'row'><div class = 'column'><img src = 'uspos/1463.bmp' width = '100%;'></div><div class = 'column'><img src = 'category2/CS8.png' width = '70%;'></div></div>","null","pos","CS","CS","2","category2/CS8.png","","","","",""
"","html-keyboard-response","20","194796","0.0-6.0-0.0-0.14","6xb5aupvc2","many_one","0","indirect_first","0","lz03ld31","0","69","4","1","3","1","Ich habe mich nie mit chinesischen Zeichen beschäftigt und war jetzt erstaunt, wie ""ästhetisch"" sie sind. Allerdingsversuchte ich, einen ""Sinn"" darin zu finden, eine Art story und das hat mich verwirrt. Vielen Dank!","0","1","0","null","","","<div class = 'row'><div class = 'column'><img src = 'usneg/9182.bmp' width = '100%;'></div><div class = 'column'><img src = 'category1/CS6.png' width = '70%;'></div></div>","null","neg","CS","CS","1","category1/CS6.png","","","","",""
"","html-keyboard-response","21","197299","0.0-6.0-0.0-0.15","6xb5aupvc2","many_one","0","indirect_first","0","lz03ld31","0","69","4","1","3","1","Ich habe mich nie mit chinesischen Zeichen beschäftigt und war jetzt erstaunt, wie ""ästhetisch"" sie sind. Allerdingsversuchte ich, einen ""Sinn"" darin zu finden, eine Art story und das hat mich verwirrt. Vielen Dank!","0","1","0","null","","","<div class = 'row'><div class = 'column'><img src = 'uspos/7325.bmp' width = '100%;'></div><div class = 'column'><img src = 'category2/CS4.png' width = '70%;'></div></div>","null","pos","CS","CS","2","category2/CS4.png","","","","",""
"","html-keyboard-response","22","199802","0.0-6.0-0.0-0.16","6xb5aupvc2","many_one","0","indirect_first","0","lz03ld31","0","69","4","1","3","1","Ich habe mich nie mit chinesischen Zeichen beschäftigt und war jetzt erstaunt, wie ""ästhetisch"" sie sind. Allerdingsversuchte ich, einen ""Sinn"" darin zu finden, eine Art story und das hat mich verwirrt. Vielen Dank!","0","1","0","null","","","<div class = 'row'><div class = 'column'><img src = 'category3/CS5.png' width = '70%;'></div><div class = 'column'><img src = 'usneg/7380.bmp' width = '100%;'></div></div>","null","neg","CS","CS","3","category3/CS5.png","","","","",""
"","html-keyboard-response","23","202305","0.0-6.0-0.0-0.17","6xb5aupvc2","many_one","0","indirect_first","0","lz03ld31","0","69","4","1","3","1","Ich habe mich nie mit chinesischen Zeichen beschäftigt und war jetzt erstaunt, wie ""ästhetisch"" sie sind. Allerdingsversuchte ich, einen ""Sinn"" darin zu finden, eine Art story und das hat mich verwirrt. Vielen Dank!","0","1","0","null","","","<div class = 'row'><div class = 'column'><img src = 'uspos/5700.bmp' width = '100%;'></div><div class = 'column'><img src = 'category4/CS5.png' width = '70%;'></div></div>","null","pos","CS","CS","4","category4/CS5.png","","","","",""
"","html-keyboard-response","24","204809","0.0-6.0-0.0-0.18","6xb5aupvc2","many_one","0","indirect_first","0","lz03ld31","0","69","4","1","3","1","Ich habe mich nie mit chinesischen Zeichen beschäftigt und war jetzt erstaunt, wie ""ästhetisch"" sie sind. Allerdingsversuchte ich, einen ""Sinn"" darin zu finden, eine Art story und das hat mich verwirrt. Vielen Dank!","0","1","0","null","","","<div class = 'row'><div class = 'column'><img src = 'category2/CS6.png' width = '70%;'></div><div class = 'column'><img src = 'uspos/2340.bmp' width = '100%;'></div></div>","null","pos","CS","CS","2","category2/CS6.png","","","","",""
"","html-keyboard-response","25","207312","0.0-6.0-0.0-0.19","6xb5aupvc2","many_one","0","indirect_first","0","lz03ld31","0","69","4","1","3","1","Ich habe mich nie mit chinesischen Zeichen beschäftigt und war jetzt erstaunt, wie ""ästhetisch"" sie sind. Allerdingsversuchte ich, einen ""Sinn"" darin zu finden, eine Art story und das hat mich verwirrt. Vielen Dank!","0","1","0","null","","","<div class = 'row'><div class = 'column'><img src = 'uspos/1710.bmp' width = '100%;'></div><div class = 'column'><img src = 'category4/CS3.png' width = '70%;'></div></div>","null","pos","CS","CS","4","category4/CS3.png","","","","",""
"","survey-html-form","26","212897","0.0-6.0-1.0","6xb5aupvc2","many_one","0","indirect_first","0","lz03ld31","0","69","4","1","3","1","Ich habe mich nie mit chinesischen Zeichen beschäftigt und war jetzt erstaunt, wie ""ästhetisch"" sie sind. Allerdingsversuchte ich, einen ""Sinn"" darin zu finden, eine Art story und das hat mich verwirrt. Vielen Dank!","0","1","0","5084.000000264496","","{}","","","","","","","","","","","",""
"","html-keyboard-response","27","216903","0.0-6.0-2.0-0.0","6xb5aupvc2","many_one","0","indirect_first","0","lz03ld31","0","69","4","1","3","1","Ich habe mich nie mit chinesischen Zeichen beschäftigt und war jetzt erstaunt, wie ""ästhetisch"" sie sind. Allerdingsversuchte ich, einen ""Sinn"" darin zu finden, eine Art story und das hat mich verwirrt. Vielen Dank!","0","1","0","null","","","<div class = 'row'><div class = 'column'><img src = 'category3/CS4.png' width = '70%;'></div><div class = 'column'><img src = 'usneg/2750.bmp' width = '100%;'></div></div>","null","neg","CS","CS","3","category3/CS4.png","","","","",""
"","html-keyboard-response","28","219405","0.0-6.0-2.0-0.1","6xb5aupvc2","many_one","0","indirect_first","0","lz03ld31","0","69","4","1","3","1","Ich habe mich nie mit chinesischen Zeichen beschäftigt und war jetzt erstaunt, wie ""ästhetisch"" sie sind. Allerdingsversuchte ich, einen ""Sinn"" darin zu finden, eine Art story und das hat mich verwirrt. Vielen Dank!","0","1","0","null","","","<div class = 'row'><div class = 'column'><img src = 'category3/CS10.png' width = '70%;'></div><div class = 'column'><img src = 'usneg/9050.bmp' width = '100%;'></div></div>","null","neg","CS","CS","3","category3/CS10.png","","","","",""
"","html-keyboard-response","29","221908","0.0-6.0-2.0-0.2","6xb5aupvc2","many_one","0","indirect_first","0","lz03ld31","0","69","4","1","3","1","Ich habe mich nie mit chinesischen Zeichen beschäftigt und war jetzt erstaunt, wie ""ästhetisch"" sie sind. Allerdingsversuchte ich, einen ""Sinn"" darin zu finden, eine Art story und das hat mich verwirrt. Vielen Dank!","0","1","0","null","","","<div class = 'row'><div class = 'column'><img src = 'category3/CS8.png' width = '70%;'></div><div class = 'column'><img src = 'usneg/9180.bmp' width = '100%;'></div></div>","null","neg","CS","CS","3","category3/CS8.png","","","","",""
"","html-keyboard-response","30","224414","0.0-6.0-2.0-0.3","6xb5aupvc2","many_one","0","indirect_first","0","lz03ld31","0","69","4","1","3","1","Ich habe mich nie mit chinesischen Zeichen beschäftigt und war jetzt erstaunt, wie ""ästhetisch"" sie sind. Allerdingsversuchte ich, einen ""Sinn"" darin zu finden, eine Art story und das hat mich verwirrt. Vielen Dank!","0","1","0","null","","","<div class = 'row'><div class = 'column'><img src = 'category1/CS7.png' width = '70%;'></div><div class = 'column'><img src = 'usneg/9560.bmp' width = '100%;'></div></div>","null","neg","CS","CS","1","category1/CS7.png","","","","",""
"","html-keyboard-response","31","226918","0.0-6.0-2.0-0.4","6xb5aupvc2","many_one","0","indirect_first","0","lz03ld31","0","69","4","1","3","1","Ich habe mich nie mit chinesischen Zeichen beschäftigt und war jetzt erstaunt, wie ""ästhetisch"" sie sind. Allerdingsversuchte ich, einen ""Sinn"" darin zu finden, eine Art story und das hat mich verwirrt. Vielen Dank!","0","1","0","null","","","<div class = 'row'><div class = 'column'><img src = 'category3/CS9.png' width = '70%;'></div><div class = 'column'><img src = 'usneg/9041.bmp' width = '100%;'></div></div>","null","neg","CS","CS","3","category3/CS9.png","","","","",""
"","html-keyboard-response","32","229421","0.0-6.0-2.0-0.5","6xb5aupvc2","many_one","0","indirect_first","0","lz03ld31","0","69","4","1","3","1","Ich habe mich nie mit chinesischen Zeichen beschäftigt und war jetzt erstaunt, wie ""ästhetisch"" sie sind. Allerdingsversuchte ich, einen ""Sinn"" darin zu finden, eine Art story und das hat mich verwirrt. Vielen Dank!","0","1","0","null","","","<div class = 'row'><div class = 'column'><img src = 'category2/CS6.png' width = '70%;'></div><div class = 'column'><img src = 'uspos/2340.bmp' width = '100%;'></div></div>","null","pos","CS","CS","2","category2/CS6.png","","","","",""
"","html-keyboard-response","33","231924","0.0-6.0-2.0-0.6","6xb5aupvc2","many_one","0","indirect_first","0","lz03ld31","0","69","4","1","3","1","Ich habe mich nie mit chinesischen Zeichen beschäftigt und war jetzt erstaunt, wie ""ästhetisch"" sie sind. Allerdingsversuchte ich, einen ""Sinn"" darin zu finden, eine Art story und das hat mich verwirrt. Vielen Dank!","0","1","0","null","","","<div class = 'row'><div class = 'column'><img src = 'category1/CS6.png' width = '70%;'></div><div class = 'column'><img src = 'usneg/9182.bmp' width = '100%;'></div></div>","null","neg","CS","CS","1","category1/CS6.png","","","","",""
"","html-keyboard-response","34","234429","0.0-6.0-2.0-0.7","6xb5aupvc2","many_one","0","indirect_first","0","lz03ld31","0","69","4","1","3","1","Ich habe mich nie mit chinesischen Zeichen beschäftigt und war jetzt erstaunt, wie ""ästhetisch"" sie sind. Allerdingsversuchte ich, einen ""Sinn"" darin zu finden, eine Art story und das hat mich verwirrt. Vielen Dank!","0","1","0","null","","","<div class = 'row'><div class = 'column'><img src = 'category4/CS4.png' width = '70%;'></div><div class = 'column'><img src = 'uspos/5470.bmp' width = '100%;'></div></div>","null","pos","CS","CS","4","category4/CS4.png","","","","",""
"","html-keyboard-response","35","236933","0.0-6.0-2.0-0.8","6xb5aupvc2","many_one","0","indirect_first","0","lz03ld31","0","69","4","1","3","1","Ich habe mich nie mit chinesischen Zeichen beschäftigt und war jetzt erstaunt, wie ""ästhetisch"" sie sind. Allerdingsversuchte ich, einen ""Sinn"" darin zu finden, eine Art story und das hat mich verwirrt. Vielen Dank!","0","1","0","null","","","<div class = 'row'><div class = 'column'><img src = 'uspos/2165.bmp' width = '100%;'></div><div class = 'column'><img src = 'category4/CS7.png' width = '70%;'></div></div>","null","pos","CS","CS","4","category4/CS7.png","","","","",""
"","html-keyboard-response","36","239437","0.0-6.0-2.0-0.9","6xb5aupvc2","many_one","0","indirect_first","0","lz03ld31","0","69","4","1","3","1","Ich habe mich nie mit chinesischen Zeichen beschäftigt und war jetzt erstaunt, wie ""ästhetisch"" sie sind. Allerdingsversuchte ich, einen ""Sinn"" darin zu finden, eine Art story und das hat mich verwirrt. Vielen Dank!","0","1","0","null","","","<div class = 'row'><div class = 'column'><img src = 'uspos/2360.bmp' width = '100%;'></div><div class = 'column'><img src = 'category2/CS1.png' width = '70%;'></div></div>","null","pos","CS","CS","2","category2/CS1.png","","","","",""
"","html-keyboard-response","37","241941","0.0-6.0-2.0-0.10","6xb5aupvc2","many_one","0","indirect_first","0","lz03ld31","0","69","4","1","3","1","Ich habe mich nie mit chinesischen Zeichen beschäftigt und war jetzt erstaunt, wie ""ästhetisch"" sie sind. Allerdingsversuchte ich, einen ""Sinn"" darin zu finden, eine Art story und das hat mich verwirrt. Vielen Dank!","0","1","0","null","","","<div class = 'row'><div class = 'column'><img src = 'category1/CS5.png' width = '70%;'></div><div class = 'column'><img src = 'usneg/6838.bmp' width = '100%;'></div></div>","null","neg","CS","CS","1","category1/CS5.png","","","","",""
"","html-keyboard-response","38","244444","0.0-6.0-2.0-0.11","6xb5aupvc2","many_one","0","indirect_first","0","lz03ld31","0","69","4","1","3","1","Ich habe mich nie mit chinesischen Zeichen beschäftigt und war jetzt erstaunt, wie ""ästhetisch"" sie sind. Allerdingsversuchte ich, einen ""Sinn"" darin zu finden, eine Art story und das hat mich verwirrt. Vielen Dank!","0","1","0","null","","","<div class = 'row'><div class = 'column'><img src = 'category2/CS10.png' width = '70%;'></div><div class = 'column'><img src = 'uspos/8540.bmp' width = '100%;'></div></div>","null","pos","CS","CS","2","category2/CS10.png","","","","",""
"","html-keyboard-response","39","246947","0.0-6.0-2.0-0.12","6xb5aupvc2","many_one","0","indirect_first","0","lz03ld31","0","69","4","1","3","1","Ich habe mich nie mit chinesischen Zeichen beschäftigt und war jetzt erstaunt, wie ""ästhetisch"" sie sind. Allerdingsversuchte ich, einen ""Sinn"" darin zu finden, eine Art story und das hat mich verwirrt. Vielen Dank!","0","1","0","null","","","<div class = 'row'><div class = 'column'><img src = 'uspos/1710.bmp' width = '100%;'></div><div class = 'column'><img src = 'category4/CS3.png' width = '70%;'></div></div>","null","pos","CS","CS","4","category4/CS3.png","","","","",""
"","html-keyboard-response","40","249451","0.0-6.0-2.0-0.13","6xb5aupvc2","many_one","0","indirect_first","0","lz03ld31","0","69","4","1","3","1","Ich habe mich nie mit chinesischen Zeichen beschäftigt und war jetzt erstaunt, wie ""ästhetisch"" sie sind. Allerdingsversuchte ich, einen ""Sinn"" darin zu finden, eine Art story und das hat mich verwirrt. Vielen Dank!","0","1","0","null","","","<div class = 'row'><div class = 'column'><img src = 'usneg/9000.bmp' width = '100%;'></div><div class = 'column'><img src = 'category1/CS9.png' width = '70%;'></div></div>","null","neg","CS","CS","1","category1/CS9.png","","","","",""
"","html-keyboard-response","41","251955","0.0-6.0-2.0-0.14","6xb5aupvc2","many_one","0","indirect_first","0","lz03ld31","0","69","4","1","3","1","Ich habe mich nie mit chinesischen Zeichen beschäftigt und war jetzt erstaunt, wie ""ästhetisch"" sie sind. Allerdingsversuchte ich, einen ""Sinn"" darin zu finden, eine Art story und das hat mich verwirrt. Vielen Dank!","0","1","0","null","","","<div class = 'row'><div class = 'column'><img src = 'category4/CS5.png' width = '70%;'></div><div class = 'column'><img src = 'uspos/5700.bmp' width = '100%;'></div></div>","null","pos","CS","CS","4","category4/CS5.png","","","","",""
"","html-keyboard-response","42","254458","0.0-6.0-2.0-0.15","6xb5aupvc2","many_one","0","indirect_first","0","lz03ld31","0","69","4","1","3","1","Ich habe mich nie mit chinesischen Zeichen beschäftigt und war jetzt erstaunt, wie ""ästhetisch"" sie sind. Allerdingsversuchte ich, einen ""Sinn"" darin zu finden, eine Art story und das hat mich verwirrt. Vielen Dank!","0","1","0","null","","","<div class = 'row'><div class = 'column'><img src = 'uspos/4599.bmp' width = '100%;'></div><div class = 'column'><img src = 'category4/CS9.png' width = '70%;'></div></div>","null","pos","CS","CS","4","category4/CS9.png","","","","",""
"","html-keyboard-response","43","256963","0.0-6.0-2.0-0.16","6xb5aupvc2","many_one","0","indirect_first","0","lz03ld31","0","69","4","1","3","1","Ich habe mich nie mit chinesischen Zeichen beschäftigt und war jetzt erstaunt, wie ""ästhetisch"" sie sind. Allerdingsversuchte ich, einen ""Sinn"" darin zu finden, eine Art story und das hat mich verwirrt. Vielen Dank!","0","1","0","null","","","<div class = 'row'><div class = 'column'><img src = 'category1/CS1.png' width = '70%;'></div><div class = 'column'><img src = 'usneg/9340.bmp' width = '100%;'></div></div>","null","neg","CS","CS","1","category1/CS1.png","","","","",""
"","html-keyboard-response","44","259468","0.0-6.0-2.0-0.17","6xb5aupvc2","many_one","0","indirect_first","0","lz03ld31","0","69","4","1","3","1","Ich habe mich nie mit chinesischen Zeichen beschäftigt und war jetzt erstaunt, wie ""ästhetisch"" sie sind. Allerdingsversuchte ich, einen ""Sinn"" darin zu finden, eine Art story und das hat mich verwirrt. Vielen Dank!","0","1","0","null","","","<div class = 'row'><div class = 'column'><img src = 'usneg/7380.bmp' width = '100%;'></div><div class = 'column'><img src = 'category3/CS5.png' width = '70%;'></div></div>","null","neg","CS","CS","3","category3/CS5.png","","","","",""
"","html-keyboard-response","45","261971","0.0-6.0-2.0-0.18","6xb5aupvc2","many_one","0","indirect_first","0","lz03ld31","0","69","4","1","3","1","Ich habe mich nie mit chinesischen Zeichen beschäftigt und war jetzt erstaunt, wie ""ästhetisch"" sie sind. Allerdingsversuchte ich, einen ""Sinn"" darin zu finden, eine Art story und das hat mich verwirrt. Vielen Dank!","0","1","0","null","","","<div class = 'row'><div class = 'column'><img src = 'category2/CS8.png' width = '70%;'></div><div class = 'column'><img src = 'uspos/1463.bmp' width = '100%;'></div></div>","null","pos","CS","CS","2","category2/CS8.png","","","","",""
"","html-keyboard-response","46","264474","0.0-6.0-2.0-0.19","6xb5aupvc2","many_one","0","indirect_first","0","lz03ld31","0","69","4","1","3","1","Ich habe mich nie mit chinesischen Zeichen beschäftigt und war jetzt erstaunt, wie ""ästhetisch"" sie sind. Allerdingsversuchte ich, einen ""Sinn"" darin zu finden, eine Art story und das hat mich verwirrt. Vielen Dank!","0","1","0","null","","","<div class = 'row'><div class = 'column'><img src = 'category2/CS4.png' width = '70%;'></div><div class = 'column'><img src = 'uspos/7325.bmp' width = '100%;'></div></div>","null","pos","CS","CS","2","category2/CS4.png","","","","",""
"","survey-html-form","47","269752","0.0-6.0-3.0","6xb5aupvc2","many_one","0","indirect_first","0","lz03ld31","0","69","4","1","3","1","Ich habe mich nie mit chinesischen Zeichen beschäftigt und war jetzt erstaunt, wie ""ästhetisch"" sie sind. Allerdingsversuchte ich, einen ""Sinn"" darin zu finden, eine Art story und das hat mich verwirrt. Vielen Dank!","0","1","0","4776.0000000707805","","{}","","","","","","","","","","","",""
"","html-keyboard-response","48","273758","0.0-6.0-4.0-0.0","6xb5aupvc2","many_one","0","indirect_first","0","lz03ld31","0","69","4","1","3","1","Ich habe mich nie mit chinesischen Zeichen beschäftigt und war jetzt erstaunt, wie ""ästhetisch"" sie sind. Allerdingsversuchte ich, einen ""Sinn"" darin zu finden, eine Art story und das hat mich verwirrt. Vielen Dank!","0","1","0","null","","","<div class = 'row'><div class = 'column'><img src = 'uspos/5470.bmp' width = '100%;'></div><div class = 'column'><img src = 'category4/CS4.png' width = '70%;'></div></div>","null","pos","CS","CS","4","category4/CS4.png","","","","",""
"","html-keyboard-response","49","276261","0.0-6.0-4.0-0.1","6xb5aupvc2","many_one","0","indirect_first","0","lz03ld31","0","69","4","1","3","1","Ich habe mich nie mit chinesischen Zeichen beschäftigt und war jetzt erstaunt, wie ""ästhetisch"" sie sind. Allerdingsversuchte ich, einen ""Sinn"" darin zu finden, eine Art story und das hat mich verwirrt. Vielen Dank!","0","1","0","null","","","<div class = 'row'><div class = 'column'><img src = 'usneg/6838.bmp' width = '100%;'></div><div class = 'column'><img src = 'category1/CS5.png' width = '70%;'></div></div>","null","neg","CS","CS","1","category1/CS5.png","","","","",""
"","html-keyboard-response","50","278763","0.0-6.0-4.0-0.2","6xb5aupvc2","many_one","0","indirect_first","0","lz03ld31","0","69","4","1","3","1","Ich habe mich nie mit chinesischen Zeichen beschäftigt und war jetzt erstaunt, wie ""ästhetisch"" sie sind. Allerdingsversuchte ich, einen ""Sinn"" darin zu finden, eine Art story und das hat mich verwirrt. Vielen Dank!","0","1","0","null","","","<div class = 'row'><div class = 'column'><img src = 'category4/CS9.png' width = '70%;'></div><div class = 'column'><img src = 'uspos/4599.bmp' width = '100%;'></div></div>","null","pos","CS","CS","4","category4/CS9.png","","","","",""
"","html-keyboard-response","51","281266","0.0-6.0-4.0-0.3","6xb5aupvc2","many_one","0","indirect_first","0","lz03ld31","0","69","4","1","3","1","Ich habe mich nie mit chinesischen Zeichen beschäftigt und war jetzt erstaunt, wie ""ästhetisch"" sie sind. Allerdingsversuchte ich, einen ""Sinn"" darin zu finden, eine Art story und das hat mich verwirrt. Vielen Dank!","0","1","0","null","","","<div class = 'row'><div class = 'column'><img src = 'uspos/2165.bmp' width = '100%;'></div><div class = 'column'><img src = 'category4/CS7.png' width = '70%;'></div></div>","null","pos","CS","CS","4","category4/CS7.png","","","","",""
"","html-keyboard-response","52","283771","0.0-6.0-4.0-0.4","6xb5aupvc2","many_one","0","indirect_first","0","lz03ld31","0","69","4","1","3","1","Ich habe mich nie mit chinesischen Zeichen beschäftigt und war jetzt erstaunt, wie ""ästhetisch"" sie sind. Allerdingsversuchte ich, einen ""Sinn"" darin zu finden, eine Art story und das hat mich verwirrt. Vielen Dank!","0","1","0","null","","","<div class = 'row'><div class = 'column'><img src = 'category1/CS7.png' width = '70%;'></div><div class = 'column'><img src = 'usneg/9560.bmp' width = '100%;'></div></div>","null","neg","CS","CS","1","category1/CS7.png","","","","",""
"","html-keyboard-response","53","286274","0.0-6.0-4.0-0.5","6xb5aupvc2","many_one","0","indirect_first","0","lz03ld31","0","69","4","1","3","1","Ich habe mich nie mit chinesischen Zeichen beschäftigt und war jetzt erstaunt, wie ""ästhetisch"" sie sind. Allerdingsversuchte ich, einen ""Sinn"" darin zu finden, eine Art story und das hat mich verwirrt. Vielen Dank!","0","1","0","null","","","<div class = 'row'><div class = 'column'><img src = 'category1/CS1.png' width = '70%;'></div><div class = 'column'><img src = 'usneg/9340.bmp' width = '100%;'></div></div>","null","neg","CS","CS","1","category1/CS1.png","","","","",""
"","html-keyboard-response","54","288777","0.0-6.0-4.0-0.6","6xb5aupvc2","many_one","0","indirect_first","0","lz03ld31","0","69","4","1","3","1","Ich habe mich nie mit chinesischen Zeichen beschäftigt und war jetzt erstaunt, wie ""ästhetisch"" sie sind. Allerdingsversuchte ich, einen ""Sinn"" darin zu finden, eine Art story und das hat mich verwirrt. Vielen Dank!","0","1","0","null","","","<div class = 'row'><div class = 'column'><img src = 'category3/CS5.png' width = '70%;'></div><div class = 'column'><img src = 'usneg/7380.bmp' width = '100%;'></div></div>","null","neg","CS","CS","3","category3/CS5.png","","","","",""
"","html-keyboard-response","55","291279","0.0-6.0-4.0-0.7","6xb5aupvc2","many_one","0","indirect_first","0","lz03ld31","0","69","4","1","3","1","Ich habe mich nie mit chinesischen Zeichen beschäftigt und war jetzt erstaunt, wie ""ästhetisch"" sie sind. Allerdingsversuchte ich, einen ""Sinn"" darin zu finden, eine Art story und das hat mich verwirrt. Vielen Dank!","0","1","0","null","","","<div class = 'row'><div class = 'column'><img src = 'category2/CS10.png' width = '70%;'></div><div class = 'column'><img src = 'uspos/8540.bmp' width = '100%;'></div></div>","null","pos","CS","CS","2","category2/CS10.png","","","","",""
"","html-keyboard-response","56","293783","0.0-6.0-4.0-0.8","6xb5aupvc2","many_one","0","indirect_first","0","lz03ld31","0","69","4","1","3","1","Ich habe mich nie mit chinesischen Zeichen beschäftigt und war jetzt erstaunt, wie ""ästhetisch"" sie sind. Allerdingsversuchte ich, einen ""Sinn"" darin zu finden, eine Art story und das hat mich verwirrt. Vielen Dank!","0","1","0","null","","","<div class = 'row'><div class = 'column'><img src = 'uspos/1710.bmp' width = '100%;'></div><div class = 'column'><img src = 'category4/CS3.png' width = '70%;'></div></div>","null","pos","CS","CS","4","category4/CS3.png","","","","",""
"","html-keyboard-response","57","296289","0.0-6.0-4.0-0.9","6xb5aupvc2","many_one","0","indirect_first","0","lz03ld31","0","69","4","1","3","1","Ich habe mich nie mit chinesischen Zeichen beschäftigt und war jetzt erstaunt, wie ""ästhetisch"" sie sind. Allerdingsversuchte ich, einen ""Sinn"" darin zu finden, eine Art story und das hat mich verwirrt. Vielen Dank!","0","1","0","null","","","<div class = 'row'><div class = 'column'><img src = 'category1/CS9.png' width = '70%;'></div><div class = 'column'><img src = 'usneg/9000.bmp' width = '100%;'></div></div>","null","neg","CS","CS","1","category1/CS9.png","","","","",""
"","html-keyboard-response","58","298791","0.0-6.0-4.0-0.10","6xb5aupvc2","many_one","0","indirect_first","0","lz03ld31","0","69","4","1","3","1","Ich habe mich nie mit chinesischen Zeichen beschäftigt und war jetzt erstaunt, wie ""ästhetisch"" sie sind. Allerdingsversuchte ich, einen ""Sinn"" darin zu finden, eine Art story und das hat mich verwirrt. Vielen Dank!","0","1","0","null","","","<div class = 'row'><div class = 'column'><img src = 'category1/CS6.png' width = '70%;'></div><div class = 'column'><img src = 'usneg/9182.bmp' width = '100%;'></div></div>","null","neg","CS","CS","1","category1/CS6.png","","","","",""
"","html-keyboard-response","59","301293","0.0-6.0-4.0-0.11","6xb5aupvc2","many_one","0","indirect_first","0","lz03ld31","0","69","4","1","3","1","Ich habe mich nie mit chinesischen Zeichen beschäftigt und war jetzt erstaunt, wie ""ästhetisch"" sie sind. Allerdingsversuchte ich, einen ""Sinn"" darin zu finden, eine Art story und das hat mich verwirrt. Vielen Dank!","0","1","0","null","","","<div class = 'row'><div class = 'column'><img src = 'uspos/1463.bmp' width = '100%;'></div><div class = 'column'><img src = 'category2/CS8.png' width = '70%;'></div></div>","null","pos","CS","CS","2","category2/CS8.png","","","","",""
"","html-keyboard-response","60","303798","0.0-6.0-4.0-0.12","6xb5aupvc2","many_one","0","indirect_first","0","lz03ld31","0","69","4","1","3","1","Ich habe mich nie mit chinesischen Zeichen beschäftigt und war jetzt erstaunt, wie ""ästhetisch"" sie sind. Allerdingsversuchte ich, einen ""Sinn"" darin zu finden, eine Art story und das hat mich verwirrt. Vielen Dank!","0","1","0","null","","","<div class = 'row'><div class = 'column'><img src = 'usneg/9180.bmp' width = '100%;'></div><div class = 'column'><img src = 'category3/CS8.png' width = '70%;'></div></div>","null","neg","CS","CS","3","category3/CS8.png","","","","",""
"","html-keyboard-response","61","306300","0.0-6.0-4.0-0.13","6xb5aupvc2","many_one","0","indirect_first","0","lz03ld31","0","69","4","1","3","1","Ich habe mich nie mit chinesischen Zeichen beschäftigt und war jetzt erstaunt, wie ""ästhetisch"" sie sind. Allerdingsversuchte ich, einen ""Sinn"" darin zu finden, eine Art story und das hat mich verwirrt. Vielen Dank!","0","1","0","null","","","<div class = 'row'><div class = 'column'><img src = 'usneg/9050.bmp' width = '100%;'></div><div class = 'column'><img src = 'category3/CS10.png' width = '70%;'></div></div>","null","neg","CS","CS","3","category3/CS10.png","","","","",""
"","html-keyboard-response","62","308802","0.0-6.0-4.0-0.14","6xb5aupvc2","many_one","0","indirect_first","0","lz03ld31","0","69","4","1","3","1","Ich habe mich nie mit chinesischen Zeichen beschäftigt und war jetzt erstaunt, wie ""ästhetisch"" sie sind. Allerdingsversuchte ich, einen ""Sinn"" darin zu finden, eine Art story und das hat mich verwirrt. Vielen Dank!","0","1","0","null","","","<div class = 'row'><div class = 'column'><img src = 'usneg/9041.bmp' width = '100%;'></div><div class = 'column'><img src = 'category3/CS9.png' width = '70%;'></div></div>","null","neg","CS","CS","3","category3/CS9.png","","","","",""
"","html-keyboard-response","63","311306","0.0-6.0-4.0-0.15","6xb5aupvc2","many_one","0","indirect_first","0","lz03ld31","0","69","4","1","3","1","Ich habe mich nie mit chinesischen Zeichen beschäftigt und war jetzt erstaunt, wie ""ästhetisch"" sie sind. Allerdingsversuchte ich, einen ""Sinn"" darin zu finden, eine Art story und das hat mich verwirrt. Vielen Dank!","0","1","0","null","","","<div class = 'row'><div class = 'column'><img src = 'category2/CS6.png' width = '70%;'></div><div class = 'column'><img src = 'uspos/2340.bmp' width = '100%;'></div></div>","null","pos","CS","CS","2","category2/CS6.png","","","","",""
"","html-keyboard-response","64","313809","0.0-6.0-4.0-0.16","6xb5aupvc2","many_one","0","indirect_first","0","lz03ld31","0","69","4","1","3","1","Ich habe mich nie mit chinesischen Zeichen beschäftigt und war jetzt erstaunt, wie ""ästhetisch"" sie sind. Allerdingsversuchte ich, einen ""Sinn"" darin zu finden, eine Art story und das hat mich verwirrt. Vielen Dank!","0","1","0","null","","","<div class = 'row'><div class = 'column'><img src = 'usneg/2750.bmp' width = '100%;'></div><div class = 'column'><img src = 'category3/CS4.png' width = '70%;'></div></div>","null","neg","CS","CS","3","category3/CS4.png","","","","",""
"","html-keyboard-response","65","316312","0.0-6.0-4.0-0.17","6xb5aupvc2","many_one","0","indirect_first","0","lz03ld31","0","69","4","1","3","1","Ich habe mich nie mit chinesischen Zeichen beschäftigt und war jetzt erstaunt, wie ""ästhetisch"" sie sind. Allerdingsversuchte ich, einen ""Sinn"" darin zu finden, eine Art story und das hat mich verwirrt. Vielen Dank!","0","1","0","null","","","<div class = 'row'><div class = 'column'><img src = 'uspos/7325.bmp' width = '100%;'></div><div class = 'column'><img src = 'category2/CS4.png' width = '70%;'></div></div>","null","pos","CS","CS","2","category2/CS4.png","","","","",""
"","html-keyboard-response","66","318814","0.0-6.0-4.0-0.18","6xb5aupvc2","many_one","0","indirect_first","0","lz03ld31","0","69","4","1","3","1","Ich habe mich nie mit chinesischen Zeichen beschäftigt und war jetzt erstaunt, wie ""ästhetisch"" sie sind. Allerdingsversuchte ich, einen ""Sinn"" darin zu finden, eine Art story und das hat mich verwirrt. Vielen Dank!","0","1","0","null","","","<div class = 'row'><div class = 'column'><img src = 'uspos/5700.bmp' width = '100%;'></div><div class = 'column'><img src = 'category4/CS5.png' width = '70%;'></div></div>","null","pos","CS","CS","4","category4/CS5.png","","","","",""
"","html-keyboard-response","67","321317","0.0-6.0-4.0-0.19","6xb5aupvc2","many_one","0","indirect_first","0","lz03ld31","0","69","4","1","3","1","Ich habe mich nie mit chinesischen Zeichen beschäftigt und war jetzt erstaunt, wie ""ästhetisch"" sie sind. Allerdingsversuchte ich, einen ""Sinn"" darin zu finden, eine Art story und das hat mich verwirrt. Vielen Dank!","0","1","0","null","","","<div class = 'row'><div class = 'column'><img src = 'uspos/2360.bmp' width = '100%;'></div><div class = 'column'><img src = 'category2/CS1.png' width = '70%;'></div></div>","null","pos","CS","CS","2","category2/CS1.png","","","","",""
"","survey-html-form","68","327177","0.0-6.0-5.0","6xb5aupvc2","many_one","0","indirect_first","0","lz03ld31","0","69","4","1","3","1","Ich habe mich nie mit chinesischen Zeichen beschäftigt und war jetzt erstaunt, wie ""ästhetisch"" sie sind. Allerdingsversuchte ich, einen ""Sinn"" darin zu finden, eine Art story und das hat mich verwirrt. Vielen Dank!","0","1","0","5358.000000007451","","{}","","","","","","","","","","","",""
"","html-keyboard-response","69","331190","0.0-6.0-6.0-0.0","6xb5aupvc2","many_one","0","indirect_first","0","lz03ld31","0","69","4","1","3","1","Ich habe mich nie mit chinesischen Zeichen beschäftigt und war jetzt erstaunt, wie ""ästhetisch"" sie sind. Allerdingsversuchte ich, einen ""Sinn"" darin zu finden, eine Art story und das hat mich verwirrt. Vielen Dank!","0","1","0","null","","","<div class = 'row'><div class = 'column'><img src = 'usneg/9041.bmp' width = '100%;'></div><div class = 'column'><img src = 'category3/CS9.png' width = '70%;'></div></div>","null","neg","CS","CS","3","category3/CS9.png","","","","",""
"","html-keyboard-response","70","333692","0.0-6.0-6.0-0.1","6xb5aupvc2","many_one","0","indirect_first","0","lz03ld31","0","69","4","1","3","1","Ich habe mich nie mit chinesischen Zeichen beschäftigt und war jetzt erstaunt, wie ""ästhetisch"" sie sind. Allerdingsversuchte ich, einen ""Sinn"" darin zu finden, eine Art story und das hat mich verwirrt. Vielen Dank!","0","1","0","null","","","<div class = 'row'><div class = 'column'><img src = 'uspos/2165.bmp' width = '100%;'></div><div class = 'column'><img src = 'category4/CS7.png' width = '70%;'></div></div>","null","pos","CS","CS","4","category4/CS7.png","","","","",""
"","html-keyboard-response","71","336194","0.0-6.0-6.0-0.2","6xb5aupvc2","many_one","0","indirect_first","0","lz03ld31","0","69","4","1","3","1","Ich habe mich nie mit chinesischen Zeichen beschäftigt und war jetzt erstaunt, wie ""ästhetisch"" sie sind. Allerdingsversuchte ich, einen ""Sinn"" darin zu finden, eine Art story und das hat mich verwirrt. Vielen Dank!","0","1","0","null","","","<div class = 'row'><div class = 'column'><img src = 'uspos/4599.bmp' width = '100%;'></div><div class = 'column'><img src = 'category4/CS9.png' width = '70%;'></div></div>","null","pos","CS","CS","4","category4/CS9.png","","","","",""
"","html-keyboard-response","72","338696","0.0-6.0-6.0-0.3","6xb5aupvc2","many_one","0","indirect_first","0","lz03ld31","0","69","4","1","3","1","Ich habe mich nie mit chinesischen Zeichen beschäftigt und war jetzt erstaunt, wie ""ästhetisch"" sie sind. Allerdingsversuchte ich, einen ""Sinn"" darin zu finden, eine Art story und das hat mich verwirrt. Vielen Dank!","0","1","0","null","","","<div class = 'row'><div class = 'column'><img src = 'usneg/9050.bmp' width = '100%;'></div><div class = 'column'><img src = 'category3/CS10.png' width = '70%;'></div></div>","null","neg","CS","CS","3","category3/CS10.png","","","","",""
"","html-keyboard-response","73","341200","0.0-6.0-6.0-0.4","6xb5aupvc2","many_one","0","indirect_first","0","lz03ld31","0","69","4","1","3","1","Ich habe mich nie mit chinesischen Zeichen beschäftigt und war jetzt erstaunt, wie ""ästhetisch"" sie sind. Allerdingsversuchte ich, einen ""Sinn"" darin zu finden, eine Art story und das hat mich verwirrt. Vielen Dank!","0","1","0","null","","","<div class = 'row'><div class = 'column'><img src = 'category2/CS1.png' width = '70%;'></div><div class = 'column'><img src = 'uspos/2360.bmp' width = '100%;'></div></div>","null","pos","CS","CS","2","category2/CS1.png","","","","",""
"","html-keyboard-response","74","343702","0.0-6.0-6.0-0.5","6xb5aupvc2","many_one","0","indirect_first","0","lz03ld31","0","69","4","1","3","1","Ich habe mich nie mit chinesischen Zeichen beschäftigt und war jetzt erstaunt, wie ""ästhetisch"" sie sind. Allerdingsversuchte ich, einen ""Sinn"" darin zu finden, eine Art story und das hat mich verwirrt. Vielen Dank!","0","1","0","null","","","<div class = 'row'><div class = 'column'><img src = 'usneg/7380.bmp' width = '100%;'></div><div class = 'column'><img src = 'category3/CS5.png' width = '70%;'></div></div>","null","neg","CS","CS","3","category3/CS5.png","","","","",""
"","html-keyboard-response","75","346212","0.0-6.0-6.0-0.6","6xb5aupvc2","many_one","0","indirect_first","0","lz03ld31","0","69","4","1","3","1","Ich habe mich nie mit chinesischen Zeichen beschäftigt und war jetzt erstaunt, wie ""ästhetisch"" sie sind. Allerdingsversuchte ich, einen ""Sinn"" darin zu finden, eine Art story und das hat mich verwirrt. Vielen Dank!","0","1","0","null","","","<div class = 'row'><div class = 'column'><img src = 'usneg/9340.bmp' width = '100%;'></div><div class = 'column'><img src = 'category1/CS1.png' width = '70%;'></div></div>","null","neg","CS","CS","1","category1/CS1.png","","","","",""
"","html-keyboard-response","76","348715","0.0-6.0-6.0-0.7","6xb5aupvc2","many_one","0","indirect_first","0","lz03ld31","0","69","4","1","3","1","Ich habe mich nie mit chinesischen Zeichen beschäftigt und war jetzt erstaunt, wie ""ästhetisch"" sie sind. Allerdingsversuchte ich, einen ""Sinn"" darin zu finden, eine Art story und das hat mich verwirrt. Vielen Dank!","0","1","0","null","","","<div class = 'row'><div class = 'column'><img src = 'category3/CS4.png' width = '70%;'></div><div class = 'column'><img src = 'usneg/2750.bmp' width = '100%;'></div></div>","null","neg","CS","CS","3","category3/CS4.png","","","","",""
"","html-keyboard-response","77","351219","0.0-6.0-6.0-0.8","6xb5aupvc2","many_one","0","indirect_first","0","lz03ld31","0","69","4","1","3","1","Ich habe mich nie mit chinesischen Zeichen beschäftigt und war jetzt erstaunt, wie ""ästhetisch"" sie sind. Allerdingsversuchte ich, einen ""Sinn"" darin zu finden, eine Art story und das hat mich verwirrt. Vielen Dank!","0","1","0","null","","","<div class = 'row'><div class = 'column'><img src = 'category2/CS6.png' width = '70%;'></div><div class = 'column'><img src = 'uspos/2340.bmp' width = '100%;'></div></div>","null","pos","CS","CS","2","category2/CS6.png","","","","",""
"","html-keyboard-response","78","353722","0.0-6.0-6.0-0.9","6xb5aupvc2","many_one","0","indirect_first","0","lz03ld31","0","69","4","1","3","1","Ich habe mich nie mit chinesischen Zeichen beschäftigt und war jetzt erstaunt, wie ""ästhetisch"" sie sind. Allerdingsversuchte ich, einen ""Sinn"" darin zu finden, eine Art story und das hat mich verwirrt. Vielen Dank!","0","1","0","null","","","<div class = 'row'><div class = 'column'><img src = 'usneg/9180.bmp' width = '100%;'></div><div class = 'column'><img src = 'category3/CS8.png' width = '70%;'></div></div>","null","neg","CS","CS","3","category3/CS8.png","","","","",""
"","html-keyboard-response","79","356225","0.0-6.0-6.0-0.10","6xb5aupvc2","many_one","0","indirect_first","0","lz03ld31","0","69","4","1","3","1","Ich habe mich nie mit chinesischen Zeichen beschäftigt und war jetzt erstaunt, wie ""ästhetisch"" sie sind. Allerdingsversuchte ich, einen ""Sinn"" darin zu finden, eine Art story und das hat mich verwirrt. Vielen Dank!","0","1","0","null","","","<div class = 'row'><div class = 'column'><img src = 'category2/CS10.png' width = '70%;'></div><div class = 'column'><img src = 'uspos/8540.bmp' width = '100%;'></div></div>","null","pos","CS","CS","2","category2/CS10.png","","","","",""
"","html-keyboard-response","80","358727","0.0-6.0-6.0-0.11","6xb5aupvc2","many_one","0","indirect_first","0","lz03ld31","0","69","4","1","3","1","Ich habe mich nie mit chinesischen Zeichen beschäftigt und war jetzt erstaunt, wie ""ästhetisch"" sie sind. Allerdingsversuchte ich, einen ""Sinn"" darin zu finden, eine Art story und das hat mich verwirrt. Vielen Dank!","0","1","0","null","","","<div class = 'row'><div class = 'column'><img src = 'category1/CS5.png' width = '70%;'></div><div class = 'column'><img src = 'usneg/6838.bmp' width = '100%;'></div></div>","null","neg","CS","CS","1","category1/CS5.png","","","","",""
"","html-keyboard-response","81","361232","0.0-6.0-6.0-0.12","6xb5aupvc2","many_one","0","indirect_first","0","lz03ld31","0","69","4","1","3","1","Ich habe mich nie mit chinesischen Zeichen beschäftigt und war jetzt erstaunt, wie ""ästhetisch"" sie sind. Allerdingsversuchte ich, einen ""Sinn"" darin zu finden, eine Art story und das hat mich verwirrt. Vielen Dank!","0","1","0","null","","","<div class = 'row'><div class = 'column'><img src = 'usneg/9182.bmp' width = '100%;'></div><div class = 'column'><img src = 'category1/CS6.png' width = '70%;'></div></div>","null","neg","CS","CS","1","category1/CS6.png","","","","",""
"","html-keyboard-response","82","363734","0.0-6.0-6.0-0.13","6xb5aupvc2","many_one","0","indirect_first","0","lz03ld31","0","69","4","1","3","1","Ich habe mich nie mit chinesischen Zeichen beschäftigt und war jetzt erstaunt, wie ""ästhetisch"" sie sind. Allerdingsversuchte ich, einen ""Sinn"" darin zu finden, eine Art story und das hat mich verwirrt. Vielen Dank!","0","1","0","null","","","<div class = 'row'><div class = 'column'><img src = 'usneg/9000.bmp' width = '100%;'></div><div class = 'column'><img src = 'category1/CS9.png' width = '70%;'></div></div>","null","neg","CS","CS","1","category1/CS9.png","","","","",""
"","html-keyboard-response","83","366237","0.0-6.0-6.0-0.14","6xb5aupvc2","many_one","0","indirect_first","0","lz03ld31","0","69","4","1","3","1","Ich habe mich nie mit chinesischen Zeichen beschäftigt und war jetzt erstaunt, wie ""ästhetisch"" sie sind. Allerdingsversuchte ich, einen ""Sinn"" darin zu finden, eine Art story und das hat mich verwirrt. Vielen Dank!","0","1","0","null","","","<div class = 'row'><div class = 'column'><img src = 'category4/CS5.png' width = '70%;'></div><div class = 'column'><img src = 'uspos/5700.bmp' width = '100%;'></div></div>","null","pos","CS","CS","4","category4/CS5.png","","","","",""
"","html-keyboard-response","84","368740","0.0-6.0-6.0-0.15","6xb5aupvc2","many_one","0","indirect_first","0","lz03ld31","0","69","4","1","3","1","Ich habe mich nie mit chinesischen Zeichen beschäftigt und war jetzt erstaunt, wie ""ästhetisch"" sie sind. Allerdingsversuchte ich, einen ""Sinn"" darin zu finden, eine Art story und das hat mich verwirrt. Vielen Dank!","0","1","0","null","","","<div class = 'row'><div class = 'column'><img src = 'category4/CS3.png' width = '70%;'></div><div class = 'column'><img src = 'uspos/1710.bmp' width = '100%;'></div></div>","null","pos","CS","CS","4","category4/CS3.png","","","","",""
"","html-keyboard-response","85","371244","0.0-6.0-6.0-0.16","6xb5aupvc2","many_one","0","indirect_first","0","lz03ld31","0","69","4","1","3","1","Ich habe mich nie mit chinesischen Zeichen beschäftigt und war jetzt erstaunt, wie ""ästhetisch"" sie sind. Allerdingsversuchte ich, einen ""Sinn"" darin zu finden, eine Art story und das hat mich verwirrt. Vielen Dank!","0","1","0","null","","","<div class = 'row'><div class = 'column'><img src = 'category2/CS4.png' width = '70%;'></div><div class = 'column'><img src = 'uspos/7325.bmp' width = '100%;'></div></div>","null","pos","CS","CS","2","category2/CS4.png","","","","",""
"","html-keyboard-response","86","373747","0.0-6.0-6.0-0.17","6xb5aupvc2","many_one","0","indirect_first","0","lz03ld31","0","69","4","1","3","1","Ich habe mich nie mit chinesischen Zeichen beschäftigt und war jetzt erstaunt, wie ""ästhetisch"" sie sind. Allerdingsversuchte ich, einen ""Sinn"" darin zu finden, eine Art story und das hat mich verwirrt. Vielen Dank!","0","1","0","null","","","<div class = 'row'><div class = 'column'><img src = 'usneg/9560.bmp' width = '100%;'></div><div class = 'column'><img src = 'category1/CS7.png' width = '70%;'></div></div>","null","neg","CS","CS","1","category1/CS7.png","","","","",""
"","html-keyboard-response","87","376249","0.0-6.0-6.0-0.18","6xb5aupvc2","many_one","0","indirect_first","0","lz03ld31","0","69","4","1","3","1","Ich habe mich nie mit chinesischen Zeichen beschäftigt und war jetzt erstaunt, wie ""ästhetisch"" sie sind. Allerdingsversuchte ich, einen ""Sinn"" darin zu finden, eine Art story und das hat mich verwirrt. Vielen Dank!","0","1","0","null","","","<div class = 'row'><div class = 'column'><img src = 'category4/CS4.png' width = '70%;'></div><div class = 'column'><img src = 'uspos/5470.bmp' width = '100%;'></div></div>","null","pos","CS","CS","4","category4/CS4.png","","","","",""
"","html-keyboard-response","88","378751","0.0-6.0-6.0-0.19","6xb5aupvc2","many_one","0","indirect_first","0","lz03ld31","0","69","4","1","3","1","Ich habe mich nie mit chinesischen Zeichen beschäftigt und war jetzt erstaunt, wie ""ästhetisch"" sie sind. Allerdingsversuchte ich, einen ""Sinn"" darin zu finden, eine Art story und das hat mich verwirrt. Vielen Dank!","0","1","0","null","","","<div class = 'row'><div class = 'column'><img src = 'category2/CS8.png' width = '70%;'></div><div class = 'column'><img src = 'uspos/1463.bmp' width = '100%;'></div></div>","null","pos","CS","CS","2","category2/CS8.png","","","","",""
"","html-keyboard-response","89","406940","0.0-7.0","6xb5aupvc2","many_one","0","indirect_first","0","lz03ld31","0","69","4","1","3","1","Ich habe mich nie mit chinesischen Zeichen beschäftigt und war jetzt erstaunt, wie ""ästhetisch"" sie sind. Allerdingsversuchte ich, einen ""Sinn"" darin zu finden, eine Art story und das hat mich verwirrt. Vielen Dank!","0","1","0","27686.999999918044","","","<p>Sie sehen nun die chinesischen Zeichen nur ganz kurz. Danach sehen Sie die jeweilige Aussprache der Zeichen als Silbe auf dem Bildschrim. Ihre Aufgabe ist es, für jede Silbe anzugeben, ob diese etwas angenehmes, oder unangenehmes bedeuten könnte. Verlassen Sie sich hier vor allem auf Ihre Intuition.<br><br>Die Zeichen werden nur zur Orientierung dargestellt, beachten Sie sie deshalb nicht. Konzentrieren Sie sich vor allem auf die Silben. <br>Reagieren Sie mit folgenden zwei Tasten: <br><br><b>'D' </b> wenn die Silbe etwas <b>unangenehmes</b> bedeuten könnte. <br><b>'K'</b> wenn die Silbe etwas <b>angenehmes</b> bedeuten könnte. <br><br>Bitte legen Sie nun den Zeigefinger der linken Hand auf die Taste 'D' und den Zeigefinger der rechten Hand auf die Taste 'K'. <br>Reagieren Sie auf jede Silbe so schnell wie möglich. Uns interessiert Ihre spontane Reaktion. <br> <br> <br>Drücken Sie 'D' oder 'K', um die nächste Aufgabe zu starten. </p>","68","","","","","","","","","",""
"","html-keyboard-response","90","409942","0.0-8.0-0.0","6xb5aupvc2","many_one","0","indirect_first","0","lz03ld31","0","69","4","1","3","1","Ich habe mich nie mit chinesischen Zeichen beschäftigt und war jetzt erstaunt, wie ""ästhetisch"" sie sind. Allerdingsversuchte ich, einen ""Sinn"" darin zu finden, eine Art story und das hat mich verwirrt. Vielen Dank!","0","1","0","null","","","<div style=""font-size:60px;"">+</div>","null","","","","","","","","","",""
"","html-keyboard-response","91","410034","0.0-8.0-1.0","6xb5aupvc2","many_one","0","indirect_first","0","lz03ld31","0","69","4","1","3","1","Ich habe mich nie mit chinesischen Zeichen beschäftigt und war jetzt erstaunt, wie ""ästhetisch"" sie sind. Allerdingsversuchte ich, einen ""Sinn"" darin zu finden, eine Art story und das hat mich verwirrt. Vielen Dank!","0","1","0","null","","","<img src = 'category4/CS9.png' width = '100%;'>","null","","","","","","","","","",""
"","html-keyboard-response","92","410285","0.0-8.0-2.0","6xb5aupvc2","many_one","0","indirect_first","0","lz03ld31","0","69","4","1","3","1","Ich habe mich nie mit chinesischen Zeichen beschäftigt und war jetzt erstaunt, wie ""ästhetisch"" sie sind. Allerdingsversuchte ich, einen ""Sinn"" darin zu finden, eine Art story und das hat mich verwirrt. Vielen Dank!","0","1","0","null","","","<img src = 'targets/10.png' width = '100%;'>","null","","","","","","","","","",""
"","html-keyboard-response","93","421531","0.0-8.0-3.0","6xb5aupvc2","many_one","0","indirect_first","0","lz03ld31","0","69","4","1","3","1","Ich habe mich nie mit chinesischen Zeichen beschäftigt und war jetzt erstaunt, wie ""ästhetisch"" sie sind. Allerdingsversuchte ich, einen ""Sinn"" darin zu finden, eine Art story und das hat mich verwirrt. Vielen Dank!","0","1","0","11243.999999947846","","","<img src = 'targets/mask.png' width = '100%;'>","75","pos","CS","CS","4","category4/CS9.png","targets/10.png","1","indirect","0",""
"","html-keyboard-response","94","423034","0.0-8.0-0.1","6xb5aupvc2","many_one","0","indirect_first","0","lz03ld31","0","69","4","1","3","1","Ich habe mich nie mit chinesischen Zeichen beschäftigt und war jetzt erstaunt, wie ""ästhetisch"" sie sind. Allerdingsversuchte ich, einen ""Sinn"" darin zu finden, eine Art story und das hat mich verwirrt. Vielen Dank!","0","1","0","null","","","<div style=""font-size:60px;"">+</div>","null","","","","","","","","","",""
"","html-keyboard-response","95","423125","0.0-8.0-1.1","6xb5aupvc2","many_one","0","indirect_first","0","lz03ld31","0","69","4","1","3","1","Ich habe mich nie mit chinesischen Zeichen beschäftigt und war jetzt erstaunt, wie ""ästhetisch"" sie sind. Allerdingsversuchte ich, einen ""Sinn"" darin zu finden, eine Art story und das hat mich verwirrt. Vielen Dank!","0","1","0","null","","","<img src = 'category2/CS1.png' width = '100%;'>","null","","","","","","","","","",""
"","html-keyboard-response","96","423377","0.0-8.0-2.1","6xb5aupvc2","many_one","0","indirect_first","0","lz03ld31","0","69","4","1","3","1","Ich habe mich nie mit chinesischen Zeichen beschäftigt und war jetzt erstaunt, wie ""ästhetisch"" sie sind. Allerdingsversuchte ich, einen ""Sinn"" darin zu finden, eine Art story und das hat mich verwirrt. Vielen Dank!","0","1","0","null","","","<img src = 'targets/30.png' width = '100%;'>","null","","","","","","","","","",""
"","html-keyboard-response","97","425794","0.0-8.0-3.1","6xb5aupvc2","many_one","0","indirect_first","0","lz03ld31","0","69","4","1","3","1","Ich habe mich nie mit chinesischen Zeichen beschäftigt und war jetzt erstaunt, wie ""ästhetisch"" sie sind. Allerdingsversuchte ich, einen ""Sinn"" darin zu finden, eine Art story und das hat mich verwirrt. Vielen Dank!","0","1","0","2415.000000037253","","","<img src = 'targets/mask.png' width = '100%;'>","75","pos","CS","CS","2","category2/CS1.png","targets/30.png","1","indirect","1",""
"","html-keyboard-response","98","427295","0.0-8.0-0.2","6xb5aupvc2","many_one","0","indirect_first","0","lz03ld31","0","69","4","1","3","1","Ich habe mich nie mit chinesischen Zeichen beschäftigt und war jetzt erstaunt, wie ""ästhetisch"" sie sind. Allerdingsversuchte ich, einen ""Sinn"" darin zu finden, eine Art story und das hat mich verwirrt. Vielen Dank!","0","1","0","null","","","<div style=""font-size:60px;"">+</div>","null","","","","","","","","","",""
"","html-keyboard-response","99","427387","0.0-8.0-1.2","6xb5aupvc2","many_one","0","indirect_first","0","lz03ld31","0","69","4","1","3","1","Ich habe mich nie mit chinesischen Zeichen beschäftigt und war jetzt erstaunt, wie ""ästhetisch"" sie sind. Allerdingsversuchte ich, einen ""Sinn"" darin zu finden, eine Art story und das hat mich verwirrt. Vielen Dank!","0","1","0","null","","","<img src = 'category3/CS10.png' width = '100%;'>","null","","","","","","","","","",""
"","html-keyboard-response","100","427638","0.0-8.0-2.2","6xb5aupvc2","many_one","0","indirect_first","0","lz03ld31","0","69","4","1","3","1","Ich habe mich nie mit chinesischen Zeichen beschäftigt und war jetzt erstaunt, wie ""ästhetisch"" sie sind. Allerdingsversuchte ich, einen ""Sinn"" darin zu finden, eine Art story und das hat mich verwirrt. Vielen Dank!","0","1","0","null","","","<img src = 'targets/13.png' width = '100%;'>","null","","","","","","","","","",""
"","html-keyboard-response","101","429108","0.0-8.0-3.2","6xb5aupvc2","many_one","0","indirect_first","0","lz03ld31","0","69","4","1","3","1","Ich habe mich nie mit chinesischen Zeichen beschäftigt und war jetzt erstaunt, wie ""ästhetisch"" sie sind. Allerdingsversuchte ich, einen ""Sinn"" darin zu finden, eine Art story und das hat mich verwirrt. Vielen Dank!","0","1","0","1466.9999997131526","","","<img src = 'targets/mask.png' width = '100%;'>","75","neg","CS","CS","3","category3/CS10.png","targets/13.png","1","indirect","2",""
"","html-keyboard-response","102","430610","0.0-8.0-0.3","6xb5aupvc2","many_one","0","indirect_first","0","lz03ld31","0","69","4","1","3","1","Ich habe mich nie mit chinesischen Zeichen beschäftigt und war jetzt erstaunt, wie ""ästhetisch"" sie sind. Allerdingsversuchte ich, einen ""Sinn"" darin zu finden, eine Art story und das hat mich verwirrt. Vielen Dank!","0","1","0","null","","","<div style=""font-size:60px;"">+</div>","null","","","","","","","","","",""
"","html-keyboard-response","103","430701","0.0-8.0-1.3","6xb5aupvc2","many_one","0","indirect_first","0","lz03ld31","0","69","4","1","3","1","Ich habe mich nie mit chinesischen Zeichen beschäftigt und war jetzt erstaunt, wie ""ästhetisch"" sie sind. Allerdingsversuchte ich, einen ""Sinn"" darin zu finden, eine Art story und das hat mich verwirrt. Vielen Dank!","0","1","0","null","","","<img src = 'category1/CS9.png' width = '100%;'>","null","","","","","","","","","",""
"","html-keyboard-response","104","430951","0.0-8.0-2.3","6xb5aupvc2","many_one","0","indirect_first","0","lz03ld31","0","69","4","1","3","1","Ich habe mich nie mit chinesischen Zeichen beschäftigt und war jetzt erstaunt, wie ""ästhetisch"" sie sind. Allerdingsversuchte ich, einen ""Sinn"" darin zu finden, eine Art story und das hat mich verwirrt. Vielen Dank!","0","1","0","null","","","<img src = 'targets/47.png' width = '100%;'>","null","","","","","","","","","",""
"","html-keyboard-response","105","434702","0.0-8.0-3.3","6xb5aupvc2","many_one","0","indirect_first","0","lz03ld31","0","69","4","1","3","1","Ich habe mich nie mit chinesischen Zeichen beschäftigt und war jetzt erstaunt, wie ""ästhetisch"" sie sind. Allerdingsversuchte ich, einen ""Sinn"" darin zu finden, eine Art story und das hat mich verwirrt. Vielen Dank!","0","1","0","3750","","","<img src = 'targets/mask.png' width = '100%;'>","68","neg","CS","CS","1","category1/CS9.png","targets/47.png","0","indirect","3",""
"","html-keyboard-response","106","436203","0.0-8.0-0.4","6xb5aupvc2","many_one","0","indirect_first","0","lz03ld31","0","69","4","1","3","1","Ich habe mich nie mit chinesischen Zeichen beschäftigt und war jetzt erstaunt, wie ""ästhetisch"" sie sind. Allerdingsversuchte ich, einen ""Sinn"" darin zu finden, eine Art story und das hat mich verwirrt. Vielen Dank!","0","1","0","null","","","<div style=""font-size:60px;"">+</div>","null","","","","","","","","","",""
"","html-keyboard-response","107","436295","0.0-8.0-1.4","6xb5aupvc2","many_one","0","indirect_first","0","lz03ld31","0","69","4","1","3","1","Ich habe mich nie mit chinesischen Zeichen beschäftigt und war jetzt erstaunt, wie ""ästhetisch"" sie sind. Allerdingsversuchte ich, einen ""Sinn"" darin zu finden, eine Art story und das hat mich verwirrt. Vielen Dank!","0","1","0","null","","","<img src = 'category3/CS4.png' width = '100%;'>","null","","","","","","","","","",""
"","html-keyboard-response","108","436545","0.0-8.0-2.4","6xb5aupvc2","many_one","0","indirect_first","0","lz03ld31","0","69","4","1","3","1","Ich habe mich nie mit chinesischen Zeichen beschäftigt und war jetzt erstaunt, wie ""ästhetisch"" sie sind. Allerdingsversuchte ich, einen ""Sinn"" darin zu finden, eine Art story und das hat mich verwirrt. Vielen Dank!","0","1","0","null","","","<img src = 'targets/23.png' width = '100%;'>","null","","","","","","","","","",""
"","html-keyboard-response","109","437723","0.0-8.0-3.4","6xb5aupvc2","many_one","0","indirect_first","0","lz03ld31","0","69","4","1","3","1","Ich habe mich nie mit chinesischen Zeichen beschäftigt und war jetzt erstaunt, wie ""ästhetisch"" sie sind. Allerdingsversuchte ich, einen ""Sinn"" darin zu finden, eine Art story und das hat mich verwirrt. Vielen Dank!","0","1","0","1174.000000115484","","","<img src = 'targets/mask.png' width = '100%;'>","68","neg","CS","CS","3","category3/CS4.png","targets/23.png","0","indirect","4",""
"","html-keyboard-response","110","439223","0.0-8.0-0.5","6xb5aupvc2","many_one","0","indirect_first","0","lz03ld31","0","69","4","1","3","1","Ich habe mich nie mit chinesischen Zeichen beschäftigt und war jetzt erstaunt, wie ""ästhetisch"" sie sind. Allerdingsversuchte ich, einen ""Sinn"" darin zu finden, eine Art story und das hat mich verwirrt. Vielen Dank!","0","1","0","null","","","<div style=""font-size:60px;"">+</div>","null","","","","","","","","","",""
"","html-keyboard-response","111","439314","0.0-8.0-1.5","6xb5aupvc2","many_one","0","indirect_first","0","lz03ld31","0","69","4","1","3","1","Ich habe mich nie mit chinesischen Zeichen beschäftigt und war jetzt erstaunt, wie ""ästhetisch"" sie sind. Allerdingsversuchte ich, einen ""Sinn"" darin zu finden, eine Art story und das hat mich verwirrt. Vielen Dank!","0","1","0","null","","","<img src = 'category3/CS6.png' width = '100%;'>","null","","","","","","","","","",""
"","html-keyboard-response","112","439564","0.0-8.0-2.5","6xb5aupvc2","many_one","0","indirect_first","0","lz03ld31","0","69","4","1","3","1","Ich habe mich nie mit chinesischen Zeichen beschäftigt und war jetzt erstaunt, wie ""ästhetisch"" sie sind. Allerdingsversuchte ich, einen ""Sinn"" darin zu finden, eine Art story und das hat mich verwirrt. Vielen Dank!","0","1","0","null","","","<img src = 'targets/5.png' width = '100%;'>","null","","","","","","","","","",""
"","html-keyboard-response","113","441303","0.0-8.0-3.5","6xb5aupvc2","many_one","0","indirect_first","0","lz03ld31","0","69","4","1","3","1","Ich habe mich nie mit chinesischen Zeichen beschäftigt und war jetzt erstaunt, wie ""ästhetisch"" sie sind. Allerdingsversuchte ich, einen ""Sinn"" darin zu finden, eine Art story und das hat mich verwirrt. Vielen Dank!","0","1","0","1736.0000000335276","","","<img src = 'targets/mask.png' width = '100%;'>","68","neg","GS","GSold","3","category3/CS6.png","targets/5.png","0","indirect","5",""
"","html-keyboard-response","114","442803","0.0-8.0-0.6","6xb5aupvc2","many_one","0","indirect_first","0","lz03ld31","0","69","4","1","3","1","Ich habe mich nie mit chinesischen Zeichen beschäftigt und war jetzt erstaunt, wie ""ästhetisch"" sie sind. Allerdingsversuchte ich, einen ""Sinn"" darin zu finden, eine Art story und das hat mich verwirrt. Vielen Dank!","0","1","0","null","","","<div style=""font-size:60px;"">+</div>","null","","","","","","","","","",""
"","html-keyboard-response","115","442894","0.0-8.0-1.6","6xb5aupvc2","many_one","0","indirect_first","0","lz03ld31","0","69","4","1","3","1","Ich habe mich nie mit chinesischen Zeichen beschäftigt und war jetzt erstaunt, wie ""ästhetisch"" sie sind. Allerdingsversuchte ich, einen ""Sinn"" darin zu finden, eine Art story und das hat mich verwirrt. Vielen Dank!","0","1","0","null","","","<img src = 'category2/CS10.png' width = '100%;'>","null","","","","","","","","","",""
"","html-keyboard-response","116","443144","0.0-8.0-2.6","6xb5aupvc2","many_one","0","indirect_first","0","lz03ld31","0","69","4","1","3","1","Ich habe mich nie mit chinesischen Zeichen beschäftigt und war jetzt erstaunt, wie ""ästhetisch"" sie sind. Allerdingsversuchte ich, einen ""Sinn"" darin zu finden, eine Art story und das hat mich verwirrt. Vielen Dank!","0","1","0","null","","","<img src = 'targets/2.png' width = '100%;'>","null","","","","","","","","","",""
"","html-keyboard-response","117","444089","0.0-8.0-3.6","6xb5aupvc2","many_one","0","indirect_first","0","lz03ld31","0","69","4","1","3","1","Ich habe mich nie mit chinesischen Zeichen beschäftigt und war jetzt erstaunt, wie ""ästhetisch"" sie sind. Allerdingsversuchte ich, einen ""Sinn"" darin zu finden, eine Art story und das hat mich verwirrt. Vielen Dank!","0","1","0","942.9999999701977","","","<img src = 'targets/mask.png' width = '100%;'>","75","pos","CS","CS","2","category2/CS10.png","targets/2.png","1","indirect","6",""
"","html-keyboard-response","118","445589","0.0-8.0-0.7","6xb5aupvc2","many_one","0","indirect_first","0","lz03ld31","0","69","4","1","3","1","Ich habe mich nie mit chinesischen Zeichen beschäftigt und war jetzt erstaunt, wie ""ästhetisch"" sie sind. Allerdingsversuchte ich, einen ""Sinn"" darin zu finden, eine Art story und das hat mich verwirrt. Vielen Dank!","0","1","0","null","","","<div style=""font-size:60px;"">+</div>","null","","","","","","","","","",""
"","html-keyboard-response","119","445680","0.0-8.0-1.7","6xb5aupvc2","many_one","0","indirect_first","0","lz03ld31","0","69","4","1","3","1","Ich habe mich nie mit chinesischen Zeichen beschäftigt und war jetzt erstaunt, wie ""ästhetisch"" sie sind. Allerdingsversuchte ich, einen ""Sinn"" darin zu finden, eine Art story und das hat mich verwirrt. Vielen Dank!","0","1","0","null","","","<img src = 'category3/CS5.png' width = '100%;'>","null","","","","","","","","","",""
"","html-keyboard-response","120","445931","0.0-8.0-2.7","6xb5aupvc2","many_one","0","indirect_first","0","lz03ld31","0","69","4","1","3","1","Ich habe mich nie mit chinesischen Zeichen beschäftigt und war jetzt erstaunt, wie ""ästhetisch"" sie sind. Allerdingsversuchte ich, einen ""Sinn"" darin zu finden, eine Art story und das hat mich verwirrt. Vielen Dank!","0","1","0","null","","","<img src = 'targets/17.png' width = '100%;'>","null","","","","","","","","","",""
"","html-keyboard-response","121","447028","0.0-8.0-3.7","6xb5aupvc2","many_one","0","indirect_first","0","lz03ld31","0","69","4","1","3","1","Ich habe mich nie mit chinesischen Zeichen beschäftigt und war jetzt erstaunt, wie ""ästhetisch"" sie sind. Allerdingsversuchte ich, einen ""Sinn"" darin zu finden, eine Art story und das hat mich verwirrt. Vielen Dank!","0","1","0","1094.9999997392297","","","<img src = 'targets/mask.png' width = '100%;'>","68","neg","CS","CS","3","category3/CS5.png","targets/17.png","0","indirect","7",""
"","html-keyboard-response","122","448530","0.0-8.0-0.8","6xb5aupvc2","many_one","0","indirect_first","0","lz03ld31","0","69","4","1","3","1","Ich habe mich nie mit chinesischen Zeichen beschäftigt und war jetzt erstaunt, wie ""ästhetisch"" sie sind. Allerdingsversuchte ich, einen ""Sinn"" darin zu finden, eine Art story und das hat mich verwirrt. Vielen Dank!","0","1","0","null","","","<div style=""font-size:60px;"">+</div>","null","","","","","","","","","",""
"","html-keyboard-response","123","448621","0.0-8.0-1.8","6xb5aupvc2","many_one","0","indirect_first","0","lz03ld31","0","69","4","1","3","1","Ich habe mich nie mit chinesischen Zeichen beschäftigt und war jetzt erstaunt, wie ""ästhetisch"" sie sind. Allerdingsversuchte ich, einen ""Sinn"" darin zu finden, eine Art story und das hat mich verwirrt. Vielen Dank!","0","1","0","null","","","<img src = 'category3/CS2.png' width = '100%;'>","null","","","","","","","","","",""
"","html-keyboard-response","124","448871","0.0-8.0-2.8","6xb5aupvc2","many_one","0","indirect_first","0","lz03ld31","0","69","4","1","3","1","Ich habe mich nie mit chinesischen Zeichen beschäftigt und war jetzt erstaunt, wie ""ästhetisch"" sie sind. Allerdingsversuchte ich, einen ""Sinn"" darin zu finden, eine Art story und das hat mich verwirrt. Vielen Dank!","0","1","0","null","","","<img src = 'targets/39.png' width = '100%;'>","null","","","","","","","","","",""
"","html-keyboard-response","125","450017","0.0-8.0-3.8","6xb5aupvc2","many_one","0","indirect_first","0","lz03ld31","0","69","4","1","3","1","Ich habe mich nie mit chinesischen Zeichen beschäftigt und war jetzt erstaunt, wie ""ästhetisch"" sie sind. Allerdingsversuchte ich, einen ""Sinn"" darin zu finden, eine Art story und das hat mich verwirrt. Vielen Dank!","0","1","0","1145.0000000186265","","","<img src = 'targets/mask.png' width = '100%;'>","68","neg","GS","GSold","3","category3/CS2.png","targets/39.png","0","indirect","8",""
"","html-keyboard-response","126","451519","0.0-8.0-0.9","6xb5aupvc2","many_one","0","indirect_first","0","lz03ld31","0","69","4","1","3","1","Ich habe mich nie mit chinesischen Zeichen beschäftigt und war jetzt erstaunt, wie ""ästhetisch"" sie sind. Allerdingsversuchte ich, einen ""Sinn"" darin zu finden, eine Art story und das hat mich verwirrt. Vielen Dank!","0","1","0","null","","","<div style=""font-size:60px;"">+</div>","null","","","","","","","","","",""
"","html-keyboard-response","127","451610","0.0-8.0-1.9","6xb5aupvc2","many_one","0","indirect_first","0","lz03ld31","0","69","4","1","3","1","Ich habe mich nie mit chinesischen Zeichen beschäftigt und war jetzt erstaunt, wie ""ästhetisch"" sie sind. Allerdingsversuchte ich, einen ""Sinn"" darin zu finden, eine Art story und das hat mich verwirrt. Vielen Dank!","0","1","0","null","","","<img src = 'category3/CS3.png' width = '100%;'>","null","","","","","","","","","",""
"","html-keyboard-response","128","451861","0.0-8.0-2.9","6xb5aupvc2","many_one","0","indirect_first","0","lz03ld31","0","69","4","1","3","1","Ich habe mich nie mit chinesischen Zeichen beschäftigt und war jetzt erstaunt, wie ""ästhetisch"" sie sind. Allerdingsversuchte ich, einen ""Sinn"" darin zu finden, eine Art story und das hat mich verwirrt. Vielen Dank!","0","1","0","null","","","<img src = 'targets/34.png' width = '100%;'>","null","","","","","","","","","",""
"","html-keyboard-response","129","453520","0.0-8.0-3.9","6xb5aupvc2","many_one","0","indirect_first","0","lz03ld31","0","69","4","1","3","1","Ich habe mich nie mit chinesischen Zeichen beschäftigt und war jetzt erstaunt, wie ""ästhetisch"" sie sind. Allerdingsversuchte ich, einen ""Sinn"" darin zu finden, eine Art story und das hat mich verwirrt. Vielen Dank!","0","1","0","1656.000000424683","","","<img src = 'targets/mask.png' width = '100%;'>","75","neg","GS","GSold","3","category3/CS3.png","targets/34.png","1","indirect","9",""
"","html-keyboard-response","130","455021","0.0-8.0-0.10","6xb5aupvc2","many_one","0","indirect_first","0","lz03ld31","0","69","4","1","3","1","Ich habe mich nie mit chinesischen Zeichen beschäftigt und war jetzt erstaunt, wie ""ästhetisch"" sie sind. Allerdingsversuchte ich, einen ""Sinn"" darin zu finden, eine Art story und das hat mich verwirrt. Vielen Dank!","0","1","0","null","","","<div style=""font-size:60px;"">+</div>","null","","","","","","","","","",""
"","html-keyboard-response","131","455111","0.0-8.0-1.10","6xb5aupvc2","many_one","0","indirect_first","0","lz03ld31","0","69","4","1","3","1","Ich habe mich nie mit chinesischen Zeichen beschäftigt und war jetzt erstaunt, wie ""ästhetisch"" sie sind. Allerdingsversuchte ich, einen ""Sinn"" darin zu finden, eine Art story und das hat mich verwirrt. Vielen Dank!","0","1","0","null","","","<img src = 'category1/CS5.png' width = '100%;'>","null","","","","","","","","","",""
"","html-keyboard-response","132","455362","0.0-8.0-2.10","6xb5aupvc2","many_one","0","indirect_first","0","lz03ld31","0","69","4","1","3","1","Ich habe mich nie mit chinesischen Zeichen beschäftigt und war jetzt erstaunt, wie ""ästhetisch"" sie sind. Allerdingsversuchte ich, einen ""Sinn"" darin zu finden, eine Art story und das hat mich verwirrt. Vielen Dank!","0","1","0","null","","","<img src = 'targets/21.png' width = '100%;'>","null","","","","","","","","","",""
"","html-keyboard-response","133","458210","0.0-8.0-3.10","6xb5aupvc2","many_one","0","indirect_first","0","lz03ld31","0","69","4","1","3","1","Ich habe mich nie mit chinesischen Zeichen beschäftigt und war jetzt erstaunt, wie ""ästhetisch"" sie sind. Allerdingsversuchte ich, einen ""Sinn"" darin zu finden, eine Art story und das hat mich verwirrt. Vielen Dank!","0","1","0","2846.0000003688037","","","<img src = 'targets/mask.png' width = '100%;'>","68","neg","CS","CS","1","category1/CS5.png","targets/21.png","0","indirect","10",""
"","html-keyboard-response","134","459710","0.0-8.0-0.11","6xb5aupvc2","many_one","0","indirect_first","0","lz03ld31","0","69","4","1","3","1","Ich habe mich nie mit chinesischen Zeichen beschäftigt und war jetzt erstaunt, wie ""ästhetisch"" sie sind. Allerdingsversuchte ich, einen ""Sinn"" darin zu finden, eine Art story und das hat mich verwirrt. Vielen Dank!","0","1","0","null","","","<div style=""font-size:60px;"">+</div>","null","","","","","","","","","",""
"","html-keyboard-response","135","459801","0.0-8.0-1.11","6xb5aupvc2","many_one","0","indirect_first","0","lz03ld31","0","69","4","1","3","1","Ich habe mich nie mit chinesischen Zeichen beschäftigt und war jetzt erstaunt, wie ""ästhetisch"" sie sind. Allerdingsversuchte ich, einen ""Sinn"" darin zu finden, eine Art story und das hat mich verwirrt. Vielen Dank!","0","1","0","null","","","<img src = 'category3/CS8.png' width = '100%;'>","null","","","","","","","","","",""
"","html-keyboard-response","136","460051","0.0-8.0-2.11","6xb5aupvc2","many_one","0","indirect_first","0","lz03ld31","0","69","4","1","3","1","Ich habe mich nie mit chinesischen Zeichen beschäftigt und war jetzt erstaunt, wie ""ästhetisch"" sie sind. Allerdingsversuchte ich, einen ""Sinn"" darin zu finden, eine Art story und das hat mich verwirrt. Vielen Dank!","0","1","0","null","","","<img src = 'targets/32.png' width = '100%;'>","null","","","","","","","","","",""
"","html-keyboard-response","137","461557","0.0-8.0-3.11","6xb5aupvc2","many_one","0","indirect_first","0","lz03ld31","0","69","4","1","3","1","Ich habe mich nie mit chinesischen Zeichen beschäftigt und war jetzt erstaunt, wie ""ästhetisch"" sie sind. Allerdingsversuchte ich, einen ""Sinn"" darin zu finden, eine Art story und das hat mich verwirrt. Vielen Dank!","0","1","0","1503.000000026077","","","<img src = 'targets/mask.png' width = '100%;'>","75","neg","CS","CS","3","category3/CS8.png","targets/32.png","1","indirect","11",""
"","html-keyboard-response","138","463058","0.0-8.0-0.12","6xb5aupvc2","many_one","0","indirect_first","0","lz03ld31","0","69","4","1","3","1","Ich habe mich nie mit chinesischen Zeichen beschäftigt und war jetzt erstaunt, wie ""ästhetisch"" sie sind. Allerdingsversuchte ich, einen ""Sinn"" darin zu finden, eine Art story und das hat mich verwirrt. Vielen Dank!","0","1","0","null","","","<div style=""font-size:60px;"">+</div>","null","","","","","","","","","",""
"","html-keyboard-response","139","463149","0.0-8.0-1.12","6xb5aupvc2","many_one","0","indirect_first","0","lz03ld31","0","69","4","1","3","1","Ich habe mich nie mit chinesischen Zeichen beschäftigt und war jetzt erstaunt, wie ""ästhetisch"" sie sind. Allerdingsversuchte ich, einen ""Sinn"" darin zu finden, eine Art story und das hat mich verwirrt. Vielen Dank!","0","1","0","null","","","<img src = 'category2/CS4.png' width = '100%;'>","null","","","","","","","","","",""
"","html-keyboard-response","140","463400","0.0-8.0-2.12","6xb5aupvc2","many_one","0","indirect_first","0","lz03ld31","0","69","4","1","3","1","Ich habe mich nie mit chinesischen Zeichen beschäftigt und war jetzt erstaunt, wie ""ästhetisch"" sie sind. Allerdingsversuchte ich, einen ""Sinn"" darin zu finden, eine Art story und das hat mich verwirrt. Vielen Dank!","0","1","0","null","","","<img src = 'targets/9.png' width = '100%;'>","null","","","","","","","","","",""
"","html-keyboard-response","141","464617","0.0-8.0-3.12","6xb5aupvc2","many_one","0","indirect_first","0","lz03ld31","0","69","4","1","3","1","Ich habe mich nie mit chinesischen Zeichen beschäftigt und war jetzt erstaunt, wie ""ästhetisch"" sie sind. Allerdingsversuchte ich, einen ""Sinn"" darin zu finden, eine Art story und das hat mich verwirrt. Vielen Dank!","0","1","0","1216.0000000149012","","","<img src = 'targets/mask.png' width = '100%;'>","75","pos","CS","CS","2","category2/CS4.png","targets/9.png","1","indirect","12",""
"","html-keyboard-response","142","466118","0.0-8.0-0.13","6xb5aupvc2","many_one","0","indirect_first","0","lz03ld31","0","69","4","1","3","1","Ich habe mich nie mit chinesischen Zeichen beschäftigt und war jetzt erstaunt, wie ""ästhetisch"" sie sind. Allerdingsversuchte ich, einen ""Sinn"" darin zu finden, eine Art story und das hat mich verwirrt. Vielen Dank!","0","1","0","null","","","<div style=""font-size:60px;"">+</div>","null","","","","","","","","","",""
"","html-keyboard-response","143","466209","0.0-8.0-1.13","6xb5aupvc2","many_one","0","indirect_first","0","lz03ld31","0","69","4","1","3","1","Ich habe mich nie mit chinesischen Zeichen beschäftigt und war jetzt erstaunt, wie ""ästhetisch"" sie sind. Allerdingsversuchte ich, einen ""Sinn"" darin zu finden, eine Art story und das hat mich verwirrt. Vielen Dank!","0","1","0","null","","","<img src = 'category4/CS5.png' width = '100%;'>","null","","","","","","","","","",""
"","html-keyboard-response","144","466459","0.0-8.0-2.13","6xb5aupvc2","many_one","0","indirect_first","0","lz03ld31","0","69","4","1","3","1","Ich habe mich nie mit chinesischen Zeichen beschäftigt und war jetzt erstaunt, wie ""ästhetisch"" sie sind. Allerdingsversuchte ich, einen ""Sinn"" darin zu finden, eine Art story und das hat mich verwirrt. Vielen Dank!","0","1","0","null","","","<img src = 'targets/44.png' width = '100%;'>","null","","","","","","","","","",""
"","html-keyboard-response","145","467218","0.0-8.0-3.13","6xb5aupvc2","many_one","0","indirect_first","0","lz03ld31","0","69","4","1","3","1","Ich habe mich nie mit chinesischen Zeichen beschäftigt und war jetzt erstaunt, wie ""ästhetisch"" sie sind. Allerdingsversuchte ich, einen ""Sinn"" darin zu finden, eine Art story und das hat mich verwirrt. Vielen Dank!","0","1","0","756.0000000521541","","","<img src = 'targets/mask.png' width = '100%;'>","75","pos","CS","CS","4","category4/CS5.png","targets/44.png","1","indirect","13",""
"","html-keyboard-response","146","468720","0.0-8.0-0.14","6xb5aupvc2","many_one","0","indirect_first","0","lz03ld31","0","69","4","1","3","1","Ich habe mich nie mit chinesischen Zeichen beschäftigt und war jetzt erstaunt, wie ""ästhetisch"" sie sind. Allerdingsversuchte ich, einen ""Sinn"" darin zu finden, eine Art story und das hat mich verwirrt. Vielen Dank!","0","1","0","null","","","<div style=""font-size:60px;"">+</div>","null","","","","","","","","","",""
"","html-keyboard-response","147","468811","0.0-8.0-1.14","6xb5aupvc2","many_one","0","indirect_first","0","lz03ld31","0","69","4","1","3","1","Ich habe mich nie mit chinesischen Zeichen beschäftigt und war jetzt erstaunt, wie ""ästhetisch"" sie sind. Allerdingsversuchte ich, einen ""Sinn"" darin zu finden, eine Art story und das hat mich verwirrt. Vielen Dank!","0","1","0","null","","","<img src = 'category4/CS7.png' width = '100%;'>","null","","","","","","","","","",""
"","html-keyboard-response","148","469061","0.0-8.0-2.14","6xb5aupvc2","many_one","0","indirect_first","0","lz03ld31","0","69","4","1","3","1","Ich habe mich nie mit chinesischen Zeichen beschäftigt und war jetzt erstaunt, wie ""ästhetisch"" sie sind. Allerdingsversuchte ich, einen ""Sinn"" darin zu finden, eine Art story und das hat mich verwirrt. Vielen Dank!","0","1","0","null","","","<img src = 'targets/8.png' width = '100%;'>","null","","","","","","","","","",""
"","html-keyboard-response","149","470154","0.0-8.0-3.14","6xb5aupvc2","many_one","0","indirect_first","0","lz03ld31","0","69","4","1","3","1","Ich habe mich nie mit chinesischen Zeichen beschäftigt und war jetzt erstaunt, wie ""ästhetisch"" sie sind. Allerdingsversuchte ich, einen ""Sinn"" darin zu finden, eine Art story und das hat mich verwirrt. Vielen Dank!","0","1","0","1091.0000000149012","","","<img src = 'targets/mask.png' width = '100%;'>","75","pos","CS","CS","4","category4/CS7.png","targets/8.png","1","indirect","14",""
"","html-keyboard-response","150","471654","0.0-8.0-0.15","6xb5aupvc2","many_one","0","indirect_first","0","lz03ld31","0","69","4","1","3","1","Ich habe mich nie mit chinesischen Zeichen beschäftigt und war jetzt erstaunt, wie ""ästhetisch"" sie sind. Allerdingsversuchte ich, einen ""Sinn"" darin zu finden, eine Art story und das hat mich verwirrt. Vielen Dank!","0","1","0","null","","","<div style=""font-size:60px;"">+</div>","null","","","","","","","","","",""
"","html-keyboard-response","151","471745","0.0-8.0-1.15","6xb5aupvc2","many_one","0","indirect_first","0","lz03ld31","0","69","4","1","3","1","Ich habe mich nie mit chinesischen Zeichen beschäftigt und war jetzt erstaunt, wie ""ästhetisch"" sie sind. Allerdingsversuchte ich, einen ""Sinn"" darin zu finden, eine Art story und das hat mich verwirrt. Vielen Dank!","0","1","0","null","","","<img src = 'category2/CS8.png' width = '100%;'>","null","","","","","","","","","",""
"","html-keyboard-response","152","471995","0.0-8.0-2.15","6xb5aupvc2","many_one","0","indirect_first","0","lz03ld31","0","69","4","1","3","1","Ich habe mich nie mit chinesischen Zeichen beschäftigt und war jetzt erstaunt, wie ""ästhetisch"" sie sind. Allerdingsversuchte ich, einen ""Sinn"" darin zu finden, eine Art story und das hat mich verwirrt. Vielen Dank!","0","1","0","null","","","<img src = 'targets/3.png' width = '100%;'>","null","","","","","","","","","",""
"","html-keyboard-response","153","473395","0.0-8.0-3.15","6xb5aupvc2","many_one","0","indirect_first","0","lz03ld31","0","69","4","1","3","1","Ich habe mich nie mit chinesischen Zeichen beschäftigt und war jetzt erstaunt, wie ""ästhetisch"" sie sind. Allerdingsversuchte ich, einen ""Sinn"" darin zu finden, eine Art story und das hat mich verwirrt. Vielen Dank!","0","1","0","1396.9999998807907","","","<img src = 'targets/mask.png' width = '100%;'>","75","pos","CS","CS","2","category2/CS8.png","targets/3.png","1","indirect","15",""
"","html-keyboard-response","154","474896","0.0-8.0-0.16","6xb5aupvc2","many_one","0","indirect_first","0","lz03ld31","0","69","4","1","3","1","Ich habe mich nie mit chinesischen Zeichen beschäftigt und war jetzt erstaunt, wie ""ästhetisch"" sie sind. Allerdingsversuchte ich, einen ""Sinn"" darin zu finden, eine Art story und das hat mich verwirrt. Vielen Dank!","0","1","0","null","","","<div style=""font-size:60px;"">+</div>","null","","","","","","","","","",""
"","html-keyboard-response","155","474988","0.0-8.0-1.16","6xb5aupvc2","many_one","0","indirect_first","0","lz03ld31","0","69","4","1","3","1","Ich habe mich nie mit chinesischen Zeichen beschäftigt und war jetzt erstaunt, wie ""ästhetisch"" sie sind. Allerdingsversuchte ich, einen ""Sinn"" darin zu finden, eine Art story und das hat mich verwirrt. Vielen Dank!","0","1","0","null","","","<img src = 'category2/CS6.png' width = '100%;'>","null","","","","","","","","","",""
"","html-keyboard-response","156","475239","0.0-8.0-2.16","6xb5aupvc2","many_one","0","indirect_first","0","lz03ld31","0","69","4","1","3","1","Ich habe mich nie mit chinesischen Zeichen beschäftigt und war jetzt erstaunt, wie ""ästhetisch"" sie sind. Allerdingsversuchte ich, einen ""Sinn"" darin zu finden, eine Art story und das hat mich verwirrt. Vielen Dank!","0","1","0","null","","","<img src = 'targets/7.png' width = '100%;'>","null","","","","","","","","","",""
"","html-keyboard-response","157","476153","0.0-8.0-3.16","6xb5aupvc2","many_one","0","indirect_first","0","lz03ld31","0","69","4","1","3","1","Ich habe mich nie mit chinesischen Zeichen beschäftigt und war jetzt erstaunt, wie ""ästhetisch"" sie sind. Allerdingsversuchte ich, einen ""Sinn"" darin zu finden, eine Art story und das hat mich verwirrt. Vielen Dank!","0","1","0","912.0000000111759","","","<img src = 'targets/mask.png' width = '100%;'>","75","pos","CS","CS","2","category2/CS6.png","targets/7.png","1","indirect","16",""
"","html-keyboard-response","158","477653","0.0-8.0-0.17","6xb5aupvc2","many_one","0","indirect_first","0","lz03ld31","0","69","4","1","3","1","Ich habe mich nie mit chinesischen Zeichen beschäftigt und war jetzt erstaunt, wie ""ästhetisch"" sie sind. Allerdingsversuchte ich, einen ""Sinn"" darin zu finden, eine Art story und das hat mich verwirrt. Vielen Dank!","0","1","0","null","","","<div style=""font-size:60px;"">+</div>","null","","","","","","","","","",""
"","html-keyboard-response","159","477744","0.0-8.0-1.17","6xb5aupvc2","many_one","0","indirect_first","0","lz03ld31","0","69","4","1","3","1","Ich habe mich nie mit chinesischen Zeichen beschäftigt und war jetzt erstaunt, wie ""ästhetisch"" sie sind. Allerdingsversuchte ich, einen ""Sinn"" darin zu finden, eine Art story und das hat mich verwirrt. Vielen Dank!","0","1","0","null","","","<img src = 'category4/CS4.png' width = '100%;'>","null","","","","","","","","","",""
"","html-keyboard-response","160","477995","0.0-8.0-2.17","6xb5aupvc2","many_one","0","indirect_first","0","lz03ld31","0","69","4","1","3","1","Ich habe mich nie mit chinesischen Zeichen beschäftigt und war jetzt erstaunt, wie ""ästhetisch"" sie sind. Allerdingsversuchte ich, einen ""Sinn"" darin zu finden, eine Art story und das hat mich verwirrt. Vielen Dank!","0","1","0","null","","","<img src = 'targets/24.png' width = '100%;'>","null","","","","","","","","","",""
"","html-keyboard-response","161","478823","0.0-8.0-3.17","6xb5aupvc2","many_one","0","indirect_first","0","lz03ld31","0","69","4","1","3","1","Ich habe mich nie mit chinesischen Zeichen beschäftigt und war jetzt erstaunt, wie ""ästhetisch"" sie sind. Allerdingsversuchte ich, einen ""Sinn"" darin zu finden, eine Art story und das hat mich verwirrt. Vielen Dank!","0","1","0","826.0000003501773","","","<img src = 'targets/mask.png' width = '100%;'>","68","pos","CS","CS","4","category4/CS4.png","targets/24.png","0","indirect","17",""
"","html-keyboard-response","162","480325","0.0-8.0-0.18","6xb5aupvc2","many_one","0","indirect_first","0","lz03ld31","0","69","4","1","3","1","Ich habe mich nie mit chinesischen Zeichen beschäftigt und war jetzt erstaunt, wie ""ästhetisch"" sie sind. Allerdingsversuchte ich, einen ""Sinn"" darin zu finden, eine Art story und das hat mich verwirrt. Vielen Dank!","0","1","0","null","","","<div style=""font-size:60px;"">+</div>","null","","","","","","","","","",""
"","html-keyboard-response","163","480416","0.0-8.0-1.18","6xb5aupvc2","many_one","0","indirect_first","0","lz03ld31","0","69","4","1","3","1","Ich habe mich nie mit chinesischen Zeichen beschäftigt und war jetzt erstaunt, wie ""ästhetisch"" sie sind. Allerdingsversuchte ich, einen ""Sinn"" darin zu finden, eine Art story und das hat mich verwirrt. Vielen Dank!","0","1","0","null","","","<img src = 'category3/CS9.png' width = '100%;'>","null","","","","","","","","","",""
"","html-keyboard-response","164","480666","0.0-8.0-2.18","6xb5aupvc2","many_one","0","indirect_first","0","lz03ld31","0","69","4","1","3","1","Ich habe mich nie mit chinesischen Zeichen beschäftigt und war jetzt erstaunt, wie ""ästhetisch"" sie sind. Allerdingsversuchte ich, einen ""Sinn"" darin zu finden, eine Art story und das hat mich verwirrt. Vielen Dank!","0","1","0","null","","","<img src = 'targets/18.png' width = '100%;'>","null","","","","","","","","","",""
"","html-keyboard-response","165","481732","0.0-8.0-3.18","6xb5aupvc2","many_one","0","indirect_first","0","lz03ld31","0","69","4","1","3","1","Ich habe mich nie mit chinesischen Zeichen beschäftigt und war jetzt erstaunt, wie ""ästhetisch"" sie sind. Allerdingsversuchte ich, einen ""Sinn"" darin zu finden, eine Art story und das hat mich verwirrt. Vielen Dank!","0","1","0","1064.0000002458692","","","<img src = 'targets/mask.png' width = '100%;'>","68","neg","CS","CS","3","category3/CS9.png","targets/18.png","0","indirect","18",""
"","html-keyboard-response","166","483233","0.0-8.0-0.19","6xb5aupvc2","many_one","0","indirect_first","0","lz03ld31","0","69","4","1","3","1","Ich habe mich nie mit chinesischen Zeichen beschäftigt und war jetzt erstaunt, wie ""ästhetisch"" sie sind. Allerdingsversuchte ich, einen ""Sinn"" darin zu finden, eine Art story und das hat mich verwirrt. Vielen Dank!","0","1","0","null","","","<div style=""font-size:60px;"">+</div>","null","","","","","","","","","",""
"","html-keyboard-response","167","483324","0.0-8.0-1.19","6xb5aupvc2","many_one","0","indirect_first","0","lz03ld31","0","69","4","1","3","1","Ich habe mich nie mit chinesischen Zeichen beschäftigt und war jetzt erstaunt, wie ""ästhetisch"" sie sind. Allerdingsversuchte ich, einen ""Sinn"" darin zu finden, eine Art story und das hat mich verwirrt. Vielen Dank!","0","1","0","null","","","<img src = 'category4/CS3.png' width = '100%;'>","null","","","","","","","","","",""
"","html-keyboard-response","168","483574","0.0-8.0-2.19","6xb5aupvc2","many_one","0","indirect_first","0","lz03ld31","0","69","4","1","3","1","Ich habe mich nie mit chinesischen Zeichen beschäftigt und war jetzt erstaunt, wie ""ästhetisch"" sie sind. Allerdingsversuchte ich, einen ""Sinn"" darin zu finden, eine Art story und das hat mich verwirrt. Vielen Dank!","0","1","0","null","","","<img src = 'targets/35.png' width = '100%;'>","null","","","","","","","","","",""
"","html-keyboard-response","169","484271","0.0-8.0-3.19","6xb5aupvc2","many_one","0","indirect_first","0","lz03ld31","0","69","4","1","3","1","Ich habe mich nie mit chinesischen Zeichen beschäftigt und war jetzt erstaunt, wie ""ästhetisch"" sie sind. Allerdingsversuchte ich, einen ""Sinn"" darin zu finden, eine Art story und das hat mich verwirrt. Vielen Dank!","0","1","0","695.0000002980232","","","<img src = 'targets/mask.png' width = '100%;'>","75","pos","CS","CS","4","category4/CS3.png","targets/35.png","1","indirect","19",""
"","html-keyboard-response","170","485772","0.0-8.0-0.20","6xb5aupvc2","many_one","0","indirect_first","0","lz03ld31","0","69","4","1","3","1","Ich habe mich nie mit chinesischen Zeichen beschäftigt und war jetzt erstaunt, wie ""ästhetisch"" sie sind. Allerdingsversuchte ich, einen ""Sinn"" darin zu finden, eine Art story und das hat mich verwirrt. Vielen Dank!","0","1","0","null","","","<div style=""font-size:60px;"">+</div>","null","","","","","","","","","",""
"","html-keyboard-response","171","485863","0.0-8.0-1.20","6xb5aupvc2","many_one","0","indirect_first","0","lz03ld31","0","69","4","1","3","1","Ich habe mich nie mit chinesischen Zeichen beschäftigt und war jetzt erstaunt, wie ""ästhetisch"" sie sind. Allerdingsversuchte ich, einen ""Sinn"" darin zu finden, eine Art story und das hat mich verwirrt. Vielen Dank!","0","1","0","null","","","<img src = 'category4/CS8.png' width = '100%;'>","null","","","","","","","","","",""
"","html-keyboard-response","172","486113","0.0-8.0-2.20","6xb5aupvc2","many_one","0","indirect_first","0","lz03ld31","0","69","4","1","3","1","Ich habe mich nie mit chinesischen Zeichen beschäftigt und war jetzt erstaunt, wie ""ästhetisch"" sie sind. Allerdingsversuchte ich, einen ""Sinn"" darin zu finden, eine Art story und das hat mich verwirrt. Vielen Dank!","0","1","0","null","","","<img src = 'targets/11.png' width = '100%;'>","null","","","","","","","","","",""
"","html-keyboard-response","173","487066","0.0-8.0-3.20","6xb5aupvc2","many_one","0","indirect_first","0","lz03ld31","0","69","4","1","3","1","Ich habe mich nie mit chinesischen Zeichen beschäftigt und war jetzt erstaunt, wie ""ästhetisch"" sie sind. Allerdingsversuchte ich, einen ""Sinn"" darin zu finden, eine Art story und das hat mich verwirrt. Vielen Dank!","0","1","0","950.999999884516","","","<img src = 'targets/mask.png' width = '100%;'>","68","pos","GS","GSold","4","category4/CS8.png","targets/11.png","0","indirect","20",""
"","html-keyboard-response","174","488566","0.0-8.0-0.21","6xb5aupvc2","many_one","0","indirect_first","0","lz03ld31","0","69","4","1","3","1","Ich habe mich nie mit chinesischen Zeichen beschäftigt und war jetzt erstaunt, wie ""ästhetisch"" sie sind. Allerdingsversuchte ich, einen ""Sinn"" darin zu finden, eine Art story und das hat mich verwirrt. Vielen Dank!","0","1","0","null","","","<div style=""font-size:60px;"">+</div>","null","","","","","","","","","",""
"","html-keyboard-response","175","488658","0.0-8.0-1.21","6xb5aupvc2","many_one","0","indirect_first","0","lz03ld31","0","69","4","1","3","1","Ich habe mich nie mit chinesischen Zeichen beschäftigt und war jetzt erstaunt, wie ""ästhetisch"" sie sind. Allerdingsversuchte ich, einen ""Sinn"" darin zu finden, eine Art story und das hat mich verwirrt. Vielen Dank!","0","1","0","null","","","<img src = 'category1/CS1.png' width = '100%;'>","null","","","","","","","","","",""
"","html-keyboard-response","176","488909","0.0-8.0-2.21","6xb5aupvc2","many_one","0","indirect_first","0","lz03ld31","0","69","4","1","3","1","Ich habe mich nie mit chinesischen Zeichen beschäftigt und war jetzt erstaunt, wie ""ästhetisch"" sie sind. Allerdingsversuchte ich, einen ""Sinn"" darin zu finden, eine Art story und das hat mich verwirrt. Vielen Dank!","0","1","0","null","","","<img src = 'targets/40.png' width = '100%;'>","null","","","","","","","","","",""
"","html-keyboard-response","177","490460","0.0-8.0-3.21","6xb5aupvc2","many_one","0","indirect_first","0","lz03ld31","0","69","4","1","3","1","Ich habe mich nie mit chinesischen Zeichen beschäftigt und war jetzt erstaunt, wie ""ästhetisch"" sie sind. Allerdingsversuchte ich, einen ""Sinn"" darin zu finden, eine Art story und das hat mich verwirrt. Vielen Dank!","0","1","0","1547.9999999515712","","","<img src = 'targets/mask.png' width = '100%;'>","75","neg","CS","CS","1","category1/CS1.png","targets/40.png","1","indirect","21",""
"","html-keyboard-response","178","491961","0.0-8.0-0.22","6xb5aupvc2","many_one","0","indirect_first","0","lz03ld31","0","69","4","1","3","1","Ich habe mich nie mit chinesischen Zeichen beschäftigt und war jetzt erstaunt, wie ""ästhetisch"" sie sind. Allerdingsversuchte ich, einen ""Sinn"" darin zu finden, eine Art story und das hat mich verwirrt. Vielen Dank!","0","1","0","null","","","<div style=""font-size:60px;"">+</div>","null","","","","","","","","","",""
