"success","trial_type","trial_index","time_elapsed","internal_node_id","subject","condition","condition_code","measure","measure_code","codeword","gender","age","education","chinese","fach","handedness","rt","url","responses","stimulus","key_press","val","type","type_specific","category","cs_selected","response","target","task","indirect","nr_pres"
"true","fullscreen","0","2543","0.0-0.0","9752junjhl","many_one","0","direct_first","1","LL08EN23","0","20","1","1","2","1","","","","","","","","","","","","","","",""
"","external-html","1","64683","0.0-1.0","9752junjhl","many_one","0","direct_first","1","LL08EN23","0","20","1","1","2","1","62134","text/information.html","","","","","","","","","","","","",""
"","external-html","2","74491","0.0-2.0","9752junjhl","many_one","0","direct_first","1","LL08EN23","0","20","1","1","2","1","9800","text/consent.html","","","","","","","","","","","","",""
"","survey-html-form","3","156721","0.0-3.0","9752junjhl","many_one","0","direct_first","1","LL08EN23","0","20","1","1","2","1","82229","","{""codeword_enter"":""LL08EN23""}","","","","","","","","","","","",""
"","survey-html-form","4","170739","0.0-4.0","9752junjhl","many_one","0","direct_first","1","LL08EN23","0","20","1","1","2","1","14018","","{""age"":""20"",""education"":""1"",""subject"":""2"",""gender"":""0"",""handedness"":""1"",""chinese"":""1""}","","","","","","","","","","","",""
"","survey-html-form","5","188714","0.0-5.0","9752junjhl","many_one","0","direct_first","1","LL08EN23","0","20","1","1","2","1","17974","","{}","","","","","","","","","","","",""
"","html-keyboard-response","6","192742","0.0-6.0-0.0-0.0","9752junjhl","many_one","0","direct_first","1","LL08EN23","0","20","1","1","2","1","null","","","<div class = 'row'><div class = 'column'><img src = 'category2/CS3.png' width = '70%;'></div><div class = 'column'><img src = 'uspos/2040.bmp' width = '100%;'></div></div>","null","pos","CS","CS","2","category2/CS3.png","","","","",""
"","html-keyboard-response","7","195281","0.0-6.0-0.0-0.1","9752junjhl","many_one","0","direct_first","1","LL08EN23","0","20","1","1","2","1","null","","","<div class = 'row'><div class = 'column'><img src = 'usneg/9342.bmp' width = '100%;'></div><div class = 'column'><img src = 'category1/CS4.png' width = '70%;'></div></div>","null","neg","CS","CS","1","category1/CS4.png","","","","",""
"","html-keyboard-response","8","197821","0.0-6.0-0.0-0.2","9752junjhl","many_one","0","direct_first","1","LL08EN23","0","20","1","1","2","1","null","","","<div class = 'row'><div class = 'column'><img src = 'usneg/7380.bmp' width = '100%;'></div><div class = 'column'><img src = 'category4/CS5.png' width = '70%;'></div></div>","null","neg","CS","CS","4","category4/CS5.png","","","","",""
"","html-keyboard-response","9","200361","0.0-6.0-0.0-0.3","9752junjhl","many_one","0","direct_first","1","LL08EN23","0","20","1","1","2","1","null","","","<div class = 'row'><div class = 'column'><img src = 'category2/CS5.png' width = '70%;'></div><div class = 'column'><img src = 'uspos/1460.bmp' width = '100%;'></div></div>","null","pos","CS","CS","2","category2/CS5.png","","","","",""
"","html-keyboard-response","10","202901","0.0-6.0-0.0-0.4","9752junjhl","many_one","0","direct_first","1","LL08EN23","0","20","1","1","2","1","null","","","<div class = 'row'><div class = 'column'><img src = 'usneg/9180.bmp' width = '100%;'></div><div class = 'column'><img src = 'category1/CS9.png' width = '70%;'></div></div>","null","neg","CS","CS","1","category1/CS9.png","","","","",""
"","html-keyboard-response","11","205430","0.0-6.0-0.0-0.5","9752junjhl","many_one","0","direct_first","1","LL08EN23","0","20","1","1","2","1","null","","","<div class = 'row'><div class = 'column'><img src = 'category2/CS6.png' width = '70%;'></div><div class = 'column'><img src = 'uspos/2160.bmp' width = '100%;'></div></div>","null","pos","CS","CS","2","category2/CS6.png","","","","",""
"","html-keyboard-response","12","207970","0.0-6.0-0.0-0.6","9752junjhl","many_one","0","direct_first","1","LL08EN23","0","20","1","1","2","1","null","","","<div class = 'row'><div class = 'column'><img src = 'uspos/2030.bmp' width = '100%;'></div><div class = 'column'><img src = 'category2/CS8.png' width = '70%;'></div></div>","null","pos","CS","CS","2","category2/CS8.png","","","","",""
"","html-keyboard-response","13","210510","0.0-6.0-0.0-0.7","9752junjhl","many_one","0","direct_first","1","LL08EN23","0","20","1","1","2","1","null","","","<div class = 'row'><div class = 'column'><img src = 'category4/CS8.png' width = '70%;'></div><div class = 'column'><img src = 'usneg/9181.bmp' width = '100%;'></div></div>","null","neg","CS","CS","4","category4/CS8.png","","","","",""
"","html-keyboard-response","14","213041","0.0-6.0-0.0-0.8","9752junjhl","many_one","0","direct_first","1","LL08EN23","0","20","1","1","2","1","null","","","<div class = 'row'><div class = 'column'><img src = 'usneg/3160.bmp' width = '100%;'></div><div class = 'column'><img src = 'category1/CS5.png' width = '70%;'></div></div>","null","neg","CS","CS","1","category1/CS5.png","","","","",""
"","html-keyboard-response","15","215581","0.0-6.0-0.0-0.9","9752junjhl","many_one","0","direct_first","1","LL08EN23","0","20","1","1","2","1","null","","","<div class = 'row'><div class = 'column'><img src = 'usneg/9330.bmp' width = '100%;'></div><div class = 'column'><img src = 'category1/CS8.png' width = '70%;'></div></div>","null","neg","CS","CS","1","category1/CS8.png","","","","",""
"","html-keyboard-response","16","218120","0.0-6.0-0.0-0.10","9752junjhl","many_one","0","direct_first","1","LL08EN23","0","20","1","1","2","1","null","","","<div class = 'row'><div class = 'column'><img src = 'category2/CS9.png' width = '70%;'></div><div class = 'column'><img src = 'uspos/2058.bmp' width = '100%;'></div></div>","null","pos","CS","CS","2","category2/CS9.png","","","","",""
"","html-keyboard-response","17","220660","0.0-6.0-0.0-0.11","9752junjhl","many_one","0","direct_first","1","LL08EN23","0","20","1","1","2","1","null","","","<div class = 'row'><div class = 'column'><img src = 'category4/CS9.png' width = '70%;'></div><div class = 'column'><img src = 'usneg/9635.2.bmp' width = '100%;'></div></div>","null","neg","CS","CS","4","category4/CS9.png","","","","",""
"","html-keyboard-response","18","223186","0.0-6.0-0.0-0.12","9752junjhl","many_one","0","direct_first","1","LL08EN23","0","20","1","1","2","1","null","","","<div class = 'row'><div class = 'column'><img src = 'category3/CS6.png' width = '70%;'></div><div class = 'column'><img src = 'uspos/5700.bmp' width = '100%;'></div></div>","null","pos","CS","CS","3","category3/CS6.png","","","","",""
"","html-keyboard-response","19","225690","0.0-6.0-0.0-0.13","9752junjhl","many_one","0","direct_first","1","LL08EN23","0","20","1","1","2","1","null","","","<div class = 'row'><div class = 'column'><img src = 'uspos/5600.bmp' width = '100%;'></div><div class = 'column'><img src = 'category3/CS5.png' width = '70%;'></div></div>","null","pos","CS","CS","3","category3/CS5.png","","","","",""
"","html-keyboard-response","20","228230","0.0-6.0-0.0-0.14","9752junjhl","many_one","0","direct_first","1","LL08EN23","0","20","1","1","2","1","null","","","<div class = 'row'><div class = 'column'><img src = 'category4/CS7.png' width = '70%;'></div><div class = 'column'><img src = 'usneg/2141.bmp' width = '100%;'></div></div>","null","neg","CS","CS","4","category4/CS7.png","","","","",""
"","html-keyboard-response","21","230760","0.0-6.0-0.0-0.15","9752junjhl","many_one","0","direct_first","1","LL08EN23","0","20","1","1","2","1","null","","","<div class = 'row'><div class = 'column'><img src = 'category3/CS7.png' width = '70%;'></div><div class = 'column'><img src = 'uspos/2900.2.bmp' width = '100%;'></div></div>","null","pos","CS","CS","3","category3/CS7.png","","","","",""
"","html-keyboard-response","22","233301","0.0-6.0-0.0-0.16","9752junjhl","many_one","0","direct_first","1","LL08EN23","0","20","1","1","2","1","null","","","<div class = 'row'><div class = 'column'><img src = 'usneg/9584.bmp' width = '100%;'></div><div class = 'column'><img src = 'category4/CS3.png' width = '70%;'></div></div>","null","neg","CS","CS","4","category4/CS3.png","","","","",""
"","html-keyboard-response","23","235840","0.0-6.0-0.0-0.17","9752junjhl","many_one","0","direct_first","1","LL08EN23","0","20","1","1","2","1","null","","","<div class = 'row'><div class = 'column'><img src = 'usneg/9920.bmp' width = '100%;'></div><div class = 'column'><img src = 'category1/CS3.png' width = '70%;'></div></div>","null","neg","CS","CS","1","category1/CS3.png","","","","",""
"","html-keyboard-response","24","238379","0.0-6.0-0.0-0.18","9752junjhl","many_one","0","direct_first","1","LL08EN23","0","20","1","1","2","1","null","","","<div class = 'row'><div class = 'column'><img src = 'category3/CS8.png' width = '70%;'></div><div class = 'column'><img src = 'uspos/2360.bmp' width = '100%;'></div></div>","null","pos","CS","CS","3","category3/CS8.png","","","","",""
"","html-keyboard-response","25","240920","0.0-6.0-0.0-0.19","9752junjhl","many_one","0","direct_first","1","LL08EN23","0","20","1","1","2","1","null","","","<div class = 'row'><div class = 'column'><img src = 'category3/CS3.png' width = '70%;'></div><div class = 'column'><img src = 'uspos/2208.bmp' width = '100%;'></div></div>","null","pos","CS","CS","3","category3/CS3.png","","","","",""
"","survey-html-form","26","247490","0.0-6.0-1.0","9752junjhl","many_one","0","direct_first","1","LL08EN23","0","20","1","1","2","1","6053","","{}","","","","","","","","","","","",""
"","html-keyboard-response","27","251530","0.0-6.0-2.0-0.0","9752junjhl","many_one","0","direct_first","1","LL08EN23","0","20","1","1","2","1","null","","","<div class = 'row'><div class = 'column'><img src = 'uspos/2160.bmp' width = '100%;'></div><div class = 'column'><img src = 'category2/CS6.png' width = '70%;'></div></div>","null","pos","CS","CS","2","category2/CS6.png","","","","",""
"","html-keyboard-response","28","254060","0.0-6.0-2.0-0.1","9752junjhl","many_one","0","direct_first","1","LL08EN23","0","20","1","1","2","1","null","","","<div class = 'row'><div class = 'column'><img src = 'category1/CS5.png' width = '70%;'></div><div class = 'column'><img src = 'usneg/3160.bmp' width = '100%;'></div></div>","null","neg","CS","CS","1","category1/CS5.png","","","","",""
"","html-keyboard-response","29","256600","0.0-6.0-2.0-0.2","9752junjhl","many_one","0","direct_first","1","LL08EN23","0","20","1","1","2","1","null","","","<div class = 'row'><div class = 'column'><img src = 'uspos/2208.bmp' width = '100%;'></div><div class = 'column'><img src = 'category3/CS3.png' width = '70%;'></div></div>","null","pos","CS","CS","3","category3/CS3.png","","","","",""
"","html-keyboard-response","30","259140","0.0-6.0-2.0-0.3","9752junjhl","many_one","0","direct_first","1","LL08EN23","0","20","1","1","2","1","null","","","<div class = 'row'><div class = 'column'><img src = 'usneg/2141.bmp' width = '100%;'></div><div class = 'column'><img src = 'category4/CS7.png' width = '70%;'></div></div>","null","neg","CS","CS","4","category4/CS7.png","","","","",""
"","html-keyboard-response","31","261679","0.0-6.0-2.0-0.4","9752junjhl","many_one","0","direct_first","1","LL08EN23","0","20","1","1","2","1","null","","","<div class = 'row'><div class = 'column'><img src = 'uspos/2040.bmp' width = '100%;'></div><div class = 'column'><img src = 'category2/CS3.png' width = '70%;'></div></div>","null","pos","CS","CS","2","category2/CS3.png","","","","",""
"","html-keyboard-response","32","264220","0.0-6.0-2.0-0.5","9752junjhl","many_one","0","direct_first","1","LL08EN23","0","20","1","1","2","1","null","","","<div class = 'row'><div class = 'column'><img src = 'uspos/5700.bmp' width = '100%;'></div><div class = 'column'><img src = 'category3/CS6.png' width = '70%;'></div></div>","null","pos","CS","CS","3","category3/CS6.png","","","","",""
"","html-keyboard-response","33","266760","0.0-6.0-2.0-0.6","9752junjhl","many_one","0","direct_first","1","LL08EN23","0","20","1","1","2","1","null","","","<div class = 'row'><div class = 'column'><img src = 'category3/CS7.png' width = '70%;'></div><div class = 'column'><img src = 'uspos/2900.2.bmp' width = '100%;'></div></div>","null","pos","CS","CS","3","category3/CS7.png","","","","",""
"","html-keyboard-response","34","269299","0.0-6.0-2.0-0.7","9752junjhl","many_one","0","direct_first","1","LL08EN23","0","20","1","1","2","1","null","","","<div class = 'row'><div class = 'column'><img src = 'uspos/2360.bmp' width = '100%;'></div><div class = 'column'><img src = 'category3/CS8.png' width = '70%;'></div></div>","null","pos","CS","CS","3","category3/CS8.png","","","","",""
"","html-keyboard-response","35","271816","0.0-6.0-2.0-0.8","9752junjhl","many_one","0","direct_first","1","LL08EN23","0","20","1","1","2","1","null","","","<div class = 'row'><div class = 'column'><img src = 'usneg/9342.bmp' width = '100%;'></div><div class = 'column'><img src = 'category1/CS4.png' width = '70%;'></div></div>","null","neg","CS","CS","1","category1/CS4.png","","","","",""
"","html-keyboard-response","36","274320","0.0-6.0-2.0-0.9","9752junjhl","many_one","0","direct_first","1","LL08EN23","0","20","1","1","2","1","null","","","<div class = 'row'><div class = 'column'><img src = 'category2/CS9.png' width = '70%;'></div><div class = 'column'><img src = 'uspos/2058.bmp' width = '100%;'></div></div>","null","pos","CS","CS","2","category2/CS9.png","","","","",""
"","html-keyboard-response","37","276859","0.0-6.0-2.0-0.10","9752junjhl","many_one","0","direct_first","1","LL08EN23","0","20","1","1","2","1","null","","","<div class = 'row'><div class = 'column'><img src = 'usneg/9584.bmp' width = '100%;'></div><div class = 'column'><img src = 'category4/CS3.png' width = '70%;'></div></div>","null","neg","CS","CS","4","category4/CS3.png","","","","",""
"","html-keyboard-response","38","279400","0.0-6.0-2.0-0.11","9752junjhl","many_one","0","direct_first","1","LL08EN23","0","20","1","1","2","1","null","","","<div class = 'row'><div class = 'column'><img src = 'category2/CS5.png' width = '70%;'></div><div class = 'column'><img src = 'uspos/1460.bmp' width = '100%;'></div></div>","null","pos","CS","CS","2","category2/CS5.png","","","","",""
"","html-keyboard-response","39","281939","0.0-6.0-2.0-0.12","9752junjhl","many_one","0","direct_first","1","LL08EN23","0","20","1","1","2","1","null","","","<div class = 'row'><div class = 'column'><img src = 'uspos/2030.bmp' width = '100%;'></div><div class = 'column'><img src = 'category2/CS8.png' width = '70%;'></div></div>","null","pos","CS","CS","2","category2/CS8.png","","","","",""
"","html-keyboard-response","40","284479","0.0-6.0-2.0-0.13","9752junjhl","many_one","0","direct_first","1","LL08EN23","0","20","1","1","2","1","null","","","<div class = 'row'><div class = 'column'><img src = 'category3/CS5.png' width = '70%;'></div><div class = 'column'><img src = 'uspos/5600.bmp' width = '100%;'></div></div>","null","pos","CS","CS","3","category3/CS5.png","","","","",""
"","html-keyboard-response","41","287019","0.0-6.0-2.0-0.14","9752junjhl","many_one","0","direct_first","1","LL08EN23","0","20","1","1","2","1","null","","","<div class = 'row'><div class = 'column'><img src = 'usneg/9181.bmp' width = '100%;'></div><div class = 'column'><img src = 'category4/CS8.png' width = '70%;'></div></div>","null","neg","CS","CS","4","category4/CS8.png","","","","",""
"","html-keyboard-response","42","289557","0.0-6.0-2.0-0.15","9752junjhl","many_one","0","direct_first","1","LL08EN23","0","20","1","1","2","1","null","","","<div class = 'row'><div class = 'column'><img src = 'usneg/9920.bmp' width = '100%;'></div><div class = 'column'><img src = 'category1/CS3.png' width = '70%;'></div></div>","null","neg","CS","CS","1","category1/CS3.png","","","","",""
"","html-keyboard-response","43","292079","0.0-6.0-2.0-0.16","9752junjhl","many_one","0","direct_first","1","LL08EN23","0","20","1","1","2","1","null","","","<div class = 'row'><div class = 'column'><img src = 'usneg/9180.bmp' width = '100%;'></div><div class = 'column'><img src = 'category1/CS9.png' width = '70%;'></div></div>","null","neg","CS","CS","1","category1/CS9.png","","","","",""
"","html-keyboard-response","44","294585","0.0-6.0-2.0-0.17","9752junjhl","many_one","0","direct_first","1","LL08EN23","0","20","1","1","2","1","null","","","<div class = 'row'><div class = 'column'><img src = 'usneg/7380.bmp' width = '100%;'></div><div class = 'column'><img src = 'category4/CS5.png' width = '70%;'></div></div>","null","neg","CS","CS","4","category4/CS5.png","","","","",""
"","html-keyboard-response","45","297108","0.0-6.0-2.0-0.18","9752junjhl","many_one","0","direct_first","1","LL08EN23","0","20","1","1","2","1","null","","","<div class = 'row'><div class = 'column'><img src = 'usneg/9635.2.bmp' width = '100%;'></div><div class = 'column'><img src = 'category4/CS9.png' width = '70%;'></div></div>","null","neg","CS","CS","4","category4/CS9.png","","","","",""
"","html-keyboard-response","46","299619","0.0-6.0-2.0-0.19","9752junjhl","many_one","0","direct_first","1","LL08EN23","0","20","1","1","2","1","null","","","<div class = 'row'><div class = 'column'><img src = 'usneg/9330.bmp' width = '100%;'></div><div class = 'column'><img src = 'category1/CS8.png' width = '70%;'></div></div>","null","neg","CS","CS","1","category1/CS8.png","","","","",""
"","survey-html-form","47","309905","0.0-6.0-3.0","9752junjhl","many_one","0","direct_first","1","LL08EN23","0","20","1","1","2","1","9766","","{}","","","","","","","","","","","",""
"","html-keyboard-response","48","313919","0.0-6.0-4.0-0.0","9752junjhl","many_one","0","direct_first","1","LL08EN23","0","20","1","1","2","1","null","","","<div class = 'row'><div class = 'column'><img src = 'uspos/2058.bmp' width = '100%;'></div><div class = 'column'><img src = 'category2/CS9.png' width = '70%;'></div></div>","null","pos","CS","CS","2","category2/CS9.png","","","","",""
"","html-keyboard-response","49","316459","0.0-6.0-4.0-0.1","9752junjhl","many_one","0","direct_first","1","LL08EN23","0","20","1","1","2","1","null","","","<div class = 'row'><div class = 'column'><img src = 'usneg/9584.bmp' width = '100%;'></div><div class = 'column'><img src = 'category4/CS3.png' width = '70%;'></div></div>","null","neg","CS","CS","4","category4/CS3.png","","","","",""
"","html-keyboard-response","50","318999","0.0-6.0-4.0-0.2","9752junjhl","many_one","0","direct_first","1","LL08EN23","0","20","1","1","2","1","null","","","<div class = 'row'><div class = 'column'><img src = 'usneg/9635.2.bmp' width = '100%;'></div><div class = 'column'><img src = 'category4/CS9.png' width = '70%;'></div></div>","null","neg","CS","CS","4","category4/CS9.png","","","","",""
"","html-keyboard-response","51","321509","0.0-6.0-4.0-0.3","9752junjhl","many_one","0","direct_first","1","LL08EN23","0","20","1","1","2","1","null","","","<div class = 'row'><div class = 'column'><img src = 'category2/CS6.png' width = '70%;'></div><div class = 'column'><img src = 'uspos/2160.bmp' width = '100%;'></div></div>","null","pos","CS","CS","2","category2/CS6.png","","","","",""
"","html-keyboard-response","52","324050","0.0-6.0-4.0-0.4","9752junjhl","many_one","0","direct_first","1","LL08EN23","0","20","1","1","2","1","null","","","<div class = 'row'><div class = 'column'><img src = 'category1/CS3.png' width = '70%;'></div><div class = 'column'><img src = 'usneg/9920.bmp' width = '100%;'></div></div>","null","neg","CS","CS","1","category1/CS3.png","","","","",""
"","html-keyboard-response","53","326580","0.0-6.0-4.0-0.5","9752junjhl","many_one","0","direct_first","1","LL08EN23","0","20","1","1","2","1","null","","","<div class = 'row'><div class = 'column'><img src = 'category3/CS7.png' width = '70%;'></div><div class = 'column'><img src = 'uspos/2900.2.bmp' width = '100%;'></div></div>","null","pos","CS","CS","3","category3/CS7.png","","","","",""
"","html-keyboard-response","54","329119","0.0-6.0-4.0-0.6","9752junjhl","many_one","0","direct_first","1","LL08EN23","0","20","1","1","2","1","null","","","<div class = 'row'><div class = 'column'><img src = 'uspos/2030.bmp' width = '100%;'></div><div class = 'column'><img src = 'category2/CS8.png' width = '70%;'></div></div>","null","pos","CS","CS","2","category2/CS8.png","","","","",""
"","html-keyboard-response","55","331649","0.0-6.0-4.0-0.7","9752junjhl","many_one","0","direct_first","1","LL08EN23","0","20","1","1","2","1","null","","","<div class = 'row'><div class = 'column'><img src = 'category2/CS5.png' width = '70%;'></div><div class = 'column'><img src = 'uspos/1460.bmp' width = '100%;'></div></div>","null","pos","CS","CS","2","category2/CS5.png","","","","",""
"","html-keyboard-response","56","334179","0.0-6.0-4.0-0.8","9752junjhl","many_one","0","direct_first","1","LL08EN23","0","20","1","1","2","1","null","","","<div class = 'row'><div class = 'column'><img src = 'uspos/2040.bmp' width = '100%;'></div><div class = 'column'><img src = 'category2/CS3.png' width = '70%;'></div></div>","null","pos","CS","CS","2","category2/CS3.png","","","","",""
"","html-keyboard-response","57","336701","0.0-6.0-4.0-0.9","9752junjhl","many_one","0","direct_first","1","LL08EN23","0","20","1","1","2","1","null","","","<div class = 'row'><div class = 'column'><img src = 'category3/CS6.png' width = '70%;'></div><div class = 'column'><img src = 'uspos/5700.bmp' width = '100%;'></div></div>","null","pos","CS","CS","3","category3/CS6.png","","","","",""
"","html-keyboard-response","58","339219","0.0-6.0-4.0-0.10","9752junjhl","many_one","0","direct_first","1","LL08EN23","0","20","1","1","2","1","null","","","<div class = 'row'><div class = 'column'><img src = 'usneg/7380.bmp' width = '100%;'></div><div class = 'column'><img src = 'category4/CS5.png' width = '70%;'></div></div>","null","neg","CS","CS","4","category4/CS5.png","","","","",""
"","html-keyboard-response","59","341759","0.0-6.0-4.0-0.11","9752junjhl","many_one","0","direct_first","1","LL08EN23","0","20","1","1","2","1","null","","","<div class = 'row'><div class = 'column'><img src = 'usneg/2141.bmp' width = '100%;'></div><div class = 'column'><img src = 'category4/CS7.png' width = '70%;'></div></div>","null","neg","CS","CS","4","category4/CS7.png","","","","",""
"","html-keyboard-response","60","344299","0.0-6.0-4.0-0.12","9752junjhl","many_one","0","direct_first","1","LL08EN23","0","20","1","1","2","1","null","","","<div class = 'row'><div class = 'column'><img src = 'category3/CS8.png' width = '70%;'></div><div class = 'column'><img src = 'uspos/2360.bmp' width = '100%;'></div></div>","null","pos","CS","CS","3","category3/CS8.png","","","","",""
"","html-keyboard-response","61","346838","0.0-6.0-4.0-0.13","9752junjhl","many_one","0","direct_first","1","LL08EN23","0","20","1","1","2","1","null","","","<div class = 'row'><div class = 'column'><img src = 'category3/CS3.png' width = '70%;'></div><div class = 'column'><img src = 'uspos/2208.bmp' width = '100%;'></div></div>","null","pos","CS","CS","3","category3/CS3.png","","","","",""
"","html-keyboard-response","62","349369","0.0-6.0-4.0-0.14","9752junjhl","many_one","0","direct_first","1","LL08EN23","0","20","1","1","2","1","null","","","<div class = 'row'><div class = 'column'><img src = 'category1/CS9.png' width = '70%;'></div><div class = 'column'><img src = 'usneg/9180.bmp' width = '100%;'></div></div>","null","neg","CS","CS","1","category1/CS9.png","","","","",""
"","html-keyboard-response","63","351898","0.0-6.0-4.0-0.15","9752junjhl","many_one","0","direct_first","1","LL08EN23","0","20","1","1","2","1","null","","","<div class = 'row'><div class = 'column'><img src = 'category4/CS8.png' width = '70%;'></div><div class = 'column'><img src = 'usneg/9181.bmp' width = '100%;'></div></div>","null","neg","CS","CS","4","category4/CS8.png","","","","",""
"","html-keyboard-response","64","354438","0.0-6.0-4.0-0.16","9752junjhl","many_one","0","direct_first","1","LL08EN23","0","20","1","1","2","1","null","","","<div class = 'row'><div class = 'column'><img src = 'usneg/3160.bmp' width = '100%;'></div><div class = 'column'><img src = 'category1/CS5.png' width = '70%;'></div></div>","null","neg","CS","CS","1","category1/CS5.png","","","","",""
"","html-keyboard-response","65","356959","0.0-6.0-4.0-0.17","9752junjhl","many_one","0","direct_first","1","LL08EN23","0","20","1","1","2","1","null","","","<div class = 'row'><div class = 'column'><img src = 'category3/CS5.png' width = '70%;'></div><div class = 'column'><img src = 'uspos/5600.bmp' width = '100%;'></div></div>","null","pos","CS","CS","3","category3/CS5.png","","","","",""
"","html-keyboard-response","66","359489","0.0-6.0-4.0-0.18","9752junjhl","many_one","0","direct_first","1","LL08EN23","0","20","1","1","2","1","null","","","<div class = 'row'><div class = 'column'><img src = 'category1/CS8.png' width = '70%;'></div><div class = 'column'><img src = 'usneg/9330.bmp' width = '100%;'></div></div>","null","neg","CS","CS","1","category1/CS8.png","","","","",""
"","html-keyboard-response","67","362019","0.0-6.0-4.0-0.19","9752junjhl","many_one","0","direct_first","1","LL08EN23","0","20","1","1","2","1","null","","","<div class = 'row'><div class = 'column'><img src = 'category1/CS4.png' width = '70%;'></div><div class = 'column'><img src = 'usneg/9342.bmp' width = '100%;'></div></div>","null","neg","CS","CS","1","category1/CS4.png","","","","",""
"","survey-html-form","68","365848","0.0-6.0-5.0","9752junjhl","many_one","0","direct_first","1","LL08EN23","0","20","1","1","2","1","3310","","{}","","","","","","","","","","","",""
"","html-keyboard-response","69","369879","0.0-6.0-6.0-0.0","9752junjhl","many_one","0","direct_first","1","LL08EN23","0","20","1","1","2","1","null","","","<div class = 'row'><div class = 'column'><img src = 'category3/CS3.png' width = '70%;'></div><div class = 'column'><img src = 'uspos/2208.bmp' width = '100%;'></div></div>","null","pos","CS","CS","3","category3/CS3.png","","","","",""
"","html-keyboard-response","70","372419","0.0-6.0-6.0-0.1","9752junjhl","many_one","0","direct_first","1","LL08EN23","0","20","1","1","2","1","null","","","<div class = 'row'><div class = 'column'><img src = 'category4/CS9.png' width = '70%;'></div><div class = 'column'><img src = 'usneg/9635.2.bmp' width = '100%;'></div></div>","null","neg","CS","CS","4","category4/CS9.png","","","","",""
"","html-keyboard-response","71","374949","0.0-6.0-6.0-0.2","9752junjhl","many_one","0","direct_first","1","LL08EN23","0","20","1","1","2","1","null","","","<div class = 'row'><div class = 'column'><img src = 'category3/CS5.png' width = '70%;'></div><div class = 'column'><img src = 'uspos/5600.bmp' width = '100%;'></div></div>","null","pos","CS","CS","3","category3/CS5.png","","","","",""
"","html-keyboard-response","72","377489","0.0-6.0-6.0-0.3","9752junjhl","many_one","0","direct_first","1","LL08EN23","0","20","1","1","2","1","null","","","<div class = 'row'><div class = 'column'><img src = 'category1/CS5.png' width = '70%;'></div><div class = 'column'><img src = 'usneg/3160.bmp' width = '100%;'></div></div>","null","neg","CS","CS","1","category1/CS5.png","","","","",""
"","html-keyboard-response","73","380028","0.0-6.0-6.0-0.4","9752junjhl","many_one","0","direct_first","1","LL08EN23","0","20","1","1","2","1","null","","","<div class = 'row'><div class = 'column'><img src = 'category1/CS8.png' width = '70%;'></div><div class = 'column'><img src = 'usneg/9330.bmp' width = '100%;'></div></div>","null","neg","CS","CS","1","category1/CS8.png","","","","",""
"","html-keyboard-response","74","382569","0.0-6.0-6.0-0.5","9752junjhl","many_one","0","direct_first","1","LL08EN23","0","20","1","1","2","1","null","","","<div class = 'row'><div class = 'column'><img src = 'usneg/9342.bmp' width = '100%;'></div><div class = 'column'><img src = 'category1/CS4.png' width = '70%;'></div></div>","null","neg","CS","CS","1","category1/CS4.png","","","","",""
"","html-keyboard-response","75","385109","0.0-6.0-6.0-0.6","9752junjhl","many_one","0","direct_first","1","LL08EN23","0","20","1","1","2","1","null","","","<div class = 'row'><div class = 'column'><img src = 'usneg/2141.bmp' width = '100%;'></div><div class = 'column'><img src = 'category4/CS7.png' width = '70%;'></div></div>","null","neg","CS","CS","4","category4/CS7.png","","","","",""
"","html-keyboard-response","76","387648","0.0-6.0-6.0-0.7","9752junjhl","many_one","0","direct_first","1","LL08EN23","0","20","1","1","2","1","null","","","<div class = 'row'><div class = 'column'><img src = 'category3/CS8.png' width = '70%;'></div><div class = 'column'><img src = 'uspos/2360.bmp' width = '100%;'></div></div>","null","pos","CS","CS","3","category3/CS8.png","","","","",""
"","html-keyboard-response","77","390189","0.0-6.0-6.0-0.8","9752junjhl","many_one","0","direct_first","1","LL08EN23","0","20","1","1","2","1","null","","","<div class = 'row'><div class = 'column'><img src = 'category2/CS8.png' width = '70%;'></div><div class = 'column'><img src = 'uspos/2030.bmp' width = '100%;'></div></div>","null","pos","CS","CS","2","category2/CS8.png","","","","",""
"","html-keyboard-response","78","392729","0.0-6.0-6.0-0.9","9752junjhl","many_one","0","direct_first","1","LL08EN23","0","20","1","1","2","1","null","","","<div class = 'row'><div class = 'column'><img src = 'uspos/2040.bmp' width = '100%;'></div><div class = 'column'><img src = 'category2/CS3.png' width = '70%;'></div></div>","null","pos","CS","CS","2","category2/CS3.png","","","","",""
"","html-keyboard-response","79","395248","0.0-6.0-6.0-0.10","9752junjhl","many_one","0","direct_first","1","LL08EN23","0","20","1","1","2","1","null","","","<div class = 'row'><div class = 'column'><img src = 'category3/CS6.png' width = '70%;'></div><div class = 'column'><img src = 'uspos/5700.bmp' width = '100%;'></div></div>","null","pos","CS","CS","3","category3/CS6.png","","","","",""
"","html-keyboard-response","80","397789","0.0-6.0-6.0-0.11","9752junjhl","many_one","0","direct_first","1","LL08EN23","0","20","1","1","2","1","null","","","<div class = 'row'><div class = 'column'><img src = 'usneg/9584.bmp' width = '100%;'></div><div class = 'column'><img src = 'category4/CS3.png' width = '70%;'></div></div>","null","neg","CS","CS","4","category4/CS3.png","","","","",""
"","html-keyboard-response","81","400309","0.0-6.0-6.0-0.12","9752junjhl","many_one","0","direct_first","1","LL08EN23","0","20","1","1","2","1","null","","","<div class = 'row'><div class = 'column'><img src = 'uspos/2900.2.bmp' width = '100%;'></div><div class = 'column'><img src = 'category3/CS7.png' width = '70%;'></div></div>","null","pos","CS","CS","3","category3/CS7.png","","","","",""
"","html-keyboard-response","82","402849","0.0-6.0-6.0-0.13","9752junjhl","many_one","0","direct_first","1","LL08EN23","0","20","1","1","2","1","null","","","<div class = 'row'><div class = 'column'><img src = 'uspos/2160.bmp' width = '100%;'></div><div class = 'column'><img src = 'category2/CS6.png' width = '70%;'></div></div>","null","pos","CS","CS","2","category2/CS6.png","","","","",""
"","html-keyboard-response","83","405379","0.0-6.0-6.0-0.14","9752junjhl","many_one","0","direct_first","1","LL08EN23","0","20","1","1","2","1","null","","","<div class = 'row'><div class = 'column'><img src = 'usneg/9180.bmp' width = '100%;'></div><div class = 'column'><img src = 'category1/CS9.png' width = '70%;'></div></div>","null","neg","CS","CS","1","category1/CS9.png","","","","",""
"","html-keyboard-response","84","407899","0.0-6.0-6.0-0.15","9752junjhl","many_one","0","direct_first","1","LL08EN23","0","20","1","1","2","1","null","","","<div class = 'row'><div class = 'column'><img src = 'usneg/7380.bmp' width = '100%;'></div><div class = 'column'><img src = 'category4/CS5.png' width = '70%;'></div></div>","null","neg","CS","CS","4","category4/CS5.png","","","","",""
"","html-keyboard-response","85","410439","0.0-6.0-6.0-0.16","9752junjhl","many_one","0","direct_first","1","LL08EN23","0","20","1","1","2","1","null","","","<div class = 'row'><div class = 'column'><img src = 'usneg/9920.bmp' width = '100%;'></div><div class = 'column'><img src = 'category1/CS3.png' width = '70%;'></div></div>","null","neg","CS","CS","1","category1/CS3.png","","","","",""
"","html-keyboard-response","86","412979","0.0-6.0-6.0-0.17","9752junjhl","many_one","0","direct_first","1","LL08EN23","0","20","1","1","2","1","null","","","<div class = 'row'><div class = 'column'><img src = 'uspos/2058.bmp' width = '100%;'></div><div class = 'column'><img src = 'category2/CS9.png' width = '70%;'></div></div>","null","pos","CS","CS","2","category2/CS9.png","","","","",""
"","html-keyboard-response","87","415508","0.0-6.0-6.0-0.18","9752junjhl","many_one","0","direct_first","1","LL08EN23","0","20","1","1","2","1","null","","","<div class = 'row'><div class = 'column'><img src = 'category4/CS8.png' width = '70%;'></div><div class = 'column'><img src = 'usneg/9181.bmp' width = '100%;'></div></div>","null","neg","CS","CS","4","category4/CS8.png","","","","",""
"","html-keyboard-response","88","418048","0.0-6.0-6.0-0.19","9752junjhl","many_one","0","direct_first","1","LL08EN23","0","20","1","1","2","1","null","","","<div class = 'row'><div class = 'column'><img src = 'uspos/1460.bmp' width = '100%;'></div><div class = 'column'><img src = 'category2/CS5.png' width = '70%;'></div></div>","null","pos","CS","CS","2","category2/CS5.png","","","","",""
"","survey-html-form","89","427656","0.0-7.0","9752junjhl","many_one","0","direct_first","1","LL08EN23","0","20","1","1","2","1","9108","","{}","","","","","","","","","","","",""
"","image-slider-response","90","438704","0.0-8.0-0.0","9752junjhl","many_one","0","direct_first","1","LL08EN23","0","20","1","1","2","1","9030","","","","","neg","GS","GSnew","1","category1/GS3.png","-45","targets/24.png","direct","",""
"","image-slider-response","91","441800","0.0-8.0-0.1","9752junjhl","many_one","0","direct_first","1","LL08EN23","0","20","1","1","2","1","3095","","","","","neg","CS","CS","4","category4/CS5.png","-34","targets/40.png","direct","",""
"","image-slider-response","92","444600","0.0-8.0-0.2","9752junjhl","many_one","0","direct_first","1","LL08EN23","0","20","1","1","2","1","2799","","","","","neg","GS","GSold","1","category1/CS7.png","-39","targets/17.png","direct","",""
"","image-slider-response","93","447231","0.0-8.0-0.3","9752junjhl","many_one","0","direct_first","1","LL08EN23","0","20","1","1","2","1","2630","","","","","pos","GS","GSold","3","category3/CS4.png","50","targets/8.png","direct","",""
"","image-slider-response","94","451104","0.0-8.0-0.4","9752junjhl","many_one","0","direct_first","1","LL08EN23","0","20","1","1","2","1","3870","","","","","neg","CS","CS","1","category1/CS5.png","-45","targets/37.png","direct","",""
"","image-slider-response","95","454248","0.0-8.0-0.5","9752junjhl","many_one","0","direct_first","1","LL08EN23","0","20","1","1","2","1","3143","","","","","neg","CS","CS","1","category1/CS4.png","-66","targets/38.png","direct","",""
"","image-slider-response","96","457271","0.0-8.0-0.6","9752junjhl","many_one","0","direct_first","1","LL08EN23","0","20","1","1","2","1","3023","","","","","pos","GS","GSold","2","category2/CS7.png","59","targets/21.png","direct","",""
"","image-slider-response","97","460624","0.0-8.0-0.7","9752junjhl","many_one","0","direct_first","1","LL08EN23","0","20","1","1","2","1","3350","","","","","neg","CS","CS","4","category4/CS3.png","-52","targets/7.png","direct","",""
"","image-slider-response","98","464135","0.0-8.0-0.8","9752junjhl","many_one","0","direct_first","1","LL08EN23","0","20","1","1","2","1","3511","","","","","neg","CS","CS","1","category1/CS9.png","-27","targets/15.png","direct","",""
"","image-slider-response","99","467039","0.0-8.0-0.9","9752junjhl","many_one","0","direct_first","1","LL08EN23","0","20","1","1","2","1","2903","","","","","pos","CS","CS","3","category3/CS6.png","50","targets/1.png","direct","",""
"","image-slider-response","100","469799","0.0-8.0-0.10","9752junjhl","many_one","0","direct_first","1","LL08EN23","0","20","1","1","2","1","2758","","","","","neg","GS","GSnew","1","category1/GS1.png","-40","targets/11.png","direct","",""
"","image-slider-response","101","472495","0.0-8.0-0.11","9752junjhl","many_one","0","direct_first","1","LL08EN23","0","20","1","1","2","1","2694","","","","","neg","GS","abstract","1","category1/ma.png","-50","targets/26.png","direct","",""
"","image-slider-response","102","474863","0.0-8.0-0.12","9752junjhl","many_one","0","direct_first","1","LL08EN23","0","20","1","1","2","1","2367","","","","","neg","GS","GSnew","4","category4/GS1.png","-37","targets/2.png","direct","",""
"","image-slider-response","103","478104","0.0-8.0-0.13","9752junjhl","many_one","0","direct_first","1","LL08EN23","0","20","1","1","2","1","3239","","","","","neg","GS","GSnew","1","category1/GS2.png","-50","targets/30.png","direct","",""
"","image-slider-response","104","481271","0.0-8.0-0.14","9752junjhl","many_one","0","direct_first","1","LL08EN23","0","20","1","1","2","1","3167","","","","","pos","GS","abstract","2","category2/men.png","47","targets/27.png","direct","",""
"","image-slider-response","105","485031","0.0-8.0-0.15","9752junjhl","many_one","0","direct_first","1","LL08EN23","0","20","1","1","2","1","3759","","","","","neg","GS","GSold","1","category1/CS6.png","-44","targets/19.png","direct","",""
"","image-slider-response","106","488007","0.0-8.0-0.16","9752junjhl","many_one","0","direct_first","1","LL08EN23","0","20","1","1","2","1","2975","","","","","neg","CS","CS","4","category4/CS7.png","-39","targets/33.png","direct","",""
"","image-slider-response","107","490936","0.0-8.0-0.17","9752junjhl","many_one","0","direct_first","1","LL08EN23","0","20","1","1","2","1","2928","","","","","neg","GS","GSold","4","category4/CS10.png","-43","targets/12.png","direct","",""
"","image-slider-response","108","494824","0.0-8.0-0.18","9752junjhl","many_one","0","direct_first","1","LL08EN23","0","20","1","1","2","1","3887","","","","","pos","GS","GSnew","2","category2/GS3.png","33","targets/13.png","direct","",""
"","image-slider-response","109","500335","0.0-8.0-0.19","9752junjhl","many_one","0","direct_first","1","LL08EN23","0","20","1","1","2","1","5511","","","","","pos","CS","CS","2","category2/CS5.png","43","targets/5.png","direct","",""
"","image-slider-response","110","503728","0.0-8.0-0.20","9752junjhl","many_one","0","direct_first","1","LL08EN23","0","20","1","1","2","1","3390","","","","","neg","GS","abstract","4","category4/lin.png","-33","targets/44.png","direct","",""
"","image-slider-response","111","506359","0.0-8.0-0.21","9752junjhl","many_one","0","direct_first","1","LL08EN23","0","20","1","1","2","1","2631","","","","","neg","GS","GSold","1","category1/CS1.png","-41","targets/34.png","direct","",""
"","image-slider-response","112","508679","0.0-8.0-0.22","9752junjhl","many_one","0","direct_first","1","LL08EN23","0","20","1","1","2","1","2318","","","","","pos","CS","CS","2","category2/CS3.png","56","targets/35.png","direct","",""
"","image-slider-response","113","511735","0.0-8.0-0.23","9752junjhl","many_one","0","direct_first","1","LL08EN23","0","20","1","1","2","1","3055","","","","","pos","GS","GSnew","3","category3/GS3.png","42","targets/10.png","direct","",""
"","image-slider-response","114","514607","0.0-8.0-0.24","9752junjhl","many_one","0","direct_first","1","LL08EN23","0","20","1","1","2","1","2870","","","","","pos","GS","GSold","2","category2/CS4.png","51","targets/47.png","direct","",""
"","image-slider-response","115","517343","0.0-8.0-0.25","9752junjhl","many_one","0","direct_first","1","LL08EN23","0","20","1","1","2","1","2735","","","","","pos","GS","GSnew","3","category3/GS2.png","-37","targets/41.png","direct","",""
"","image-slider-response","116","520016","0.0-8.0-0.26","9752junjhl","many_one","0","direct_first","1","LL08EN23","0","20","1","1","2","1","2671","","","","","neg","CS","CS","1","category1/CS8.png","-36","targets/22.png","direct","",""
"","image-slider-response","117","523487","0.0-8.0-0.27","9752junjhl","many_one","0","direct_first","1","LL08EN23","0","20","1","1","2","1","3470","","","","","pos","CS","CS","3","category3/CS8.png","51","targets/3.png","direct","",""
"","image-slider-response","118","526535","0.0-8.0-0.28","9752junjhl","many_one","0","direct_first","1","LL08EN23","0","20","1","1","2","1","3047","","","","","pos","GS","abstract","3","category3/wang.png","48","targets/36.png","direct","",""
"","image-slider-response","119","529936","0.0-8.0-0.29","9752junjhl","many_one","0","direct_first","1","LL08EN23","0","20","1","1","2","1","3399","","","","","neg","GS","GSnew","4","category4/GS2.png","-48","targets/14.png","direct","",""
"","image-slider-response","120","533863","0.0-8.0-0.30","9752junjhl","many_one","0","direct_first","1","LL08EN23","0","20","1","1","2","1","3926","","","","","pos","GS","GSold","2","category2/CS10.png","53","targets/23.png","direct","",""
"","image-slider-response","121","536407","0.0-8.0-0.31","9752junjhl","many_one","0","direct_first","1","LL08EN23","0","20","1","1","2","1","2543","","","","","pos","CS","CS","2","category2/CS9.png","53","targets/29.png","direct","",""
"","image-slider-response","122","539191","0.0-8.0-0.32","9752junjhl","many_one","0","direct_first","1","LL08EN23","0","20","1","1","2","1","2783","","","","","neg","CS","CS","4","category4/CS9.png","-47","targets/45.png","direct","",""
"","image-slider-response","123","542016","0.0-8.0-0.33","9752junjhl","many_one","0","direct_first","1","LL08EN23","0","20","1","1","2","1","2823","","","","","pos","CS","CS","3","category3/CS5.png","50","targets/18.png","direct","",""
"","image-slider-response","124","544487","0.0-8.0-0.34","9752junjhl","many_one","0","direct_first","1","LL08EN23","0","20","1","1","2","1","2471","","","","","neg","GS","GSold","4","category4/CS4.png","-51","targets/25.png","direct","",""
"","image-slider-response","125","547535","0.0-8.0-0.35","9752junjhl","many_one","0","direct_first","1","LL08EN23","0","20","1","1","2","1","3047","","","","","neg","CS","CS","1","category1/CS3.png","-45","targets/42.png","direct","",""
"","image-slider-response","126","550079","0.0-8.0-0.36","9752junjhl","many_one","0","direct_first","1","LL08EN23","0","20","1","1","2","1","2543","","","","","neg","CS","CS","4","category4/CS8.png","-45","targets/31.png","direct","",""
"","image-slider-response","127","552975","0.0-8.0-0.37","9752junjhl","many_one","0","direct_first","1","LL08EN23","0","20","1","1","2","1","2895","","","","","pos","CS","CS","2","category2/CS6.png","47","targets/46.png","direct","",""
"","image-slider-response","128","555767","0.0-8.0-0.38","9752junjhl","many_one","0","direct_first","1","LL08EN23","0","20","1","1","2","1","2791","","","","","pos","CS","CS","2","category2/CS8.png","42","targets/4.png","direct","",""
"","image-slider-response","129","558079","0.0-8.0-0.39","9752junjhl","many_one","0","direct_first","1","LL08EN23","0","20","1","1","2","1","2311","","","","","neg","GS","GSold","4","category4/CS1.png","-49","targets/6.png","direct","",""
"","image-slider-response","130","561183","0.0-8.0-0.40","9752junjhl","many_one","0","direct_first","1","LL08EN23","0","20","1","1","2","1","3104","","","","","pos","GS","GSnew","2","category2/GS2.png","20","targets/48.png","direct","",""
"","image-slider-response","131","563791","0.0-8.0-0.41","9752junjhl","many_one","0","direct_first","1","LL08EN23","0","20","1","1","2","1","2606","","","","","pos","GS","GSold","3","category3/CS1.png","33","targets/39.png","direct","",""
"","image-slider-response","132","566903","0.0-8.0-0.42","9752junjhl","many_one","0","direct_first","1","LL08EN23","0","20","1","1","2","1","3111","","","","","pos","GS","GSnew","3","category3/GS1.png","10","targets/32.png","direct","",""
"","image-slider-response","133","570919","0.0-8.0-0.43","9752junjhl","many_one","0","direct_first","1","LL08EN23","0","20","1","1","2","1","4015","","","","","pos","GS","GSnew","2","category2/GS1.png","7","targets/20.png","direct","",""
"","image-slider-response","134","573719","0.0-8.0-0.44","9752junjhl","many_one","0","direct_first","1","LL08EN23","0","20","1","1","2","1","2799","","","","","pos","CS","CS","3","category3/CS3.png","32","targets/16.png","direct","",""
"","image-slider-response","135","577495","0.0-8.0-0.45","9752junjhl","many_one","0","direct_first","1","LL08EN23","0","20","1","1","2","1","3775","","","","","pos","GS","GSold","3","category3/CS9.png","50","targets/9.png","direct","",""
"","image-slider-response","136","580319","0.0-8.0-0.46","9752junjhl","many_one","0","direct_first","1","LL08EN23","0","20","1","1","2","1","2822","","","","","neg","GS","GSnew","4","category4/GS3.png","-47","targets/28.png","direct","",""
"","image-slider-response","137","582951","0.0-8.0-0.47","9752junjhl","many_one","0","direct_first","1","LL08EN23","0","20","1","1","2","1","2630","","","","","pos","CS","CS","3","category3/CS7.png","44","targets/43.png","direct","",""
"","html-keyboard-response","138","625577","0.0-9.0","9752junjhl","many_one","0","direct_first","1","LL08EN23","0","20","1","1","2","1","42625","","","<p>Sie sehen nun die chinesischen Zeichen nur ganz kurz. Danach sehen Sie die jeweilige Aussprache der Zeichen als Silbe auf dem Bildschrim. Ihre Aufgabe ist es, für jede Silbe anzugeben, ob diese etwas angenehmes, oder unangenehmes bedeuten könnte. Verlassen Sie sich hier vor allem auf Ihre Intuition.<br><br>Die Zeichen werden nur zur Orientierung dargestellt, beachten Sie sie deshalb nicht. Konzentrieren Sie sich vor allem auf die Silben. <br>Reagieren Sie mit folgenden zwei Tasten: <br><br><b>'D' </b> wenn die Silbe etwas <b>unangenehmes</b> bedeuten könnte. <br><b>'K'</b> wenn die Silbe etwas <b>angenehmes</b> bedeuten könnte. <br><br>Bitte legen Sie nun den Zeigefinger der linken Hand auf die Taste 'D' und den Zeigefinger der rechten Hand auf die Taste 'K'. <br>Reagieren Sie auf jede Silbe so schnell wie möglich. Uns interessiert Ihre spontane Reaktion. <br> <br> <br>Drücken Sie 'D' oder 'K', um die nächste Aufgabe zu starten. </p>","68","","","","","","","","","",""
"","html-keyboard-response","139","628598","0.0-10.0-0.0","9752junjhl","many_one","0","direct_first","1","LL08EN23","0","20","1","1","2","1","null","","","<div style=""font-size:60px;"">+</div>","null","","","","","","","","","",""
"","html-keyboard-response","140","628698","0.0-10.0-1.0","9752junjhl","many_one","0","direct_first","1","LL08EN23","0","20","1","1","2","1","null","","","<img src = 'category3/CS3.png' width = '100%;'>","null","","","","","","","","","",""
"","html-keyboard-response","141","628978","0.0-10.0-2.0","9752junjhl","many_one","0","direct_first","1","LL08EN23","0","20","1","1","2","1","null","","","<img src = 'targets/16.png' width = '100%;'>","null","","","","","","","","","",""
"","html-keyboard-response","142","634944","0.0-10.0-3.0","9752junjhl","many_one","0","direct_first","1","LL08EN23","0","20","1","1","2","1","5964","","","<img src = 'targets/mask.png' width = '100%;'>","68","pos","CS","CS","3","category3/CS3.png","","targets/16.png","indirect","0","0"
"","html-keyboard-response","143","636478","0.0-10.0-0.1","9752junjhl","many_one","0","direct_first","1","LL08EN23","0","20","1","1","2","1","null","","","<div style=""font-size:60px;"">+</div>","null","","","","","","","","","",""
"","html-keyboard-response","144","636578","0.0-10.0-1.1","9752junjhl","many_one","0","direct_first","1","LL08EN23","0","20","1","1","2","1","null","","","<img src = 'category1/CS7.png' width = '100%;'>","null","","","","","","","","","",""
"","html-keyboard-response","145","636857","0.0-10.0-2.1","9752junjhl","many_one","0","direct_first","1","LL08EN23","0","20","1","1","2","1","null","","","<img src = 'targets/17.png' width = '100%;'>","null","","","","","","","","","",""
"","html-keyboard-response","146","638304","0.0-10.0-3.1","9752junjhl","many_one","0","direct_first","1","LL08EN23","0","20","1","1","2","1","1445","","","<img src = 'targets/mask.png' width = '100%;'>","68","neg","GS","GSold","1","category1/CS7.png","","targets/17.png","indirect","0","1"
"","html-keyboard-response","147","639827","0.0-10.0-0.2","9752junjhl","many_one","0","direct_first","1","LL08EN23","0","20","1","1","2","1","null","","","<div style=""font-size:60px;"">+</div>","null","","","","","","","","","",""
"","html-keyboard-response","148","639928","0.0-10.0-1.2","9752junjhl","many_one","0","direct_first","1","LL08EN23","0","20","1","1","2","1","null","","","<img src = 'category3/CS7.png' width = '100%;'>","null","","","","","","","","","",""
"","html-keyboard-response","149","640208","0.0-10.0-2.2","9752junjhl","many_one","0","direct_first","1","LL08EN23","0","20","1","1","2","1","null","","","<img src = 'targets/43.png' width = '100%;'>","null","","","","","","","","","",""
"","html-keyboard-response","150","641176","0.0-10.0-3.2","9752junjhl","many_one","0","direct_first","1","LL08EN23","0","20","1","1","2","1","967","","","<img src = 'targets/mask.png' width = '100%;'>","75","pos","CS","CS","3","category3/CS7.png","","targets/43.png","indirect","1","2"
"","html-keyboard-response","151","642708","0.0-10.0-0.3","9752junjhl","many_one","0","direct_first","1","LL08EN23","0","20","1","1","2","1","null","","","<div style=""font-size:60px;"">+</div>","null","","","","","","","","","",""
"","html-keyboard-response","152","642807","0.0-10.0-1.3","9752junjhl","many_one","0","direct_first","1","LL08EN23","0","20","1","1","2","1","null","","","<img src = 'category2/CS5.png' width = '100%;'>","null","","","","","","","","","",""
"","html-keyboard-response","153","643084","0.0-10.0-2.3","9752junjhl","many_one","0","direct_first","1","LL08EN23","0","20","1","1","2","1","null","","","<img src = 'targets/5.png' width = '100%;'>","null","","","","","","","","","",""
"","html-keyboard-response","154","644984","0.0-10.0-3.3","9752junjhl","many_one","0","direct_first","1","LL08EN23","0","20","1","1","2","1","1898","","","<img src = 'targets/mask.png' width = '100%;'>","68","pos","CS","CS","2","category2/CS5.png","","targets/5.png","indirect","0","3"
"","html-keyboard-response","155","646508","0.0-10.0-0.4","9752junjhl","many_one","0","direct_first","1","LL08EN23","0","20","1","1","2","1","null","","","<div style=""font-size:60px;"">+</div>","null","","","","","","","","","",""
"","html-keyboard-response","156","646607","0.0-10.0-1.4","9752junjhl","many_one","0","direct_first","1","LL08EN23","0","20","1","1","2","1","null","","","<img src = 'category4/CS8.png' width = '100%;'>","null","","","","","","","","","",""
"","html-keyboard-response","157","646888","0.0-10.0-2.4","9752junjhl","many_one","0","direct_first","1","LL08EN23","0","20","1","1","2","1","null","","","<img src = 'targets/31.png' width = '100%;'>","null","","","","","","","","","",""
"","html-keyboard-response","158","648152","0.0-10.0-3.4","9752junjhl","many_one","0","direct_first","1","LL08EN23","0","20","1","1","2","1","1262","","","<img src = 'targets/mask.png' width = '100%;'>","75","neg","CS","CS","4","category4/CS8.png","","targets/31.png","indirect","1","4"
"","html-keyboard-response","159","649668","0.0-10.0-0.5","9752junjhl","many_one","0","direct_first","1","LL08EN23","0","20","1","1","2","1","null","","","<div style=""font-size:60px;"">+</div>","null","","","","","","","","","",""
"","html-keyboard-response","160","649768","0.0-10.0-1.5","9752junjhl","many_one","0","direct_first","1","LL08EN23","0","20","1","1","2","1","null","","","<img src = 'category2/CS7.png' width = '100%;'>","null","","","","","","","","","",""
"","html-keyboard-response","161","650047","0.0-10.0-2.5","9752junjhl","many_one","0","direct_first","1","LL08EN23","0","20","1","1","2","1","null","","","<img src = 'targets/21.png' width = '100%;'>","null","","","","","","","","","",""
"","html-keyboard-response","162","650704","0.0-10.0-3.5","9752junjhl","many_one","0","direct_first","1","LL08EN23","0","20","1","1","2","1","656","","","<img src = 'targets/mask.png' width = '100%;'>","75","pos","GS","GSold","2","category2/CS7.png","","targets/21.png","indirect","1","5"
"","html-keyboard-response","163","652227","0.0-10.0-0.6","9752junjhl","many_one","0","direct_first","1","LL08EN23","0","20","1","1","2","1","null","","","<div style=""font-size:60px;"">+</div>","null","","","","","","","","","",""
"","html-keyboard-response","164","652328","0.0-10.0-1.6","9752junjhl","many_one","0","direct_first","1","LL08EN23","0","20","1","1","2","1","null","","","<img src = 'category4/CS7.png' width = '100%;'>","null","","","","","","","","","",""
"","html-keyboard-response","165","652608","0.0-10.0-2.6","9752junjhl","many_one","0","direct_first","1","LL08EN23","0","20","1","1","2","1","null","","","<img src = 'targets/33.png' width = '100%;'>","null","","","","","","","","","",""
"","html-keyboard-response","166","653255","0.0-10.0-3.6","9752junjhl","many_one","0","direct_first","1","LL08EN23","0","20","1","1","2","1","647","","","<img src = 'targets/mask.png' width = '100%;'>","75","neg","CS","CS","4","category4/CS7.png","","targets/33.png","indirect","1","6"
"","html-keyboard-response","167","654788","0.0-10.0-0.7","9752junjhl","many_one","0","direct_first","1","LL08EN23","0","20","1","1","2","1","null","","","<div style=""font-size:60px;"">+</div>","null","","","","","","","","","",""
"","html-keyboard-response","168","654887","0.0-10.0-1.7","9752junjhl","many_one","0","direct_first","1","LL08EN23","0","20","1","1","2","1","null","","","<img src = 'category1/CS5.png' width = '100%;'>","null","","","","","","","","","",""
"","html-keyboard-response","169","655167","0.0-10.0-2.7","9752junjhl","many_one","0","direct_first","1","LL08EN23","0","20","1","1","2","1","null","","","<img src = 'targets/37.png' width = '100%;'>","null","","","","","","","","","",""
"","html-keyboard-response","170","655904","0.0-10.0-3.7","9752junjhl","many_one","0","direct_first","1","LL08EN23","0","20","1","1","2","1","735","","","<img src = 'targets/mask.png' width = '100%;'>","68","neg","CS","CS","1","category1/CS5.png","","targets/37.png","indirect","0","7"
"","html-keyboard-response","171","657427","0.0-10.0-0.8","9752junjhl","many_one","0","direct_first","1","LL08EN23","0","20","1","1","2","1","null","","","<div style=""font-size:60px;"">+</div>","null","","","","","","","","","",""
"","html-keyboard-response","172","657527","0.0-10.0-1.8","9752junjhl","many_one","0","direct_first","1","LL08EN23","0","20","1","1","2","1","null","","","<img src = 'category2/CS6.png' width = '100%;'>","null","","","","","","","","","",""
"","html-keyboard-response","173","657808","0.0-10.0-2.8","9752junjhl","many_one","0","direct_first","1","LL08EN23","0","20","1","1","2","1","null","","","<img src = 'targets/46.png' width = '100%;'>","null","","","","","","","","","",""
"","html-keyboard-response","174","658472","0.0-10.0-3.8","9752junjhl","many_one","0","direct_first","1","LL08EN23","0","20","1","1","2","1","663","","","<img src = 'targets/mask.png' width = '100%;'>","75","pos","CS","CS","2","category2/CS6.png","","targets/46.png","indirect","1","8"
"","html-keyboard-response","175","660008","0.0-10.0-0.9","9752junjhl","many_one","0","direct_first","1","LL08EN23","0","20","1","1","2","1","null","","","<div style=""font-size:60px;"">+</div>","null","","","","","","","","","",""
"","html-keyboard-response","176","660107","0.0-10.0-1.9","9752junjhl","many_one","0","direct_first","1","LL08EN23","0","20","1","1","2","1","null","","","<img src = 'category1/CS9.png' width = '100%;'>","null","","","","","","","","","",""
"","html-keyboard-response","177","660388","0.0-10.0-2.9","9752junjhl","many_one","0","direct_first","1","LL08EN23","0","20","1","1","2","1","null","","","<img src = 'targets/15.png' width = '100%;'>","null","","","","","","","","","",""
"","html-keyboard-response","178","661431","0.0-10.0-3.9","9752junjhl","many_one","0","direct_first","1","LL08EN23","0","20","1","1","2","1","1042","","","<img src = 'targets/mask.png' width = '100%;'>","75","neg","CS","CS","1","category1/CS9.png","","targets/15.png","indirect","1","9"
"","html-keyboard-response","179","662957","0.0-10.0-0.10","9752junjhl","many_one","0","direct_first","1","LL08EN23","0","20","1","1","2","1","null","","","<div style=""font-size:60px;"">+</div>","null","","","","","","","","","",""
"","html-keyboard-response","180","663058","0.0-10.0-1.10","9752junjhl","many_one","0","direct_first","1","LL08EN23","0","20","1","1","2","1","null","","","<img src = 'category2/CS8.png' width = '100%;'>","null","","","","","","","","","",""
"","html-keyboard-response","181","663338","0.0-10.0-2.10","9752junjhl","many_one","0","direct_first","1","LL08EN23","0","20","1","1","2","1","null","","","<img src = 'targets/4.png' width = '100%;'>","null","","","","","","","","","",""
"","html-keyboard-response","182","664327","0.0-10.0-3.10","9752junjhl","many_one","0","direct_first","1","LL08EN23","0","20","1","1","2","1","988","","","<img src = 'targets/mask.png' width = '100%;'>","75","pos","CS","CS","2","category2/CS8.png","","targets/4.png","indirect","1","10"
"","html-keyboard-response","183","665858","0.0-10.0-0.11","9752junjhl","many_one","0","direct_first","1","LL08EN23","0","20","1","1","2","1","null","","","<div style=""font-size:60px;"">+</div>","null","","","","","","","","","",""
"","html-keyboard-response","184","665958","0.0-10.0-1.11","9752junjhl","many_one","0","direct_first","1","LL08EN23","0","20","1","1","2","1","null","","","<img src = 'category1/CS3.png' width = '100%;'>","null","","","","","","","","","",""
"","html-keyboard-response","185","666238","0.0-10.0-2.11","9752junjhl","many_one","0","direct_first","1","LL08EN23","0","20","1","1","2","1","null","","","<img src = 'targets/42.png' width = '100%;'>","null","","","","","","","","","",""
"","html-keyboard-response","186","666744","0.0-10.0-3.11","9752junjhl","many_one","0","direct_first","1","LL08EN23","0","20","1","1","2","1","506","","","<img src = 'targets/mask.png' width = '100%;'>","75","neg","CS","CS","1","category1/CS3.png","","targets/42.png","indirect","1","11"
"","html-keyboard-response","187","668278","0.0-10.0-0.12","9752junjhl","many_one","0","direct_first","1","LL08EN23","0","20","1","1","2","1","null","","","<div style=""font-size:60px;"">+</div>","null","","","","","","","","","",""
"","html-keyboard-response","188","668378","0.0-10.0-1.12","9752junjhl","many_one","0","direct_first","1","LL08EN23","0","20","1","1","2","1","null","","","<img src = 'category2/CS9.png' width = '100%;'>","null","","","","","","","","","",""
"","html-keyboard-response","189","668654","0.0-10.0-2.12","9752junjhl","many_one","0","direct_first","1","LL08EN23","0","20","1","1","2","1","null","","","<img src = 'targets/29.png' width = '100%;'>","null","","","","","","","","","",""
"","html-keyboard-response","190","670408","0.0-10.0-3.12","9752junjhl","many_one","0","direct_first","1","LL08EN23","0","20","1","1","2","1","1752","","","<img src = 'targets/mask.png' width = '100%;'>","75","pos","CS","CS","2","category2/CS9.png","","targets/29.png","indirect","1","12"
"","html-keyboard-response","191","671938","0.0-10.0-0.13","9752junjhl","many_one","0","direct_first","1","LL08EN23","0","20","1","1","2","1","null","","","<div style=""font-size:60px;"">+</div>","null","","","","","","","","","",""
"","html-keyboard-response","192","672038","0.0-10.0-1.13","9752junjhl","many_one","0","direct_first","1","LL08EN23","0","20","1","1","2","1","null","","","<img src = 'category4/CS9.png' width = '100%;'>","null","","","","","","","","","",""
"","html-keyboard-response","193","672318","0.0-10.0-2.13","9752junjhl","many_one","0","direct_first","1","LL08EN23","0","20","1","1","2","1","null","","","<img src = 'targets/45.png' width = '100%;'>","null","","","","","","","","","",""
"","html-keyboard-response","194","673160","0.0-10.0-3.13","9752junjhl","many_one","0","direct_first","1","LL08EN23","0","20","1","1","2","1","841","","","<img src = 'targets/mask.png' width = '100%;'>","68","neg","CS","CS","4","category4/CS9.png","","targets/45.png","indirect","0","13"
"","html-keyboard-response","195","674697","0.0-10.0-0.14","9752junjhl","many_one","0","direct_first","1","LL08EN23","0","20","1","1","2","1","null","","","<div style=""font-size:60px;"">+</div>","null","","","","","","","","","",""
"","html-keyboard-response","196","674797","0.0-10.0-1.14","9752junjhl","many_one","0","direct_first","1","LL08EN23","0","20","1","1","2","1","null","","","<img src = 'category1/CS6.png' width = '100%;'>","null","","","","","","","","","",""
"","html-keyboard-response","197","675078","0.0-10.0-2.14","9752junjhl","many_one","0","direct_first","1","LL08EN23","0","20","1","1","2","1","null","","","<img src = 'targets/19.png' width = '100%;'>","null","","","","","","","","","",""
"","html-keyboard-response","198","675728","0.0-10.0-3.14","9752junjhl","many_one","0","direct_first","1","LL08EN23","0","20","1","1","2","1","649","","","<img src = 'targets/mask.png' width = '100%;'>","68","neg","GS","GSold","1","category1/CS6.png","","targets/19.png","indirect","0","14"
"","html-keyboard-response","199","677257","0.0-10.0-0.15","9752junjhl","many_one","0","direct_first","1","LL08EN23","0","20","1","1","2","1","null","","","<div style=""font-size:60px;"">+</div>","null","","","","","","","","","",""
"","html-keyboard-response","200","677357","0.0-10.0-1.15","9752junjhl","many_one","0","direct_first","1","LL08EN23","0","20","1","1","2","1","null","","","<img src = 'category1/CS4.png' width = '100%;'>","null","","","","","","","","","",""
"","html-keyboard-response","201","677638","0.0-10.0-2.15","9752junjhl","many_one","0","direct_first","1","LL08EN23","0","20","1","1","2","1","null","","","<img src = 'targets/38.png' width = '100%;'>","null","","","","","","","","","",""
"","html-keyboard-response","202","678839","0.0-10.0-3.15","9752junjhl","many_one","0","direct_first","1","LL08EN23","0","20","1","1","2","1","1199","","","<img src = 'targets/mask.png' width = '100%;'>","75","neg","CS","CS","1","category1/CS4.png","","targets/38.png","indirect","1","15"
"","html-keyboard-response","203","680377","0.0-10.0-0.16","9752junjhl","many_one","0","direct_first","1","LL08EN23","0","20","1","1","2","1","null","","","<div style=""font-size:60px;"">+</div>","null","","","","","","","","","",""
"","html-keyboard-response","204","680477","0.0-10.0-1.16","9752junjhl","many_one","0","direct_first","1","LL08EN23","0","20","1","1","2","1","null","","","<img src = 'category1/CS8.png' width = '100%;'>","null","","","","","","","","","",""
"","html-keyboard-response","205","680748","0.0-10.0-2.16","9752junjhl","many_one","0","direct_first","1","LL08EN23","0","20","1","1","2","1","null","","","<img src = 'targets/22.png' width = '100%;'>","null","","","","","","","","","",""
"","html-keyboard-response","206","681248","0.0-10.0-3.16","9752junjhl","many_one","0","direct_first","1","LL08EN23","0","20","1","1","2","1","499","","","<img src = 'targets/mask.png' width = '100%;'>","75","neg","CS","CS","1","category1/CS8.png","","targets/22.png","indirect","1","16"
"","html-keyboard-response","207","682778","0.0-10.0-0.17","9752junjhl","many_one","0","direct_first","1","LL08EN23","0","20","1","1","2","1","null","","","<div style=""font-size:60px;"">+</div>","null","","","","","","","","","",""
"","html-keyboard-response","208","682878","0.0-10.0-1.17","9752junjhl","many_one","0","direct_first","1","LL08EN23","0","20","1","1","2","1","null","","","<img src = 'category2/CS3.png' width = '100%;'>","null","","","","","","","","","",""
"","html-keyboard-response","209","683158","0.0-10.0-2.17","9752junjhl","many_one","0","direct_first","1","LL08EN23","0","20","1","1","2","1","null","","","<img src = 'targets/35.png' width = '100%;'>","null","","","","","","","","","",""
"","html-keyboard-response","210","683911","0.0-10.0-3.17","9752junjhl","many_one","0","direct_first","1","LL08EN23","0","20","1","1","2","1","753","","","<img src = 'targets/mask.png' width = '100%;'>","75","pos","CS","CS","2","category2/CS3.png","","targets/35.png","indirect","1","17"
"","html-keyboard-response","211","685428","0.0-10.0-0.18","9752junjhl","many_one","0","direct_first","1","LL08EN23","0","20","1","1","2","1","null","","","<div style=""font-size:60px;"">+</div>","null","","","","","","","","","",""
"","html-keyboard-response","212","685528","0.0-10.0-1.18","9752junjhl","many_one","0","direct_first","1","LL08EN23","0","20","1","1","2","1","null","","","<img src = 'category4/CS5.png' width = '100%;'>","null","","","","","","","","","",""
"","html-keyboard-response","213","685807","0.0-10.0-2.18","9752junjhl","many_one","0","direct_first","1","LL08EN23","0","20","1","1","2","1","null","","","<img src = 'targets/40.png' width = '100%;'>","null","","","","","","","","","",""
"","html-keyboard-response","214","687184","0.0-10.0-3.18","9752junjhl","many_one","0","direct_first","1","LL08EN23","0","20","1","1","2","1","1375","","","<img src = 'targets/mask.png' width = '100%;'>","68","neg","CS","CS","4","category4/CS5.png","","targets/40.png","indirect","0","18"
"","html-keyboard-response","215","688688","0.0-10.0-0.19","9752junjhl","many_one","0","direct_first","1","LL08EN23","0","20","1","1","2","1","null","","","<div style=""font-size:60px;"">+</div>","null","","","","","","","","","",""
"","html-keyboard-response","216","688788","0.0-10.0-1.19","9752junjhl","many_one","0","direct_first","1","LL08EN23","0","20","1","1","2","1","null","","","<img src = 'category4/CS3.png' width = '100%;'>","null","","","","","","","","","",""
"","html-keyboard-response","217","689067","0.0-10.0-2.19","9752junjhl","many_one","0","direct_first","1","LL08EN23","0","20","1","1","2","1","null","","","<img src = 'targets/7.png' width = '100%;'>","null","","","","","","","","","",""
"","html-keyboard-response","218","689568","0.0-10.0-3.19","9752junjhl","many_one","0","direct_first","1","LL08EN23","0","20","1","1","2","1","499","","","<img src = 'targets/mask.png' width = '100%;'>","68","neg","CS","CS","4","category4/CS3.png","","targets/7.png","indirect","0","19"
"","html-keyboard-response","219","691106","0.0-10.0-0.20","9752junjhl","many_one","0","direct_first","1","LL08EN23","0","20","1","1","2","1","null","","","<div style=""font-size:60px;"">+</div>","null","","","","","","","","","",""
"","html-keyboard-response","220","691207","0.0-10.0-1.20","9752junjhl","many_one","0","direct_first","1","LL08EN23","0","20","1","1","2","1","null","","","<img src = 'category3/CS6.png' width = '100%;'>","null","","","","","","","","","",""
"","html-keyboard-response","221","691487","0.0-10.0-2.20","9752junjhl","many_one","0","direct_first","1","LL08EN23","0","20","1","1","2","1","null","","","<img src = 'targets/1.png' width = '100%;'>","null","","","","","","","","","",""
"","html-keyboard-response","222","692624","0.0-10.0-3.20","9752junjhl","many_one","0","direct_first","1","LL08EN23","0","20","1","1","2","1","1134","","","<img src = 'targets/mask.png' width = '100%;'>","68","pos","CS","CS","3","category3/CS6.png","","targets/1.png","indirect","0","20"
"","html-keyboard-response","223","694148","0.0-10.0-0.21","9752junjhl","many_one","0","direct_first","1","LL08EN23","0","20","1","1","2","1","null","","","<div style=""font-size:60px;"">+</div>","null","","","","","","","","","",""
"","html-keyboard-response","224","694247","0.0-10.0-1.21","9752junjhl","many_one","0","direct_first","1","LL08EN23","0","20","1","1","2","1","null","","","<img src = 'category3/CS8.png' width = '100%;'>","null","","","","","","","","","",""
"","html-keyboard-response","225","694527","0.0-10.0-2.21","9752junjhl","many_one","0","direct_first","1","LL08EN23","0","20","1","1","2","1","null","","","<img src = 'targets/3.png' width = '100%;'>","null","","","","","","","","","",""
"","html-keyboard-response","226","695319","0.0-10.0-3.21","9752junjhl","many_one","0","direct_first","1","LL08EN23","0","20","1","1","2","1","790","","","<img src = 'targets/mask.png' width = '100%;'>","68","pos","CS","CS","3","category3/CS8.png","","targets/3.png","indirect","0","21"
"","html-keyboard-response","227","696847","0.0-10.0-0.22","9752junjhl","many_one","0","direct_first","1","LL08EN23","0","20","1","1","2","1","null","","","<div style=""font-size:60px;"">+</div>","null","","","","","","","","","",""
"","html-keyboard-response","228","696948","0.0-10.0-1.22","9752junjhl","many_one","0","direct_first","1","LL08EN23","0","20","1","1","2","1","null","","","<img src = 'category1/CS1.png' width = '100%;'>","null","","","","","","","","","",""
"","html-keyboard-response","229","697223","0.0-10.0-2.22","9752junjhl","many_one","0","direct_first","1","LL08EN23","0","20","1","1","2","1","null","","","<img src = 'targets/34.png' width = '100%;'>","null","","","","","","","","","",""
"","html-keyboard-response","230","697752","0.0-10.0-3.22","9752junjhl","many_one","0","direct_first","1","LL08EN23","0","20","1","1","2","1","526","","","<img src = 'targets/mask.png' width = '100%;'>","75","neg","GS","GSold","1","category1/CS1.png","","targets/34.png","indirect","1","22"
"","html-keyboard-response","231","699268","0.0-10.0-0.23","9752junjhl","many_one","0","direct_first","1","LL08EN23","0","20","1","1","2","1","null","","","<div style=""font-size:60px;"">+</div>","null","","","","","","","","","",""
"","html-keyboard-response","232","699368","0.0-10.0-1.23","9752junjhl","many_one","0","direct_first","1","LL08EN23","0","20","1","1","2","1","null","","","<img src = 'category3/CS5.png' width = '100%;'>","null","","","","","","","","","",""
"","html-keyboard-response","233","699647","0.0-10.0-2.23","9752junjhl","many_one","0","direct_first","1","LL08EN23","0","20","1","1","2","1","null","","","<img src = 'targets/18.png' width = '100%;'>","null","","","","","","","","","",""
"","html-keyboard-response","234","700456","0.0-10.0-3.23","9752junjhl","many_one","0","direct_first","1","LL08EN23","0","20","1","1","2","1","807","","","<img src = 'targets/mask.png' width = '100%;'>","75","pos","CS","CS","3","category3/CS5.png","","targets/18.png","indirect","1","23"
"","survey-html-form","235","707511","0.0-11.0","9752junjhl","many_one","0","direct_first","1","LL08EN23","0","20","1","1","2","1","6544","","{}","","","","","","","","","","","",""
"","html-keyboard-response","236","710537","0.0-12.0-0.0","9752junjhl","many_one","0","direct_first","1","LL08EN23","0","20","1","1","2","1","null","","","<div style=""font-size:60px;"">+</div>","null","","","","","","","","","",""
"","html-keyboard-response","237","710638","0.0-12.0-1.0","9752junjhl","many_one","0","direct_first","1","LL08EN23","0","20","1","1","2","1","null","","","<img src = 'category1/GS3.png' width = '100%;'>","null","","","","","","","","","",""
"","html-keyboard-response","238","710918","0.0-12.0-2.0","9752junjhl","many_one","0","direct_first","1","LL08EN23","0","20","1","1","2","1","null","","","<img src = 'targets/24.png' width = '100%;'>","null","","","","","","","","","",""
"","html-keyboard-response","239","711631","0.0-12.0-3.0","9752junjhl","many_one","0","direct_first","1","LL08EN23","0","20","1","1","2","1","711","","","<img src = 'targets/mask.png' width = '100%;'>","68","neg","GS","GSnew","1","category1/GS3.png","","targets/24.png","indirect","0","24"
"","html-keyboard-response","240","713157","0.0-12.0-0.1","9752junjhl","many_one","0","direct_first","1","LL08EN23","0","20","1","1","2","1","null","","","<div style=""font-size:60px;"">+</div>","null","","","","","","","","","",""
"","html-keyboard-response","241","713258","0.0-12.0-1.1","9752junjhl","many_one","0","direct_first","1","LL08EN23","0","20","1","1","2","1","null","","","<img src = 'category4/CS1.png' width = '100%;'>","null","","","","","","","","","",""
"","html-keyboard-response","242","713538","0.0-12.0-2.1","9752junjhl","many_one","0","direct_first","1","LL08EN23","0","20","1","1","2","1","null","","","<img src = 'targets/6.png' width = '100%;'>","null","","","","","","","","","",""
"","html-keyboard-response","243","714152","0.0-12.0-3.1","9752junjhl","many_one","0","direct_first","1","LL08EN23","0","20","1","1","2","1","612","","","<img src = 'targets/mask.png' width = '100%;'>","75","neg","GS","GSold","4","category4/CS1.png","","targets/6.png","indirect","1","25"
"","html-keyboard-response","244","715678","0.0-12.0-0.2","9752junjhl","many_one","0","direct_first","1","LL08EN23","0","20","1","1","2","1","null","","","<div style=""font-size:60px;"">+</div>","null","","","","","","","","","",""
"","html-keyboard-response","245","715778","0.0-12.0-1.2","9752junjhl","many_one","0","direct_first","1","LL08EN23","0","20","1","1","2","1","null","","","<img src = 'category3/GS2.png' width = '100%;'>","null","","","","","","","","","",""
"","html-keyboard-response","246","716058","0.0-12.0-2.2","9752junjhl","many_one","0","direct_first","1","LL08EN23","0","20","1","1","2","1","null","","","<img src = 'targets/41.png' width = '100%;'>","null","","","","","","","","","",""
"","html-keyboard-response","247","716703","0.0-12.0-3.2","9752junjhl","many_one","0","direct_first","1","LL08EN23","0","20","1","1","2","1","644","","","<img src = 'targets/mask.png' width = '100%;'>","75","pos","GS","GSnew","3","category3/GS2.png","","targets/41.png","indirect","1","26"
"","html-keyboard-response","248","718238","0.0-12.0-0.3","9752junjhl","many_one","0","direct_first","1","LL08EN23","0","20","1","1","2","1","null","","","<div style=""font-size:60px;"">+</div>","null","","","","","","","","","",""
"","html-keyboard-response","249","718338","0.0-12.0-1.3","9752junjhl","many_one","0","direct_first","1","LL08EN23","0","20","1","1","2","1","null","","","<img src = 'category2/GS1.png' width = '100%;'>","null","","","","","","","","","",""
"","html-keyboard-response","250","718618","0.0-12.0-2.3","9752junjhl","many_one","0","direct_first","1","LL08EN23","0","20","1","1","2","1","null","","","<img src = 'targets/20.png' width = '100%;'>","null","","","","","","","","","",""
"","html-keyboard-response","251","719127","0.0-12.0-3.3","9752junjhl","many_one","0","direct_first","1","LL08EN23","0","20","1","1","2","1","509","","","<img src = 'targets/mask.png' width = '100%;'>","75","pos","GS","GSnew","2","category2/GS1.png","","targets/20.png","indirect","1","27"
"","html-keyboard-response","252","720638","0.0-12.0-0.4","9752junjhl","many_one","0","direct_first","1","LL08EN23","0","20","1","1","2","1","null","","","<div style=""font-size:60px;"">+</div>","null","","","","","","","","","",""
"","html-keyboard-response","253","720738","0.0-12.0-1.4","9752junjhl","many_one","0","direct_first","1","LL08EN23","0","20","1","1","2","1","null","","","<img src = 'category3/GS3.png' width = '100%;'>","null","","","","","","","","","",""
"","html-keyboard-response","254","721017","0.0-12.0-2.4","9752junjhl","many_one","0","direct_first","1","LL08EN23","0","20","1","1","2","1","null","","","<img src = 'targets/10.png' width = '100%;'>","null","","","","","","","","","",""
"","html-keyboard-response","255","721503","0.0-12.0-3.4","9752junjhl","many_one","0","direct_first","1","LL08EN23","0","20","1","1","2","1","485","","","<img src = 'targets/mask.png' width = '100%;'>","68","pos","GS","GSnew","3","category3/GS3.png","","targets/10.png","indirect","0","28"
"","html-keyboard-response","256","723038","0.0-12.0-0.5","9752junjhl","many_one","0","direct_first","1","LL08EN23","0","20","1","1","2","1","null","","","<div style=""font-size:60px;"">+</div>","null","","","","","","","","","",""
"","html-keyboard-response","257","723137","0.0-12.0-1.5","9752junjhl","many_one","0","direct_first","1","LL08EN23","0","20","1","1","2","1","null","","","<img src = 'category4/CS10.png' width = '100%;'>","null","","","","","","","","","",""
"","html-keyboard-response","258","723418","0.0-12.0-2.5","9752junjhl","many_one","0","direct_first","1","LL08EN23","0","20","1","1","2","1","null","","","<img src = 'targets/12.png' width = '100%;'>","null","","","","","","","","","",""
"","html-keyboard-response","259","724000","0.0-12.0-3.5","9752junjhl","many_one","0","direct_first","1","LL08EN23","0","20","1","1","2","1","579","","","<img src = 'targets/mask.png' width = '100%;'>","75","neg","GS","GSold","4","category4/CS10.png","","targets/12.png","indirect","1","29"
"","html-keyboard-response","260","725518","0.0-12.0-0.6","9752junjhl","many_one","0","direct_first","1","LL08EN23","0","20","1","1","2","1","null","","","<div style=""font-size:60px;"">+</div>","null","","","","","","","","","",""
"","html-keyboard-response","261","725618","0.0-12.0-1.6","9752junjhl","many_one","0","direct_first","1","LL08EN23","0","20","1","1","2","1","null","","","<img src = 'category1/GS1.png' width = '100%;'>","null","","","","","","","","","",""
"","html-keyboard-response","262","725897","0.0-12.0-2.6","9752junjhl","many_one","0","direct_first","1","LL08EN23","0","20","1","1","2","1","null","","","<img src = 'targets/11.png' width = '100%;'>","null","","","","","","","","","",""
"","html-keyboard-response","263","726600","0.0-12.0-3.6","9752junjhl","many_one","0","direct_first","1","LL08EN23","0","20","1","1","2","1","702","","","<img src = 'targets/mask.png' width = '100%;'>","68","neg","GS","GSnew","1","category1/GS1.png","","targets/11.png","indirect","0","30"
"","html-keyboard-response","264","728138","0.0-12.0-0.7","9752junjhl","many_one","0","direct_first","1","LL08EN23","0","20","1","1","2","1","null","","","<div style=""font-size:60px;"">+</div>","null","","","","","","","","","",""
"","html-keyboard-response","265","728237","0.0-12.0-1.7","9752junjhl","many_one","0","direct_first","1","LL08EN23","0","20","1","1","2","1","null","","","<img src = 'category3/CS1.png' width = '100%;'>","null","","","","","","","","","",""
"","html-keyboard-response","266","728513","0.0-12.0-2.7","9752junjhl","many_one","0","direct_first","1","LL08EN23","0","20","1","1","2","1","null","","","<img src = 'targets/39.png' width = '100%;'>","null","","","","","","","","","",""
"","html-keyboard-response","267","729360","0.0-12.0-3.7","9752junjhl","many_one","0","direct_first","1","LL08EN23","0","20","1","1","2","1","846","","","<img src = 'targets/mask.png' width = '100%;'>","75","pos","GS","GSold","3","category3/CS1.png","","targets/39.png","indirect","1","31"
"","html-keyboard-response","268","730888","0.0-12.0-0.8","9752junjhl","many_one","0","direct_first","1","LL08EN23","0","20","1","1","2","1","null","","","<div style=""font-size:60px;"">+</div>","null","","","","","","","","","",""
"","html-keyboard-response","269","730987","0.0-12.0-1.8","9752junjhl","many_one","0","direct_first","1","LL08EN23","0","20","1","1","2","1","null","","","<img src = 'category1/ma.png' width = '100%;'>","null","","","","","","","","","",""
"","html-keyboard-response","270","731267","0.0-12.0-2.8","9752junjhl","many_one","0","direct_first","1","LL08EN23","0","20","1","1","2","1","null","","","<img src = 'targets/26.png' width = '100%;'>","null","","","","","","","","","",""
"","html-keyboard-response","271","731760","0.0-12.0-3.8","9752junjhl","many_one","0","direct_first","1","LL08EN23","0","20","1","1","2","1","490","","","<img src = 'targets/mask.png' width = '100%;'>","75","neg","GS","abstract","1","category1/ma.png","","targets/26.png","indirect","1","32"
"","html-keyboard-response","272","733288","0.0-12.0-0.9","9752junjhl","many_one","0","direct_first","1","LL08EN23","0","20","1","1","2","1","null","","","<div style=""font-size:60px;"">+</div>","null","","","","","","","","","",""
"","html-keyboard-response","273","733388","0.0-12.0-1.9","9752junjhl","many_one","0","direct_first","1","LL08EN23","0","20","1","1","2","1","null","","","<img src = 'category4/GS1.png' width = '100%;'>","null","","","","","","","","","",""
"","html-keyboard-response","274","733668","0.0-12.0-2.9","9752junjhl","many_one","0","direct_first","1","LL08EN23","0","20","1","1","2","1","null","","","<img src = 'targets/2.png' width = '100%;'>","null","","","","","","","","","",""
"","html-keyboard-response","275","734327","0.0-12.0-3.9","9752junjhl","many_one","0","direct_first","1","LL08EN23","0","20","1","1","2","1","657","","","<img src = 'targets/mask.png' width = '100%;'>","75","neg","GS","GSnew","4","category4/GS1.png","","targets/2.png","indirect","1","33"
"","html-keyboard-response","276","735867","0.0-12.0-0.10","9752junjhl","many_one","0","direct_first","1","LL08EN23","0","20","1","1","2","1","null","","","<div style=""font-size:60px;"">+</div>","null","","","","","","","","","",""
"","html-keyboard-response","277","735968","0.0-12.0-1.10","9752junjhl","many_one","0","direct_first","1","LL08EN23","0","20","1","1","2","1","null","","","<img src = 'category2/GS2.png' width = '100%;'>","null","","","","","","","","","",""
"","html-keyboard-response","278","736248","0.0-12.0-2.10","9752junjhl","many_one","0","direct_first","1","LL08EN23","0","20","1","1","2","1","null","","","<img src = 'targets/48.png' width = '100%;'>","null","","","","","","","","","",""
"","html-keyboard-response","279","736656","0.0-12.0-3.10","9752junjhl","many_one","0","direct_first","1","LL08EN23","0","20","1","1","2","1","407","","","<img src = 'targets/mask.png' width = '100%;'>","68","pos","GS","GSnew","2","category2/GS2.png","","targets/48.png","indirect","0","34"
"","html-keyboard-response","280","738168","0.0-12.0-0.11","9752junjhl","many_one","0","direct_first","1","LL08EN23","0","20","1","1","2","1","null","","","<div style=""font-size:60px;"">+</div>","null","","","","","","","","","",""
"","html-keyboard-response","281","738268","0.0-12.0-1.11","9752junjhl","many_one","0","direct_first","1","LL08EN23","0","20","1","1","2","1","null","","","<img src = 'category3/GS1.png' width = '100%;'>","null","","","","","","","","","",""
"","html-keyboard-response","282","738547","0.0-12.0-2.11","9752junjhl","many_one","0","direct_first","1","LL08EN23","0","20","1","1","2","1","null","","","<img src = 'targets/32.png' width = '100%;'>","null","","","","","","","","","",""
"","html-keyboard-response","283","739024","0.0-12.0-3.11","9752junjhl","many_one","0","direct_first","1","LL08EN23","0","20","1","1","2","1","476","","","<img src = 'targets/mask.png' width = '100%;'>","68","pos","GS","GSnew","3","category3/GS1.png","","targets/32.png","indirect","0","35"
"","html-keyboard-response","284","740543","0.0-12.0-0.12","9752junjhl","many_one","0","direct_first","1","LL08EN23","0","20","1","1","2","1","null","","","<div style=""font-size:60px;"">+</div>","null","","","","","","","","","",""
"","html-keyboard-response","285","740644","0.0-12.0-1.12","9752junjhl","many_one","0","direct_first","1","LL08EN23","0","20","1","1","2","1","null","","","<img src = 'category3/wang.png' width = '100%;'>","null","","","","","","","","","",""
"","html-keyboard-response","286","740927","0.0-12.0-2.12","9752junjhl","many_one","0","direct_first","1","LL08EN23","0","20","1","1","2","1","null","","","<img src = 'targets/36.png' width = '100%;'>","null","","","","","","","","","",""
"","html-keyboard-response","287","741750","0.0-12.0-3.12","9752junjhl","many_one","0","direct_first","1","LL08EN23","0","20","1","1","2","1","822","","","<img src = 'targets/mask.png' width = '100%;'>","75","pos","GS","abstract","3","category3/wang.png","","targets/36.png","indirect","1","36"
"","html-keyboard-response","288","743288","0.0-12.0-0.13","9752junjhl","many_one","0","direct_first","1","LL08EN23","0","20","1","1","2","1","null","","","<div style=""font-size:60px;"">+</div>","null","","","","","","","","","",""
"","html-keyboard-response","289","743387","0.0-12.0-1.13","9752junjhl","many_one","0","direct_first","1","LL08EN23","0","20","1","1","2","1","null","","","<img src = 'category2/GS3.png' width = '100%;'>","null","","","","","","","","","",""
"","html-keyboard-response","290","743668","0.0-12.0-2.13","9752junjhl","many_one","0","direct_first","1","LL08EN23","0","20","1","1","2","1","null","","","<img src = 'targets/13.png' width = '100%;'>","null","","","","","","","","","",""
"","html-keyboard-response","291","744136","0.0-12.0-3.13","9752junjhl","many_one","0","direct_first","1","LL08EN23","0","20","1","1","2","1","467","","","<img src = 'targets/mask.png' width = '100%;'>","75","pos","GS","GSnew","2","category2/GS3.png","","targets/13.png","indirect","1","37"
"","html-keyboard-response","292","745648","0.0-12.0-0.14","9752junjhl","many_one","0","direct_first","1","LL08EN23","0","20","1","1","2","1","null","","","<div style=""font-size:60px;"">+</div>","null","","","","","","","","","",""
"","html-keyboard-response","293","745747","0.0-12.0-1.14","9752junjhl","many_one","0","direct_first","1","LL08EN23","0","20","1","1","2","1","null","","","<img src = 'category4/GS2.png' width = '100%;'>","null","","","","","","","","","",""
"","html-keyboard-response","294","746027","0.0-12.0-2.14","9752junjhl","many_one","0","direct_first","1","LL08EN23","0","20","1","1","2","1","null","","","<img src = 'targets/14.png' width = '100%;'>","null","","","","","","","","","",""
"","html-keyboard-response","295","746856","0.0-12.0-3.14","9752junjhl","many_one","0","direct_first","1","LL08EN23","0","20","1","1","2","1","827","","","<img src = 'targets/mask.png' width = '100%;'>","68","neg","GS","GSnew","4","category4/GS2.png","","targets/14.png","indirect","0","38"
"","html-keyboard-response","296","748377","0.0-12.0-0.15","9752junjhl","many_one","0","direct_first","1","LL08EN23","0","20","1","1","2","1","null","","","<div style=""font-size:60px;"">+</div>","null","","","","","","","","","",""
"","html-keyboard-response","297","748478","0.0-12.0-1.15","9752junjhl","many_one","0","direct_first","1","LL08EN23","0","20","1","1","2","1","null","","","<img src = 'category2/CS10.png' width = '100%;'>","null","","","","","","","","","",""
"","html-keyboard-response","298","748757","0.0-12.0-2.15","9752junjhl","many_one","0","direct_first","1","LL08EN23","0","20","1","1","2","1","null","","","<img src = 'targets/23.png' width = '100%;'>","null","","","","","","","","","",""
"","html-keyboard-response","299","749223","0.0-12.0-3.15","9752junjhl","many_one","0","direct_first","1","LL08EN23","0","20","1","1","2","1","466","","","<img src = 'targets/mask.png' width = '100%;'>","68","pos","GS","GSold","2","category2/CS10.png","","targets/23.png","indirect","0","39"
"","html-keyboard-response","300","750757","0.0-12.0-0.16","9752junjhl","many_one","0","direct_first","1","LL08EN23","0","20","1","1","2","1","null","","","<div style=""font-size:60px;"">+</div>","null","","","","","","","","","",""
"","html-keyboard-response","301","750858","0.0-12.0-1.16","9752junjhl","many_one","0","direct_first","1","LL08EN23","0","20","1","1","2","1","null","","","<img src = 'category3/CS9.png' width = '100%;'>","null","","","","","","","","","",""
"","html-keyboard-response","302","751118","0.0-12.0-2.16","9752junjhl","many_one","0","direct_first","1","LL08EN23","0","20","1","1","2","1","null","","","<img src = 'targets/9.png' width = '100%;'>","null","","","","","","","","","",""
"","html-keyboard-response","303","752432","0.0-12.0-3.16","9752junjhl","many_one","0","direct_first","1","LL08EN23","0","20","1","1","2","1","1313","","","<img src = 'targets/mask.png' width = '100%;'>","75","pos","GS","GSold","3","category3/CS9.png","","targets/9.png","indirect","1","40"
"","html-keyboard-response","304","753938","0.0-12.0-0.17","9752junjhl","many_one","0","direct_first","1","LL08EN23","0","20","1","1","2","1","null","","","<div style=""font-size:60px;"">+</div>","null","","","","","","","","","",""
"","html-keyboard-response","305","754038","0.0-12.0-1.17","9752junjhl","many_one","0","direct_first","1","LL08EN23","0","20","1","1","2","1","null","","","<img src = 'category1/GS2.png' width = '100%;'>","null","","","","","","","","","",""
"","html-keyboard-response","306","754317","0.0-12.0-2.17","9752junjhl","many_one","0","direct_first","1","LL08EN23","0","20","1","1","2","1","null","","","<img src = 'targets/30.png' width = '100%;'>","null","","","","","","","","","",""
"","html-keyboard-response","307","754919","0.0-12.0-3.17","9752junjhl","many_one","0","direct_first","1","LL08EN23","0","20","1","1","2","1","600","","","<img src = 'targets/mask.png' width = '100%;'>","75","neg","GS","GSnew","1","category1/GS2.png","","targets/30.png","indirect","1","41"
"","html-keyboard-response","308","756457","0.0-12.0-0.18","9752junjhl","many_one","0","direct_first","1","LL08EN23","0","20","1","1","2","1","null","","","<div style=""font-size:60px;"">+</div>","null","","","","","","","","","",""
"","html-keyboard-response","309","756558","0.0-12.0-1.18","9752junjhl","many_one","0","direct_first","1","LL08EN23","0","20","1","1","2","1","null","","","<img src = 'category2/CS4.png' width = '100%;'>","null","","","","","","","","","",""
"","html-keyboard-response","310","756837","0.0-12.0-2.18","9752junjhl","many_one","0","direct_first","1","LL08EN23","0","20","1","1","2","1","null","","","<img src = 'targets/47.png' width = '100%;'>","null","","","","","","","","","",""
"","html-keyboard-response","311","757719","0.0-12.0-3.18","9752junjhl","many_one","0","direct_first","1","LL08EN23","0","20","1","1","2","1","881","","","<img src = 'targets/mask.png' width = '100%;'>","68","pos","GS","GSold","2","category2/CS4.png","","targets/47.png","indirect","0","42"
"","html-keyboard-response","312","759258","0.0-12.0-0.19","9752junjhl","many_one","0","direct_first","1","LL08EN23","0","20","1","1","2","1","null","","","<div style=""font-size:60px;"">+</div>","null","","","","","","","","","",""
"","html-keyboard-response","313","759357","0.0-12.0-1.19","9752junjhl","many_one","0","direct_first","1","LL08EN23","0","20","1","1","2","1","null","","","<img src = 'category3/CS4.png' width = '100%;'>","null","","","","","","","","","",""
"","html-keyboard-response","314","759637","0.0-12.0-2.19","9752junjhl","many_one","0","direct_first","1","LL08EN23","0","20","1","1","2","1","null","","","<img src = 'targets/8.png' width = '100%;'>","null","","","","","","","","","",""
"","html-keyboard-response","315","760248","0.0-12.0-3.19","9752junjhl","many_one","0","direct_first","1","LL08EN23","0","20","1","1","2","1","608","","","<img src = 'targets/mask.png' width = '100%;'>","68","pos","GS","GSold","3","category3/CS4.png","","targets/8.png","indirect","0","43"
"","html-keyboard-response","316","761777","0.0-12.0-0.20","9752junjhl","many_one","0","direct_first","1","LL08EN23","0","20","1","1","2","1","null","","","<div style=""font-size:60px;"">+</div>","null","","","","","","","","","",""
"","html-keyboard-response","317","761878","0.0-12.0-1.20","9752junjhl","many_one","0","direct_first","1","LL08EN23","0","20","1","1","2","1","null","","","<img src = 'category2/men.png' width = '100%;'>","null","","","","","","","","","",""
"","html-keyboard-response","318","762157","0.0-12.0-2.20","9752junjhl","many_one","0","direct_first","1","LL08EN23","0","20","1","1","2","1","null","","","<img src = 'targets/27.png' width = '100%;'>","null","","","","","","","","","",""
"","html-keyboard-response","319","762735","0.0-12.0-3.20","9752junjhl","many_one","0","direct_first","1","LL08EN23","0","20","1","1","2","1","577","","","<img src = 'targets/mask.png' width = '100%;'>","75","pos","GS","abstract","2","category2/men.png","","targets/27.png","indirect","1","44"
"","html-keyboard-response","320","764258","0.0-12.0-0.21","9752junjhl","many_one","0","direct_first","1","LL08EN23","0","20","1","1","2","1","null","","","<div style=""font-size:60px;"">+</div>","null","","","","","","","","","",""
"","html-keyboard-response","321","764357","0.0-12.0-1.21","9752junjhl","many_one","0","direct_first","1","LL08EN23","0","20","1","1","2","1","null","","","<img src = 'category4/GS3.png' width = '100%;'>","null","","","","","","","","","",""
"","html-keyboard-response","322","764638","0.0-12.0-2.21","9752junjhl","many_one","0","direct_first","1","LL08EN23","0","20","1","1","2","1","null","","","<img src = 'targets/28.png' width = '100%;'>","null","","","","","","","","","",""
"","html-keyboard-response","323","765215","0.0-12.0-3.21","9752junjhl","many_one","0","direct_first","1","LL08EN23","0","20","1","1","2","1","577","","","<img src = 'targets/mask.png' width = '100%;'>","75","neg","GS","GSnew","4","category4/GS3.png","","targets/28.png","indirect","1","45"
"","html-keyboard-response","324","766718","0.0-12.0-0.22","9752junjhl","many_one","0","direct_first","1","LL08EN23","0","20","1","1","2","1","null","","","<div style=""font-size:60px;"">+</div>","null","","","","","","","","","",""
"","html-keyboard-response","325","766817","0.0-12.0-1.22","9752junjhl","many_one","0","direct_first","1","LL08EN23","0","20","1","1","2","1","null","","","<img src = 'category4/lin.png' width = '100%;'>","null","","","","","","","","","",""
"","html-keyboard-response","326","767097","0.0-12.0-2.22","9752junjhl","many_one","0","direct_first","1","LL08EN23","0","20","1","1","2","1","null","","","<img src = 'targets/44.png' width = '100%;'>","null","","","","","","","","","",""
"","html-keyboard-response","327","767743","0.0-12.0-3.22","9752junjhl","many_one","0","direct_first","1","LL08EN23","0","20","1","1","2","1","646","","","<img src = 'targets/mask.png' width = '100%;'>","75","neg","GS","abstract","4","category4/lin.png","","targets/44.png","indirect","1","46"
"","html-keyboard-response","328","769257","0.0-12.0-0.23","9752junjhl","many_one","0","direct_first","1","LL08EN23","0","20","1","1","2","1","null","","","<div style=""font-size:60px;"">+</div>","null","","","","","","","","","",""
"","html-keyboard-response","329","769358","0.0-12.0-1.23","9752junjhl","many_one","0","direct_first","1","LL08EN23","0","20","1","1","2","1","null","","","<img src = 'category4/CS4.png' width = '100%;'>","null","","","","","","","","","",""
"","html-keyboard-response","330","769638","0.0-12.0-2.23","9752junjhl","many_one","0","direct_first","1","LL08EN23","0","20","1","1","2","1","null","","","<img src = 'targets/25.png' width = '100%;'>","null","","","","","","","","","",""
"","html-keyboard-response","331","770223","0.0-12.0-3.23","9752junjhl","many_one","0","direct_first","1","LL08EN23","0","20","1","1","2","1","585","","","<img src = 'targets/mask.png' width = '100%;'>","75","neg","GS","GSold","4","category4/CS4.png","","targets/25.png","indirect","1","47"
"","survey-html-form","332","778672","0.0-13.0","9752junjhl","many_one","0","direct_first","1","LL08EN23","0","20","1","1","2","1","7933","","{}","","","","","","","","","","","",""
"","image-slider-response","333","786150","0.0-14.0-0.0","9752junjhl","many_one","0","direct_first","1","LL08EN23","0","20","1","1","2","1","6471","","","","","neg","All","all","1","category1/ma_all.png","-33","","all","",""
"","image-slider-response","334","789510","0.0-14.0-0.1","9752junjhl","many_one","0","direct_first","1","LL08EN23","0","20","1","1","2","1","3358","","","","","pos","All","all","2","category2/men_all.png","43","","all","",""
"","image-slider-response","335","791895","0.0-14.0-0.2","9752junjhl","many_one","0","direct_first","1","LL08EN23","0","20","1","1","2","1","2383","","","","","pos","All","all","3","category3/wang_all.png","49","","all","",""
"","image-slider-response","336","794838","0.0-14.0-0.3","9752junjhl","many_one","0","direct_first","1","LL08EN23","0","20","1","1","2","1","2943","","","","","neg","All","all","4","category4/lin_all.png","-57","","all","",""
"","survey-text","337","881702","0.0-15.0","9752junjhl","many_one","0","direct_first","1","LL08EN23","0","20","1","1","2","1","86861","","{""Q0"":""Ich hatte das Gefühl, dass die zeichen, die mit \""guten\"" Bildern gezeigt wurden, eine Art Kasten um das Zeichen bildet, während die Ziechen die mit den schlechten Bildern gezeigt wurden unruhiger und rahmenlos waren.""}","","","","","","","","","","","",""
