"success","trial_type","trial_index","time_elapsed","internal_node_id","subject","condition","condition_code","measure","measure_code","codeword","gender","age","education","chinese","fach","handedness","comment","hinschauen","ablenkung","gewissenhaft","rt","url","responses","stimulus","key_press","val","type","type_specific","category","cs_selected","response","target","task","indirect","nr_pres"
"true","fullscreen","0","7158","0.0-0.0","q028wq3tja","many_one","0","direct_first","1","ka05nd03","0","23","1","1","3","1","","0","1","0","","","","","","","","","","","","","","",""
"","external-html","1","20930","0.0-1.0","q028wq3tja","many_one","0","direct_first","1","ka05nd03","0","23","1","1","3","1","","0","1","0","13612.159999960568","text/information.html","","","","","","","","","","","","",""
"","external-html","2","35439","0.0-2.0","q028wq3tja","many_one","0","direct_first","1","ka05nd03","0","23","1","1","3","1","","0","1","0","14302.559999981895","text/consent.html","","","","","","","","","","","","",""
"","survey-html-form","3","82049","0.0-3.0","q028wq3tja","many_one","0","direct_first","1","ka05nd03","0","23","1","1","3","1","","0","1","0","46607.26499999873","","{""codeword_enter"":""ka05nd03""}","","","","","","","","","","","",""
"","survey-html-form","4","107007","0.0-4.0","q028wq3tja","many_one","0","direct_first","1","ka05nd03","0","23","1","1","3","1","","0","1","0","24955.119999998715","","{""age"":""23"",""education"":""1"",""subject"":""3"",""gender"":""0"",""handedness"":""1"",""chinese"":""1""}","","","","","","","","","","","",""
"","survey-html-form","5","151268","0.0-5.0","q028wq3tja","many_one","0","direct_first","1","ka05nd03","0","23","1","1","3","1","","0","1","0","44258.6200000369","","{}","","","","","","","","","","","",""
"","html-keyboard-response","6","155296","0.0-6.0-0.0-0.0","q028wq3tja","many_one","0","direct_first","1","ka05nd03","0","23","1","1","3","1","","0","1","0","null","","","<div class = 'row'><div class = 'column'><img src = 'uspos/2160.bmp' width = '100%;'></div><div class = 'column'><img src = 'category2/CS5.png' width = '70%;'></div></div>","null","pos","CS","CS","2","category2/CS5.png","","","","",""
"","html-keyboard-response","7","157813","0.0-6.0-0.0-0.1","q028wq3tja","many_one","0","direct_first","1","ka05nd03","0","23","1","1","3","1","","0","1","0","null","","","<div class = 'row'><div class = 'column'><img src = 'category1/CS2.png' width = '70%;'></div><div class = 'column'><img src = 'uspos/5831.bmp' width = '100%;'></div></div>","null","pos","CS","CS","1","category1/CS2.png","","","","",""
"","html-keyboard-response","8","160323","0.0-6.0-0.0-0.2","q028wq3tja","many_one","0","direct_first","1","ka05nd03","0","23","1","1","3","1","","0","1","0","null","","","<div class = 'row'><div class = 'column'><img src = 'uspos/2058.bmp' width = '100%;'></div><div class = 'column'><img src = 'category2/CS6.png' width = '70%;'></div></div>","null","pos","CS","CS","2","category2/CS6.png","","","","",""
"","html-keyboard-response","9","162846","0.0-6.0-0.0-0.3","q028wq3tja","many_one","0","direct_first","1","ka05nd03","0","23","1","1","3","1","","0","1","0","null","","","<div class = 'row'><div class = 'column'><img src = 'usneg/9920.bmp' width = '100%;'></div><div class = 'column'><img src = 'category3/CS9.png' width = '70%;'></div></div>","null","neg","CS","CS","3","category3/CS9.png","","","","",""
"","html-keyboard-response","10","165366","0.0-6.0-0.0-0.4","q028wq3tja","many_one","0","direct_first","1","ka05nd03","0","23","1","1","3","1","","0","1","0","null","","","<div class = 'row'><div class = 'column'><img src = 'category1/CS1.png' width = '70%;'></div><div class = 'column'><img src = 'uspos/8080.bmp' width = '100%;'></div></div>","null","pos","CS","CS","1","category1/CS1.png","","","","",""
"","html-keyboard-response","11","167884","0.0-6.0-0.0-0.5","q028wq3tja","many_one","0","direct_first","1","ka05nd03","0","23","1","1","3","1","","0","1","0","null","","","<div class = 'row'><div class = 'column'><img src = 'category1/CS8.png' width = '70%;'></div><div class = 'column'><img src = 'uspos/2900.2.bmp' width = '100%;'></div></div>","null","pos","CS","CS","1","category1/CS8.png","","","","",""
"","html-keyboard-response","12","170399","0.0-6.0-0.0-0.6","q028wq3tja","many_one","0","direct_first","1","ka05nd03","0","23","1","1","3","1","","0","1","0","null","","","<div class = 'row'><div class = 'column'><img src = 'category1/CS10.png' width = '70%;'></div><div class = 'column'><img src = 'uspos/2341.bmp' width = '100%;'></div></div>","null","pos","CS","CS","1","category1/CS10.png","","","","",""
"","html-keyboard-response","13","172916","0.0-6.0-0.0-0.7","q028wq3tja","many_one","0","direct_first","1","ka05nd03","0","23","1","1","3","1","","0","1","0","null","","","<div class = 'row'><div class = 'column'><img src = 'usneg/9635.2.bmp' width = '100%;'></div><div class = 'column'><img src = 'category4/CS5.png' width = '70%;'></div></div>","null","neg","CS","CS","4","category4/CS5.png","","","","",""
"","html-keyboard-response","14","175436","0.0-6.0-0.0-0.8","q028wq3tja","many_one","0","direct_first","1","ka05nd03","0","23","1","1","3","1","","0","1","0","null","","","<div class = 'row'><div class = 'column'><img src = 'category4/CS2.png' width = '70%;'></div><div class = 'column'><img src = 'usneg/2141.bmp' width = '100%;'></div></div>","null","neg","CS","CS","4","category4/CS2.png","","","","",""
"","html-keyboard-response","15","177956","0.0-6.0-0.0-0.9","q028wq3tja","many_one","0","direct_first","1","ka05nd03","0","23","1","1","3","1","","0","1","0","null","","","<div class = 'row'><div class = 'column'><img src = 'category2/CS3.png' width = '70%;'></div><div class = 'column'><img src = 'uspos/2550.bmp' width = '100%;'></div></div>","null","pos","CS","CS","2","category2/CS3.png","","","","",""
"","html-keyboard-response","16","180481","0.0-6.0-0.0-0.10","q028wq3tja","many_one","0","direct_first","1","ka05nd03","0","23","1","1","3","1","","0","1","0","null","","","<div class = 'row'><div class = 'column'><img src = 'uspos/7580.bmp' width = '100%;'></div><div class = 'column'><img src = 'category2/CS7.png' width = '70%;'></div></div>","null","pos","CS","CS","2","category2/CS7.png","","","","",""
"","html-keyboard-response","17","182996","0.0-6.0-0.0-0.11","q028wq3tja","many_one","0","direct_first","1","ka05nd03","0","23","1","1","3","1","","0","1","0","null","","","<div class = 'row'><div class = 'column'><img src = 'category4/CS10.png' width = '70%;'></div><div class = 'column'><img src = 'usneg/9180.bmp' width = '100%;'></div></div>","null","neg","CS","CS","4","category4/CS10.png","","","","",""
"","html-keyboard-response","18","185516","0.0-6.0-0.0-0.12","q028wq3tja","many_one","0","direct_first","1","ka05nd03","0","23","1","1","3","1","","0","1","0","null","","","<div class = 'row'><div class = 'column'><img src = 'category3/CS2.png' width = '70%;'></div><div class = 'column'><img src = 'usneg/9220.bmp' width = '100%;'></div></div>","null","neg","CS","CS","3","category3/CS2.png","","","","",""
"","html-keyboard-response","19","188036","0.0-6.0-0.0-0.13","q028wq3tja","many_one","0","direct_first","1","ka05nd03","0","23","1","1","3","1","","0","1","0","null","","","<div class = 'row'><div class = 'column'><img src = 'category2/CS10.png' width = '70%;'></div><div class = 'column'><img src = 'uspos/2208.bmp' width = '100%;'></div></div>","null","pos","CS","CS","2","category2/CS10.png","","","","",""
"","html-keyboard-response","20","190556","0.0-6.0-0.0-0.14","q028wq3tja","many_one","0","direct_first","1","ka05nd03","0","23","1","1","3","1","","0","1","0","null","","","<div class = 'row'><div class = 'column'><img src = 'uspos/5830.bmp' width = '100%;'></div><div class = 'column'><img src = 'category1/CS4.png' width = '70%;'></div></div>","null","pos","CS","CS","1","category1/CS4.png","","","","",""
"","html-keyboard-response","21","193076","0.0-6.0-0.0-0.15","q028wq3tja","many_one","0","direct_first","1","ka05nd03","0","23","1","1","3","1","","0","1","0","null","","","<div class = 'row'><div class = 'column'><img src = 'category3/CS6.png' width = '70%;'></div><div class = 'column'><img src = 'usneg/9435.bmp' width = '100%;'></div></div>","null","neg","CS","CS","3","category3/CS6.png","","","","",""
"","html-keyboard-response","22","195607","0.0-6.0-0.0-0.16","q028wq3tja","many_one","0","direct_first","1","ka05nd03","0","23","1","1","3","1","","0","1","0","null","","","<div class = 'row'><div class = 'column'><img src = 'category4/CS8.png' width = '70%;'></div><div class = 'column'><img src = 'usneg/9561.bmp' width = '100%;'></div></div>","null","neg","CS","CS","4","category4/CS8.png","","","","",""
"","html-keyboard-response","23","198125","0.0-6.0-0.0-0.17","q028wq3tja","many_one","0","direct_first","1","ka05nd03","0","23","1","1","3","1","","0","1","0","null","","","<div class = 'row'><div class = 'column'><img src = 'category4/CS9.png' width = '70%;'></div><div class = 'column'><img src = 'usneg/9520.bmp' width = '100%;'></div></div>","null","neg","CS","CS","4","category4/CS9.png","","","","",""
"","html-keyboard-response","24","200647","0.0-6.0-0.0-0.18","q028wq3tja","many_one","0","direct_first","1","ka05nd03","0","23","1","1","3","1","","0","1","0","null","","","<div class = 'row'><div class = 'column'><img src = 'category3/CS1.png' width = '70%;'></div><div class = 'column'><img src = 'usneg/1280.bmp' width = '100%;'></div></div>","null","neg","CS","CS","3","category3/CS1.png","","","","",""
"","html-keyboard-response","25","203167","0.0-6.0-0.0-0.19","q028wq3tja","many_one","0","direct_first","1","ka05nd03","0","23","1","1","3","1","","0","1","0","null","","","<div class = 'row'><div class = 'column'><img src = 'usneg/9421.bmp' width = '100%;'></div><div class = 'column'><img src = 'category3/CS8.png' width = '70%;'></div></div>","null","neg","CS","CS","3","category3/CS8.png","","","","",""
"","survey-html-form","26","216598","0.0-6.0-1.0","q028wq3tja","many_one","0","direct_first","1","ka05nd03","0","23","1","1","3","1","","0","1","0","12920.50000000745","","{}","","","","","","","","","","","",""
"","html-keyboard-response","27","220617","0.0-6.0-2.0-0.0","q028wq3tja","many_one","0","direct_first","1","ka05nd03","0","23","1","1","3","1","","0","1","0","null","","","<div class = 'row'><div class = 'column'><img src = 'uspos/8080.bmp' width = '100%;'></div><div class = 'column'><img src = 'category1/CS1.png' width = '70%;'></div></div>","null","pos","CS","CS","1","category1/CS1.png","","","","",""
"","html-keyboard-response","28","223137","0.0-6.0-2.0-0.1","q028wq3tja","many_one","0","direct_first","1","ka05nd03","0","23","1","1","3","1","","0","1","0","null","","","<div class = 'row'><div class = 'column'><img src = 'uspos/5830.bmp' width = '100%;'></div><div class = 'column'><img src = 'category1/CS4.png' width = '70%;'></div></div>","null","pos","CS","CS","1","category1/CS4.png","","","","",""
"","html-keyboard-response","29","225677","0.0-6.0-2.0-0.2","q028wq3tja","many_one","0","direct_first","1","ka05nd03","0","23","1","1","3","1","","0","1","0","null","","","<div class = 'row'><div class = 'column'><img src = 'category3/CS9.png' width = '70%;'></div><div class = 'column'><img src = 'usneg/9920.bmp' width = '100%;'></div></div>","null","neg","CS","CS","3","category3/CS9.png","","","","",""
"","html-keyboard-response","30","228202","0.0-6.0-2.0-0.3","q028wq3tja","many_one","0","direct_first","1","ka05nd03","0","23","1","1","3","1","","0","1","0","null","","","<div class = 'row'><div class = 'column'><img src = 'uspos/2341.bmp' width = '100%;'></div><div class = 'column'><img src = 'category1/CS10.png' width = '70%;'></div></div>","null","pos","CS","CS","1","category1/CS10.png","","","","",""
"","html-keyboard-response","31","230718","0.0-6.0-2.0-0.4","q028wq3tja","many_one","0","direct_first","1","ka05nd03","0","23","1","1","3","1","","0","1","0","null","","","<div class = 'row'><div class = 'column'><img src = 'category3/CS8.png' width = '70%;'></div><div class = 'column'><img src = 'usneg/9421.bmp' width = '100%;'></div></div>","null","neg","CS","CS","3","category3/CS8.png","","","","",""
"","html-keyboard-response","32","233237","0.0-6.0-2.0-0.5","q028wq3tja","many_one","0","direct_first","1","ka05nd03","0","23","1","1","3","1","","0","1","0","null","","","<div class = 'row'><div class = 'column'><img src = 'uspos/2208.bmp' width = '100%;'></div><div class = 'column'><img src = 'category2/CS10.png' width = '70%;'></div></div>","null","pos","CS","CS","2","category2/CS10.png","","","","",""
"","html-keyboard-response","33","235762","0.0-6.0-2.0-0.6","q028wq3tja","many_one","0","direct_first","1","ka05nd03","0","23","1","1","3","1","","0","1","0","null","","","<div class = 'row'><div class = 'column'><img src = 'usneg/9180.bmp' width = '100%;'></div><div class = 'column'><img src = 'category4/CS10.png' width = '70%;'></div></div>","null","neg","CS","CS","4","category4/CS10.png","","","","",""
"","html-keyboard-response","34","238278","0.0-6.0-2.0-0.7","q028wq3tja","many_one","0","direct_first","1","ka05nd03","0","23","1","1","3","1","","0","1","0","null","","","<div class = 'row'><div class = 'column'><img src = 'category2/CS3.png' width = '70%;'></div><div class = 'column'><img src = 'uspos/2550.bmp' width = '100%;'></div></div>","null","pos","CS","CS","2","category2/CS3.png","","","","",""
"","html-keyboard-response","35","240797","0.0-6.0-2.0-0.8","q028wq3tja","many_one","0","direct_first","1","ka05nd03","0","23","1","1","3","1","","0","1","0","null","","","<div class = 'row'><div class = 'column'><img src = 'category4/CS8.png' width = '70%;'></div><div class = 'column'><img src = 'usneg/9561.bmp' width = '100%;'></div></div>","null","neg","CS","CS","4","category4/CS8.png","","","","",""
"","html-keyboard-response","36","243317","0.0-6.0-2.0-0.9","q028wq3tja","many_one","0","direct_first","1","ka05nd03","0","23","1","1","3","1","","0","1","0","null","","","<div class = 'row'><div class = 'column'><img src = 'uspos/2900.2.bmp' width = '100%;'></div><div class = 'column'><img src = 'category1/CS8.png' width = '70%;'></div></div>","null","pos","CS","CS","1","category1/CS8.png","","","","",""
"","html-keyboard-response","37","245837","0.0-6.0-2.0-0.10","q028wq3tja","many_one","0","direct_first","1","ka05nd03","0","23","1","1","3","1","","0","1","0","null","","","<div class = 'row'><div class = 'column'><img src = 'uspos/2160.bmp' width = '100%;'></div><div class = 'column'><img src = 'category2/CS5.png' width = '70%;'></div></div>","null","pos","CS","CS","2","category2/CS5.png","","","","",""
"","html-keyboard-response","38","248367","0.0-6.0-2.0-0.11","q028wq3tja","many_one","0","direct_first","1","ka05nd03","0","23","1","1","3","1","","0","1","0","null","","","<div class = 'row'><div class = 'column'><img src = 'category3/CS6.png' width = '70%;'></div><div class = 'column'><img src = 'usneg/9435.bmp' width = '100%;'></div></div>","null","neg","CS","CS","3","category3/CS6.png","","","","",""
"","html-keyboard-response","39","250891","0.0-6.0-2.0-0.12","q028wq3tja","many_one","0","direct_first","1","ka05nd03","0","23","1","1","3","1","","0","1","0","null","","","<div class = 'row'><div class = 'column'><img src = 'category2/CS7.png' width = '70%;'></div><div class = 'column'><img src = 'uspos/7580.bmp' width = '100%;'></div></div>","null","pos","CS","CS","2","category2/CS7.png","","","","",""
"","html-keyboard-response","40","253415","0.0-6.0-2.0-0.13","q028wq3tja","many_one","0","direct_first","1","ka05nd03","0","23","1","1","3","1","","0","1","0","null","","","<div class = 'row'><div class = 'column'><img src = 'category4/CS2.png' width = '70%;'></div><div class = 'column'><img src = 'usneg/2141.bmp' width = '100%;'></div></div>","null","neg","CS","CS","4","category4/CS2.png","","","","",""
"","html-keyboard-response","41","255927","0.0-6.0-2.0-0.14","q028wq3tja","many_one","0","direct_first","1","ka05nd03","0","23","1","1","3","1","","0","1","0","null","","","<div class = 'row'><div class = 'column'><img src = 'usneg/1280.bmp' width = '100%;'></div><div class = 'column'><img src = 'category3/CS1.png' width = '70%;'></div></div>","null","neg","CS","CS","3","category3/CS1.png","","","","",""
"","html-keyboard-response","42","258447","0.0-6.0-2.0-0.15","q028wq3tja","many_one","0","direct_first","1","ka05nd03","0","23","1","1","3","1","","0","1","0","null","","","<div class = 'row'><div class = 'column'><img src = 'usneg/9520.bmp' width = '100%;'></div><div class = 'column'><img src = 'category4/CS9.png' width = '70%;'></div></div>","null","neg","CS","CS","4","category4/CS9.png","","","","",""
"","html-keyboard-response","43","260967","0.0-6.0-2.0-0.16","q028wq3tja","many_one","0","direct_first","1","ka05nd03","0","23","1","1","3","1","","0","1","0","null","","","<div class = 'row'><div class = 'column'><img src = 'uspos/5831.bmp' width = '100%;'></div><div class = 'column'><img src = 'category1/CS2.png' width = '70%;'></div></div>","null","pos","CS","CS","1","category1/CS2.png","","","","",""
"","html-keyboard-response","44","263487","0.0-6.0-2.0-0.17","q028wq3tja","many_one","0","direct_first","1","ka05nd03","0","23","1","1","3","1","","0","1","0","null","","","<div class = 'row'><div class = 'column'><img src = 'category4/CS5.png' width = '70%;'></div><div class = 'column'><img src = 'usneg/9635.2.bmp' width = '100%;'></div></div>","null","neg","CS","CS","4","category4/CS5.png","","","","",""
"","html-keyboard-response","45","266017","0.0-6.0-2.0-0.18","q028wq3tja","many_one","0","direct_first","1","ka05nd03","0","23","1","1","3","1","","0","1","0","null","","","<div class = 'row'><div class = 'column'><img src = 'usneg/9220.bmp' width = '100%;'></div><div class = 'column'><img src = 'category3/CS2.png' width = '70%;'></div></div>","null","neg","CS","CS","3","category3/CS2.png","","","","",""
"","html-keyboard-response","46","268538","0.0-6.0-2.0-0.19","q028wq3tja","many_one","0","direct_first","1","ka05nd03","0","23","1","1","3","1","","0","1","0","null","","","<div class = 'row'><div class = 'column'><img src = 'category2/CS6.png' width = '70%;'></div><div class = 'column'><img src = 'uspos/2058.bmp' width = '100%;'></div></div>","null","pos","CS","CS","2","category2/CS6.png","","","","",""
"","survey-html-form","47","289491","0.0-6.0-3.0","q028wq3tja","many_one","0","direct_first","1","ka05nd03","0","23","1","1","3","1","","0","1","0","20443.074999959208","","{}","","","","","","","","","","","",""
"","html-keyboard-response","48","293507","0.0-6.0-4.0-0.0","q028wq3tja","many_one","0","direct_first","1","ka05nd03","0","23","1","1","3","1","","0","1","0","null","","","<div class = 'row'><div class = 'column'><img src = 'uspos/7580.bmp' width = '100%;'></div><div class = 'column'><img src = 'category2/CS7.png' width = '70%;'></div></div>","null","pos","CS","CS","2","category2/CS7.png","","","","",""
"","html-keyboard-response","49","296037","0.0-6.0-4.0-0.1","q028wq3tja","many_one","0","direct_first","1","ka05nd03","0","23","1","1","3","1","","0","1","0","null","","","<div class = 'row'><div class = 'column'><img src = 'uspos/2550.bmp' width = '100%;'></div><div class = 'column'><img src = 'category2/CS3.png' width = '70%;'></div></div>","null","pos","CS","CS","2","category2/CS3.png","","","","",""
"","html-keyboard-response","50","298548","0.0-6.0-4.0-0.2","q028wq3tja","many_one","0","direct_first","1","ka05nd03","0","23","1","1","3","1","","0","1","0","null","","","<div class = 'row'><div class = 'column'><img src = 'usneg/9561.bmp' width = '100%;'></div><div class = 'column'><img src = 'category4/CS8.png' width = '70%;'></div></div>","null","neg","CS","CS","4","category4/CS8.png","","","","",""
"","html-keyboard-response","51","301067","0.0-6.0-4.0-0.3","q028wq3tja","many_one","0","direct_first","1","ka05nd03","0","23","1","1","3","1","","0","1","0","null","","","<div class = 'row'><div class = 'column'><img src = 'uspos/2058.bmp' width = '100%;'></div><div class = 'column'><img src = 'category2/CS6.png' width = '70%;'></div></div>","null","pos","CS","CS","2","category2/CS6.png","","","","",""
"","html-keyboard-response","52","303587","0.0-6.0-4.0-0.4","q028wq3tja","many_one","0","direct_first","1","ka05nd03","0","23","1","1","3","1","","0","1","0","null","","","<div class = 'row'><div class = 'column'><img src = 'uspos/2208.bmp' width = '100%;'></div><div class = 'column'><img src = 'category2/CS10.png' width = '70%;'></div></div>","null","pos","CS","CS","2","category2/CS10.png","","","","",""
"","html-keyboard-response","53","306107","0.0-6.0-4.0-0.5","q028wq3tja","many_one","0","direct_first","1","ka05nd03","0","23","1","1","3","1","","0","1","0","null","","","<div class = 'row'><div class = 'column'><img src = 'uspos/5830.bmp' width = '100%;'></div><div class = 'column'><img src = 'category1/CS4.png' width = '70%;'></div></div>","null","pos","CS","CS","1","category1/CS4.png","","","","",""
"","html-keyboard-response","54","308635","0.0-6.0-4.0-0.6","q028wq3tja","many_one","0","direct_first","1","ka05nd03","0","23","1","1","3","1","","0","1","0","null","","","<div class = 'row'><div class = 'column'><img src = 'uspos/5831.bmp' width = '100%;'></div><div class = 'column'><img src = 'category1/CS2.png' width = '70%;'></div></div>","null","pos","CS","CS","1","category1/CS2.png","","","","",""
"","html-keyboard-response","55","311157","0.0-6.0-4.0-0.7","q028wq3tja","many_one","0","direct_first","1","ka05nd03","0","23","1","1","3","1","","0","1","0","null","","","<div class = 'row'><div class = 'column'><img src = 'uspos/2900.2.bmp' width = '100%;'></div><div class = 'column'><img src = 'category1/CS8.png' width = '70%;'></div></div>","null","pos","CS","CS","1","category1/CS8.png","","","","",""
"","html-keyboard-response","56","313677","0.0-6.0-4.0-0.8","q028wq3tja","many_one","0","direct_first","1","ka05nd03","0","23","1","1","3","1","","0","1","0","null","","","<div class = 'row'><div class = 'column'><img src = 'usneg/9180.bmp' width = '100%;'></div><div class = 'column'><img src = 'category4/CS10.png' width = '70%;'></div></div>","null","neg","CS","CS","4","category4/CS10.png","","","","",""
"","html-keyboard-response","57","316201","0.0-6.0-4.0-0.9","q028wq3tja","many_one","0","direct_first","1","ka05nd03","0","23","1","1","3","1","","0","1","0","null","","","<div class = 'row'><div class = 'column'><img src = 'usneg/9435.bmp' width = '100%;'></div><div class = 'column'><img src = 'category3/CS6.png' width = '70%;'></div></div>","null","neg","CS","CS","3","category3/CS6.png","","","","",""
"","html-keyboard-response","58","318712","0.0-6.0-4.0-0.10","q028wq3tja","many_one","0","direct_first","1","ka05nd03","0","23","1","1","3","1","","0","1","0","null","","","<div class = 'row'><div class = 'column'><img src = 'usneg/9520.bmp' width = '100%;'></div><div class = 'column'><img src = 'category4/CS9.png' width = '70%;'></div></div>","null","neg","CS","CS","4","category4/CS9.png","","","","",""
"","html-keyboard-response","59","321237","0.0-6.0-4.0-0.11","q028wq3tja","many_one","0","direct_first","1","ka05nd03","0","23","1","1","3","1","","0","1","0","null","","","<div class = 'row'><div class = 'column'><img src = 'category3/CS8.png' width = '70%;'></div><div class = 'column'><img src = 'usneg/9421.bmp' width = '100%;'></div></div>","null","neg","CS","CS","3","category3/CS8.png","","","","",""
"","html-keyboard-response","60","323756","0.0-6.0-4.0-0.12","q028wq3tja","many_one","0","direct_first","1","ka05nd03","0","23","1","1","3","1","","0","1","0","null","","","<div class = 'row'><div class = 'column'><img src = 'usneg/1280.bmp' width = '100%;'></div><div class = 'column'><img src = 'category3/CS1.png' width = '70%;'></div></div>","null","neg","CS","CS","3","category3/CS1.png","","","","",""
"","html-keyboard-response","61","326274","0.0-6.0-4.0-0.13","q028wq3tja","many_one","0","direct_first","1","ka05nd03","0","23","1","1","3","1","","0","1","0","null","","","<div class = 'row'><div class = 'column'><img src = 'uspos/2160.bmp' width = '100%;'></div><div class = 'column'><img src = 'category2/CS5.png' width = '70%;'></div></div>","null","pos","CS","CS","2","category2/CS5.png","","","","",""
"","html-keyboard-response","62","328793","0.0-6.0-4.0-0.14","q028wq3tja","many_one","0","direct_first","1","ka05nd03","0","23","1","1","3","1","","0","1","0","null","","","<div class = 'row'><div class = 'column'><img src = 'uspos/8080.bmp' width = '100%;'></div><div class = 'column'><img src = 'category1/CS1.png' width = '70%;'></div></div>","null","pos","CS","CS","1","category1/CS1.png","","","","",""
"","html-keyboard-response","63","331307","0.0-6.0-4.0-0.15","q028wq3tja","many_one","0","direct_first","1","ka05nd03","0","23","1","1","3","1","","0","1","0","null","","","<div class = 'row'><div class = 'column'><img src = 'usneg/9220.bmp' width = '100%;'></div><div class = 'column'><img src = 'category3/CS2.png' width = '70%;'></div></div>","null","neg","CS","CS","3","category3/CS2.png","","","","",""
"","html-keyboard-response","64","333829","0.0-6.0-4.0-0.16","q028wq3tja","many_one","0","direct_first","1","ka05nd03","0","23","1","1","3","1","","0","1","0","null","","","<div class = 'row'><div class = 'column'><img src = 'category1/CS10.png' width = '70%;'></div><div class = 'column'><img src = 'uspos/2341.bmp' width = '100%;'></div></div>","null","pos","CS","CS","1","category1/CS10.png","","","","",""
"","html-keyboard-response","65","336357","0.0-6.0-4.0-0.17","q028wq3tja","many_one","0","direct_first","1","ka05nd03","0","23","1","1","3","1","","0","1","0","null","","","<div class = 'row'><div class = 'column'><img src = 'usneg/9920.bmp' width = '100%;'></div><div class = 'column'><img src = 'category3/CS9.png' width = '70%;'></div></div>","null","neg","CS","CS","3","category3/CS9.png","","","","",""
"","html-keyboard-response","66","338876","0.0-6.0-4.0-0.18","q028wq3tja","many_one","0","direct_first","1","ka05nd03","0","23","1","1","3","1","","0","1","0","null","","","<div class = 'row'><div class = 'column'><img src = 'usneg/2141.bmp' width = '100%;'></div><div class = 'column'><img src = 'category4/CS2.png' width = '70%;'></div></div>","null","neg","CS","CS","4","category4/CS2.png","","","","",""
"","html-keyboard-response","67","341397","0.0-6.0-4.0-0.19","q028wq3tja","many_one","0","direct_first","1","ka05nd03","0","23","1","1","3","1","","0","1","0","null","","","<div class = 'row'><div class = 'column'><img src = 'category4/CS5.png' width = '70%;'></div><div class = 'column'><img src = 'usneg/9635.2.bmp' width = '100%;'></div></div>","null","neg","CS","CS","4","category4/CS5.png","","","","",""
"","survey-html-form","68","349730","0.0-6.0-5.0","q028wq3tja","many_one","0","direct_first","1","ka05nd03","0","23","1","1","3","1","","0","1","0","7821.98500004597","","{}","","","","","","","","","","","",""
"","html-keyboard-response","69","353747","0.0-6.0-6.0-0.0","q028wq3tja","many_one","0","direct_first","1","ka05nd03","0","23","1","1","3","1","","0","1","0","null","","","<div class = 'row'><div class = 'column'><img src = 'uspos/2550.bmp' width = '100%;'></div><div class = 'column'><img src = 'category2/CS3.png' width = '70%;'></div></div>","null","pos","CS","CS","2","category2/CS3.png","","","","",""
"","html-keyboard-response","70","356266","0.0-6.0-6.0-0.1","q028wq3tja","many_one","0","direct_first","1","ka05nd03","0","23","1","1","3","1","","0","1","0","null","","","<div class = 'row'><div class = 'column'><img src = 'usneg/2141.bmp' width = '100%;'></div><div class = 'column'><img src = 'category4/CS2.png' width = '70%;'></div></div>","null","neg","CS","CS","4","category4/CS2.png","","","","",""
"","html-keyboard-response","71","358787","0.0-6.0-6.0-0.2","q028wq3tja","many_one","0","direct_first","1","ka05nd03","0","23","1","1","3","1","","0","1","0","null","","","<div class = 'row'><div class = 'column'><img src = 'uspos/7580.bmp' width = '100%;'></div><div class = 'column'><img src = 'category2/CS7.png' width = '70%;'></div></div>","null","pos","CS","CS","2","category2/CS7.png","","","","",""
"","html-keyboard-response","72","361307","0.0-6.0-6.0-0.3","q028wq3tja","many_one","0","direct_first","1","ka05nd03","0","23","1","1","3","1","","0","1","0","null","","","<div class = 'row'><div class = 'column'><img src = 'category1/CS2.png' width = '70%;'></div><div class = 'column'><img src = 'uspos/5831.bmp' width = '100%;'></div></div>","null","pos","CS","CS","1","category1/CS2.png","","","","",""
"","html-keyboard-response","73","363827","0.0-6.0-6.0-0.4","q028wq3tja","many_one","0","direct_first","1","ka05nd03","0","23","1","1","3","1","","0","1","0","null","","","<div class = 'row'><div class = 'column'><img src = 'uspos/2058.bmp' width = '100%;'></div><div class = 'column'><img src = 'category2/CS6.png' width = '70%;'></div></div>","null","pos","CS","CS","2","category2/CS6.png","","","","",""
"","html-keyboard-response","74","366356","0.0-6.0-6.0-0.5","q028wq3tja","many_one","0","direct_first","1","ka05nd03","0","23","1","1","3","1","","0","1","0","null","","","<div class = 'row'><div class = 'column'><img src = 'uspos/8080.bmp' width = '100%;'></div><div class = 'column'><img src = 'category1/CS1.png' width = '70%;'></div></div>","null","pos","CS","CS","1","category1/CS1.png","","","","",""
"","html-keyboard-response","75","368877","0.0-6.0-6.0-0.6","q028wq3tja","many_one","0","direct_first","1","ka05nd03","0","23","1","1","3","1","","0","1","0","null","","","<div class = 'row'><div class = 'column'><img src = 'category3/CS9.png' width = '70%;'></div><div class = 'column'><img src = 'usneg/9920.bmp' width = '100%;'></div></div>","null","neg","CS","CS","3","category3/CS9.png","","","","",""
"","html-keyboard-response","76","371387","0.0-6.0-6.0-0.7","q028wq3tja","many_one","0","direct_first","1","ka05nd03","0","23","1","1","3","1","","0","1","0","null","","","<div class = 'row'><div class = 'column'><img src = 'uspos/2341.bmp' width = '100%;'></div><div class = 'column'><img src = 'category1/CS10.png' width = '70%;'></div></div>","null","pos","CS","CS","1","category1/CS10.png","","","","",""
"","html-keyboard-response","77","373907","0.0-6.0-6.0-0.8","q028wq3tja","many_one","0","direct_first","1","ka05nd03","0","23","1","1","3","1","","0","1","0","null","","","<div class = 'row'><div class = 'column'><img src = 'category4/CS5.png' width = '70%;'></div><div class = 'column'><img src = 'usneg/9635.2.bmp' width = '100%;'></div></div>","null","neg","CS","CS","4","category4/CS5.png","","","","",""
"","html-keyboard-response","78","376427","0.0-6.0-6.0-0.9","q028wq3tja","many_one","0","direct_first","1","ka05nd03","0","23","1","1","3","1","","0","1","0","null","","","<div class = 'row'><div class = 'column'><img src = 'usneg/9435.bmp' width = '100%;'></div><div class = 'column'><img src = 'category3/CS6.png' width = '70%;'></div></div>","null","neg","CS","CS","3","category3/CS6.png","","","","",""
"","html-keyboard-response","79","378947","0.0-6.0-6.0-0.10","q028wq3tja","many_one","0","direct_first","1","ka05nd03","0","23","1","1","3","1","","0","1","0","null","","","<div class = 'row'><div class = 'column'><img src = 'category4/CS10.png' width = '70%;'></div><div class = 'column'><img src = 'usneg/9180.bmp' width = '100%;'></div></div>","null","neg","CS","CS","4","category4/CS10.png","","","","",""
"","html-keyboard-response","80","381467","0.0-6.0-6.0-0.11","q028wq3tja","many_one","0","direct_first","1","ka05nd03","0","23","1","1","3","1","","0","1","0","null","","","<div class = 'row'><div class = 'column'><img src = 'uspos/5830.bmp' width = '100%;'></div><div class = 'column'><img src = 'category1/CS4.png' width = '70%;'></div></div>","null","pos","CS","CS","1","category1/CS4.png","","","","",""
"","html-keyboard-response","81","383986","0.0-6.0-6.0-0.12","q028wq3tja","many_one","0","direct_first","1","ka05nd03","0","23","1","1","3","1","","0","1","0","null","","","<div class = 'row'><div class = 'column'><img src = 'category3/CS2.png' width = '70%;'></div><div class = 'column'><img src = 'usneg/9220.bmp' width = '100%;'></div></div>","null","neg","CS","CS","3","category3/CS2.png","","","","",""
"","html-keyboard-response","82","386507","0.0-6.0-6.0-0.13","q028wq3tja","many_one","0","direct_first","1","ka05nd03","0","23","1","1","3","1","","0","1","0","null","","","<div class = 'row'><div class = 'column'><img src = 'uspos/2900.2.bmp' width = '100%;'></div><div class = 'column'><img src = 'category1/CS8.png' width = '70%;'></div></div>","null","pos","CS","CS","1","category1/CS8.png","","","","",""
"","html-keyboard-response","83","389027","0.0-6.0-6.0-0.14","q028wq3tja","many_one","0","direct_first","1","ka05nd03","0","23","1","1","3","1","","0","1","0","null","","","<div class = 'row'><div class = 'column'><img src = 'usneg/9561.bmp' width = '100%;'></div><div class = 'column'><img src = 'category4/CS8.png' width = '70%;'></div></div>","null","neg","CS","CS","4","category4/CS8.png","","","","",""
"","html-keyboard-response","84","391547","0.0-6.0-6.0-0.15","q028wq3tja","many_one","0","direct_first","1","ka05nd03","0","23","1","1","3","1","","0","1","0","null","","","<div class = 'row'><div class = 'column'><img src = 'uspos/2160.bmp' width = '100%;'></div><div class = 'column'><img src = 'category2/CS5.png' width = '70%;'></div></div>","null","pos","CS","CS","2","category2/CS5.png","","","","",""
"","html-keyboard-response","85","394067","0.0-6.0-6.0-0.16","q028wq3tja","many_one","0","direct_first","1","ka05nd03","0","23","1","1","3","1","","0","1","0","null","","","<div class = 'row'><div class = 'column'><img src = 'usneg/9520.bmp' width = '100%;'></div><div class = 'column'><img src = 'category4/CS9.png' width = '70%;'></div></div>","null","neg","CS","CS","4","category4/CS9.png","","","","",""
"","html-keyboard-response","86","396595","0.0-6.0-6.0-0.17","q028wq3tja","many_one","0","direct_first","1","ka05nd03","0","23","1","1","3","1","","0","1","0","null","","","<div class = 'row'><div class = 'column'><img src = 'uspos/2208.bmp' width = '100%;'></div><div class = 'column'><img src = 'category2/CS10.png' width = '70%;'></div></div>","null","pos","CS","CS","2","category2/CS10.png","","","","",""
"","html-keyboard-response","87","399106","0.0-6.0-6.0-0.18","q028wq3tja","many_one","0","direct_first","1","ka05nd03","0","23","1","1","3","1","","0","1","0","null","","","<div class = 'row'><div class = 'column'><img src = 'category3/CS8.png' width = '70%;'></div><div class = 'column'><img src = 'usneg/9421.bmp' width = '100%;'></div></div>","null","neg","CS","CS","3","category3/CS8.png","","","","",""
"","html-keyboard-response","88","401627","0.0-6.0-6.0-0.19","q028wq3tja","many_one","0","direct_first","1","ka05nd03","0","23","1","1","3","1","","0","1","0","null","","","<div class = 'row'><div class = 'column'><img src = 'usneg/1280.bmp' width = '100%;'></div><div class = 'column'><img src = 'category3/CS1.png' width = '70%;'></div></div>","null","neg","CS","CS","3","category3/CS1.png","","","","",""
"","survey-html-form","89","417759","0.0-7.0","q028wq3tja","many_one","0","direct_first","1","ka05nd03","0","23","1","1","3","1","","0","1","0","15620.790000015404","","{}","","","","","","","","","","","",""
"","image-slider-response","90","429650","0.0-8.0-0.0","q028wq3tja","many_one","0","direct_first","1","ka05nd03","0","23","1","1","3","1","","0","1","0","9877.934999996796","","","","","neg","CS","CS","4","category4/CS2.png","5","targets/7.png","direct","",""
"","image-slider-response","91","435730","0.0-8.0-0.1","q028wq3tja","many_one","0","direct_first","1","ka05nd03","0","23","1","1","3","1","","0","1","0","6075.465000001714","","","","","pos","GS","GSold","1","category1/CS6.png","8","targets/3.png","direct","",""
"","image-slider-response","92","439710","0.0-8.0-0.2","q028wq3tja","many_one","0","direct_first","1","ka05nd03","0","23","1","1","3","1","","0","1","0","3974.1999999969266","","","","","neg","GS","GSnew","4","category4/GS2.png","39","targets/14.png","direct","",""
"","image-slider-response","93","444939","0.0-8.0-0.3","q028wq3tja","many_one","0","direct_first","1","ka05nd03","0","23","1","1","3","1","","0","1","0","5225.184999988414","","","","","pos","GS","GSnew","1","category1/GS3.png","19","targets/9.png","direct","",""
"","image-slider-response","94","449720","0.0-8.0-0.4","q028wq3tja","many_one","0","direct_first","1","ka05nd03","0","23","1","1","3","1","","0","1","0","4776.8100000103","","","","","neg","CS","CS","3","category3/CS8.png","-25","targets/40.png","direct","",""
"","image-slider-response","95","453180","0.0-8.0-0.5","q028wq3tja","many_one","0","direct_first","1","ka05nd03","0","23","1","1","3","1","","0","1","0","3455.9299999964423","","","","","neg","CS","CS","3","category3/CS2.png","-32","targets/17.png","direct","",""
"","image-slider-response","96","458419","0.0-8.0-0.6","q028wq3tja","many_one","0","direct_first","1","ka05nd03","0","23","1","1","3","1","","0","1","0","5236.519999976736","","","","","neg","GS","GSold","4","category4/CS6.png","-5","targets/44.png","direct","",""
"","image-slider-response","97","463890","0.0-8.0-0.7","q028wq3tja","many_one","0","direct_first","1","ka05nd03","0","23","1","1","3","1","","0","1","0","5466.525000054389","","","","","pos","CS","CS","2","category2/CS6.png","-27","targets/5.png","direct","",""
"","image-slider-response","98","467863","0.0-8.0-0.8","q028wq3tja","many_one","0","direct_first","1","ka05nd03","0","23","1","1","3","1","","0","1","0","3969.5949999731965","","","","","neg","GS","abstract","4","category4/lin.png","-14","targets/28.png","direct","",""
"","image-slider-response","99","472130","0.0-8.0-0.9","q028wq3tja","many_one","0","direct_first","1","ka05nd03","0","23","1","1","3","1","","0","1","0","4262.405000044964","","","","","neg","CS","CS","4","category4/CS8.png","-17","targets/32.png","direct","",""
"","image-slider-response","100","476110","0.0-8.0-0.10","q028wq3tja","many_one","0","direct_first","1","ka05nd03","0","23","1","1","3","1","","0","1","0","3975.9099999791943","","","","","pos","CS","CS","2","category2/CS7.png","17","targets/1.png","direct","",""
"","image-slider-response","101","480599","0.0-8.0-0.11","q028wq3tja","many_one","0","direct_first","1","ka05nd03","0","23","1","1","3","1","","0","1","0","4485.09000003105","","","","","neg","GS","GSold","4","category4/CS1.png","12","targets/6.png","direct","",""
"","image-slider-response","102","484569","0.0-8.0-0.12","q028wq3tja","many_one","0","direct_first","1","ka05nd03","0","23","1","1","3","1","","0","1","0","3965.6100000138395","","","","","neg","GS","GSnew","4","category4/GS3.png","19","targets/16.png","direct","",""
"","image-slider-response","103","488299","0.0-8.0-0.13","q028wq3tja","many_one","0","direct_first","1","ka05nd03","0","23","1","1","3","1","","0","1","0","3726.769999950193","","","","","pos","GS","GSold","2","category2/CS8.png","-24","targets/47.png","direct","",""
"","image-slider-response","104","492517","0.0-8.0-0.14","q028wq3tja","many_one","0","direct_first","1","ka05nd03","0","23","1","1","3","1","","0","1","0","4214.190000027884","","","","","neg","CS","CS","4","category4/CS10.png","7","targets/8.png","direct","",""
"","image-slider-response","105","496709","0.0-8.0-0.15","q028wq3tja","many_one","0","direct_first","1","ka05nd03","0","23","1","1","3","1","","0","1","0","4188.12499998603","","","","","pos","GS","abstract","1","category1/ma.png","-17","targets/34.png","direct","",""
"","image-slider-response","106","501429","0.0-8.0-0.16","q028wq3tja","many_one","0","direct_first","1","ka05nd03","0","23","1","1","3","1","","0","1","0","4715.714999998454","","","","","neg","CS","CS","4","category4/CS9.png","-4","targets/37.png","direct","",""
"","image-slider-response","107","505999","0.0-8.0-0.17","q028wq3tja","many_one","0","direct_first","1","ka05nd03","0","23","1","1","3","1","","0","1","0","4566.119999974035","","","","","pos","GS","abstract","2","category2/men.png","4","targets/24.png","direct","",""
"","image-slider-response","108","510489","0.0-8.0-0.18","q028wq3tja","many_one","0","direct_first","1","ka05nd03","0","23","1","1","3","1","","0","1","0","4485.500000009779","","","","","neg","GS","GSold","3","category3/CS10.png","-15","targets/36.png","direct","",""
"","image-slider-response","109","515788","0.0-8.0-0.19","q028wq3tja","many_one","0","direct_first","1","ka05nd03","0","23","1","1","3","1","","0","1","0","5295.2299999888055","","","","","neg","GS","GSnew","3","category3/GS1.png","-13","targets/38.png","direct","",""
"","image-slider-response","110","519947","0.0-8.0-0.20","q028wq3tja","many_one","0","direct_first","1","ka05nd03","0","23","1","1","3","1","","0","1","0","4155.160000023898","","","","","pos","CS","CS","2","category2/CS10.png","6","targets/10.png","direct","",""
"","image-slider-response","111","524079","0.0-8.0-0.21","q028wq3tja","many_one","0","direct_first","1","ka05nd03","0","23","1","1","3","1","","0","1","0","4127.819999994244","","","","","pos","GS","GSnew","2","category2/GS1.png","8","targets/48.png","direct","",""
"","image-slider-response","112","527668","0.0-8.0-0.22","q028wq3tja","many_one","0","direct_first","1","ka05nd03","0","23","1","1","3","1","","0","1","0","3585.8850000076927","","","","","neg","GS","GSold","3","category3/CS3.png","-25","targets/25.png","direct","",""
"","image-slider-response","113","533118","0.0-8.0-0.23","q028wq3tja","many_one","0","direct_first","1","ka05nd03","0","23","1","1","3","1","","0","1","0","5447.434999980032","","","","","neg","CS","CS","3","category3/CS6.png","5","targets/31.png","direct","",""
"","image-slider-response","114","536369","0.0-8.0-0.24","q028wq3tja","many_one","0","direct_first","1","ka05nd03","0","23","1","1","3","1","","0","1","0","3246.6850000200793","","","","","pos","CS","CS","1","category1/CS1.png","12","targets/42.png","direct","",""
"","image-slider-response","115","540249","0.0-8.0-0.25","q028wq3tja","many_one","0","direct_first","1","ka05nd03","0","23","1","1","3","1","","0","1","0","3876.430000003893","","","","","pos","GS","GSold","2","category2/CS2.png","30","targets/39.png","direct","",""
"","image-slider-response","116","545349","0.0-8.0-0.26","q028wq3tja","many_one","0","direct_first","1","ka05nd03","0","23","1","1","3","1","","0","1","0","5095.634999976028","","","","","pos","CS","CS","1","category1/CS10.png","-12","targets/12.png","direct","",""
"","image-slider-response","117","549118","0.0-8.0-0.27","q028wq3tja","many_one","0","direct_first","1","ka05nd03","0","23","1","1","3","1","","0","1","0","3764.4950000103563","","","","","pos","CS","CS","1","category1/CS8.png","19","targets/19.png","direct","",""
"","image-slider-response","118","554210","0.0-8.0-0.28","q028wq3tja","many_one","0","direct_first","1","ka05nd03","0","23","1","1","3","1","","0","1","0","5087.910000002012","","","","","neg","GS","abstract","3","category3/wang.png","-15","targets/21.png","direct","",""
"","image-slider-response","119","558004","0.0-8.0-0.29","q028wq3tja","many_one","0","direct_first","1","ka05nd03","0","23","1","1","3","1","","0","1","0","3790.8250000327826","","","","","pos","CS","CS","1","category1/CS2.png","9","targets/13.png","direct","",""
"","image-slider-response","120","561080","0.0-8.0-0.30","q028wq3tja","many_one","0","direct_first","1","ka05nd03","0","23","1","1","3","1","","0","1","0","3073.8450000062585","","","","","pos","GS","GSold","2","category2/CS1.png","11","targets/26.png","direct","",""
"","image-slider-response","121","564528","0.0-8.0-0.31","q028wq3tja","many_one","0","direct_first","1","ka05nd03","0","23","1","1","3","1","","0","1","0","3444.6200000238605","","","","","neg","GS","GSnew","3","category3/GS2.png","-19","targets/30.png","direct","",""
"","image-slider-response","122","568047","0.0-8.0-0.32","q028wq3tja","many_one","0","direct_first","1","ka05nd03","0","23","1","1","3","1","","0","1","0","3515.4549999861047","","","","","pos","GS","GSnew","1","category1/GS1.png","-24","targets/15.png","direct","",""
"","image-slider-response","123","571399","0.0-8.0-0.33","q028wq3tja","many_one","0","direct_first","1","ka05nd03","0","23","1","1","3","1","","0","1","0","3348.694999993313","","","","","neg","GS","GSold","3","category3/CS7.png","13","targets/18.png","direct","",""
"","image-slider-response","124","575399","0.0-8.0-0.34","q028wq3tja","many_one","0","direct_first","1","ka05nd03","0","23","1","1","3","1","","0","1","0","3995.6549999769777","","","","","neg","CS","CS","4","category4/CS5.png","-7","targets/33.png","direct","",""
"","image-slider-response","125","581399","0.0-8.0-0.35","q028wq3tja","many_one","0","direct_first","1","ka05nd03","0","23","1","1","3","1","","0","1","0","5995.824999990873","","","","","pos","GS","GSold","1","category1/CS5.png","-3","targets/27.png","direct","",""
"","image-slider-response","126","585439","0.0-8.0-0.36","q028wq3tja","many_one","0","direct_first","1","ka05nd03","0","23","1","1","3","1","","0","1","0","4036.4800000097603","","","","","pos","GS","GSold","1","category1/CS7.png","8","targets/4.png","direct","",""
"","image-slider-response","127","588309","0.0-8.0-0.37","q028wq3tja","many_one","0","direct_first","1","ka05nd03","0","23","1","1","3","1","","0","1","0","2865.87999999756","","","","","pos","GS","GSnew","2","category2/GS2.png","-15","targets/2.png","direct","",""
"","image-slider-response","128","592679","0.0-8.0-0.38","q028wq3tja","many_one","0","direct_first","1","ka05nd03","0","23","1","1","3","1","","0","1","0","4366.739999968559","","","","","pos","CS","CS","1","category1/CS4.png","-5","targets/46.png","direct","",""
"","image-slider-response","129","596279","0.0-8.0-0.39","q028wq3tja","many_one","0","direct_first","1","ka05nd03","0","23","1","1","3","1","","0","1","0","3596.2600000202656","","","","","pos","GS","GSnew","1","category1/GS2.png","6","targets/22.png","direct","",""
"","image-slider-response","130","601420","0.0-8.0-0.40","q028wq3tja","many_one","0","direct_first","1","ka05nd03","0","23","1","1","3","1","","0","1","0","5136.834999953862","","","","","pos","CS","CS","2","category2/CS3.png","12","targets/45.png","direct","",""
"","image-slider-response","131","605369","0.0-8.0-0.41","q028wq3tja","many_one","0","direct_first","1","ka05nd03","0","23","1","1","3","1","","0","1","0","3944.6749999769963","","","","","pos","GS","GSnew","2","category2/GS3.png","11","targets/41.png","direct","",""
"","image-slider-response","132","608509","0.0-8.0-0.42","q028wq3tja","many_one","0","direct_first","1","ka05nd03","0","23","1","1","3","1","","0","1","0","3135.93500002753","","","","","neg","GS","GSnew","4","category4/GS1.png","9","targets/35.png","direct","",""
"","image-slider-response","133","612149","0.0-8.0-0.43","q028wq3tja","many_one","0","direct_first","1","ka05nd03","0","23","1","1","3","1","","0","1","0","3635.8449999825098","","","","","neg","CS","CS","3","category3/CS1.png","-6","targets/23.png","direct","",""
"","image-slider-response","134","617279","0.0-8.0-0.44","q028wq3tja","many_one","0","direct_first","1","ka05nd03","0","23","1","1","3","1","","0","1","0","5126.71500002034","","","","","neg","GS","GSold","4","category4/CS7.png","-13","targets/11.png","direct","",""
"","image-slider-response","135","620719","0.0-8.0-0.45","q028wq3tja","many_one","0","direct_first","1","ka05nd03","0","23","1","1","3","1","","0","1","0","3436.329999996815","","","","","pos","CS","CS","2","category2/CS5.png","-16","targets/20.png","direct","",""
"","image-slider-response","136","623559","0.0-8.0-0.46","q028wq3tja","many_one","0","direct_first","1","ka05nd03","0","23","1","1","3","1","","0","1","0","2835.8749999897555","","","","","neg","GS","GSnew","3","category3/GS3.png","-23","targets/43.png","direct","",""
"","image-slider-response","137","627449","0.0-8.0-0.47","q028wq3tja","many_one","0","direct_first","1","ka05nd03","0","23","1","1","3","1","","0","1","0","3887.440000020433","","","","","neg","CS","CS","3","category3/CS9.png","-15","targets/29.png","direct","",""
"","html-keyboard-response","138","665431","0.0-9.0","q028wq3tja","many_one","0","direct_first","1","ka05nd03","0","23","1","1","3","1","","0","1","0","37979.25999999279","","","<p>Sie sehen nun die chinesischen Zeichen nur ganz kurz. Danach sehen Sie die jeweilige Aussprache der Zeichen als Silbe auf dem Bildschrim. Ihre Aufgabe ist es, für jede Silbe anzugeben, ob diese etwas angenehmes, oder unangenehmes bedeuten könnte. Verlassen Sie sich hier vor allem auf Ihre Intuition.<br><br>Die Zeichen werden nur zur Orientierung dargestellt, beachten Sie sie deshalb nicht. Konzentrieren Sie sich vor allem auf die Silben. <br>Reagieren Sie mit folgenden zwei Tasten: <br><br><b>'D' </b> wenn die Silbe etwas <b>unangenehmes</b> bedeuten könnte. <br><b>'K'</b> wenn die Silbe etwas <b>angenehmes</b> bedeuten könnte. <br><br>Bitte legen Sie nun den Zeigefinger der linken Hand auf die Taste 'D' und den Zeigefinger der rechten Hand auf die Taste 'K'. <br>Reagieren Sie auf jede Silbe so schnell wie möglich. Uns interessiert Ihre spontane Reaktion. <br> <br> <br>Drücken Sie 'D' oder 'K', um die nächste Aufgabe zu starten. </p>","68","","","","","","","","","",""
"","html-keyboard-response","139","668436","0.0-10.0-0.0","q028wq3tja","many_one","0","direct_first","1","ka05nd03","0","23","1","1","3","1","","0","1","0","null","","","<div style=""font-size:60px;"">+</div>","null","","","","","","","","","",""
"","html-keyboard-response","140","668532","0.0-10.0-1.0","q028wq3tja","many_one","0","direct_first","1","ka05nd03","0","23","1","1","3","1","","0","1","0","null","","","<img src = 'category1/CS10.png' width = '100%;'>","null","","","","","","","","","",""
"","html-keyboard-response","141","668794","0.0-10.0-2.0","q028wq3tja","many_one","0","direct_first","1","ka05nd03","0","23","1","1","3","1","","0","1","0","null","","","<img src = 'targets/12.png' width = '100%;'>","null","","","","","","","","","",""
"","html-keyboard-response","142","671212","0.0-10.0-3.0","q028wq3tja","many_one","0","direct_first","1","ka05nd03","0","23","1","1","3","1","","0","1","0","2416.6199999745004","","","<img src = 'targets/mask.png' width = '100%;'>","75","pos","CS","CS","1","category1/CS10.png","","targets/12.png","indirect","1","0"
"","html-keyboard-response","143","672731","0.0-10.0-0.1","q028wq3tja","many_one","0","direct_first","1","ka05nd03","0","23","1","1","3","1","","0","1","0","null","","","<div style=""font-size:60px;"">+</div>","null","","","","","","","","","",""
"","html-keyboard-response","144","672825","0.0-10.0-1.1","q028wq3tja","many_one","0","direct_first","1","ka05nd03","0","23","1","1","3","1","","0","1","0","null","","","<img src = 'category2/CS7.png' width = '100%;'>","null","","","","","","","","","",""
"","html-keyboard-response","145","673087","0.0-10.0-2.1","q028wq3tja","many_one","0","direct_first","1","ka05nd03","0","23","1","1","3","1","","0","1","0","null","","","<img src = 'targets/1.png' width = '100%;'>","null","","","","","","","","","",""
"","html-keyboard-response","146","675035","0.0-10.0-3.1","q028wq3tja","many_one","0","direct_first","1","ka05nd03","0","23","1","1","3","1","","0","1","0","1947.4399999598972","","","<img src = 'targets/mask.png' width = '100%;'>","75","pos","CS","CS","2","category2/CS7.png","","targets/1.png","indirect","1","1"
"","html-keyboard-response","147","676563","0.0-10.0-0.2","q028wq3tja","many_one","0","direct_first","1","ka05nd03","0","23","1","1","3","1","","0","1","0","null","","","<div style=""font-size:60px;"">+</div>","null","","","","","","","","","",""
"","html-keyboard-response","148","676664","0.0-10.0-1.2","q028wq3tja","many_one","0","direct_first","1","ka05nd03","0","23","1","1","3","1","","0","1","0","null","","","<img src = 'category1/CS1.png' width = '100%;'>","null","","","","","","","","","",""
"","html-keyboard-response","149","676924","0.0-10.0-2.2","q028wq3tja","many_one","0","direct_first","1","ka05nd03","0","23","1","1","3","1","","0","1","0","null","","","<img src = 'targets/42.png' width = '100%;'>","null","","","","","","","","","",""
"","html-keyboard-response","150","678049","0.0-10.0-3.2","q028wq3tja","many_one","0","direct_first","1","ka05nd03","0","23","1","1","3","1","","0","1","0","1122.399999992922","","","<img src = 'targets/mask.png' width = '100%;'>","75","pos","CS","CS","1","category1/CS1.png","","targets/42.png","indirect","1","2"
"","html-keyboard-response","151","679564","0.0-10.0-0.3","q028wq3tja","many_one","0","direct_first","1","ka05nd03","0","23","1","1","3","1","","0","1","0","null","","","<div style=""font-size:60px;"">+</div>","null","","","","","","","","","",""
"","html-keyboard-response","152","679664","0.0-10.0-1.3","q028wq3tja","many_one","0","direct_first","1","ka05nd03","0","23","1","1","3","1","","0","1","0","null","","","<img src = 'category2/CS10.png' width = '100%;'>","null","","","","","","","","","",""
"","html-keyboard-response","153","679924","0.0-10.0-2.3","q028wq3tja","many_one","0","direct_first","1","ka05nd03","0","23","1","1","3","1","","0","1","0","null","","","<img src = 'targets/10.png' width = '100%;'>","null","","","","","","","","","",""
"","html-keyboard-response","154","681757","0.0-10.0-3.3","q028wq3tja","many_one","0","direct_first","1","ka05nd03","0","23","1","1","3","1","","0","1","0","1830.0700000254437","","","<img src = 'targets/mask.png' width = '100%;'>","68","pos","CS","CS","2","category2/CS10.png","","targets/10.png","indirect","0","3"
"","html-keyboard-response","155","683274","0.0-10.0-0.4","q028wq3tja","many_one","0","direct_first","1","ka05nd03","0","23","1","1","3","1","","0","1","0","null","","","<div style=""font-size:60px;"">+</div>","null","","","","","","","","","",""
"","html-keyboard-response","156","683370","0.0-10.0-1.4","q028wq3tja","many_one","0","direct_first","1","ka05nd03","0","23","1","1","3","1","","0","1","0","null","","","<img src = 'category3/CS3.png' width = '100%;'>","null","","","","","","","","","",""
"","html-keyboard-response","157","683630","0.0-10.0-2.4","q028wq3tja","many_one","0","direct_first","1","ka05nd03","0","23","1","1","3","1","","0","1","0","null","","","<img src = 'targets/25.png' width = '100%;'>","null","","","","","","","","","",""
"","html-keyboard-response","158","685027","0.0-10.0-3.4","q028wq3tja","many_one","0","direct_first","1","ka05nd03","0","23","1","1","3","1","","0","1","0","1394.1350000095554","","","<img src = 'targets/mask.png' width = '100%;'>","75","neg","GS","GSold","3","category3/CS3.png","","targets/25.png","indirect","1","4"
"","html-keyboard-response","159","686543","0.0-10.0-0.5","q028wq3tja","many_one","0","direct_first","1","ka05nd03","0","23","1","1","3","1","","0","1","0","null","","","<div style=""font-size:60px;"">+</div>","null","","","","","","","","","",""
"","html-keyboard-response","160","686643","0.0-10.0-1.5","q028wq3tja","many_one","0","direct_first","1","ka05nd03","0","23","1","1","3","1","","0","1","0","null","","","<img src = 'category2/CS3.png' width = '100%;'>","null","","","","","","","","","",""
"","html-keyboard-response","161","686903","0.0-10.0-2.5","q028wq3tja","many_one","0","direct_first","1","ka05nd03","0","23","1","1","3","1","","0","1","0","null","","","<img src = 'targets/45.png' width = '100%;'>","null","","","","","","","","","",""
"","html-keyboard-response","162","687911","0.0-10.0-3.5","q028wq3tja","many_one","0","direct_first","1","ka05nd03","0","23","1","1","3","1","","0","1","0","1005.9799999580719","","","<img src = 'targets/mask.png' width = '100%;'>","68","pos","CS","CS","2","category2/CS3.png","","targets/45.png","indirect","0","5"
"","html-keyboard-response","163","689427","0.0-10.0-0.6","q028wq3tja","many_one","0","direct_first","1","ka05nd03","0","23","1","1","3","1","","0","1","0","null","","","<div style=""font-size:60px;"">+</div>","null","","","","","","","","","",""
"","html-keyboard-response","164","689527","0.0-10.0-1.6","q028wq3tja","many_one","0","direct_first","1","ka05nd03","0","23","1","1","3","1","","0","1","0","null","","","<img src = 'category4/CS2.png' width = '100%;'>","null","","","","","","","","","",""
"","html-keyboard-response","165","689784","0.0-10.0-2.6","q028wq3tja","many_one","0","direct_first","1","ka05nd03","0","23","1","1","3","1","","0","1","0","null","","","<img src = 'targets/7.png' width = '100%;'>","null","","","","","","","","","",""
"","html-keyboard-response","166","691321","0.0-10.0-3.6","q028wq3tja","many_one","0","direct_first","1","ka05nd03","0","23","1","1","3","1","","0","1","0","1534.494999970775","","","<img src = 'targets/mask.png' width = '100%;'>","68","neg","CS","CS","4","category4/CS2.png","","targets/7.png","indirect","0","6"
"","html-keyboard-response","167","692834","0.0-10.0-0.7","q028wq3tja","many_one","0","direct_first","1","ka05nd03","0","23","1","1","3","1","","0","1","0","null","","","<div style=""font-size:60px;"">+</div>","null","","","","","","","","","",""
"","html-keyboard-response","168","692934","0.0-10.0-1.7","q028wq3tja","many_one","0","direct_first","1","ka05nd03","0","23","1","1","3","1","","0","1","0","null","","","<img src = 'category4/CS5.png' width = '100%;'>","null","","","","","","","","","",""
"","html-keyboard-response","169","693204","0.0-10.0-2.7","q028wq3tja","many_one","0","direct_first","1","ka05nd03","0","23","1","1","3","1","","0","1","0","null","","","<img src = 'targets/33.png' width = '100%;'>","null","","","","","","","","","",""
"","html-keyboard-response","170","694920","0.0-10.0-3.7","q028wq3tja","many_one","0","direct_first","1","ka05nd03","0","23","1","1","3","1","","0","1","0","1714.4949999637902","","","<img src = 'targets/mask.png' width = '100%;'>","68","neg","CS","CS","4","category4/CS5.png","","targets/33.png","indirect","0","7"
"","html-keyboard-response","171","696433","0.0-10.0-0.8","q028wq3tja","many_one","0","direct_first","1","ka05nd03","0","23","1","1","3","1","","0","1","0","null","","","<div style=""font-size:60px;"">+</div>","null","","","","","","","","","",""
"","html-keyboard-response","172","696533","0.0-10.0-1.8","q028wq3tja","many_one","0","direct_first","1","ka05nd03","0","23","1","1","3","1","","0","1","0","null","","","<img src = 'category1/CS2.png' width = '100%;'>","null","","","","","","","","","",""
"","html-keyboard-response","173","696794","0.0-10.0-2.8","q028wq3tja","many_one","0","direct_first","1","ka05nd03","0","23","1","1","3","1","","0","1","0","null","","","<img src = 'targets/13.png' width = '100%;'>","null","","","","","","","","","",""
"","html-keyboard-response","174","698109","0.0-10.0-3.8","q028wq3tja","many_one","0","direct_first","1","ka05nd03","0","23","1","1","3","1","","0","1","0","1312.915000016801","","","<img src = 'targets/mask.png' width = '100%;'>","75","pos","CS","CS","1","category1/CS2.png","","targets/13.png","indirect","1","8"
"","html-keyboard-response","175","699621","0.0-10.0-0.9","q028wq3tja","many_one","0","direct_first","1","ka05nd03","0","23","1","1","3","1","","0","1","0","null","","","<div style=""font-size:60px;"">+</div>","null","","","","","","","","","",""
"","html-keyboard-response","176","699713","0.0-10.0-1.9","q028wq3tja","many_one","0","direct_first","1","ka05nd03","0","23","1","1","3","1","","0","1","0","null","","","<img src = 'category3/CS8.png' width = '100%;'>","null","","","","","","","","","",""
"","html-keyboard-response","177","699973","0.0-10.0-2.9","q028wq3tja","many_one","0","direct_first","1","ka05nd03","0","23","1","1","3","1","","0","1","0","null","","","<img src = 'targets/40.png' width = '100%;'>","null","","","","","","","","","",""
"","html-keyboard-response","178","701003","0.0-10.0-3.9","q028wq3tja","many_one","0","direct_first","1","ka05nd03","0","23","1","1","3","1","","0","1","0","1028.3850000123493","","","<img src = 'targets/mask.png' width = '100%;'>","68","neg","CS","CS","3","category3/CS8.png","","targets/40.png","indirect","0","9"
"","html-keyboard-response","179","702514","0.0-10.0-0.10","q028wq3tja","many_one","0","direct_first","1","ka05nd03","0","23","1","1","3","1","","0","1","0","null","","","<div style=""font-size:60px;"">+</div>","null","","","","","","","","","",""
"","html-keyboard-response","180","702613","0.0-10.0-1.10","q028wq3tja","many_one","0","direct_first","1","ka05nd03","0","23","1","1","3","1","","0","1","0","null","","","<img src = 'category3/CS9.png' width = '100%;'>","null","","","","","","","","","",""
"","html-keyboard-response","181","702873","0.0-10.0-2.10","q028wq3tja","many_one","0","direct_first","1","ka05nd03","0","23","1","1","3","1","","0","1","0","null","","","<img src = 'targets/29.png' width = '100%;'>","null","","","","","","","","","",""
"","html-keyboard-response","182","704314","0.0-10.0-3.10","q028wq3tja","many_one","0","direct_first","1","ka05nd03","0","23","1","1","3","1","","0","1","0","1438.6450000456534","","","<img src = 'targets/mask.png' width = '100%;'>","68","neg","CS","CS","3","category3/CS9.png","","targets/29.png","indirect","0","10"
"","html-keyboard-response","183","705833","0.0-10.0-0.11","q028wq3tja","many_one","0","direct_first","1","ka05nd03","0","23","1","1","3","1","","0","1","0","null","","","<div style=""font-size:60px;"">+</div>","null","","","","","","","","","",""
"","html-keyboard-response","184","705934","0.0-10.0-1.11","q028wq3tja","many_one","0","direct_first","1","ka05nd03","0","23","1","1","3","1","","0","1","0","null","","","<img src = 'category4/CS9.png' width = '100%;'>","null","","","","","","","","","",""
"","html-keyboard-response","185","706193","0.0-10.0-2.11","q028wq3tja","many_one","0","direct_first","1","ka05nd03","0","23","1","1","3","1","","0","1","0","null","","","<img src = 'targets/37.png' width = '100%;'>","null","","","","","","","","","",""
"","html-keyboard-response","186","707011","0.0-10.0-3.11","q028wq3tja","many_one","0","direct_first","1","ka05nd03","0","23","1","1","3","1","","0","1","0","814.8749999818392","","","<img src = 'targets/mask.png' width = '100%;'>","75","neg","CS","CS","4","category4/CS9.png","","targets/37.png","indirect","1","11"
"","html-keyboard-response","187","708524","0.0-10.0-0.12","q028wq3tja","many_one","0","direct_first","1","ka05nd03","0","23","1","1","3","1","","0","1","0","null","","","<div style=""font-size:60px;"">+</div>","null","","","","","","","","","",""
"","html-keyboard-response","188","708624","0.0-10.0-1.12","q028wq3tja","many_one","0","direct_first","1","ka05nd03","0","23","1","1","3","1","","0","1","0","null","","","<img src = 'category3/CS6.png' width = '100%;'>","null","","","","","","","","","",""
"","html-keyboard-response","189","708884","0.0-10.0-2.12","q028wq3tja","many_one","0","direct_first","1","ka05nd03","0","23","1","1","3","1","","0","1","0","null","","","<img src = 'targets/31.png' width = '100%;'>","null","","","","","","","","","",""
"","html-keyboard-response","190","710392","0.0-10.0-3.12","q028wq3tja","many_one","0","direct_first","1","ka05nd03","0","23","1","1","3","1","","0","1","0","1505.7050000177696","","","<img src = 'targets/mask.png' width = '100%;'>","68","neg","CS","CS","3","category3/CS6.png","","targets/31.png","indirect","0","12"
"","html-keyboard-response","191","711904","0.0-10.0-0.13","q028wq3tja","many_one","0","direct_first","1","ka05nd03","0","23","1","1","3","1","","0","1","0","null","","","<div style=""font-size:60px;"">+</div>","null","","","","","","","","","",""
"","html-keyboard-response","192","712004","0.0-10.0-1.13","q028wq3tja","many_one","0","direct_first","1","ka05nd03","0","23","1","1","3","1","","0","1","0","null","","","<img src = 'category2/CS5.png' width = '100%;'>","null","","","","","","","","","",""
"","html-keyboard-response","193","712264","0.0-10.0-2.13","q028wq3tja","many_one","0","direct_first","1","ka05nd03","0","23","1","1","3","1","","0","1","0","null","","","<img src = 'targets/20.png' width = '100%;'>","null","","","","","","","","","",""
"","html-keyboard-response","194","712966","0.0-10.0-3.13","q028wq3tja","many_one","0","direct_first","1","ka05nd03","0","23","1","1","3","1","","0","1","0","699.2500000051223","","","<img src = 'targets/mask.png' width = '100%;'>","75","pos","CS","CS","2","category2/CS5.png","","targets/20.png","indirect","1","13"
"","html-keyboard-response","195","714484","0.0-10.0-0.14","q028wq3tja","many_one","0","direct_first","1","ka05nd03","0","23","1","1","3","1","","0","1","0","null","","","<div style=""font-size:60px;"">+</div>","null","","","","","","","","","",""
"","html-keyboard-response","196","714584","0.0-10.0-1.14","q028wq3tja","many_one","0","direct_first","1","ka05nd03","0","23","1","1","3","1","","0","1","0","null","","","<img src = 'category3/CS1.png' width = '100%;'>","null","","","","","","","","","",""
"","html-keyboard-response","197","714864","0.0-10.0-2.14","q028wq3tja","many_one","0","direct_first","1","ka05nd03","0","23","1","1","3","1","","0","1","0","null","","","<img src = 'targets/23.png' width = '100%;'>","null","","","","","","","","","",""
"","html-keyboard-response","198","715996","0.0-10.0-3.14","q028wq3tja","many_one","0","direct_first","1","ka05nd03","0","23","1","1","3","1","","0","1","0","1130.475000012666","","","<img src = 'targets/mask.png' width = '100%;'>","68","neg","CS","CS","3","category3/CS1.png","","targets/23.png","indirect","0","14"
"","html-keyboard-response","199","717514","0.0-10.0-0.15","q028wq3tja","many_one","0","direct_first","1","ka05nd03","0","23","1","1","3","1","","0","1","0","null","","","<div style=""font-size:60px;"">+</div>","null","","","","","","","","","",""
"","html-keyboard-response","200","717613","0.0-10.0-1.15","q028wq3tja","many_one","0","direct_first","1","ka05nd03","0","23","1","1","3","1","","0","1","0","null","","","<img src = 'category4/CS8.png' width = '100%;'>","null","","","","","","","","","",""
"","html-keyboard-response","201","717882","0.0-10.0-2.15","q028wq3tja","many_one","0","direct_first","1","ka05nd03","0","23","1","1","3","1","","0","1","0","null","","","<img src = 'targets/32.png' width = '100%;'>","null","","","","","","","","","",""
"","html-keyboard-response","202","719033","0.0-10.0-3.15","q028wq3tja","many_one","0","direct_first","1","ka05nd03","0","23","1","1","3","1","","0","1","0","1148.4850000124425","","","<img src = 'targets/mask.png' width = '100%;'>","68","neg","CS","CS","4","category4/CS8.png","","targets/32.png","indirect","0","15"
"","html-keyboard-response","203","720544","0.0-10.0-0.16","q028wq3tja","many_one","0","direct_first","1","ka05nd03","0","23","1","1","3","1","","0","1","0","null","","","<div style=""font-size:60px;"">+</div>","null","","","","","","","","","",""
"","html-keyboard-response","204","720641","0.0-10.0-1.16","q028wq3tja","many_one","0","direct_first","1","ka05nd03","0","23","1","1","3","1","","0","1","0","null","","","<img src = 'category1/CS8.png' width = '100%;'>","null","","","","","","","","","",""
"","html-keyboard-response","205","720904","0.0-10.0-2.16","q028wq3tja","many_one","0","direct_first","1","ka05nd03","0","23","1","1","3","1","","0","1","0","null","","","<img src = 'targets/19.png' width = '100%;'>","null","","","","","","","","","",""
"","html-keyboard-response","206","722036","0.0-10.0-3.16","q028wq3tja","many_one","0","direct_first","1","ka05nd03","0","23","1","1","3","1","","0","1","0","1130.345000012312","","","<img src = 'targets/mask.png' width = '100%;'>","68","pos","CS","CS","1","category1/CS8.png","","targets/19.png","indirect","0","16"
"","html-keyboard-response","207","723554","0.0-10.0-0.17","q028wq3tja","many_one","0","direct_first","1","ka05nd03","0","23","1","1","3","1","","0","1","0","null","","","<div style=""font-size:60px;"">+</div>","null","","","","","","","","","",""
"","html-keyboard-response","208","723653","0.0-10.0-1.17","q028wq3tja","many_one","0","direct_first","1","ka05nd03","0","23","1","1","3","1","","0","1","0","null","","","<img src = 'category3/CS2.png' width = '100%;'>","null","","","","","","","","","",""
"","html-keyboard-response","209","723913","0.0-10.0-2.17","q028wq3tja","many_one","0","direct_first","1","ka05nd03","0","23","1","1","3","1","","0","1","0","null","","","<img src = 'targets/17.png' width = '100%;'>","null","","","","","","","","","",""
"","html-keyboard-response","210","724840","0.0-10.0-3.17","q028wq3tja","many_one","0","direct_first","1","ka05nd03","0","23","1","1","3","1","","0","1","0","924.0249999566004","","","<img src = 'targets/mask.png' width = '100%;'>","75","neg","CS","CS","3","category3/CS2.png","","targets/17.png","indirect","1","17"
"","html-keyboard-response","211","726364","0.0-10.0-0.18","q028wq3tja","many_one","0","direct_first","1","ka05nd03","0","23","1","1","3","1","","0","1","0","null","","","<div style=""font-size:60px;"">+</div>","null","","","","","","","","","",""
"","html-keyboard-response","212","726464","0.0-10.0-1.18","q028wq3tja","many_one","0","direct_first","1","ka05nd03","0","23","1","1","3","1","","0","1","0","null","","","<img src = 'category4/CS10.png' width = '100%;'>","null","","","","","","","","","",""
"","html-keyboard-response","213","726734","0.0-10.0-2.18","q028wq3tja","many_one","0","direct_first","1","ka05nd03","0","23","1","1","3","1","","0","1","0","null","","","<img src = 'targets/8.png' width = '100%;'>","null","","","","","","","","","",""
"","html-keyboard-response","214","727547","0.0-10.0-3.18","q028wq3tja","many_one","0","direct_first","1","ka05nd03","0","23","1","1","3","1","","0","1","0","811.7800000472926","","","<img src = 'targets/mask.png' width = '100%;'>","68","neg","CS","CS","4","category4/CS10.png","","targets/8.png","indirect","0","18"
"","html-keyboard-response","215","729064","0.0-10.0-0.19","q028wq3tja","many_one","0","direct_first","1","ka05nd03","0","23","1","1","3","1","","0","1","0","null","","","<div style=""font-size:60px;"">+</div>","null","","","","","","","","","",""
"","html-keyboard-response","216","729163","0.0-10.0-1.19","q028wq3tja","many_one","0","direct_first","1","ka05nd03","0","23","1","1","3","1","","0","1","0","null","","","<img src = 'category1/CS5.png' width = '100%;'>","null","","","","","","","","","",""
"","html-keyboard-response","217","729424","0.0-10.0-2.19","q028wq3tja","many_one","0","direct_first","1","ka05nd03","0","23","1","1","3","1","","0","1","0","null","","","<img src = 'targets/27.png' width = '100%;'>","null","","","","","","","","","",""
"","html-keyboard-response","218","730242","0.0-10.0-3.19","q028wq3tja","many_one","0","direct_first","1","ka05nd03","0","23","1","1","3","1","","0","1","0","816.2700000102632","","","<img src = 'targets/mask.png' width = '100%;'>","75","pos","GS","GSold","1","category1/CS5.png","","targets/27.png","indirect","1","19"
"","html-keyboard-response","219","731754","0.0-10.0-0.20","q028wq3tja","many_one","0","direct_first","1","ka05nd03","0","23","1","1","3","1","","0","1","0","null","","","<div style=""font-size:60px;"">+</div>","null","","","","","","","","","",""
"","html-keyboard-response","220","731850","0.0-10.0-1.20","q028wq3tja","many_one","0","direct_first","1","ka05nd03","0","23","1","1","3","1","","0","1","0","null","","","<img src = 'category1/CS4.png' width = '100%;'>","null","","","","","","","","","",""
"","html-keyboard-response","221","732134","0.0-10.0-2.20","q028wq3tja","many_one","0","direct_first","1","ka05nd03","0","23","1","1","3","1","","0","1","0","null","","","<img src = 'targets/46.png' width = '100%;'>","null","","","","","","","","","",""
"","html-keyboard-response","222","732753","0.0-10.0-3.20","q028wq3tja","many_one","0","direct_first","1","ka05nd03","0","23","1","1","3","1","","0","1","0","616.0199999576434","","","<img src = 'targets/mask.png' width = '100%;'>","75","pos","CS","CS","1","category1/CS4.png","","targets/46.png","indirect","1","20"
"","html-keyboard-response","223","734274","0.0-10.0-0.21","q028wq3tja","many_one","0","direct_first","1","ka05nd03","0","23","1","1","3","1","","0","1","0","null","","","<div style=""font-size:60px;"">+</div>","null","","","","","","","","","",""
"","html-keyboard-response","224","734373","0.0-10.0-1.21","q028wq3tja","many_one","0","direct_first","1","ka05nd03","0","23","1","1","3","1","","0","1","0","null","","","<img src = 'category2/CS6.png' width = '100%;'>","null","","","","","","","","","",""
"","html-keyboard-response","225","734632","0.0-10.0-2.21","q028wq3tja","many_one","0","direct_first","1","ka05nd03","0","23","1","1","3","1","","0","1","0","null","","","<img src = 'targets/5.png' width = '100%;'>","null","","","","","","","","","",""
"","html-keyboard-response","226","736080","0.0-10.0-3.21","q028wq3tja","many_one","0","direct_first","1","ka05nd03","0","23","1","1","3","1","","0","1","0","1445.850000018254","","","<img src = 'targets/mask.png' width = '100%;'>","75","pos","CS","CS","2","category2/CS6.png","","targets/5.png","indirect","1","21"
"","html-keyboard-response","227","737604","0.0-10.0-0.22","q028wq3tja","many_one","0","direct_first","1","ka05nd03","0","23","1","1","3","1","","0","1","0","null","","","<div style=""font-size:60px;"">+</div>","null","","","","","","","","","",""
"","html-keyboard-response","228","737704","0.0-10.0-1.22","q028wq3tja","many_one","0","direct_first","1","ka05nd03","0","23","1","1","3","1","","0","1","0","null","","","<img src = 'category3/CS10.png' width = '100%;'>","null","","","","","","","","","",""
"","html-keyboard-response","229","737973","0.0-10.0-2.22","q028wq3tja","many_one","0","direct_first","1","ka05nd03","0","23","1","1","3","1","","0","1","0","null","","","<img src = 'targets/36.png' width = '100%;'>","null","","","","","","","","","",""
"","html-keyboard-response","230","739126","0.0-10.0-3.22","q028wq3tja","many_one","0","direct_first","1","ka05nd03","0","23","1","1","3","1","","0","1","0","1150.3900000243448","","","<img src = 'targets/mask.png' width = '100%;'>","68","neg","GS","GSold","3","category3/CS10.png","","targets/36.png","indirect","0","22"
"","html-keyboard-response","231","740644","0.0-10.0-0.23","q028wq3tja","many_one","0","direct_first","1","ka05nd03","0","23","1","1","3","1","","0","1","0","null","","","<div style=""font-size:60px;"">+</div>","null","","","","","","","","","",""
"","html-keyboard-response","232","740744","0.0-10.0-1.23","q028wq3tja","many_one","0","direct_first","1","ka05nd03","0","23","1","1","3","1","","0","1","0","null","","","<img src = 'category3/CS7.png' width = '100%;'>","null","","","","","","","","","",""
"","html-keyboard-response","233","741014","0.0-10.0-2.23","q028wq3tja","many_one","0","direct_first","1","ka05nd03","0","23","1","1","3","1","","0","1","0","null","","","<img src = 'targets/18.png' width = '100%;'>","null","","","","","","","","","",""
"","html-keyboard-response","234","741937","0.0-10.0-3.23","q028wq3tja","many_one","0","direct_first","1","ka05nd03","0","23","1","1","3","1","","0","1","0","920.9299999638461","","","<img src = 'targets/mask.png' width = '100%;'>","68","neg","GS","GSold","3","category3/CS7.png","","targets/18.png","indirect","0","23"
"","survey-html-form","235","747966","0.0-11.0","q028wq3tja","many_one","0","direct_first","1","ka05nd03","0","23","1","1","3","1","","0","1","0","5521.420000004582","","{}","","","","","","","","","","","",""
"","html-keyboard-response","236","750985","0.0-12.0-0.0","q028wq3tja","many_one","0","direct_first","1","ka05nd03","0","23","1","1","3","1","","0","1","0","null","","","<div style=""font-size:60px;"">+</div>","null","","","","","","","","","",""
"","html-keyboard-response","237","751082","0.0-12.0-1.0","q028wq3tja","many_one","0","direct_first","1","ka05nd03","0","23","1","1","3","1","","0","1","0","null","","","<img src = 'category1/GS2.png' width = '100%;'>","null","","","","","","","","","",""
"","html-keyboard-response","238","751341","0.0-12.0-2.0","q028wq3tja","many_one","0","direct_first","1","ka05nd03","0","23","1","1","3","1","","0","1","0","null","","","<img src = 'targets/22.png' width = '100%;'>","null","","","","","","","","","",""
"","html-keyboard-response","239","753496","0.0-12.0-3.0","q028wq3tja","many_one","0","direct_first","1","ka05nd03","0","23","1","1","3","1","","0","1","0","2151.7449999810196","","","<img src = 'targets/mask.png' width = '100%;'>","75","pos","GS","GSnew","1","category1/GS2.png","","targets/22.png","indirect","1","24"
"","html-keyboard-response","240","755011","0.0-12.0-0.1","q028wq3tja","many_one","0","direct_first","1","ka05nd03","0","23","1","1","3","1","","0","1","0","null","","","<div style=""font-size:60px;"">+</div>","null","","","","","","","","","",""
"","html-keyboard-response","241","755112","0.0-12.0-1.1","q028wq3tja","many_one","0","direct_first","1","ka05nd03","0","23","1","1","3","1","","0","1","0","null","","","<img src = 'category2/CS8.png' width = '100%;'>","null","","","","","","","","","",""
"","html-keyboard-response","242","755380","0.0-12.0-2.1","q028wq3tja","many_one","0","direct_first","1","ka05nd03","0","23","1","1","3","1","","0","1","0","null","","","<img src = 'targets/47.png' width = '100%;'>","null","","","","","","","","","",""
"","html-keyboard-response","243","756080","0.0-12.0-3.1","q028wq3tja","many_one","0","direct_first","1","ka05nd03","0","23","1","1","3","1","","0","1","0","699.3050000164658","","","<img src = 'targets/mask.png' width = '100%;'>","75","pos","GS","GSold","2","category2/CS8.png","","targets/47.png","indirect","1","25"
"","html-keyboard-response","244","757592","0.0-12.0-0.2","q028wq3tja","many_one","0","direct_first","1","ka05nd03","0","23","1","1","3","1","","0","1","0","null","","","<div style=""font-size:60px;"">+</div>","null","","","","","","","","","",""
"","html-keyboard-response","245","757693","0.0-12.0-1.2","q028wq3tja","many_one","0","direct_first","1","ka05nd03","0","23","1","1","3","1","","0","1","0","null","","","<img src = 'category2/CS2.png' width = '100%;'>","null","","","","","","","","","",""
"","html-keyboard-response","246","757953","0.0-12.0-2.2","q028wq3tja","many_one","0","direct_first","1","ka05nd03","0","23","1","1","3","1","","0","1","0","null","","","<img src = 'targets/39.png' width = '100%;'>","null","","","","","","","","","",""
"","html-keyboard-response","247","758923","0.0-12.0-3.2","q028wq3tja","many_one","0","direct_first","1","ka05nd03","0","23","1","1","3","1","","0","1","0","968.3749999967404","","","<img src = 'targets/mask.png' width = '100%;'>","75","pos","GS","GSold","2","category2/CS2.png","","targets/39.png","indirect","1","26"
"","html-keyboard-response","248","760448","0.0-12.0-0.3","q028wq3tja","many_one","0","direct_first","1","ka05nd03","0","23","1","1","3","1","","0","1","0","null","","","<div style=""font-size:60px;"">+</div>","null","","","","","","","","","",""
"","html-keyboard-response","249","760540","0.0-12.0-1.3","q028wq3tja","many_one","0","direct_first","1","ka05nd03","0","23","1","1","3","1","","0","1","0","null","","","<img src = 'category2/GS1.png' width = '100%;'>","null","","","","","","","","","",""
"","html-keyboard-response","250","760803","0.0-12.0-2.3","q028wq3tja","many_one","0","direct_first","1","ka05nd03","0","23","1","1","3","1","","0","1","0","null","","","<img src = 'targets/48.png' width = '100%;'>","null","","","","","","","","","",""
"","html-keyboard-response","251","761854","0.0-12.0-3.3","q028wq3tja","many_one","0","direct_first","1","ka05nd03","0","23","1","1","3","1","","0","1","0","1049.9050000216812","","","<img src = 'targets/mask.png' width = '100%;'>","75","pos","GS","GSnew","2","category2/GS1.png","","targets/48.png","indirect","1","27"
"","html-keyboard-response","252","763373","0.0-12.0-0.4","q028wq3tja","many_one","0","direct_first","1","ka05nd03","0","23","1","1","3","1","","0","1","0","null","","","<div style=""font-size:60px;"">+</div>","null","","","","","","","","","",""
"","html-keyboard-response","253","763473","0.0-12.0-1.4","q028wq3tja","many_one","0","direct_first","1","ka05nd03","0","23","1","1","3","1","","0","1","0","null","","","<img src = 'category4/lin.png' width = '100%;'>","null","","","","","","","","","",""
"","html-keyboard-response","254","763733","0.0-12.0-2.4","q028wq3tja","many_one","0","direct_first","1","ka05nd03","0","23","1","1","3","1","","0","1","0","null","","","<img src = 'targets/28.png' width = '100%;'>","null","","","","","","","","","",""
"","html-keyboard-response","255","764628","0.0-12.0-3.4","q028wq3tja","many_one","0","direct_first","1","ka05nd03","0","23","1","1","3","1","","0","1","0","892.9449999704957","","","<img src = 'targets/mask.png' width = '100%;'>","68","neg","GS","abstract","4","category4/lin.png","","targets/28.png","indirect","0","28"
"","html-keyboard-response","256","766140","0.0-12.0-0.5","q028wq3tja","many_one","0","direct_first","1","ka05nd03","0","23","1","1","3","1","","0","1","0","null","","","<div style=""font-size:60px;"">+</div>","null","","","","","","","","","",""
"","html-keyboard-response","257","766234","0.0-12.0-1.5","q028wq3tja","many_one","0","direct_first","1","ka05nd03","0","23","1","1","3","1","","0","1","0","null","","","<img src = 'category4/GS2.png' width = '100%;'>","null","","","","","","","","","",""
"","html-keyboard-response","258","766494","0.0-12.0-2.5","q028wq3tja","many_one","0","direct_first","1","ka05nd03","0","23","1","1","3","1","","0","1","0","null","","","<img src = 'targets/14.png' width = '100%;'>","null","","","","","","","","","",""
"","html-keyboard-response","259","767190","0.0-12.0-3.5","q028wq3tja","many_one","0","direct_first","1","ka05nd03","0","23","1","1","3","1","","0","1","0","693.9550000242889","","","<img src = 'targets/mask.png' width = '100%;'>","75","neg","GS","GSnew","4","category4/GS2.png","","targets/14.png","indirect","1","29"
"","html-keyboard-response","260","768713","0.0-12.0-0.6","q028wq3tja","many_one","0","direct_first","1","ka05nd03","0","23","1","1","3","1","","0","1","0","null","","","<div style=""font-size:60px;"">+</div>","null","","","","","","","","","",""
"","html-keyboard-response","261","768813","0.0-12.0-1.6","q028wq3tja","many_one","0","direct_first","1","ka05nd03","0","23","1","1","3","1","","0","1","0","null","","","<img src = 'category1/ma.png' width = '100%;'>","null","","","","","","","","","",""
"","html-keyboard-response","262","769073","0.0-12.0-2.6","q028wq3tja","many_one","0","direct_first","1","ka05nd03","0","23","1","1","3","1","","0","1","0","null","","","<img src = 'targets/34.png' width = '100%;'>","null","","","","","","","","","",""
"","html-keyboard-response","263","769710","0.0-12.0-3.6","q028wq3tja","many_one","0","direct_first","1","ka05nd03","0","23","1","1","3","1","","0","1","0","634.409999998752","","","<img src = 'targets/mask.png' width = '100%;'>","75","pos","GS","abstract","1","category1/ma.png","","targets/34.png","indirect","1","30"
"","html-keyboard-response","264","771224","0.0-12.0-0.7","q028wq3tja","many_one","0","direct_first","1","ka05nd03","0","23","1","1","3","1","","0","1","0","null","","","<div style=""font-size:60px;"">+</div>","null","","","","","","","","","",""
"","html-keyboard-response","265","771324","0.0-12.0-1.7","q028wq3tja","many_one","0","direct_first","1","ka05nd03","0","23","1","1","3","1","","0","1","0","null","","","<img src = 'category4/GS3.png' width = '100%;'>","null","","","","","","","","","",""
"","html-keyboard-response","266","771584","0.0-12.0-2.7","q028wq3tja","many_one","0","direct_first","1","ka05nd03","0","23","1","1","3","1","","0","1","0","null","","","<img src = 'targets/16.png' width = '100%;'>","null","","","","","","","","","",""
"","html-keyboard-response","267","772237","0.0-12.0-3.7","q028wq3tja","many_one","0","direct_first","1","ka05nd03","0","23","1","1","3","1","","0","1","0","650.4950000089593","","","<img src = 'targets/mask.png' width = '100%;'>","75","neg","GS","GSnew","4","category4/GS3.png","","targets/16.png","indirect","1","31"
"","html-keyboard-response","268","773753","0.0-12.0-0.8","q028wq3tja","many_one","0","direct_first","1","ka05nd03","0","23","1","1","3","1","","0","1","0","null","","","<div style=""font-size:60px;"">+</div>","null","","","","","","","","","",""
"","html-keyboard-response","269","773854","0.0-12.0-1.8","q028wq3tja","many_one","0","direct_first","1","ka05nd03","0","23","1","1","3","1","","0","1","0","null","","","<img src = 'category2/CS1.png' width = '100%;'>","null","","","","","","","","","",""
"","html-keyboard-response","270","774134","0.0-12.0-2.8","q028wq3tja","many_one","0","direct_first","1","ka05nd03","0","23","1","1","3","1","","0","1","0","null","","","<img src = 'targets/26.png' width = '100%;'>","null","","","","","","","","","",""
"","html-keyboard-response","271","775551","0.0-12.0-3.8","q028wq3tja","many_one","0","direct_first","1","ka05nd03","0","23","1","1","3","1","","0","1","0","1415.080000006128","","","<img src = 'targets/mask.png' width = '100%;'>","75","pos","GS","GSold","2","category2/CS1.png","","targets/26.png","indirect","1","32"
"","html-keyboard-response","272","777073","0.0-12.0-0.9","q028wq3tja","many_one","0","direct_first","1","ka05nd03","0","23","1","1","3","1","","0","1","0","null","","","<div style=""font-size:60px;"">+</div>","null","","","","","","","","","",""
"","html-keyboard-response","273","777174","0.0-12.0-1.9","q028wq3tja","many_one","0","direct_first","1","ka05nd03","0","23","1","1","3","1","","0","1","0","null","","","<img src = 'category2/GS2.png' width = '100%;'>","null","","","","","","","","","",""
"","html-keyboard-response","274","777434","0.0-12.0-2.9","q028wq3tja","many_one","0","direct_first","1","ka05nd03","0","23","1","1","3","1","","0","1","0","null","","","<img src = 'targets/2.png' width = '100%;'>","null","","","","","","","","","",""
"","html-keyboard-response","275","777966","0.0-12.0-3.9","q028wq3tja","many_one","0","direct_first","1","ka05nd03","0","23","1","1","3","1","","0","1","0","529.8099999781698","","","<img src = 'targets/mask.png' width = '100%;'>","75","pos","GS","GSnew","2","category2/GS2.png","","targets/2.png","indirect","1","33"
"","html-keyboard-response","276","779484","0.0-12.0-0.10","q028wq3tja","many_one","0","direct_first","1","ka05nd03","0","23","1","1","3","1","","0","1","0","null","","","<div style=""font-size:60px;"">+</div>","null","","","","","","","","","",""
"","html-keyboard-response","277","779584","0.0-12.0-1.10","q028wq3tja","many_one","0","direct_first","1","ka05nd03","0","23","1","1","3","1","","0","1","0","null","","","<img src = 'category4/CS7.png' width = '100%;'>","null","","","","","","","","","",""
"","html-keyboard-response","278","779853","0.0-12.0-2.10","q028wq3tja","many_one","0","direct_first","1","ka05nd03","0","23","1","1","3","1","","0","1","0","null","","","<img src = 'targets/11.png' width = '100%;'>","null","","","","","","","","","",""
"","html-keyboard-response","279","780449","0.0-12.0-3.10","q028wq3tja","many_one","0","direct_first","1","ka05nd03","0","23","1","1","3","1","","0","1","0","593.8050000113435","","","<img src = 'targets/mask.png' width = '100%;'>","75","neg","GS","GSold","4","category4/CS7.png","","targets/11.png","indirect","1","34"
"","html-keyboard-response","280","781968","0.0-12.0-0.11","q028wq3tja","many_one","0","direct_first","1","ka05nd03","0","23","1","1","3","1","","0","1","0","null","","","<div style=""font-size:60px;"">+</div>","null","","","","","","","","","",""
"","html-keyboard-response","281","782062","0.0-12.0-1.11","q028wq3tja","many_one","0","direct_first","1","ka05nd03","0","23","1","1","3","1","","0","1","0","null","","","<img src = 'category3/GS3.png' width = '100%;'>","null","","","","","","","","","",""
"","html-keyboard-response","282","782324","0.0-12.0-2.11","q028wq3tja","many_one","0","direct_first","1","ka05nd03","0","23","1","1","3","1","","0","1","0","null","","","<img src = 'targets/43.png' width = '100%;'>","null","","","","","","","","","",""
"","html-keyboard-response","283","783937","0.0-12.0-3.11","q028wq3tja","many_one","0","direct_first","1","ka05nd03","0","23","1","1","3","1","","0","1","0","1610.9849999775179","","","<img src = 'targets/mask.png' width = '100%;'>","75","neg","GS","GSnew","3","category3/GS3.png","","targets/43.png","indirect","1","35"
"","html-keyboard-response","284","785453","0.0-12.0-0.12","q028wq3tja","many_one","0","direct_first","1","ka05nd03","0","23","1","1","3","1","","0","1","0","null","","","<div style=""font-size:60px;"">+</div>","null","","","","","","","","","",""
"","html-keyboard-response","285","785554","0.0-12.0-1.12","q028wq3tja","many_one","0","direct_first","1","ka05nd03","0","23","1","1","3","1","","0","1","0","null","","","<img src = 'category4/CS1.png' width = '100%;'>","null","","","","","","","","","",""
"","html-keyboard-response","286","785821","0.0-12.0-2.12","q028wq3tja","many_one","0","direct_first","1","ka05nd03","0","23","1","1","3","1","","0","1","0","null","","","<img src = 'targets/6.png' width = '100%;'>","null","","","","","","","","","",""
"","html-keyboard-response","287","786546","0.0-12.0-3.12","q028wq3tja","many_one","0","direct_first","1","ka05nd03","0","23","1","1","3","1","","0","1","0","722.5399999879301","","","<img src = 'targets/mask.png' width = '100%;'>","68","neg","GS","GSold","4","category4/CS1.png","","targets/6.png","indirect","0","36"
"","html-keyboard-response","288","788064","0.0-12.0-0.13","q028wq3tja","many_one","0","direct_first","1","ka05nd03","0","23","1","1","3","1","","0","1","0","null","","","<div style=""font-size:60px;"">+</div>","null","","","","","","","","","",""
"","html-keyboard-response","289","788163","0.0-12.0-1.13","q028wq3tja","many_one","0","direct_first","1","ka05nd03","0","23","1","1","3","1","","0","1","0","null","","","<img src = 'category3/wang.png' width = '100%;'>","null","","","","","","","","","",""
"","html-keyboard-response","290","788423","0.0-12.0-2.13","q028wq3tja","many_one","0","direct_first","1","ka05nd03","0","23","1","1","3","1","","0","1","0","null","","","<img src = 'targets/21.png' width = '100%;'>","null","","","","","","","","","",""
"","html-keyboard-response","291","789816","0.0-12.0-3.13","q028wq3tja","many_one","0","direct_first","1","ka05nd03","0","23","1","1","3","1","","0","1","0","1391.460000013467","","","<img src = 'targets/mask.png' width = '100%;'>","75","neg","GS","abstract","3","category3/wang.png","","targets/21.png","indirect","1","37"
"","html-keyboard-response","292","791333","0.0-12.0-0.14","q028wq3tja","many_one","0","direct_first","1","ka05nd03","0","23","1","1","3","1","","0","1","0","null","","","<div style=""font-size:60px;"">+</div>","null","","","","","","","","","",""
"","html-keyboard-response","293","791434","0.0-12.0-1.14","q028wq3tja","many_one","0","direct_first","1","ka05nd03","0","23","1","1","3","1","","0","1","0","null","","","<img src = 'category4/CS6.png' width = '100%;'>","null","","","","","","","","","",""
"","html-keyboard-response","294","791693","0.0-12.0-2.14","q028wq3tja","many_one","0","direct_first","1","ka05nd03","0","23","1","1","3","1","","0","1","0","null","","","<img src = 'targets/44.png' width = '100%;'>","null","","","","","","","","","",""
"","html-keyboard-response","295","792818","0.0-12.0-3.14","q028wq3tja","many_one","0","direct_first","1","ka05nd03","0","23","1","1","3","1","","0","1","0","1122.994999983348","","","<img src = 'targets/mask.png' width = '100%;'>","75","neg","GS","GSold","4","category4/CS6.png","","targets/44.png","indirect","1","38"
"","html-keyboard-response","296","794333","0.0-12.0-0.15","q028wq3tja","many_one","0","direct_first","1","ka05nd03","0","23","1","1","3","1","","0","1","0","null","","","<div style=""font-size:60px;"">+</div>","null","","","","","","","","","",""
"","html-keyboard-response","297","794435","0.0-12.0-1.15","q028wq3tja","many_one","0","direct_first","1","ka05nd03","0","23","1","1","3","1","","0","1","0","null","","","<img src = 'category2/men.png' width = '100%;'>","null","","","","","","","","","",""
"","html-keyboard-response","298","794693","0.0-12.0-2.15","q028wq3tja","many_one","0","direct_first","1","ka05nd03","0","23","1","1","3","1","","0","1","0","null","","","<img src = 'targets/24.png' width = '100%;'>","null","","","","","","","","","",""
"","html-keyboard-response","299","795499","0.0-12.0-3.15","q028wq3tja","many_one","0","direct_first","1","ka05nd03","0","23","1","1","3","1","","0","1","0","804.2349999886937","","","<img src = 'targets/mask.png' width = '100%;'>","68","pos","GS","abstract","2","category2/men.png","","targets/24.png","indirect","0","39"
"","html-keyboard-response","300","797009","0.0-12.0-0.16","q028wq3tja","many_one","0","direct_first","1","ka05nd03","0","23","1","1","3","1","","0","1","0","null","","","<div style=""font-size:60px;"">+</div>","null","","","","","","","","","",""
"","html-keyboard-response","301","797103","0.0-12.0-1.16","q028wq3tja","many_one","0","direct_first","1","ka05nd03","0","23","1","1","3","1","","0","1","0","null","","","<img src = 'category1/CS6.png' width = '100%;'>","null","","","","","","","","","",""
"","html-keyboard-response","302","797363","0.0-12.0-2.16","q028wq3tja","many_one","0","direct_first","1","ka05nd03","0","23","1","1","3","1","","0","1","0","null","","","<img src = 'targets/3.png' width = '100%;'>","null","","","","","","","","","",""
"","html-keyboard-response","303","797952","0.0-12.0-3.16","q028wq3tja","many_one","0","direct_first","1","ka05nd03","0","23","1","1","3","1","","0","1","0","586.3550000358373","","","<img src = 'targets/mask.png' width = '100%;'>","68","pos","GS","GSold","1","category1/CS6.png","","targets/3.png","indirect","0","40"
"","html-keyboard-response","304","799461","0.0-12.0-0.17","q028wq3tja","many_one","0","direct_first","1","ka05nd03","0","23","1","1","3","1","","0","1","0","null","","","<div style=""font-size:60px;"">+</div>","null","","","","","","","","","",""
"","html-keyboard-response","305","799554","0.0-12.0-1.17","q028wq3tja","many_one","0","direct_first","1","ka05nd03","0","23","1","1","3","1","","0","1","0","null","","","<img src = 'category3/GS2.png' width = '100%;'>","null","","","","","","","","","",""
"","html-keyboard-response","306","799813","0.0-12.0-2.17","q028wq3tja","many_one","0","direct_first","1","ka05nd03","0","23","1","1","3","1","","0","1","0","null","","","<img src = 'targets/30.png' width = '100%;'>","null","","","","","","","","","",""
"","html-keyboard-response","307","800497","0.0-12.0-3.17","q028wq3tja","many_one","0","direct_first","1","ka05nd03","0","23","1","1","3","1","","0","1","0","680.4949999786913","","","<img src = 'targets/mask.png' width = '100%;'>","75","neg","GS","GSnew","3","category3/GS2.png","","targets/30.png","indirect","1","41"
"","html-keyboard-response","308","802024","0.0-12.0-0.18","q028wq3tja","many_one","0","direct_first","1","ka05nd03","0","23","1","1","3","1","","0","1","0","null","","","<div style=""font-size:60px;"">+</div>","null","","","","","","","","","",""
"","html-keyboard-response","309","802123","0.0-12.0-1.18","q028wq3tja","many_one","0","direct_first","1","ka05nd03","0","23","1","1","3","1","","0","1","0","null","","","<img src = 'category1/CS7.png' width = '100%;'>","null","","","","","","","","","",""
"","html-keyboard-response","310","802383","0.0-12.0-2.18","q028wq3tja","many_one","0","direct_first","1","ka05nd03","0","23","1","1","3","1","","0","1","0","null","","","<img src = 'targets/4.png' width = '100%;'>","null","","","","","","","","","",""
"","html-keyboard-response","311","803442","0.0-12.0-3.18","q028wq3tja","many_one","0","direct_first","1","ka05nd03","0","23","1","1","3","1","","0","1","0","1056.650000042282","","","<img src = 'targets/mask.png' width = '100%;'>","68","pos","GS","GSold","1","category1/CS7.png","","targets/4.png","indirect","0","42"
"","html-keyboard-response","312","804959","0.0-12.0-0.19","q028wq3tja","many_one","0","direct_first","1","ka05nd03","0","23","1","1","3","1","","0","1","0","null","","","<div style=""font-size:60px;"">+</div>","null","","","","","","","","","",""
"","html-keyboard-response","313","805053","0.0-12.0-1.19","q028wq3tja","many_one","0","direct_first","1","ka05nd03","0","23","1","1","3","1","","0","1","0","null","","","<img src = 'category2/GS3.png' width = '100%;'>","null","","","","","","","","","",""
"","html-keyboard-response","314","805313","0.0-12.0-2.19","q028wq3tja","many_one","0","direct_first","1","ka05nd03","0","23","1","1","3","1","","0","1","0","null","","","<img src = 'targets/41.png' width = '100%;'>","null","","","","","","","","","",""
"","html-keyboard-response","315","806669","0.0-12.0-3.19","q028wq3tja","many_one","0","direct_first","1","ka05nd03","0","23","1","1","3","1","","0","1","0","1353.9350000210106","","","<img src = 'targets/mask.png' width = '100%;'>","75","pos","GS","GSnew","2","category2/GS3.png","","targets/41.png","indirect","1","43"
"","html-keyboard-response","316","808194","0.0-12.0-0.20","q028wq3tja","many_one","0","direct_first","1","ka05nd03","0","23","1","1","3","1","","0","1","0","null","","","<div style=""font-size:60px;"">+</div>","null","","","","","","","","","",""
"","html-keyboard-response","317","808293","0.0-12.0-1.20","q028wq3tja","many_one","0","direct_first","1","ka05nd03","0","23","1","1","3","1","","0","1","0","null","","","<img src = 'category4/GS1.png' width = '100%;'>","null","","","","","","","","","",""
"","html-keyboard-response","318","808554","0.0-12.0-2.20","q028wq3tja","many_one","0","direct_first","1","ka05nd03","0","23","1","1","3","1","","0","1","0","null","","","<img src = 'targets/35.png' width = '100%;'>","null","","","","","","","","","",""
"","html-keyboard-response","319","809096","0.0-12.0-3.20","q028wq3tja","many_one","0","direct_first","1","ka05nd03","0","23","1","1","3","1","","0","1","0","538.8700000476092","","","<img src = 'targets/mask.png' width = '100%;'>","75","neg","GS","GSnew","4","category4/GS1.png","","targets/35.png","indirect","1","44"
"","html-keyboard-response","320","810603","0.0-12.0-0.21","q028wq3tja","many_one","0","direct_first","1","ka05nd03","0","23","1","1","3","1","","0","1","0","null","","","<div style=""font-size:60px;"">+</div>","null","","","","","","","","","",""
"","html-keyboard-response","321","810701","0.0-12.0-1.21","q028wq3tja","many_one","0","direct_first","1","ka05nd03","0","23","1","1","3","1","","0","1","0","null","","","<img src = 'category1/GS1.png' width = '100%;'>","null","","","","","","","","","",""
"","html-keyboard-response","322","810964","0.0-12.0-2.21","q028wq3tja","many_one","0","direct_first","1","ka05nd03","0","23","1","1","3","1","","0","1","0","null","","","<img src = 'targets/15.png' width = '100%;'>","null","","","","","","","","","",""
"","html-keyboard-response","323","812137","0.0-12.0-3.21","q028wq3tja","many_one","0","direct_first","1","ka05nd03","0","23","1","1","3","1","","0","1","0","1171.2500000139698","","","<img src = 'targets/mask.png' width = '100%;'>","68","pos","GS","GSnew","1","category1/GS1.png","","targets/15.png","indirect","0","45"
"","html-keyboard-response","324","813653","0.0-12.0-0.22","q028wq3tja","many_one","0","direct_first","1","ka05nd03","0","23","1","1","3","1","","0","1","0","null","","","<div style=""font-size:60px;"">+</div>","null","","","","","","","","","",""
"","html-keyboard-response","325","813753","0.0-12.0-1.22","q028wq3tja","many_one","0","direct_first","1","ka05nd03","0","23","1","1","3","1","","0","1","0","null","","","<img src = 'category3/GS1.png' width = '100%;'>","null","","","","","","","","","",""
"","html-keyboard-response","326","814013","0.0-12.0-2.22","q028wq3tja","many_one","0","direct_first","1","ka05nd03","0","23","1","1","3","1","","0","1","0","null","","","<img src = 'targets/38.png' width = '100%;'>","null","","","","","","","","","",""
"","html-keyboard-response","327","814681","0.0-12.0-3.22","q028wq3tja","many_one","0","direct_first","1","ka05nd03","0","23","1","1","3","1","","0","1","0","665.3150000493042","","","<img src = 'targets/mask.png' width = '100%;'>","75","neg","GS","GSnew","3","category3/GS1.png","","targets/38.png","indirect","1","46"
