"success","trial_type","trial_index","time_elapsed","internal_node_id","subject","condition","condition_code","measure","measure_code","codeword","gender","age","education","chinese","fach","handedness","comment","hinschauen","ablenkung","gewissenhaft","rt","url","responses","stimulus","key_press","val","type","type_specific","category","cs_selected","target","indirect","task","nr_pres","response"
"true","fullscreen","0","6043","0.0-0.0","ljswwjm989","many_one","0","indirect_first","0","ss09us15","0","24","1","1","3","1","","0","1","0","","","","","","","","","","","","","","",""
"","external-html","1","57146","0.0-1.0","ljswwjm989","many_one","0","indirect_first","0","ss09us15","0","24","1","1","3","1","","0","1","0","51004","text/information.html","","","","","","","","","","","","",""
"","external-html","2","64427","0.0-2.0","ljswwjm989","many_one","0","indirect_first","0","ss09us15","0","24","1","1","3","1","","0","1","0","7080","text/consent.html","","","","","","","","","","","","",""
"","survey-html-form","3","162471","0.0-3.0","ljswwjm989","many_one","0","indirect_first","0","ss09us15","0","24","1","1","3","1","","0","1","0","98037","","{""codeword_enter"":""ss09us15""}","","","","","","","","","","","",""
"","survey-html-form","4","182654","0.0-4.0","ljswwjm989","many_one","0","indirect_first","0","ss09us15","0","24","1","1","3","1","","0","1","0","20175","","{""age"":""24"",""education"":""1"",""subject"":""3"",""gender"":""0"",""handedness"":""1"",""chinese"":""1""}","","","","","","","","","","","",""
"","survey-html-form","5","201808","0.0-5.0","ljswwjm989","many_one","0","indirect_first","0","ss09us15","0","24","1","1","3","1","","0","1","0","19150","","{}","","","","","","","","","","","",""
"","html-keyboard-response","6","205842","0.0-6.0-0.0-0.0","ljswwjm989","many_one","0","indirect_first","0","ss09us15","0","24","1","1","3","1","","0","1","0","null","","","<div class = 'row'><div class = 'column'><img src = 'uspos/5629.bmp' width = '100%;'></div><div class = 'column'><img src = 'category3/CS8.png' width = '70%;'></div></div>","null","pos","CS","CS","3","category3/CS8.png","","","","",""
"","html-keyboard-response","7","208373","0.0-6.0-0.0-0.1","ljswwjm989","many_one","0","indirect_first","0","ss09us15","0","24","1","1","3","1","","0","1","0","null","","","<div class = 'row'><div class = 'column'><img src = 'category2/CS4.png' width = '70%;'></div><div class = 'column'><img src = 'usneg/9342.bmp' width = '100%;'></div></div>","null","neg","CS","CS","2","category2/CS4.png","","","","",""
"","html-keyboard-response","8","210903","0.0-6.0-0.0-0.2","ljswwjm989","many_one","0","indirect_first","0","ss09us15","0","24","1","1","3","1","","0","1","0","null","","","<div class = 'row'><div class = 'column'><img src = 'usneg/9560.bmp' width = '100%;'></div><div class = 'column'><img src = 'category1/CS9.png' width = '70%;'></div></div>","null","neg","CS","CS","1","category1/CS9.png","","","","",""
"","html-keyboard-response","9","213433","0.0-6.0-0.0-0.3","ljswwjm989","many_one","0","indirect_first","0","ss09us15","0","24","1","1","3","1","","0","1","0","null","","","<div class = 'row'><div class = 'column'><img src = 'usneg/9920.bmp' width = '100%;'></div><div class = 'column'><img src = 'category1/CS1.png' width = '70%;'></div></div>","null","neg","CS","CS","1","category1/CS1.png","","","","",""
"","html-keyboard-response","10","215972","0.0-6.0-0.0-0.4","ljswwjm989","many_one","0","indirect_first","0","ss09us15","0","24","1","1","3","1","","0","1","0","null","","","<div class = 'row'><div class = 'column'><img src = 'uspos/7580.bmp' width = '100%;'></div><div class = 'column'><img src = 'category3/CS9.png' width = '70%;'></div></div>","null","pos","CS","CS","3","category3/CS9.png","","","","",""
"","html-keyboard-response","11","218512","0.0-6.0-0.0-0.5","ljswwjm989","many_one","0","indirect_first","0","ss09us15","0","24","1","1","3","1","","0","1","0","null","","","<div class = 'row'><div class = 'column'><img src = 'usneg/2750.bmp' width = '100%;'></div><div class = 'column'><img src = 'category1/CS2.png' width = '70%;'></div></div>","null","neg","CS","CS","1","category1/CS2.png","","","","",""
"","html-keyboard-response","12","221031","0.0-6.0-0.0-0.6","ljswwjm989","many_one","0","indirect_first","0","ss09us15","0","24","1","1","3","1","","0","1","0","null","","","<div class = 'row'><div class = 'column'><img src = 'category3/CS3.png' width = '70%;'></div><div class = 'column'><img src = 'uspos/8350.bmp' width = '100%;'></div></div>","null","pos","CS","CS","3","category3/CS3.png","","","","",""
"","html-keyboard-response","13","223572","0.0-6.0-0.0-0.7","ljswwjm989","many_one","0","indirect_first","0","ss09us15","0","24","1","1","3","1","","0","1","0","null","","","<div class = 'row'><div class = 'column'><img src = 'usneg/6838.bmp' width = '100%;'></div><div class = 'column'><img src = 'category2/CS9.png' width = '70%;'></div></div>","null","neg","CS","CS","2","category2/CS9.png","","","","",""
"","html-keyboard-response","14","226103","0.0-6.0-0.0-0.8","ljswwjm989","many_one","0","indirect_first","0","ss09us15","0","24","1","1","3","1","","0","1","0","null","","","<div class = 'row'><div class = 'column'><img src = 'uspos/2160.bmp' width = '100%;'></div><div class = 'column'><img src = 'category3/CS4.png' width = '70%;'></div></div>","null","pos","CS","CS","3","category3/CS4.png","","","","",""
"","html-keyboard-response","15","228643","0.0-6.0-0.0-0.9","ljswwjm989","many_one","0","indirect_first","0","ss09us15","0","24","1","1","3","1","","0","1","0","null","","","<div class = 'row'><div class = 'column'><img src = 'category4/CS8.png' width = '70%;'></div><div class = 'column'><img src = 'uspos/2340.bmp' width = '100%;'></div></div>","null","pos","CS","CS","4","category4/CS8.png","","","","",""
"","html-keyboard-response","16","231181","0.0-6.0-0.0-0.10","ljswwjm989","many_one","0","indirect_first","0","ss09us15","0","24","1","1","3","1","","0","1","0","null","","","<div class = 'row'><div class = 'column'><img src = 'category2/CS6.png' width = '70%;'></div><div class = 'column'><img src = 'usneg/9181.bmp' width = '100%;'></div></div>","null","neg","CS","CS","2","category2/CS6.png","","","","",""
"","html-keyboard-response","17","233712","0.0-6.0-0.0-0.11","ljswwjm989","many_one","0","indirect_first","0","ss09us15","0","24","1","1","3","1","","0","1","0","null","","","<div class = 'row'><div class = 'column'><img src = 'category1/CS5.png' width = '70%;'></div><div class = 'column'><img src = 'usneg/9220.bmp' width = '100%;'></div></div>","null","neg","CS","CS","1","category1/CS5.png","","","","",""
"","html-keyboard-response","18","236244","0.0-6.0-0.0-0.12","ljswwjm989","many_one","0","indirect_first","0","ss09us15","0","24","1","1","3","1","","0","1","0","null","","","<div class = 'row'><div class = 'column'><img src = 'uspos/2550.bmp' width = '100%;'></div><div class = 'column'><img src = 'category4/CS2.png' width = '70%;'></div></div>","null","pos","CS","CS","4","category4/CS2.png","","","","",""
"","html-keyboard-response","19","238781","0.0-6.0-0.0-0.13","ljswwjm989","many_one","0","indirect_first","0","ss09us15","0","24","1","1","3","1","","0","1","0","null","","","<div class = 'row'><div class = 'column'><img src = 'category4/CS10.png' width = '70%;'></div><div class = 'column'><img src = 'uspos/2360.bmp' width = '100%;'></div></div>","null","pos","CS","CS","4","category4/CS10.png","","","","",""
"","html-keyboard-response","20","241322","0.0-6.0-0.0-0.14","ljswwjm989","many_one","0","indirect_first","0","ss09us15","0","24","1","1","3","1","","0","1","0","null","","","<div class = 'row'><div class = 'column'><img src = 'category4/CS1.png' width = '70%;'></div><div class = 'column'><img src = 'uspos/8540.bmp' width = '100%;'></div></div>","null","pos","CS","CS","4","category4/CS1.png","","","","",""
"","html-keyboard-response","21","243862","0.0-6.0-0.0-0.15","ljswwjm989","many_one","0","indirect_first","0","ss09us15","0","24","1","1","3","1","","0","1","0","null","","","<div class = 'row'><div class = 'column'><img src = 'usneg/9340.bmp' width = '100%;'></div><div class = 'column'><img src = 'category2/CS10.png' width = '70%;'></div></div>","null","neg","CS","CS","2","category2/CS10.png","","","","",""
"","html-keyboard-response","22","246402","0.0-6.0-0.0-0.16","ljswwjm989","many_one","0","indirect_first","0","ss09us15","0","24","1","1","3","1","","0","1","0","null","","","<div class = 'row'><div class = 'column'><img src = 'uspos/4625.bmp' width = '100%;'></div><div class = 'column'><img src = 'category3/CS10.png' width = '70%;'></div></div>","null","pos","CS","CS","3","category3/CS10.png","","","","",""
"","html-keyboard-response","23","248936","0.0-6.0-0.0-0.17","ljswwjm989","many_one","0","indirect_first","0","ss09us15","0","24","1","1","3","1","","0","1","0","null","","","<div class = 'row'><div class = 'column'><img src = 'category4/CS9.png' width = '70%;'></div><div class = 'column'><img src = 'uspos/2165.bmp' width = '100%;'></div></div>","null","pos","CS","CS","4","category4/CS9.png","","","","",""
"","html-keyboard-response","24","251461","0.0-6.0-0.0-0.18","ljswwjm989","many_one","0","indirect_first","0","ss09us15","0","24","1","1","3","1","","0","1","0","null","","","<div class = 'row'><div class = 'column'><img src = 'category2/CS8.png' width = '70%;'></div><div class = 'column'><img src = 'usneg/9280.bmp' width = '100%;'></div></div>","null","neg","CS","CS","2","category2/CS8.png","","","","",""
"","html-keyboard-response","25","253992","0.0-6.0-0.0-0.19","ljswwjm989","many_one","0","indirect_first","0","ss09us15","0","24","1","1","3","1","","0","1","0","null","","","<div class = 'row'><div class = 'column'><img src = 'category1/CS6.png' width = '70%;'></div><div class = 'column'><img src = 'usneg/9561.bmp' width = '100%;'></div></div>","null","neg","CS","CS","1","category1/CS6.png","","","","",""
"","survey-html-form","26","260580","0.0-6.0-1.0","ljswwjm989","many_one","0","indirect_first","0","ss09us15","0","24","1","1","3","1","","0","1","0","6078","","{}","","","","","","","","","","","",""
"","html-keyboard-response","27","264603","0.0-6.0-2.0-0.0","ljswwjm989","many_one","0","indirect_first","0","ss09us15","0","24","1","1","3","1","","0","1","0","null","","","<div class = 'row'><div class = 'column'><img src = 'usneg/9280.bmp' width = '100%;'></div><div class = 'column'><img src = 'category2/CS8.png' width = '70%;'></div></div>","null","neg","CS","CS","2","category2/CS8.png","","","","",""
"","html-keyboard-response","28","267141","0.0-6.0-2.0-0.1","ljswwjm989","many_one","0","indirect_first","0","ss09us15","0","24","1","1","3","1","","0","1","0","null","","","<div class = 'row'><div class = 'column'><img src = 'category2/CS9.png' width = '70%;'></div><div class = 'column'><img src = 'usneg/6838.bmp' width = '100%;'></div></div>","null","neg","CS","CS","2","category2/CS9.png","","","","",""
"","html-keyboard-response","29","269682","0.0-6.0-2.0-0.2","ljswwjm989","many_one","0","indirect_first","0","ss09us15","0","24","1","1","3","1","","0","1","0","null","","","<div class = 'row'><div class = 'column'><img src = 'usneg/9340.bmp' width = '100%;'></div><div class = 'column'><img src = 'category2/CS10.png' width = '70%;'></div></div>","null","neg","CS","CS","2","category2/CS10.png","","","","",""
"","html-keyboard-response","30","272213","0.0-6.0-2.0-0.3","ljswwjm989","many_one","0","indirect_first","0","ss09us15","0","24","1","1","3","1","","0","1","0","null","","","<div class = 'row'><div class = 'column'><img src = 'uspos/2340.bmp' width = '100%;'></div><div class = 'column'><img src = 'category4/CS8.png' width = '70%;'></div></div>","null","pos","CS","CS","4","category4/CS8.png","","","","",""
"","html-keyboard-response","31","274751","0.0-6.0-2.0-0.4","ljswwjm989","many_one","0","indirect_first","0","ss09us15","0","24","1","1","3","1","","0","1","0","null","","","<div class = 'row'><div class = 'column'><img src = 'uspos/2165.bmp' width = '100%;'></div><div class = 'column'><img src = 'category4/CS9.png' width = '70%;'></div></div>","null","pos","CS","CS","4","category4/CS9.png","","","","",""
"","html-keyboard-response","32","277293","0.0-6.0-2.0-0.5","ljswwjm989","many_one","0","indirect_first","0","ss09us15","0","24","1","1","3","1","","0","1","0","null","","","<div class = 'row'><div class = 'column'><img src = 'category1/CS6.png' width = '70%;'></div><div class = 'column'><img src = 'usneg/9561.bmp' width = '100%;'></div></div>","null","neg","CS","CS","1","category1/CS6.png","","","","",""
"","html-keyboard-response","33","279823","0.0-6.0-2.0-0.6","ljswwjm989","many_one","0","indirect_first","0","ss09us15","0","24","1","1","3","1","","0","1","0","null","","","<div class = 'row'><div class = 'column'><img src = 'category1/CS5.png' width = '70%;'></div><div class = 'column'><img src = 'usneg/9220.bmp' width = '100%;'></div></div>","null","neg","CS","CS","1","category1/CS5.png","","","","",""
"","html-keyboard-response","34","282361","0.0-6.0-2.0-0.7","ljswwjm989","many_one","0","indirect_first","0","ss09us15","0","24","1","1","3","1","","0","1","0","null","","","<div class = 'row'><div class = 'column'><img src = 'category3/CS8.png' width = '70%;'></div><div class = 'column'><img src = 'uspos/5629.bmp' width = '100%;'></div></div>","null","pos","CS","CS","3","category3/CS8.png","","","","",""
"","html-keyboard-response","35","284901","0.0-6.0-2.0-0.8","ljswwjm989","many_one","0","indirect_first","0","ss09us15","0","24","1","1","3","1","","0","1","0","null","","","<div class = 'row'><div class = 'column'><img src = 'usneg/2750.bmp' width = '100%;'></div><div class = 'column'><img src = 'category1/CS2.png' width = '70%;'></div></div>","null","neg","CS","CS","1","category1/CS2.png","","","","",""
"","html-keyboard-response","36","287454","0.0-6.0-2.0-0.9","ljswwjm989","many_one","0","indirect_first","0","ss09us15","0","24","1","1","3","1","","0","1","0","null","","","<div class = 'row'><div class = 'column'><img src = 'uspos/8540.bmp' width = '100%;'></div><div class = 'column'><img src = 'category4/CS1.png' width = '70%;'></div></div>","null","pos","CS","CS","4","category4/CS1.png","","","","",""
"","html-keyboard-response","37","289982","0.0-6.0-2.0-0.10","ljswwjm989","many_one","0","indirect_first","0","ss09us15","0","24","1","1","3","1","","0","1","0","null","","","<div class = 'row'><div class = 'column'><img src = 'uspos/2360.bmp' width = '100%;'></div><div class = 'column'><img src = 'category4/CS10.png' width = '70%;'></div></div>","null","pos","CS","CS","4","category4/CS10.png","","","","",""
"","html-keyboard-response","38","292521","0.0-6.0-2.0-0.11","ljswwjm989","many_one","0","indirect_first","0","ss09us15","0","24","1","1","3","1","","0","1","0","null","","","<div class = 'row'><div class = 'column'><img src = 'category1/CS9.png' width = '70%;'></div><div class = 'column'><img src = 'usneg/9560.bmp' width = '100%;'></div></div>","null","neg","CS","CS","1","category1/CS9.png","","","","",""
"","html-keyboard-response","39","295062","0.0-6.0-2.0-0.12","ljswwjm989","many_one","0","indirect_first","0","ss09us15","0","24","1","1","3","1","","0","1","0","null","","","<div class = 'row'><div class = 'column'><img src = 'usneg/9342.bmp' width = '100%;'></div><div class = 'column'><img src = 'category2/CS4.png' width = '70%;'></div></div>","null","neg","CS","CS","2","category2/CS4.png","","","","",""
"","html-keyboard-response","40","297602","0.0-6.0-2.0-0.13","ljswwjm989","many_one","0","indirect_first","0","ss09us15","0","24","1","1","3","1","","0","1","0","null","","","<div class = 'row'><div class = 'column'><img src = 'category3/CS9.png' width = '70%;'></div><div class = 'column'><img src = 'uspos/7580.bmp' width = '100%;'></div></div>","null","pos","CS","CS","3","category3/CS9.png","","","","",""
"","html-keyboard-response","41","300142","0.0-6.0-2.0-0.14","ljswwjm989","many_one","0","indirect_first","0","ss09us15","0","24","1","1","3","1","","0","1","0","null","","","<div class = 'row'><div class = 'column'><img src = 'usneg/9181.bmp' width = '100%;'></div><div class = 'column'><img src = 'category2/CS6.png' width = '70%;'></div></div>","null","neg","CS","CS","2","category2/CS6.png","","","","",""
"","html-keyboard-response","42","302683","0.0-6.0-2.0-0.15","ljswwjm989","many_one","0","indirect_first","0","ss09us15","0","24","1","1","3","1","","0","1","0","null","","","<div class = 'row'><div class = 'column'><img src = 'uspos/8350.bmp' width = '100%;'></div><div class = 'column'><img src = 'category3/CS3.png' width = '70%;'></div></div>","null","pos","CS","CS","3","category3/CS3.png","","","","",""
"","html-keyboard-response","43","305219","0.0-6.0-2.0-0.16","ljswwjm989","many_one","0","indirect_first","0","ss09us15","0","24","1","1","3","1","","0","1","0","null","","","<div class = 'row'><div class = 'column'><img src = 'category3/CS4.png' width = '70%;'></div><div class = 'column'><img src = 'uspos/2160.bmp' width = '100%;'></div></div>","null","pos","CS","CS","3","category3/CS4.png","","","","",""
"","html-keyboard-response","44","307761","0.0-6.0-2.0-0.17","ljswwjm989","many_one","0","indirect_first","0","ss09us15","0","24","1","1","3","1","","0","1","0","null","","","<div class = 'row'><div class = 'column'><img src = 'category4/CS2.png' width = '70%;'></div><div class = 'column'><img src = 'uspos/2550.bmp' width = '100%;'></div></div>","null","pos","CS","CS","4","category4/CS2.png","","","","",""
"","html-keyboard-response","45","310292","0.0-6.0-2.0-0.18","ljswwjm989","many_one","0","indirect_first","0","ss09us15","0","24","1","1","3","1","","0","1","0","null","","","<div class = 'row'><div class = 'column'><img src = 'uspos/4625.bmp' width = '100%;'></div><div class = 'column'><img src = 'category3/CS10.png' width = '70%;'></div></div>","null","pos","CS","CS","3","category3/CS10.png","","","","",""
"","html-keyboard-response","46","312829","0.0-6.0-2.0-0.19","ljswwjm989","many_one","0","indirect_first","0","ss09us15","0","24","1","1","3","1","","0","1","0","null","","","<div class = 'row'><div class = 'column'><img src = 'usneg/9920.bmp' width = '100%;'></div><div class = 'column'><img src = 'category1/CS1.png' width = '70%;'></div></div>","null","neg","CS","CS","1","category1/CS1.png","","","","",""
"","survey-html-form","47","315220","0.0-6.0-3.0","ljswwjm989","many_one","0","indirect_first","0","ss09us15","0","24","1","1","3","1","","0","1","0","1873","","{}","","","","","","","","","","","",""
"","html-keyboard-response","48","319239","0.0-6.0-4.0-0.0","ljswwjm989","many_one","0","indirect_first","0","ss09us15","0","24","1","1","3","1","","0","1","0","null","","","<div class = 'row'><div class = 'column'><img src = 'category2/CS6.png' width = '70%;'></div><div class = 'column'><img src = 'usneg/9181.bmp' width = '100%;'></div></div>","null","neg","CS","CS","2","category2/CS6.png","","","","",""
"","html-keyboard-response","49","321772","0.0-6.0-4.0-0.1","ljswwjm989","many_one","0","indirect_first","0","ss09us15","0","24","1","1","3","1","","0","1","0","null","","","<div class = 'row'><div class = 'column'><img src = 'category4/CS2.png' width = '70%;'></div><div class = 'column'><img src = 'uspos/2550.bmp' width = '100%;'></div></div>","null","pos","CS","CS","4","category4/CS2.png","","","","",""
"","html-keyboard-response","50","324311","0.0-6.0-4.0-0.2","ljswwjm989","many_one","0","indirect_first","0","ss09us15","0","24","1","1","3","1","","0","1","0","null","","","<div class = 'row'><div class = 'column'><img src = 'category3/CS10.png' width = '70%;'></div><div class = 'column'><img src = 'uspos/4625.bmp' width = '100%;'></div></div>","null","pos","CS","CS","3","category3/CS10.png","","","","",""
"","html-keyboard-response","51","326846","0.0-6.0-4.0-0.3","ljswwjm989","many_one","0","indirect_first","0","ss09us15","0","24","1","1","3","1","","0","1","0","null","","","<div class = 'row'><div class = 'column'><img src = 'category3/CS4.png' width = '70%;'></div><div class = 'column'><img src = 'uspos/2160.bmp' width = '100%;'></div></div>","null","pos","CS","CS","3","category3/CS4.png","","","","",""
"","html-keyboard-response","52","329361","0.0-6.0-4.0-0.4","ljswwjm989","many_one","0","indirect_first","0","ss09us15","0","24","1","1","3","1","","0","1","0","null","","","<div class = 'row'><div class = 'column'><img src = 'usneg/9340.bmp' width = '100%;'></div><div class = 'column'><img src = 'category2/CS10.png' width = '70%;'></div></div>","null","neg","CS","CS","2","category2/CS10.png","","","","",""
"","html-keyboard-response","53","331891","0.0-6.0-4.0-0.5","ljswwjm989","many_one","0","indirect_first","0","ss09us15","0","24","1","1","3","1","","0","1","0","null","","","<div class = 'row'><div class = 'column'><img src = 'uspos/2360.bmp' width = '100%;'></div><div class = 'column'><img src = 'category4/CS10.png' width = '70%;'></div></div>","null","pos","CS","CS","4","category4/CS10.png","","","","",""
"","html-keyboard-response","54","334433","0.0-6.0-4.0-0.6","ljswwjm989","many_one","0","indirect_first","0","ss09us15","0","24","1","1","3","1","","0","1","0","null","","","<div class = 'row'><div class = 'column'><img src = 'category2/CS9.png' width = '70%;'></div><div class = 'column'><img src = 'usneg/6838.bmp' width = '100%;'></div></div>","null","neg","CS","CS","2","category2/CS9.png","","","","",""
"","html-keyboard-response","55","336962","0.0-6.0-4.0-0.7","ljswwjm989","many_one","0","indirect_first","0","ss09us15","0","24","1","1","3","1","","0","1","0","null","","","<div class = 'row'><div class = 'column'><img src = 'uspos/7580.bmp' width = '100%;'></div><div class = 'column'><img src = 'category3/CS9.png' width = '70%;'></div></div>","null","pos","CS","CS","3","category3/CS9.png","","","","",""
"","html-keyboard-response","56","339501","0.0-6.0-4.0-0.8","ljswwjm989","many_one","0","indirect_first","0","ss09us15","0","24","1","1","3","1","","0","1","0","null","","","<div class = 'row'><div class = 'column'><img src = 'category1/CS2.png' width = '70%;'></div><div class = 'column'><img src = 'usneg/2750.bmp' width = '100%;'></div></div>","null","neg","CS","CS","1","category1/CS2.png","","","","",""
"","html-keyboard-response","57","342042","0.0-6.0-4.0-0.9","ljswwjm989","many_one","0","indirect_first","0","ss09us15","0","24","1","1","3","1","","0","1","0","null","","","<div class = 'row'><div class = 'column'><img src = 'uspos/2340.bmp' width = '100%;'></div><div class = 'column'><img src = 'category4/CS8.png' width = '70%;'></div></div>","null","pos","CS","CS","4","category4/CS8.png","","","","",""
"","html-keyboard-response","58","344581","0.0-6.0-4.0-0.10","ljswwjm989","many_one","0","indirect_first","0","ss09us15","0","24","1","1","3","1","","0","1","0","null","","","<div class = 'row'><div class = 'column'><img src = 'usneg/9220.bmp' width = '100%;'></div><div class = 'column'><img src = 'category1/CS5.png' width = '70%;'></div></div>","null","neg","CS","CS","1","category1/CS5.png","","","","",""
"","html-keyboard-response","59","347121","0.0-6.0-4.0-0.11","ljswwjm989","many_one","0","indirect_first","0","ss09us15","0","24","1","1","3","1","","0","1","0","null","","","<div class = 'row'><div class = 'column'><img src = 'category2/CS4.png' width = '70%;'></div><div class = 'column'><img src = 'usneg/9342.bmp' width = '100%;'></div></div>","null","neg","CS","CS","2","category2/CS4.png","","","","",""
"","html-keyboard-response","60","349661","0.0-6.0-4.0-0.12","ljswwjm989","many_one","0","indirect_first","0","ss09us15","0","24","1","1","3","1","","0","1","0","null","","","<div class = 'row'><div class = 'column'><img src = 'usneg/9561.bmp' width = '100%;'></div><div class = 'column'><img src = 'category1/CS6.png' width = '70%;'></div></div>","null","neg","CS","CS","1","category1/CS6.png","","","","",""
"","html-keyboard-response","61","352182","0.0-6.0-4.0-0.13","ljswwjm989","many_one","0","indirect_first","0","ss09us15","0","24","1","1","3","1","","0","1","0","null","","","<div class = 'row'><div class = 'column'><img src = 'uspos/8350.bmp' width = '100%;'></div><div class = 'column'><img src = 'category3/CS3.png' width = '70%;'></div></div>","null","pos","CS","CS","3","category3/CS3.png","","","","",""
"","html-keyboard-response","62","354721","0.0-6.0-4.0-0.14","ljswwjm989","many_one","0","indirect_first","0","ss09us15","0","24","1","1","3","1","","0","1","0","null","","","<div class = 'row'><div class = 'column'><img src = 'category1/CS9.png' width = '70%;'></div><div class = 'column'><img src = 'usneg/9560.bmp' width = '100%;'></div></div>","null","neg","CS","CS","1","category1/CS9.png","","","","",""
"","html-keyboard-response","63","357262","0.0-6.0-4.0-0.15","ljswwjm989","many_one","0","indirect_first","0","ss09us15","0","24","1","1","3","1","","0","1","0","null","","","<div class = 'row'><div class = 'column'><img src = 'uspos/8540.bmp' width = '100%;'></div><div class = 'column'><img src = 'category4/CS1.png' width = '70%;'></div></div>","null","pos","CS","CS","4","category4/CS1.png","","","","",""
"","html-keyboard-response","64","359801","0.0-6.0-4.0-0.16","ljswwjm989","many_one","0","indirect_first","0","ss09us15","0","24","1","1","3","1","","0","1","0","null","","","<div class = 'row'><div class = 'column'><img src = 'category4/CS9.png' width = '70%;'></div><div class = 'column'><img src = 'uspos/2165.bmp' width = '100%;'></div></div>","null","pos","CS","CS","4","category4/CS9.png","","","","",""
"","html-keyboard-response","65","362341","0.0-6.0-4.0-0.17","ljswwjm989","many_one","0","indirect_first","0","ss09us15","0","24","1","1","3","1","","0","1","0","null","","","<div class = 'row'><div class = 'column'><img src = 'category3/CS8.png' width = '70%;'></div><div class = 'column'><img src = 'uspos/5629.bmp' width = '100%;'></div></div>","null","pos","CS","CS","3","category3/CS8.png","","","","",""
"","html-keyboard-response","66","364881","0.0-6.0-4.0-0.18","ljswwjm989","many_one","0","indirect_first","0","ss09us15","0","24","1","1","3","1","","0","1","0","null","","","<div class = 'row'><div class = 'column'><img src = 'category1/CS1.png' width = '70%;'></div><div class = 'column'><img src = 'usneg/9920.bmp' width = '100%;'></div></div>","null","neg","CS","CS","1","category1/CS1.png","","","","",""
"","html-keyboard-response","67","367421","0.0-6.0-4.0-0.19","ljswwjm989","many_one","0","indirect_first","0","ss09us15","0","24","1","1","3","1","","0","1","0","null","","","<div class = 'row'><div class = 'column'><img src = 'usneg/9280.bmp' width = '100%;'></div><div class = 'column'><img src = 'category2/CS8.png' width = '70%;'></div></div>","null","neg","CS","CS","2","category2/CS8.png","","","","",""
"","survey-html-form","68","370668","0.0-6.0-5.0","ljswwjm989","many_one","0","indirect_first","0","ss09us15","0","24","1","1","3","1","","0","1","0","2728","","{}","","","","","","","","","","","",""
"","html-keyboard-response","69","374692","0.0-6.0-6.0-0.0","ljswwjm989","many_one","0","indirect_first","0","ss09us15","0","24","1","1","3","1","","0","1","0","null","","","<div class = 'row'><div class = 'column'><img src = 'category1/CS5.png' width = '70%;'></div><div class = 'column'><img src = 'usneg/9220.bmp' width = '100%;'></div></div>","null","neg","CS","CS","1","category1/CS5.png","","","","",""
"","html-keyboard-response","70","377211","0.0-6.0-6.0-0.1","ljswwjm989","many_one","0","indirect_first","0","ss09us15","0","24","1","1","3","1","","0","1","0","null","","","<div class = 'row'><div class = 'column'><img src = 'uspos/7580.bmp' width = '100%;'></div><div class = 'column'><img src = 'category3/CS9.png' width = '70%;'></div></div>","null","pos","CS","CS","3","category3/CS9.png","","","","",""
"","html-keyboard-response","71","379741","0.0-6.0-6.0-0.2","ljswwjm989","many_one","0","indirect_first","0","ss09us15","0","24","1","1","3","1","","0","1","0","null","","","<div class = 'row'><div class = 'column'><img src = 'category4/CS10.png' width = '70%;'></div><div class = 'column'><img src = 'uspos/2360.bmp' width = '100%;'></div></div>","null","pos","CS","CS","4","category4/CS10.png","","","","",""
"","html-keyboard-response","72","382262","0.0-6.0-6.0-0.3","ljswwjm989","many_one","0","indirect_first","0","ss09us15","0","24","1","1","3","1","","0","1","0","null","","","<div class = 'row'><div class = 'column'><img src = 'usneg/9340.bmp' width = '100%;'></div><div class = 'column'><img src = 'category2/CS10.png' width = '70%;'></div></div>","null","neg","CS","CS","2","category2/CS10.png","","","","",""
"","html-keyboard-response","73","384801","0.0-6.0-6.0-0.4","ljswwjm989","many_one","0","indirect_first","0","ss09us15","0","24","1","1","3","1","","0","1","0","null","","","<div class = 'row'><div class = 'column'><img src = 'uspos/2550.bmp' width = '100%;'></div><div class = 'column'><img src = 'category4/CS2.png' width = '70%;'></div></div>","null","pos","CS","CS","4","category4/CS2.png","","","","",""
"","html-keyboard-response","74","387341","0.0-6.0-6.0-0.5","ljswwjm989","many_one","0","indirect_first","0","ss09us15","0","24","1","1","3","1","","0","1","0","null","","","<div class = 'row'><div class = 'column'><img src = 'category2/CS6.png' width = '70%;'></div><div class = 'column'><img src = 'usneg/9181.bmp' width = '100%;'></div></div>","null","neg","CS","CS","2","category2/CS6.png","","","","",""
"","html-keyboard-response","75","389871","0.0-6.0-6.0-0.6","ljswwjm989","many_one","0","indirect_first","0","ss09us15","0","24","1","1","3","1","","0","1","0","null","","","<div class = 'row'><div class = 'column'><img src = 'usneg/6838.bmp' width = '100%;'></div><div class = 'column'><img src = 'category2/CS9.png' width = '70%;'></div></div>","null","neg","CS","CS","2","category2/CS9.png","","","","",""
"","html-keyboard-response","76","392391","0.0-6.0-6.0-0.7","ljswwjm989","many_one","0","indirect_first","0","ss09us15","0","24","1","1","3","1","","0","1","0","null","","","<div class = 'row'><div class = 'column'><img src = 'category3/CS8.png' width = '70%;'></div><div class = 'column'><img src = 'uspos/5629.bmp' width = '100%;'></div></div>","null","pos","CS","CS","3","category3/CS8.png","","","","",""
"","html-keyboard-response","77","394921","0.0-6.0-6.0-0.8","ljswwjm989","many_one","0","indirect_first","0","ss09us15","0","24","1","1","3","1","","0","1","0","null","","","<div class = 'row'><div class = 'column'><img src = 'uspos/8350.bmp' width = '100%;'></div><div class = 'column'><img src = 'category3/CS3.png' width = '70%;'></div></div>","null","pos","CS","CS","3","category3/CS3.png","","","","",""
"","html-keyboard-response","78","397452","0.0-6.0-6.0-0.9","ljswwjm989","many_one","0","indirect_first","0","ss09us15","0","24","1","1","3","1","","0","1","0","null","","","<div class = 'row'><div class = 'column'><img src = 'category3/CS10.png' width = '70%;'></div><div class = 'column'><img src = 'uspos/4625.bmp' width = '100%;'></div></div>","null","pos","CS","CS","3","category3/CS10.png","","","","",""
"","html-keyboard-response","79","399991","0.0-6.0-6.0-0.10","ljswwjm989","many_one","0","indirect_first","0","ss09us15","0","24","1","1","3","1","","0","1","0","null","","","<div class = 'row'><div class = 'column'><img src = 'usneg/2750.bmp' width = '100%;'></div><div class = 'column'><img src = 'category1/CS2.png' width = '70%;'></div></div>","null","neg","CS","CS","1","category1/CS2.png","","","","",""
"","html-keyboard-response","80","402521","0.0-6.0-6.0-0.11","ljswwjm989","many_one","0","indirect_first","0","ss09us15","0","24","1","1","3","1","","0","1","0","null","","","<div class = 'row'><div class = 'column'><img src = 'usneg/9561.bmp' width = '100%;'></div><div class = 'column'><img src = 'category1/CS6.png' width = '70%;'></div></div>","null","neg","CS","CS","1","category1/CS6.png","","","","",""
"","html-keyboard-response","81","405061","0.0-6.0-6.0-0.12","ljswwjm989","many_one","0","indirect_first","0","ss09us15","0","24","1","1","3","1","","0","1","0","null","","","<div class = 'row'><div class = 'column'><img src = 'category2/CS4.png' width = '70%;'></div><div class = 'column'><img src = 'usneg/9342.bmp' width = '100%;'></div></div>","null","neg","CS","CS","2","category2/CS4.png","","","","",""
"","html-keyboard-response","82","407602","0.0-6.0-6.0-0.13","ljswwjm989","many_one","0","indirect_first","0","ss09us15","0","24","1","1","3","1","","0","1","0","null","","","<div class = 'row'><div class = 'column'><img src = 'category4/CS9.png' width = '70%;'></div><div class = 'column'><img src = 'uspos/2165.bmp' width = '100%;'></div></div>","null","pos","CS","CS","4","category4/CS9.png","","","","",""
"","html-keyboard-response","83","410142","0.0-6.0-6.0-0.14","ljswwjm989","many_one","0","indirect_first","0","ss09us15","0","24","1","1","3","1","","0","1","0","null","","","<div class = 'row'><div class = 'column'><img src = 'usneg/9920.bmp' width = '100%;'></div><div class = 'column'><img src = 'category1/CS1.png' width = '70%;'></div></div>","null","neg","CS","CS","1","category1/CS1.png","","","","",""
"","html-keyboard-response","84","412682","0.0-6.0-6.0-0.15","ljswwjm989","many_one","0","indirect_first","0","ss09us15","0","24","1","1","3","1","","0","1","0","null","","","<div class = 'row'><div class = 'column'><img src = 'category1/CS9.png' width = '70%;'></div><div class = 'column'><img src = 'usneg/9560.bmp' width = '100%;'></div></div>","null","neg","CS","CS","1","category1/CS9.png","","","","",""
"","html-keyboard-response","85","415202","0.0-6.0-6.0-0.16","ljswwjm989","many_one","0","indirect_first","0","ss09us15","0","24","1","1","3","1","","0","1","0","null","","","<div class = 'row'><div class = 'column'><img src = 'category3/CS4.png' width = '70%;'></div><div class = 'column'><img src = 'uspos/2160.bmp' width = '100%;'></div></div>","null","pos","CS","CS","3","category3/CS4.png","","","","",""
"","html-keyboard-response","86","417741","0.0-6.0-6.0-0.17","ljswwjm989","many_one","0","indirect_first","0","ss09us15","0","24","1","1","3","1","","0","1","0","null","","","<div class = 'row'><div class = 'column'><img src = 'usneg/9280.bmp' width = '100%;'></div><div class = 'column'><img src = 'category2/CS8.png' width = '70%;'></div></div>","null","neg","CS","CS","2","category2/CS8.png","","","","",""
"","html-keyboard-response","87","420262","0.0-6.0-6.0-0.18","ljswwjm989","many_one","0","indirect_first","0","ss09us15","0","24","1","1","3","1","","0","1","0","null","","","<div class = 'row'><div class = 'column'><img src = 'category4/CS8.png' width = '70%;'></div><div class = 'column'><img src = 'uspos/2340.bmp' width = '100%;'></div></div>","null","pos","CS","CS","4","category4/CS8.png","","","","",""
"","html-keyboard-response","88","422792","0.0-6.0-6.0-0.19","ljswwjm989","many_one","0","indirect_first","0","ss09us15","0","24","1","1","3","1","","0","1","0","null","","","<div class = 'row'><div class = 'column'><img src = 'uspos/8540.bmp' width = '100%;'></div><div class = 'column'><img src = 'category4/CS1.png' width = '70%;'></div></div>","null","pos","CS","CS","4","category4/CS1.png","","","","",""
"","html-keyboard-response","89","457250","0.0-7.0","ljswwjm989","many_one","0","indirect_first","0","ss09us15","0","24","1","1","3","1","","0","1","0","33947","","","<p>Sie sehen nun die chinesischen Zeichen nur ganz kurz. Danach sehen Sie die jeweilige Aussprache der Zeichen als Silbe auf dem Bildschrim. Ihre Aufgabe ist es, für jede Silbe anzugeben, ob diese etwas angenehmes, oder unangenehmes bedeuten könnte. Verlassen Sie sich hier vor allem auf Ihre Intuition.<br><br>Die Zeichen werden nur zur Orientierung dargestellt, beachten Sie sie deshalb nicht. Konzentrieren Sie sich vor allem auf die Silben. <br>Reagieren Sie mit folgenden zwei Tasten: <br><br><b>'D' </b> wenn die Silbe etwas <b>unangenehmes</b> bedeuten könnte. <br><b>'K'</b> wenn die Silbe etwas <b>angenehmes</b> bedeuten könnte. <br><br>Bitte legen Sie nun den Zeigefinger der linken Hand auf die Taste 'D' und den Zeigefinger der rechten Hand auf die Taste 'K'. <br>Reagieren Sie auf jede Silbe so schnell wie möglich. Uns interessiert Ihre spontane Reaktion. <br> <br> <br>Drücken Sie 'D' oder 'K', um die nächste Aufgabe zu starten. </p>","75","","","","","","","","","",""
"","html-keyboard-response","90","460281","0.0-8.0-0.0","ljswwjm989","many_one","0","indirect_first","0","ss09us15","0","24","1","1","3","1","","0","1","0","null","","","<div style=""font-size:60px;"">+</div>","null","","","","","","","","","",""
"","html-keyboard-response","91","460380","0.0-8.0-1.0","ljswwjm989","many_one","0","indirect_first","0","ss09us15","0","24","1","1","3","1","","0","1","0","null","","","<img src = 'category2/CS2.png' width = '100%;'>","null","","","","","","","","","",""
"","html-keyboard-response","92","460661","0.0-8.0-2.0","ljswwjm989","many_one","0","indirect_first","0","ss09us15","0","24","1","1","3","1","","0","1","0","null","","","<img src = 'targets/44.png' width = '100%;'>","null","","","","","","","","","",""
"","html-keyboard-response","93","465513","0.0-8.0-3.0","ljswwjm989","many_one","0","indirect_first","0","ss09us15","0","24","1","1","3","1","","0","1","0","4848","","","<img src = 'targets/mask.png' width = '100%;'>","68","neg","GS","GSold","2","category2/CS2.png","targets/44.png","0","indirect","0",""
"","html-keyboard-response","94","467051","0.0-8.0-0.1","ljswwjm989","many_one","0","indirect_first","0","ss09us15","0","24","1","1","3","1","","0","1","0","null","","","<div style=""font-size:60px;"">+</div>","null","","","","","","","","","",""
"","html-keyboard-response","95","467152","0.0-8.0-1.1","ljswwjm989","many_one","0","indirect_first","0","ss09us15","0","24","1","1","3","1","","0","1","0","null","","","<img src = 'category1/CS2.png' width = '100%;'>","null","","","","","","","","","",""
"","html-keyboard-response","96","467431","0.0-8.0-2.1","ljswwjm989","many_one","0","indirect_first","0","ss09us15","0","24","1","1","3","1","","0","1","0","null","","","<img src = 'targets/11.png' width = '100%;'>","null","","","","","","","","","",""
"","html-keyboard-response","97","468734","0.0-8.0-3.1","ljswwjm989","many_one","0","indirect_first","0","ss09us15","0","24","1","1","3","1","","0","1","0","1300","","","<img src = 'targets/mask.png' width = '100%;'>","75","neg","CS","CS","1","category1/CS2.png","targets/11.png","1","indirect","1",""
"","html-keyboard-response","98","470261","0.0-8.0-0.2","ljswwjm989","many_one","0","indirect_first","0","ss09us15","0","24","1","1","3","1","","0","1","0","null","","","<div style=""font-size:60px;"">+</div>","null","","","","","","","","","",""
"","html-keyboard-response","99","470362","0.0-8.0-1.2","ljswwjm989","many_one","0","indirect_first","0","ss09us15","0","24","1","1","3","1","","0","1","0","null","","","<img src = 'category4/CS8.png' width = '100%;'>","null","","","","","","","","","",""
"","html-keyboard-response","100","470641","0.0-8.0-2.2","ljswwjm989","many_one","0","indirect_first","0","ss09us15","0","24","1","1","3","1","","0","1","0","null","","","<img src = 'targets/30.png' width = '100%;'>","null","","","","","","","","","",""
"","html-keyboard-response","101","471738","0.0-8.0-3.2","ljswwjm989","many_one","0","indirect_first","0","ss09us15","0","24","1","1","3","1","","0","1","0","1096","","","<img src = 'targets/mask.png' width = '100%;'>","68","pos","CS","CS","4","category4/CS8.png","targets/30.png","0","indirect","2",""
"","html-keyboard-response","102","473246","0.0-8.0-0.3","ljswwjm989","many_one","0","indirect_first","0","ss09us15","0","24","1","1","3","1","","0","1","0","null","","","<div style=""font-size:60px;"">+</div>","null","","","","","","","","","",""
"","html-keyboard-response","103","473346","0.0-8.0-1.3","ljswwjm989","many_one","0","indirect_first","0","ss09us15","0","24","1","1","3","1","","0","1","0","null","","","<img src = 'category2/CS10.png' width = '100%;'>","null","","","","","","","","","",""
"","html-keyboard-response","104","473631","0.0-8.0-2.3","ljswwjm989","many_one","0","indirect_first","0","ss09us15","0","24","1","1","3","1","","0","1","0","null","","","<img src = 'targets/7.png' width = '100%;'>","null","","","","","","","","","",""
"","html-keyboard-response","105","474745","0.0-8.0-3.3","ljswwjm989","many_one","0","indirect_first","0","ss09us15","0","24","1","1","3","1","","0","1","0","1112","","","<img src = 'targets/mask.png' width = '100%;'>","75","neg","CS","CS","2","category2/CS10.png","targets/7.png","1","indirect","3",""
"","html-keyboard-response","106","476280","0.0-8.0-0.4","ljswwjm989","many_one","0","indirect_first","0","ss09us15","0","24","1","1","3","1","","0","1","0","null","","","<div style=""font-size:60px;"">+</div>","null","","","","","","","","","",""
"","html-keyboard-response","107","476381","0.0-8.0-1.4","ljswwjm989","many_one","0","indirect_first","0","ss09us15","0","24","1","1","3","1","","0","1","0","null","","","<img src = 'category3/CS4.png' width = '100%;'>","null","","","","","","","","","",""
"","html-keyboard-response","108","476661","0.0-8.0-2.4","ljswwjm989","many_one","0","indirect_first","0","ss09us15","0","24","1","1","3","1","","0","1","0","null","","","<img src = 'targets/22.png' width = '100%;'>","null","","","","","","","","","",""
"","html-keyboard-response","109","477206","0.0-8.0-3.4","ljswwjm989","many_one","0","indirect_first","0","ss09us15","0","24","1","1","3","1","","0","1","0","542","","","<img src = 'targets/mask.png' width = '100%;'>","75","pos","CS","CS","3","category3/CS4.png","targets/22.png","1","indirect","4",""
"","html-keyboard-response","110","478730","0.0-8.0-0.5","ljswwjm989","many_one","0","indirect_first","0","ss09us15","0","24","1","1","3","1","","0","1","0","null","","","<div style=""font-size:60px;"">+</div>","null","","","","","","","","","",""
"","html-keyboard-response","111","478830","0.0-8.0-1.5","ljswwjm989","many_one","0","indirect_first","0","ss09us15","0","24","1","1","3","1","","0","1","0","null","","","<img src = 'category2/CS5.png' width = '100%;'>","null","","","","","","","","","",""
"","html-keyboard-response","112","479111","0.0-8.0-2.5","ljswwjm989","many_one","0","indirect_first","0","ss09us15","0","24","1","1","3","1","","0","1","0","null","","","<img src = 'targets/25.png' width = '100%;'>","null","","","","","","","","","",""
"","html-keyboard-response","113","479384","0.0-8.0-3.5","ljswwjm989","many_one","0","indirect_first","0","ss09us15","0","24","1","1","3","1","","0","1","0","272","","","<img src = 'targets/mask.png' width = '100%;'>","68","neg","GS","GSold","2","category2/CS5.png","targets/25.png","0","indirect","5",""
"","html-keyboard-response","114","480900","0.0-8.0-0.6","ljswwjm989","many_one","0","indirect_first","0","ss09us15","0","24","1","1","3","1","","0","1","0","null","","","<div style=""font-size:60px;"">+</div>","null","","","","","","","","","",""
"","html-keyboard-response","115","481001","0.0-8.0-1.6","ljswwjm989","many_one","0","indirect_first","0","ss09us15","0","24","1","1","3","1","","0","1","0","null","","","<img src = 'category1/CS5.png' width = '100%;'>","null","","","","","","","","","",""
"","html-keyboard-response","116","481281","0.0-8.0-2.6","ljswwjm989","many_one","0","indirect_first","0","ss09us15","0","24","1","1","3","1","","0","1","0","null","","","<img src = 'targets/9.png' width = '100%;'>","null","","","","","","","","","",""
"","html-keyboard-response","117","481557","0.0-8.0-3.6","ljswwjm989","many_one","0","indirect_first","0","ss09us15","0","24","1","1","3","1","","0","1","0","274","","","<img src = 'targets/mask.png' width = '100%;'>","68","neg","CS","CS","1","category1/CS5.png","targets/9.png","0","indirect","6",""
"","html-keyboard-response","118","483081","0.0-8.0-0.7","ljswwjm989","many_one","0","indirect_first","0","ss09us15","0","24","1","1","3","1","","0","1","0","null","","","<div style=""font-size:60px;"">+</div>","null","","","","","","","","","",""
"","html-keyboard-response","119","483182","0.0-8.0-1.7","ljswwjm989","many_one","0","indirect_first","0","ss09us15","0","24","1","1","3","1","","0","1","0","null","","","<img src = 'category2/CS4.png' width = '100%;'>","null","","","","","","","","","",""
"","html-keyboard-response","120","483457","0.0-8.0-2.7","ljswwjm989","many_one","0","indirect_first","0","ss09us15","0","24","1","1","3","1","","0","1","0","null","","","<img src = 'targets/31.png' width = '100%;'>","null","","","","","","","","","",""
"","html-keyboard-response","121","483786","0.0-8.0-3.7","ljswwjm989","many_one","0","indirect_first","0","ss09us15","0","24","1","1","3","1","","0","1","0","327","","","<img src = 'targets/mask.png' width = '100%;'>","68","neg","CS","CS","2","category2/CS4.png","targets/31.png","0","indirect","7",""
"","html-keyboard-response","122","485311","0.0-8.0-0.8","ljswwjm989","many_one","0","indirect_first","0","ss09us15","0","24","1","1","3","1","","0","1","0","null","","","<div style=""font-size:60px;"">+</div>","null","","","","","","","","","",""
"","html-keyboard-response","123","485411","0.0-8.0-1.8","ljswwjm989","many_one","0","indirect_first","0","ss09us15","0","24","1","1","3","1","","0","1","0","null","","","<img src = 'category2/CS9.png' width = '100%;'>","null","","","","","","","","","",""
"","html-keyboard-response","124","485691","0.0-8.0-2.8","ljswwjm989","many_one","0","indirect_first","0","ss09us15","0","24","1","1","3","1","","0","1","0","null","","","<img src = 'targets/20.png' width = '100%;'>","null","","","","","","","","","",""
"","html-keyboard-response","125","485926","0.0-8.0-3.8","ljswwjm989","many_one","0","indirect_first","0","ss09us15","0","24","1","1","3","1","","0","1","0","232","","","<img src = 'targets/mask.png' width = '100%;'>","75","neg","CS","CS","2","category2/CS9.png","targets/20.png","1","indirect","8",""
"","html-keyboard-response","126","487441","0.0-8.0-0.9","ljswwjm989","many_one","0","indirect_first","0","ss09us15","0","24","1","1","3","1","","0","1","0","null","","","<div style=""font-size:60px;"">+</div>","null","","","","","","","","","",""
"","html-keyboard-response","127","487542","0.0-8.0-1.9","ljswwjm989","many_one","0","indirect_first","0","ss09us15","0","24","1","1","3","1","","0","1","0","null","","","<img src = 'category4/CS2.png' width = '100%;'>","null","","","","","","","","","",""
"","html-keyboard-response","128","487822","0.0-8.0-2.9","ljswwjm989","many_one","0","indirect_first","0","ss09us15","0","24","1","1","3","1","","0","1","0","null","","","<img src = 'targets/39.png' width = '100%;'>","null","","","","","","","","","",""
"","html-keyboard-response","129","488758","0.0-8.0-3.9","ljswwjm989","many_one","0","indirect_first","0","ss09us15","0","24","1","1","3","1","","0","1","0","934","","","<img src = 'targets/mask.png' width = '100%;'>","68","pos","CS","CS","4","category4/CS2.png","targets/39.png","0","indirect","9",""
"","html-keyboard-response","130","490281","0.0-8.0-0.10","ljswwjm989","many_one","0","indirect_first","0","ss09us15","0","24","1","1","3","1","","0","1","0","null","","","<div style=""font-size:60px;"">+</div>","null","","","","","","","","","",""
"","html-keyboard-response","131","490380","0.0-8.0-1.10","ljswwjm989","many_one","0","indirect_first","0","ss09us15","0","24","1","1","3","1","","0","1","0","null","","","<img src = 'category2/CS8.png' width = '100%;'>","null","","","","","","","","","",""
"","html-keyboard-response","132","490660","0.0-8.0-2.10","ljswwjm989","many_one","0","indirect_first","0","ss09us15","0","24","1","1","3","1","","0","1","0","null","","","<img src = 'targets/38.png' width = '100%;'>","null","","","","","","","","","",""
"","html-keyboard-response","133","491990","0.0-8.0-3.10","ljswwjm989","many_one","0","indirect_first","0","ss09us15","0","24","1","1","3","1","","0","1","0","1329","","","<img src = 'targets/mask.png' width = '100%;'>","68","neg","CS","CS","2","category2/CS8.png","targets/38.png","0","indirect","10",""
"","html-keyboard-response","134","493502","0.0-8.0-0.11","ljswwjm989","many_one","0","indirect_first","0","ss09us15","0","24","1","1","3","1","","0","1","0","null","","","<div style=""font-size:60px;"">+</div>","null","","","","","","","","","",""
"","html-keyboard-response","135","493601","0.0-8.0-1.11","ljswwjm989","many_one","0","indirect_first","0","ss09us15","0","24","1","1","3","1","","0","1","0","null","","","<img src = 'category3/CS3.png' width = '100%;'>","null","","","","","","","","","",""
"","html-keyboard-response","136","493881","0.0-8.0-2.11","ljswwjm989","many_one","0","indirect_first","0","ss09us15","0","24","1","1","3","1","","0","1","0","null","","","<img src = 'targets/19.png' width = '100%;'>","null","","","","","","","","","",""
"","html-keyboard-response","137","494574","0.0-8.0-3.11","ljswwjm989","many_one","0","indirect_first","0","ss09us15","0","24","1","1","3","1","","0","1","0","692","","","<img src = 'targets/mask.png' width = '100%;'>","75","pos","CS","CS","3","category3/CS3.png","targets/19.png","1","indirect","11",""
"","html-keyboard-response","138","496103","0.0-8.0-0.12","ljswwjm989","many_one","0","indirect_first","0","ss09us15","0","24","1","1","3","1","","0","1","0","null","","","<div style=""font-size:60px;"">+</div>","null","","","","","","","","","",""
"","html-keyboard-response","139","496201","0.0-8.0-1.12","ljswwjm989","many_one","0","indirect_first","0","ss09us15","0","24","1","1","3","1","","0","1","0","null","","","<img src = 'category2/CS6.png' width = '100%;'>","null","","","","","","","","","",""
"","html-keyboard-response","140","496481","0.0-8.0-2.12","ljswwjm989","many_one","0","indirect_first","0","ss09us15","0","24","1","1","3","1","","0","1","0","null","","","<img src = 'targets/45.png' width = '100%;'>","null","","","","","","","","","",""
"","html-keyboard-response","141","497466","0.0-8.0-3.12","ljswwjm989","many_one","0","indirect_first","0","ss09us15","0","24","1","1","3","1","","0","1","0","984","","","<img src = 'targets/mask.png' width = '100%;'>","75","neg","CS","CS","2","category2/CS6.png","targets/45.png","1","indirect","12",""
"","html-keyboard-response","142","499001","0.0-8.0-0.13","ljswwjm989","many_one","0","indirect_first","0","ss09us15","0","24","1","1","3","1","","0","1","0","null","","","<div style=""font-size:60px;"">+</div>","null","","","","","","","","","",""
"","html-keyboard-response","143","499103","0.0-8.0-1.13","ljswwjm989","many_one","0","indirect_first","0","ss09us15","0","24","1","1","3","1","","0","1","0","null","","","<img src = 'category4/CS9.png' width = '100%;'>","null","","","","","","","","","",""
"","html-keyboard-response","144","499378","0.0-8.0-2.13","ljswwjm989","many_one","0","indirect_first","0","ss09us15","0","24","1","1","3","1","","0","1","0","null","","","<img src = 'targets/12.png' width = '100%;'>","null","","","","","","","","","",""
"","html-keyboard-response","145","500166","0.0-8.0-3.13","ljswwjm989","many_one","0","indirect_first","0","ss09us15","0","24","1","1","3","1","","0","1","0","786","","","<img src = 'targets/mask.png' width = '100%;'>","68","pos","CS","CS","4","category4/CS9.png","targets/12.png","0","indirect","13",""
"","html-keyboard-response","146","501682","0.0-8.0-0.14","ljswwjm989","many_one","0","indirect_first","0","ss09us15","0","24","1","1","3","1","","0","1","0","null","","","<div style=""font-size:60px;"">+</div>","null","","","","","","","","","",""
"","html-keyboard-response","147","501781","0.0-8.0-1.14","ljswwjm989","many_one","0","indirect_first","0","ss09us15","0","24","1","1","3","1","","0","1","0","null","","","<img src = 'category4/CS1.png' width = '100%;'>","null","","","","","","","","","",""
"","html-keyboard-response","148","502061","0.0-8.0-2.14","ljswwjm989","many_one","0","indirect_first","0","ss09us15","0","24","1","1","3","1","","0","1","0","null","","","<img src = 'targets/34.png' width = '100%;'>","null","","","","","","","","","",""
"","html-keyboard-response","149","502758","0.0-8.0-3.14","ljswwjm989","many_one","0","indirect_first","0","ss09us15","0","24","1","1","3","1","","0","1","0","695","","","<img src = 'targets/mask.png' width = '100%;'>","75","pos","CS","CS","4","category4/CS1.png","targets/34.png","1","indirect","14",""
"","html-keyboard-response","150","504281","0.0-8.0-0.15","ljswwjm989","many_one","0","indirect_first","0","ss09us15","0","24","1","1","3","1","","0","1","0","null","","","<div style=""font-size:60px;"">+</div>","null","","","","","","","","","",""
"","html-keyboard-response","151","504381","0.0-8.0-1.15","ljswwjm989","many_one","0","indirect_first","0","ss09us15","0","24","1","1","3","1","","0","1","0","null","","","<img src = 'category1/CS9.png' width = '100%;'>","null","","","","","","","","","",""
"","html-keyboard-response","152","504661","0.0-8.0-2.15","ljswwjm989","many_one","0","indirect_first","0","ss09us15","0","24","1","1","3","1","","0","1","0","null","","","<img src = 'targets/2.png' width = '100%;'>","null","","","","","","","","","",""
"","html-keyboard-response","153","505286","0.0-8.0-3.15","ljswwjm989","many_one","0","indirect_first","0","ss09us15","0","24","1","1","3","1","","0","1","0","623","","","<img src = 'targets/mask.png' width = '100%;'>","75","neg","CS","CS","1","category1/CS9.png","targets/2.png","1","indirect","15",""
"","html-keyboard-response","154","506823","0.0-8.0-0.16","ljswwjm989","many_one","0","indirect_first","0","ss09us15","0","24","1","1","3","1","","0","1","0","null","","","<div style=""font-size:60px;"">+</div>","null","","","","","","","","","",""
"","html-keyboard-response","155","506921","0.0-8.0-1.16","ljswwjm989","many_one","0","indirect_first","0","ss09us15","0","24","1","1","3","1","","0","1","0","null","","","<img src = 'category3/CS8.png' width = '100%;'>","null","","","","","","","","","",""
"","html-keyboard-response","156","507200","0.0-8.0-2.16","ljswwjm989","many_one","0","indirect_first","0","ss09us15","0","24","1","1","3","1","","0","1","0","null","","","<img src = 'targets/29.png' width = '100%;'>","null","","","","","","","","","",""
"","html-keyboard-response","157","507827","0.0-8.0-3.16","ljswwjm989","many_one","0","indirect_first","0","ss09us15","0","24","1","1","3","1","","0","1","0","625","","","<img src = 'targets/mask.png' width = '100%;'>","75","pos","CS","CS","3","category3/CS8.png","targets/29.png","1","indirect","16",""
"","html-keyboard-response","158","509356","0.0-8.0-0.17","ljswwjm989","many_one","0","indirect_first","0","ss09us15","0","24","1","1","3","1","","0","1","0","null","","","<div style=""font-size:60px;"">+</div>","null","","","","","","","","","",""
"","html-keyboard-response","159","509451","0.0-8.0-1.17","ljswwjm989","many_one","0","indirect_first","0","ss09us15","0","24","1","1","3","1","","0","1","0","null","","","<img src = 'category1/CS1.png' width = '100%;'>","null","","","","","","","","","",""
"","html-keyboard-response","160","509733","0.0-8.0-2.17","ljswwjm989","many_one","0","indirect_first","0","ss09us15","0","24","1","1","3","1","","0","1","0","null","","","<img src = 'targets/28.png' width = '100%;'>","null","","","","","","","","","",""
"","html-keyboard-response","161","510136","0.0-8.0-3.17","ljswwjm989","many_one","0","indirect_first","0","ss09us15","0","24","1","1","3","1","","0","1","0","403","","","<img src = 'targets/mask.png' width = '100%;'>","68","neg","CS","CS","1","category1/CS1.png","targets/28.png","0","indirect","17",""
"","html-keyboard-response","162","511662","0.0-8.0-0.18","ljswwjm989","many_one","0","indirect_first","0","ss09us15","0","24","1","1","3","1","","0","1","0","null","","","<div style=""font-size:60px;"">+</div>","null","","","","","","","","","",""
"","html-keyboard-response","163","511761","0.0-8.0-1.18","ljswwjm989","many_one","0","indirect_first","0","ss09us15","0","24","1","1","3","1","","0","1","0","null","","","<img src = 'category3/CS6.png' width = '100%;'>","null","","","","","","","","","",""
"","html-keyboard-response","164","512042","0.0-8.0-2.18","ljswwjm989","many_one","0","indirect_first","0","ss09us15","0","24","1","1","3","1","","0","1","0","null","","","<img src = 'targets/23.png' width = '100%;'>","null","","","","","","","","","",""
"","html-keyboard-response","165","513117","0.0-8.0-3.18","ljswwjm989","many_one","0","indirect_first","0","ss09us15","0","24","1","1","3","1","","0","1","0","1073","","","<img src = 'targets/mask.png' width = '100%;'>","68","pos","GS","GSold","3","category3/CS6.png","targets/23.png","0","indirect","18",""
"","html-keyboard-response","166","514640","0.0-8.0-0.19","ljswwjm989","many_one","0","indirect_first","0","ss09us15","0","24","1","1","3","1","","0","1","0","null","","","<div style=""font-size:60px;"">+</div>","null","","","","","","","","","",""
"","html-keyboard-response","167","514741","0.0-8.0-1.19","ljswwjm989","many_one","0","indirect_first","0","ss09us15","0","24","1","1","3","1","","0","1","0","null","","","<img src = 'category3/CS9.png' width = '100%;'>","null","","","","","","","","","",""
"","html-keyboard-response","168","515021","0.0-8.0-2.19","ljswwjm989","many_one","0","indirect_first","0","ss09us15","0","24","1","1","3","1","","0","1","0","null","","","<img src = 'targets/36.png' width = '100%;'>","null","","","","","","","","","",""
"","html-keyboard-response","169","515539","0.0-8.0-3.19","ljswwjm989","many_one","0","indirect_first","0","ss09us15","0","24","1","1","3","1","","0","1","0","516","","","<img src = 'targets/mask.png' width = '100%;'>","68","pos","CS","CS","3","category3/CS9.png","targets/36.png","0","indirect","19",""
"","html-keyboard-response","170","517051","0.0-8.0-0.20","ljswwjm989","many_one","0","indirect_first","0","ss09us15","0","24","1","1","3","1","","0","1","0","null","","","<div style=""font-size:60px;"">+</div>","null","","","","","","","","","",""
"","html-keyboard-response","171","517151","0.0-8.0-1.20","ljswwjm989","many_one","0","indirect_first","0","ss09us15","0","24","1","1","3","1","","0","1","0","null","","","<img src = 'category2/CS1.png' width = '100%;'>","null","","","","","","","","","",""
"","html-keyboard-response","172","517432","0.0-8.0-2.20","ljswwjm989","many_one","0","indirect_first","0","ss09us15","0","24","1","1","3","1","","0","1","0","null","","","<img src = 'targets/32.png' width = '100%;'>","null","","","","","","","","","",""
"","html-keyboard-response","173","517901","0.0-8.0-3.20","ljswwjm989","many_one","0","indirect_first","0","ss09us15","0","24","1","1","3","1","","0","1","0","467","","","<img src = 'targets/mask.png' width = '100%;'>","68","neg","GS","GSold","2","category2/CS1.png","targets/32.png","0","indirect","20",""
"","html-keyboard-response","174","519421","0.0-8.0-0.21","ljswwjm989","many_one","0","indirect_first","0","ss09us15","0","24","1","1","3","1","","0","1","0","null","","","<div style=""font-size:60px;"">+</div>","null","","","","","","","","","",""
"","html-keyboard-response","175","519520","0.0-8.0-1.21","ljswwjm989","many_one","0","indirect_first","0","ss09us15","0","24","1","1","3","1","","0","1","0","null","","","<img src = 'category4/CS10.png' width = '100%;'>","null","","","","","","","","","",""
"","html-keyboard-response","176","519802","0.0-8.0-2.21","ljswwjm989","many_one","0","indirect_first","0","ss09us15","0","24","1","1","3","1","","0","1","0","null","","","<img src = 'targets/47.png' width = '100%;'>","null","","","","","","","","","",""
"","html-keyboard-response","177","520488","0.0-8.0-3.21","ljswwjm989","many_one","0","indirect_first","0","ss09us15","0","24","1","1","3","1","","0","1","0","685","","","<img src = 'targets/mask.png' width = '100%;'>","75","pos","CS","CS","4","category4/CS10.png","targets/47.png","1","indirect","21",""
"","html-keyboard-response","178","522021","0.0-8.0-0.22","ljswwjm989","many_one","0","indirect_first","0","ss09us15","0","24","1","1","3","1","","0","1","0","null","","","<div style=""font-size:60px;"">+</div>","null","","","","","","","","","",""
"","html-keyboard-response","179","522121","0.0-8.0-1.22","ljswwjm989","many_one","0","indirect_first","0","ss09us15","0","24","1","1","3","1","","0","1","0","null","","","<img src = 'category1/CS6.png' width = '100%;'>","null","","","","","","","","","",""
"","html-keyboard-response","180","522402","0.0-8.0-2.22","ljswwjm989","many_one","0","indirect_first","0","ss09us15","0","24","1","1","3","1","","0","1","0","null","","","<img src = 'targets/6.png' width = '100%;'>","null","","","","","","","","","",""
"","html-keyboard-response","181","523197","0.0-8.0-3.22","ljswwjm989","many_one","0","indirect_first","0","ss09us15","0","24","1","1","3","1","","0","1","0","794","","","<img src = 'targets/mask.png' width = '100%;'>","75","neg","CS","CS","1","category1/CS6.png","targets/6.png","1","indirect","22",""
"","html-keyboard-response","182","524721","0.0-8.0-0.23","ljswwjm989","many_one","0","indirect_first","0","ss09us15","0","24","1","1","3","1","","0","1","0","null","","","<div style=""font-size:60px;"">+</div>","null","","","","","","","","","",""
"","html-keyboard-response","183","524821","0.0-8.0-1.23","ljswwjm989","many_one","0","indirect_first","0","ss09us15","0","24","1","1","3","1","","0","1","0","null","","","<img src = 'category3/CS10.png' width = '100%;'>","null","","","","","","","","","",""
"","html-keyboard-response","184","525102","0.0-8.0-2.23","ljswwjm989","many_one","0","indirect_first","0","ss09us15","0","24","1","1","3","1","","0","1","0","null","","","<img src = 'targets/3.png' width = '100%;'>","null","","","","","","","","","",""
"","html-keyboard-response","185","525778","0.0-8.0-3.23","ljswwjm989","many_one","0","indirect_first","0","ss09us15","0","24","1","1","3","1","","0","1","0","674","","","<img src = 'targets/mask.png' width = '100%;'>","68","pos","CS","CS","3","category3/CS10.png","targets/3.png","0","indirect","23",""
"","survey-html-form","186","527798","0.0-9.0","ljswwjm989","many_one","0","indirect_first","0","ss09us15","0","24","1","1","3","1","","0","1","0","1517","","{}","","","","","","","","","","","",""
"","html-keyboard-response","187","530831","0.0-10.0-0.0","ljswwjm989","many_one","0","indirect_first","0","ss09us15","0","24","1","1","3","1","","0","1","0","null","","","<div style=""font-size:60px;"">+</div>","null","","","","","","","","","",""
"","html-keyboard-response","188","530932","0.0-10.0-1.0","ljswwjm989","many_one","0","indirect_first","0","ss09us15","0","24","1","1","3","1","","0","1","0","null","","","<img src = 'category2/GS3.png' width = '100%;'>","null","","","","","","","","","",""
"","html-keyboard-response","189","531212","0.0-10.0-2.0","ljswwjm989","many_one","0","indirect_first","0","ss09us15","0","24","1","1","3","1","","0","1","0","null","","","<img src = 'targets/13.png' width = '100%;'>","null","","","","","","","","","",""
"","html-keyboard-response","190","531741","0.0-10.0-3.0","ljswwjm989","many_one","0","indirect_first","0","ss09us15","0","24","1","1","3","1","","0","1","0","527","","","<img src = 'targets/mask.png' width = '100%;'>","68","neg","GS","GSnew","2","category2/GS3.png","targets/13.png","0","indirect","24",""
"","html-keyboard-response","191","533262","0.0-10.0-0.1","ljswwjm989","many_one","0","indirect_first","0","ss09us15","0","24","1","1","3","1","","0","1","0","null","","","<div style=""font-size:60px;"">+</div>","null","","","","","","","","","",""
"","html-keyboard-response","192","533361","0.0-10.0-1.1","ljswwjm989","many_one","0","indirect_first","0","ss09us15","0","24","1","1","3","1","","0","1","0","null","","","<img src = 'category1/CS10.png' width = '100%;'>","null","","","","","","","","","",""
"","html-keyboard-response","193","533640","0.0-10.0-2.1","ljswwjm989","many_one","0","indirect_first","0","ss09us15","0","24","1","1","3","1","","0","1","0","null","","","<img src = 'targets/42.png' width = '100%;'>","null","","","","","","","","","",""
"","html-keyboard-response","194","534697","0.0-10.0-3.1","ljswwjm989","many_one","0","indirect_first","0","ss09us15","0","24","1","1","3","1","","0","1","0","1056","","","<img src = 'targets/mask.png' width = '100%;'>","68","neg","GS","GSold","1","category1/CS10.png","targets/42.png","0","indirect","25",""
"","html-keyboard-response","195","536221","0.0-10.0-0.2","ljswwjm989","many_one","0","indirect_first","0","ss09us15","0","24","1","1","3","1","","0","1","0","null","","","<div style=""font-size:60px;"">+</div>","null","","","","","","","","","",""
"","html-keyboard-response","196","536321","0.0-10.0-1.2","ljswwjm989","many_one","0","indirect_first","0","ss09us15","0","24","1","1","3","1","","0","1","0","null","","","<img src = 'category4/GS3.png' width = '100%;'>","null","","","","","","","","","",""
"","html-keyboard-response","197","536602","0.0-10.0-2.2","ljswwjm989","many_one","0","indirect_first","0","ss09us15","0","24","1","1","3","1","","0","1","0","null","","","<img src = 'targets/16.png' width = '100%;'>","null","","","","","","","","","",""
"","html-keyboard-response","198","537162","0.0-10.0-3.2","ljswwjm989","many_one","0","indirect_first","0","ss09us15","0","24","1","1","3","1","","0","1","0","556","","","<img src = 'targets/mask.png' width = '100%;'>","68","pos","GS","GSnew","4","category4/GS3.png","targets/16.png","0","indirect","26",""
"","html-keyboard-response","199","538701","0.0-10.0-0.3","ljswwjm989","many_one","0","indirect_first","0","ss09us15","0","24","1","1","3","1","","0","1","0","null","","","<div style=""font-size:60px;"">+</div>","null","","","","","","","","","",""
"","html-keyboard-response","200","538801","0.0-10.0-1.3","ljswwjm989","many_one","0","indirect_first","0","ss09us15","0","24","1","1","3","1","","0","1","0","null","","","<img src = 'category4/lin.png' width = '100%;'>","null","","","","","","","","","",""
"","html-keyboard-response","201","539081","0.0-10.0-2.3","ljswwjm989","many_one","0","indirect_first","0","ss09us15","0","24","1","1","3","1","","0","1","0","null","","","<img src = 'targets/33.png' width = '100%;'>","null","","","","","","","","","",""
"","html-keyboard-response","202","540078","0.0-10.0-3.3","ljswwjm989","many_one","0","indirect_first","0","ss09us15","0","24","1","1","3","1","","0","1","0","995","","","<img src = 'targets/mask.png' width = '100%;'>","75","pos","GS","abstract","4","category4/lin.png","targets/33.png","1","indirect","27",""
"","html-keyboard-response","203","541591","0.0-10.0-0.4","ljswwjm989","many_one","0","indirect_first","0","ss09us15","0","24","1","1","3","1","","0","1","0","null","","","<div style=""font-size:60px;"">+</div>","null","","","","","","","","","",""
"","html-keyboard-response","204","541691","0.0-10.0-1.4","ljswwjm989","many_one","0","indirect_first","0","ss09us15","0","24","1","1","3","1","","0","1","0","null","","","<img src = 'category1/GS2.png' width = '100%;'>","null","","","","","","","","","",""
"","html-keyboard-response","205","541970","0.0-10.0-2.4","ljswwjm989","many_one","0","indirect_first","0","ss09us15","0","24","1","1","3","1","","0","1","0","null","","","<img src = 'targets/10.png' width = '100%;'>","null","","","","","","","","","",""
"","html-keyboard-response","206","542510","0.0-10.0-3.4","ljswwjm989","many_one","0","indirect_first","0","ss09us15","0","24","1","1","3","1","","0","1","0","538","","","<img src = 'targets/mask.png' width = '100%;'>","68","neg","GS","GSnew","1","category1/GS2.png","targets/10.png","0","indirect","28",""
"","html-keyboard-response","207","544052","0.0-10.0-0.5","ljswwjm989","many_one","0","indirect_first","0","ss09us15","0","24","1","1","3","1","","0","1","0","null","","","<div style=""font-size:60px;"">+</div>","null","","","","","","","","","",""
"","html-keyboard-response","208","544150","0.0-10.0-1.5","ljswwjm989","many_one","0","indirect_first","0","ss09us15","0","24","1","1","3","1","","0","1","0","null","","","<img src = 'category3/wang.png' width = '100%;'>","null","","","","","","","","","",""
"","html-keyboard-response","209","544421","0.0-10.0-2.5","ljswwjm989","many_one","0","indirect_first","0","ss09us15","0","24","1","1","3","1","","0","1","0","null","","","<img src = 'targets/37.png' width = '100%;'>","null","","","","","","","","","",""
"","html-keyboard-response","210","545309","0.0-10.0-3.5","ljswwjm989","many_one","0","indirect_first","0","ss09us15","0","24","1","1","3","1","","0","1","0","886","","","<img src = 'targets/mask.png' width = '100%;'>","68","pos","GS","abstract","3","category3/wang.png","targets/37.png","0","indirect","29",""
"","html-keyboard-response","211","546841","0.0-10.0-0.6","ljswwjm989","many_one","0","indirect_first","0","ss09us15","0","24","1","1","3","1","","0","1","0","null","","","<div style=""font-size:60px;"">+</div>","null","","","","","","","","","",""
"","html-keyboard-response","212","546941","0.0-10.0-1.6","ljswwjm989","many_one","0","indirect_first","0","ss09us15","0","24","1","1","3","1","","0","1","0","null","","","<img src = 'category1/ma.png' width = '100%;'>","null","","","","","","","","","",""
"","html-keyboard-response","213","547221","0.0-10.0-2.6","ljswwjm989","many_one","0","indirect_first","0","ss09us15","0","24","1","1","3","1","","0","1","0","null","","","<img src = 'targets/5.png' width = '100%;'>","null","","","","","","","","","",""
"","html-keyboard-response","214","548090","0.0-10.0-3.6","ljswwjm989","many_one","0","indirect_first","0","ss09us15","0","24","1","1","3","1","","0","1","0","868","","","<img src = 'targets/mask.png' width = '100%;'>","68","neg","GS","abstract","1","category1/ma.png","targets/5.png","0","indirect","30",""
"","html-keyboard-response","215","549611","0.0-10.0-0.7","ljswwjm989","many_one","0","indirect_first","0","ss09us15","0","24","1","1","3","1","","0","1","0","null","","","<div style=""font-size:60px;"">+</div>","null","","","","","","","","","",""
"","html-keyboard-response","216","549712","0.0-10.0-1.7","ljswwjm989","many_one","0","indirect_first","0","ss09us15","0","24","1","1","3","1","","0","1","0","null","","","<img src = 'category1/GS1.png' width = '100%;'>","null","","","","","","","","","",""
"","html-keyboard-response","217","549991","0.0-10.0-2.7","ljswwjm989","many_one","0","indirect_first","0","ss09us15","0","24","1","1","3","1","","0","1","0","null","","","<img src = 'targets/43.png' width = '100%;'>","null","","","","","","","","","",""
"","html-keyboard-response","218","550523","0.0-10.0-3.7","ljswwjm989","many_one","0","indirect_first","0","ss09us15","0","24","1","1","3","1","","0","1","0","532","","","<img src = 'targets/mask.png' width = '100%;'>","68","neg","GS","GSnew","1","category1/GS1.png","targets/43.png","0","indirect","31",""
"","html-keyboard-response","219","552047","0.0-10.0-0.8","ljswwjm989","many_one","0","indirect_first","0","ss09us15","0","24","1","1","3","1","","0","1","0","null","","","<div style=""font-size:60px;"">+</div>","null","","","","","","","","","",""
"","html-keyboard-response","220","552142","0.0-10.0-1.8","ljswwjm989","many_one","0","indirect_first","0","ss09us15","0","24","1","1","3","1","","0","1","0","null","","","<img src = 'category2/GS2.png' width = '100%;'>","null","","","","","","","","","",""
"","html-keyboard-response","221","552421","0.0-10.0-2.8","ljswwjm989","many_one","0","indirect_first","0","ss09us15","0","24","1","1","3","1","","0","1","0","null","","","<img src = 'targets/4.png' width = '100%;'>","null","","","","","","","","","",""
"","html-keyboard-response","222","553153","0.0-10.0-3.8","ljswwjm989","many_one","0","indirect_first","0","ss09us15","0","24","1","1","3","1","","0","1","0","731","","","<img src = 'targets/mask.png' width = '100%;'>","68","neg","GS","GSnew","2","category2/GS2.png","targets/4.png","0","indirect","32",""
"","html-keyboard-response","223","554671","0.0-10.0-0.9","ljswwjm989","many_one","0","indirect_first","0","ss09us15","0","24","1","1","3","1","","0","1","0","null","","","<div style=""font-size:60px;"">+</div>","null","","","","","","","","","",""
"","html-keyboard-response","224","554771","0.0-10.0-1.9","ljswwjm989","many_one","0","indirect_first","0","ss09us15","0","24","1","1","3","1","","0","1","0","null","","","<img src = 'category4/CS6.png' width = '100%;'>","null","","","","","","","","","",""
"","html-keyboard-response","225","555050","0.0-10.0-2.9","ljswwjm989","many_one","0","indirect_first","0","ss09us15","0","24","1","1","3","1","","0","1","0","null","","","<img src = 'targets/15.png' width = '100%;'>","null","","","","","","","","","",""
"","html-keyboard-response","226","555815","0.0-10.0-3.9","ljswwjm989","many_one","0","indirect_first","0","ss09us15","0","24","1","1","3","1","","0","1","0","763","","","<img src = 'targets/mask.png' width = '100%;'>","68","pos","GS","GSold","4","category4/CS6.png","targets/15.png","0","indirect","33",""
"","html-keyboard-response","227","557351","0.0-10.0-0.10","ljswwjm989","many_one","0","indirect_first","0","ss09us15","0","24","1","1","3","1","","0","1","0","null","","","<div style=""font-size:60px;"">+</div>","null","","","","","","","","","",""
"","html-keyboard-response","228","557451","0.0-10.0-1.10","ljswwjm989","many_one","0","indirect_first","0","ss09us15","0","24","1","1","3","1","","0","1","0","null","","","<img src = 'category3/CS7.png' width = '100%;'>","null","","","","","","","","","",""
"","html-keyboard-response","229","557730","0.0-10.0-2.10","ljswwjm989","many_one","0","indirect_first","0","ss09us15","0","24","1","1","3","1","","0","1","0","null","","","<img src = 'targets/27.png' width = '100%;'>","null","","","","","","","","","",""
"","html-keyboard-response","230","558315","0.0-10.0-3.10","ljswwjm989","many_one","0","indirect_first","0","ss09us15","0","24","1","1","3","1","","0","1","0","583","","","<img src = 'targets/mask.png' width = '100%;'>","75","pos","GS","GSold","3","category3/CS7.png","targets/27.png","1","indirect","34",""
"","html-keyboard-response","231","559831","0.0-10.0-0.11","ljswwjm989","many_one","0","indirect_first","0","ss09us15","0","24","1","1","3","1","","0","1","0","null","","","<div style=""font-size:60px;"">+</div>","null","","","","","","","","","",""
"","html-keyboard-response","232","559932","0.0-10.0-1.11","ljswwjm989","many_one","0","indirect_first","0","ss09us15","0","24","1","1","3","1","","0","1","0","null","","","<img src = 'category1/CS4.png' width = '100%;'>","null","","","","","","","","","",""
"","html-keyboard-response","233","560212","0.0-10.0-2.11","ljswwjm989","many_one","0","indirect_first","0","ss09us15","0","24","1","1","3","1","","0","1","0","null","","","<img src = 'targets/24.png' width = '100%;'>","null","","","","","","","","","",""
"","html-keyboard-response","234","560836","0.0-10.0-3.11","ljswwjm989","many_one","0","indirect_first","0","ss09us15","0","24","1","1","3","1","","0","1","0","621","","","<img src = 'targets/mask.png' width = '100%;'>","68","neg","GS","GSold","1","category1/CS4.png","targets/24.png","0","indirect","35",""
"","html-keyboard-response","235","562371","0.0-10.0-0.12","ljswwjm989","many_one","0","indirect_first","0","ss09us15","0","24","1","1","3","1","","0","1","0","null","","","<div style=""font-size:60px;"">+</div>","null","","","","","","","","","",""
"","html-keyboard-response","236","562470","0.0-10.0-1.12","ljswwjm989","many_one","0","indirect_first","0","ss09us15","0","24","1","1","3","1","","0","1","0","null","","","<img src = 'category1/CS8.png' width = '100%;'>","null","","","","","","","","","",""
"","html-keyboard-response","237","562752","0.0-10.0-2.12","ljswwjm989","many_one","0","indirect_first","0","ss09us15","0","24","1","1","3","1","","0","1","0","null","","","<img src = 'targets/17.png' width = '100%;'>","null","","","","","","","","","",""
"","html-keyboard-response","238","563248","0.0-10.0-3.12","ljswwjm989","many_one","0","indirect_first","0","ss09us15","0","24","1","1","3","1","","0","1","0","494","","","<img src = 'targets/mask.png' width = '100%;'>","68","neg","GS","GSold","1","category1/CS8.png","targets/17.png","0","indirect","36",""
"","html-keyboard-response","239","564771","0.0-10.0-0.13","ljswwjm989","many_one","0","indirect_first","0","ss09us15","0","24","1","1","3","1","","0","1","0","null","","","<div style=""font-size:60px;"">+</div>","null","","","","","","","","","",""
"","html-keyboard-response","240","564865","0.0-10.0-1.13","ljswwjm989","many_one","0","indirect_first","0","ss09us15","0","24","1","1","3","1","","0","1","0","null","","","<img src = 'category3/GS2.png' width = '100%;'>","null","","","","","","","","","",""
"","html-keyboard-response","241","565141","0.0-10.0-2.13","ljswwjm989","many_one","0","indirect_first","0","ss09us15","0","24","1","1","3","1","","0","1","0","null","","","<img src = 'targets/41.png' width = '100%;'>","null","","","","","","","","","",""
"","html-keyboard-response","242","565696","0.0-10.0-3.13","ljswwjm989","many_one","0","indirect_first","0","ss09us15","0","24","1","1","3","1","","0","1","0","553","","","<img src = 'targets/mask.png' width = '100%;'>","75","pos","GS","GSnew","3","category3/GS2.png","targets/41.png","1","indirect","37",""
"","html-keyboard-response","243","567220","0.0-10.0-0.14","ljswwjm989","many_one","0","indirect_first","0","ss09us15","0","24","1","1","3","1","","0","1","0","null","","","<div style=""font-size:60px;"">+</div>","null","","","","","","","","","",""
"","html-keyboard-response","244","567322","0.0-10.0-1.14","ljswwjm989","many_one","0","indirect_first","0","ss09us15","0","24","1","1","3","1","","0","1","0","null","","","<img src = 'category3/CS5.png' width = '100%;'>","null","","","","","","","","","",""
"","html-keyboard-response","245","567602","0.0-10.0-2.14","ljswwjm989","many_one","0","indirect_first","0","ss09us15","0","24","1","1","3","1","","0","1","0","null","","","<img src = 'targets/35.png' width = '100%;'>","null","","","","","","","","","",""
"","html-keyboard-response","246","568304","0.0-10.0-3.14","ljswwjm989","many_one","0","indirect_first","0","ss09us15","0","24","1","1","3","1","","0","1","0","700","","","<img src = 'targets/mask.png' width = '100%;'>","75","pos","GS","GSold","3","category3/CS5.png","targets/35.png","1","indirect","38",""
"","html-keyboard-response","247","569841","0.0-10.0-0.15","ljswwjm989","many_one","0","indirect_first","0","ss09us15","0","24","1","1","3","1","","0","1","0","null","","","<div style=""font-size:60px;"">+</div>","null","","","","","","","","","",""
"","html-keyboard-response","248","569941","0.0-10.0-1.15","ljswwjm989","many_one","0","indirect_first","0","ss09us15","0","24","1","1","3","1","","0","1","0","null","","","<img src = 'category3/GS1.png' width = '100%;'>","null","","","","","","","","","",""
"","html-keyboard-response","249","570221","0.0-10.0-2.15","ljswwjm989","many_one","0","indirect_first","0","ss09us15","0","24","1","1","3","1","","0","1","0","null","","","<img src = 'targets/18.png' width = '100%;'>","null","","","","","","","","","",""
"","html-keyboard-response","250","570876","0.0-10.0-3.15","ljswwjm989","many_one","0","indirect_first","0","ss09us15","0","24","1","1","3","1","","0","1","0","654","","","<img src = 'targets/mask.png' width = '100%;'>","68","pos","GS","GSnew","3","category3/GS1.png","targets/18.png","0","indirect","39",""
"","html-keyboard-response","251","572411","0.0-10.0-0.16","ljswwjm989","many_one","0","indirect_first","0","ss09us15","0","24","1","1","3","1","","0","1","0","null","","","<div style=""font-size:60px;"">+</div>","null","","","","","","","","","",""
"","html-keyboard-response","252","572511","0.0-10.0-1.16","ljswwjm989","many_one","0","indirect_first","0","ss09us15","0","24","1","1","3","1","","0","1","0","null","","","<img src = 'category3/GS3.png' width = '100%;'>","null","","","","","","","","","",""
"","html-keyboard-response","253","572793","0.0-10.0-2.16","ljswwjm989","many_one","0","indirect_first","0","ss09us15","0","24","1","1","3","1","","0","1","0","null","","","<img src = 'targets/21.png' width = '100%;'>","null","","","","","","","","","",""
"","html-keyboard-response","254","573877","0.0-10.0-3.16","ljswwjm989","many_one","0","indirect_first","0","ss09us15","0","24","1","1","3","1","","0","1","0","1083","","","<img src = 'targets/mask.png' width = '100%;'>","75","pos","GS","GSnew","3","category3/GS3.png","targets/21.png","1","indirect","40",""
"","html-keyboard-response","255","575391","0.0-10.0-0.17","ljswwjm989","many_one","0","indirect_first","0","ss09us15","0","24","1","1","3","1","","0","1","0","null","","","<div style=""font-size:60px;"">+</div>","null","","","","","","","","","",""
"","html-keyboard-response","256","575491","0.0-10.0-1.17","ljswwjm989","many_one","0","indirect_first","0","ss09us15","0","24","1","1","3","1","","0","1","0","null","","","<img src = 'category4/CS5.png' width = '100%;'>","null","","","","","","","","","",""
"","html-keyboard-response","257","575771","0.0-10.0-2.17","ljswwjm989","many_one","0","indirect_first","0","ss09us15","0","24","1","1","3","1","","0","1","0","null","","","<img src = 'targets/26.png' width = '100%;'>","null","","","","","","","","","",""
"","html-keyboard-response","258","576427","0.0-10.0-3.17","ljswwjm989","many_one","0","indirect_first","0","ss09us15","0","24","1","1","3","1","","0","1","0","655","","","<img src = 'targets/mask.png' width = '100%;'>","68","pos","GS","GSold","4","category4/CS5.png","targets/26.png","0","indirect","41",""
"","html-keyboard-response","259","577950","0.0-10.0-0.18","ljswwjm989","many_one","0","indirect_first","0","ss09us15","0","24","1","1","3","1","","0","1","0","null","","","<div style=""font-size:60px;"">+</div>","null","","","","","","","","","",""
"","html-keyboard-response","260","578052","0.0-10.0-1.18","ljswwjm989","many_one","0","indirect_first","0","ss09us15","0","24","1","1","3","1","","0","1","0","null","","","<img src = 'category2/men.png' width = '100%;'>","null","","","","","","","","","",""
"","html-keyboard-response","261","578331","0.0-10.0-2.18","ljswwjm989","many_one","0","indirect_first","0","ss09us15","0","24","1","1","3","1","","0","1","0","null","","","<img src = 'targets/1.png' width = '100%;'>","null","","","","","","","","","",""
"","html-keyboard-response","262","578768","0.0-10.0-3.18","ljswwjm989","many_one","0","indirect_first","0","ss09us15","0","24","1","1","3","1","","0","1","0","436","","","<img src = 'targets/mask.png' width = '100%;'>","75","neg","GS","abstract","2","category2/men.png","targets/1.png","1","indirect","42",""
"","html-keyboard-response","263","580271","0.0-10.0-0.19","ljswwjm989","many_one","0","indirect_first","0","ss09us15","0","24","1","1","3","1","","0","1","0","null","","","<div style=""font-size:60px;"">+</div>","null","","","","","","","","","",""
"","html-keyboard-response","264","580371","0.0-10.0-1.19","ljswwjm989","many_one","0","indirect_first","0","ss09us15","0","24","1","1","3","1","","0","1","0","null","","","<img src = 'category2/GS1.png' width = '100%;'>","null","","","","","","","","","",""
"","html-keyboard-response","265","580651","0.0-10.0-2.19","ljswwjm989","many_one","0","indirect_first","0","ss09us15","0","24","1","1","3","1","","0","1","0","null","","","<img src = 'targets/8.png' width = '100%;'>","null","","","","","","","","","",""
"","html-keyboard-response","266","581216","0.0-10.0-3.19","ljswwjm989","many_one","0","indirect_first","0","ss09us15","0","24","1","1","3","1","","0","1","0","563","","","<img src = 'targets/mask.png' width = '100%;'>","75","neg","GS","GSnew","2","category2/GS1.png","targets/8.png","1","indirect","43",""
"","html-keyboard-response","267","582751","0.0-10.0-0.20","ljswwjm989","many_one","0","indirect_first","0","ss09us15","0","24","1","1","3","1","","0","1","0","null","","","<div style=""font-size:60px;"">+</div>","null","","","","","","","","","",""
"","html-keyboard-response","268","582852","0.0-10.0-1.20","ljswwjm989","many_one","0","indirect_first","0","ss09us15","0","24","1","1","3","1","","0","1","0","null","","","<img src = 'category1/GS3.png' width = '100%;'>","null","","","","","","","","","",""
"","html-keyboard-response","269","583131","0.0-10.0-2.20","ljswwjm989","many_one","0","indirect_first","0","ss09us15","0","24","1","1","3","1","","0","1","0","null","","","<img src = 'targets/48.png' width = '100%;'>","null","","","","","","","","","",""
"","html-keyboard-response","270","583708","0.0-10.0-3.20","ljswwjm989","many_one","0","indirect_first","0","ss09us15","0","24","1","1","3","1","","0","1","0","575","","","<img src = 'targets/mask.png' width = '100%;'>","75","neg","GS","GSnew","1","category1/GS3.png","targets/48.png","1","indirect","44",""
"","html-keyboard-response","271","585231","0.0-10.0-0.21","ljswwjm989","many_one","0","indirect_first","0","ss09us15","0","24","1","1","3","1","","0","1","0","null","","","<div style=""font-size:60px;"">+</div>","null","","","","","","","","","",""
"","html-keyboard-response","272","585330","0.0-10.0-1.21","ljswwjm989","many_one","0","indirect_first","0","ss09us15","0","24","1","1","3","1","","0","1","0","null","","","<img src = 'category4/GS2.png' width = '100%;'>","null","","","","","","","","","",""
"","html-keyboard-response","273","585610","0.0-10.0-2.21","ljswwjm989","many_one","0","indirect_first","0","ss09us15","0","24","1","1","3","1","","0","1","0","null","","","<img src = 'targets/46.png' width = '100%;'>","null","","","","","","","","","",""
"","html-keyboard-response","274","586247","0.0-10.0-3.21","ljswwjm989","many_one","0","indirect_first","0","ss09us15","0","24","1","1","3","1","","0","1","0","635","","","<img src = 'targets/mask.png' width = '100%;'>","75","pos","GS","GSnew","4","category4/GS2.png","targets/46.png","1","indirect","45",""
"","html-keyboard-response","275","587770","0.0-10.0-0.22","ljswwjm989","many_one","0","indirect_first","0","ss09us15","0","24","1","1","3","1","","0","1","0","null","","","<div style=""font-size:60px;"">+</div>","null","","","","","","","","","",""
"","html-keyboard-response","276","587871","0.0-10.0-1.22","ljswwjm989","many_one","0","indirect_first","0","ss09us15","0","24","1","1","3","1","","0","1","0","null","","","<img src = 'category4/GS1.png' width = '100%;'>","null","","","","","","","","","",""
"","html-keyboard-response","277","588150","0.0-10.0-2.22","ljswwjm989","many_one","0","indirect_first","0","ss09us15","0","24","1","1","3","1","","0","1","0","null","","","<img src = 'targets/14.png' width = '100%;'>","null","","","","","","","","","",""
"","html-keyboard-response","278","589899","0.0-10.0-3.22","ljswwjm989","many_one","0","indirect_first","0","ss09us15","0","24","1","1","3","1","","0","1","0","1746","","","<img src = 'targets/mask.png' width = '100%;'>","68","pos","GS","GSnew","4","category4/GS1.png","targets/14.png","0","indirect","46",""
"","html-keyboard-response","279","591433","0.0-10.0-0.23","ljswwjm989","many_one","0","indirect_first","0","ss09us15","0","24","1","1","3","1","","0","1","0","null","","","<div style=""font-size:60px;"">+</div>","null","","","","","","","","","",""
"","html-keyboard-response","280","591530","0.0-10.0-1.23","ljswwjm989","many_one","0","indirect_first","0","ss09us15","0","24","1","1","3","1","","0","1","0","null","","","<img src = 'category4/CS3.png' width = '100%;'>","null","","","","","","","","","",""
"","html-keyboard-response","281","591810","0.0-10.0-2.23","ljswwjm989","many_one","0","indirect_first","0","ss09us15","0","24","1","1","3","1","","0","1","0","null","","","<img src = 'targets/40.png' width = '100%;'>","null","","","","","","","","","",""
"","html-keyboard-response","282","592288","0.0-10.0-3.23","ljswwjm989","many_one","0","indirect_first","0","ss09us15","0","24","1","1","3","1","","0","1","0","476","","","<img src = 'targets/mask.png' width = '100%;'>","75","pos","GS","GSold","4","category4/CS3.png","targets/40.png","1","indirect","47",""
"","survey-html-form","283","602478","0.0-11.0","ljswwjm989","many_one","0","indirect_first","0","ss09us15","0","24","1","1","3","1","","0","1","0","9677","","{}","","","","","","","","","","","",""
"","image-slider-response","284","631785","0.0-12.0-0.0","ljswwjm989","many_one","0","indirect_first","0","ss09us15","0","24","1","1","3","1","","0","1","0","27280","","","","","pos","GS","GSold","3","category3/CS5.png","targets/35.png","","direct","","66"
"","image-slider-response","285","642885","0.0-12.0-0.1","ljswwjm989","many_one","0","indirect_first","0","ss09us15","0","24","1","1","3","1","","0","1","0","11094","","","","","neg","GS","GSold","2","category2/CS2.png","targets/44.png","","direct","","41"
"","image-slider-response","286","647224","0.0-12.0-0.2","ljswwjm989","many_one","0","indirect_first","0","ss09us15","0","24","1","1","3","1","","0","1","0","4333","","","","","pos","CS","CS","3","category3/CS4.png","targets/22.png","","direct","","60"
"","image-slider-response","287","651272","0.0-12.0-0.3","ljswwjm989","many_one","0","indirect_first","0","ss09us15","0","24","1","1","3","1","","0","1","0","4043","","","","","neg","CS","CS","2","category2/CS10.png","targets/7.png","","direct","","62"
"","image-slider-response","288","655705","0.0-12.0-0.4","ljswwjm989","many_one","0","indirect_first","0","ss09us15","0","24","1","1","3","1","","0","1","0","4428","","","","","neg","GS","abstract","1","category1/ma.png","targets/5.png","","direct","","62"
"","image-slider-response","289","659464","0.0-12.0-0.5","ljswwjm989","many_one","0","indirect_first","0","ss09us15","0","24","1","1","3","1","","0","1","0","3754","","","","","neg","CS","CS","2","category2/CS8.png","targets/38.png","","direct","","70"
"","image-slider-response","290","663123","0.0-12.0-0.6","ljswwjm989","many_one","0","indirect_first","0","ss09us15","0","24","1","1","3","1","","0","1","0","3653","","","","","pos","CS","CS","4","category4/CS2.png","targets/39.png","","direct","","70"
"","image-slider-response","291","667145","0.0-12.0-0.7","ljswwjm989","many_one","0","indirect_first","0","ss09us15","0","24","1","1","3","1","","0","1","0","4014","","","","","pos","GS","abstract","3","category3/wang.png","targets/37.png","","direct","","69"
"","image-slider-response","292","670301","0.0-12.0-0.8","ljswwjm989","many_one","0","indirect_first","0","ss09us15","0","24","1","1","3","1","","0","1","0","3149","","","","","pos","CS","CS","4","category4/CS1.png","targets/34.png","","direct","","71"
"","image-slider-response","293","673546","0.0-12.0-0.9","ljswwjm989","many_one","0","indirect_first","0","ss09us15","0","24","1","1","3","1","","0","1","0","3239","","","","","neg","CS","CS","1","category1/CS6.png","targets/6.png","","direct","","67"
"","image-slider-response","294","676873","0.0-12.0-0.10","ljswwjm989","many_one","0","indirect_first","0","ss09us15","0","24","1","1","3","1","","0","1","0","3321","","","","","pos","CS","CS","3","category3/CS10.png","targets/3.png","","direct","","70"
"","image-slider-response","295","680360","0.0-12.0-0.11","ljswwjm989","many_one","0","indirect_first","0","ss09us15","0","24","1","1","3","1","","0","1","0","3482","","","","","pos","GS","GSnew","3","category3/GS2.png","targets/41.png","","direct","","75"
"","image-slider-response","296","684153","0.0-12.0-0.12","ljswwjm989","many_one","0","indirect_first","0","ss09us15","0","24","1","1","3","1","","0","1","0","3788","","","","","neg","GS","GSold","2","category2/CS5.png","targets/25.png","","direct","","69"
"","image-slider-response","297","687228","0.0-12.0-0.13","ljswwjm989","many_one","0","indirect_first","0","ss09us15","0","24","1","1","3","1","","0","1","0","3072","","","","","pos","GS","GSold","3","category3/CS6.png","targets/23.png","","direct","","75"
"","image-slider-response","298","690317","0.0-12.0-0.14","ljswwjm989","many_one","0","indirect_first","0","ss09us15","0","24","1","1","3","1","","0","1","0","3084","","","","","pos","GS","GSold","4","category4/CS3.png","targets/40.png","","direct","","73"
"","image-slider-response","299","693372","0.0-12.0-0.15","ljswwjm989","many_one","0","indirect_first","0","ss09us15","0","24","1","1","3","1","","0","1","0","3051","","","","","pos","GS","GSnew","4","category4/GS1.png","targets/14.png","","direct","","73"
"","image-slider-response","300","696856","0.0-12.0-0.16","ljswwjm989","many_one","0","indirect_first","0","ss09us15","0","24","1","1","3","1","","0","1","0","3480","","","","","neg","GS","GSnew","1","category1/GS1.png","targets/43.png","","direct","","69"
"","image-slider-response","301","700633","0.0-12.0-0.17","ljswwjm989","many_one","0","indirect_first","0","ss09us15","0","24","1","1","3","1","","0","1","0","3768","","","","","pos","GS","GSold","4","category4/CS5.png","targets/26.png","","direct","","70"
"","image-slider-response","302","704835","0.0-12.0-0.18","ljswwjm989","many_one","0","indirect_first","0","ss09us15","0","24","1","1","3","1","","0","1","0","4199","","","","","neg","GS","GSold","1","category1/CS10.png","targets/42.png","","direct","","76"
"","image-slider-response","303","707828","0.0-12.0-0.19","ljswwjm989","many_one","0","indirect_first","0","ss09us15","0","24","1","1","3","1","","0","1","0","2988","","","","","neg","CS","CS","2","category2/CS6.png","targets/45.png","","direct","","69"
"","image-slider-response","304","711332","0.0-12.0-0.20","ljswwjm989","many_one","0","indirect_first","0","ss09us15","0","24","1","1","3","1","","0","1","0","3498","","","","","pos","GS","GSnew","3","category3/GS3.png","targets/21.png","","direct","","70"
"","image-slider-response","305","714651","0.0-12.0-0.21","ljswwjm989","many_one","0","indirect_first","0","ss09us15","0","24","1","1","3","1","","0","1","0","3312","","","","","neg","GS","GSold","2","category2/CS1.png","targets/32.png","","direct","","71"
"","image-slider-response","306","717503","0.0-12.0-0.22","ljswwjm989","many_one","0","indirect_first","0","ss09us15","0","24","1","1","3","1","","0","1","0","2847","","","","","neg","GS","GSnew","2","category2/GS2.png","targets/4.png","","direct","","74"
"","image-slider-response","307","721246","0.0-12.0-0.23","ljswwjm989","many_one","0","indirect_first","0","ss09us15","0","24","1","1","3","1","","0","1","0","3736","","","","","neg","GS","abstract","2","category2/men.png","targets/1.png","","direct","","72"
"","image-slider-response","308","724843","0.0-12.0-0.24","ljswwjm989","many_one","0","indirect_first","0","ss09us15","0","24","1","1","3","1","","0","1","0","3592","","","","","pos","GS","GSold","4","category4/CS6.png","targets/15.png","","direct","","78"
"","image-slider-response","309","728954","0.0-12.0-0.25","ljswwjm989","many_one","0","indirect_first","0","ss09us15","0","24","1","1","3","1","","0","1","0","4107","","","","","neg","CS","CS","1","category1/CS1.png","targets/28.png","","direct","","71"
"","image-slider-response","310","733385","0.0-12.0-0.26","ljswwjm989","many_one","0","indirect_first","0","ss09us15","0","24","1","1","3","1","","0","1","0","4423","","","","","neg","CS","CS","1","category1/CS9.png","targets/2.png","","direct","","75"
"","image-slider-response","311","737199","0.0-12.0-0.27","ljswwjm989","many_one","0","indirect_first","0","ss09us15","0","24","1","1","3","1","","0","1","0","3808","","","","","pos","GS","GSnew","3","category3/GS1.png","targets/18.png","","direct","","78"
"","image-slider-response","312","740593","0.0-12.0-0.28","ljswwjm989","many_one","0","indirect_first","0","ss09us15","0","24","1","1","3","1","","0","1","0","3387","","","","","neg","GS","GSnew","2","category2/GS3.png","targets/13.png","","direct","","70"
"","image-slider-response","313","744585","0.0-12.0-0.29","ljswwjm989","many_one","0","indirect_first","0","ss09us15","0","24","1","1","3","1","","0","1","0","3986","","","","","neg","CS","CS","1","category1/CS2.png","targets/11.png","","direct","","82"
"","image-slider-response","314","751496","0.0-12.0-0.30","ljswwjm989","many_one","0","indirect_first","0","ss09us15","0","24","1","1","3","1","","0","1","0","6904","","","","","neg","CS","CS","2","category2/CS9.png","targets/20.png","","direct","","74"
"","image-slider-response","315","756225","0.0-12.0-0.31","ljswwjm989","many_one","0","indirect_first","0","ss09us15","0","24","1","1","3","1","","0","1","0","4724","","","","","pos","CS","CS","3","category3/CS9.png","targets/36.png","","direct","","79"
"","image-slider-response","316","759925","0.0-12.0-0.32","ljswwjm989","many_one","0","indirect_first","0","ss09us15","0","24","1","1","3","1","","0","1","0","3695","","","","","pos","GS","GSnew","4","category4/GS3.png","targets/16.png","","direct","","84"
"","image-slider-response","317","763687","0.0-12.0-0.33","ljswwjm989","many_one","0","indirect_first","0","ss09us15","0","24","1","1","3","1","","0","1","0","3755","","","","","pos","CS","CS","4","category4/CS10.png","targets/47.png","","direct","","85"
"","image-slider-response","318","766841","0.0-12.0-0.34","ljswwjm989","many_one","0","indirect_first","0","ss09us15","0","24","1","1","3","1","","0","1","0","3146","","","","","pos","CS","CS","3","category3/CS8.png","targets/29.png","","direct","","78"
"","image-slider-response","319","770654","0.0-12.0-0.35","ljswwjm989","many_one","0","indirect_first","0","ss09us15","0","24","1","1","3","1","","0","1","0","3804","","","","","pos","GS","GSold","3","category3/CS7.png","targets/27.png","","direct","","79"
"","image-slider-response","320","774364","0.0-12.0-0.36","ljswwjm989","many_one","0","indirect_first","0","ss09us15","0","24","1","1","3","1","","0","1","0","3704","","","","","pos","GS","GSnew","4","category4/GS2.png","targets/46.png","","direct","","73"
"","image-slider-response","321","777266","0.0-12.0-0.37","ljswwjm989","many_one","0","indirect_first","0","ss09us15","0","24","1","1","3","1","","0","1","0","2898","","","","","pos","CS","CS","4","category4/CS8.png","targets/30.png","","direct","","80"
"","image-slider-response","322","782382","0.0-12.0-0.38","ljswwjm989","many_one","0","indirect_first","0","ss09us15","0","24","1","1","3","1","","0","1","0","5113","","","","","pos","CS","CS","4","category4/CS9.png","targets/12.png","","direct","","80"
"","image-slider-response","323","786405","0.0-12.0-0.39","ljswwjm989","many_one","0","indirect_first","0","ss09us15","0","24","1","1","3","1","","0","1","0","4020","","","","","pos","CS","CS","3","category3/CS3.png","targets/19.png","","direct","","78"
"","image-slider-response","324","789233","0.0-12.0-0.40","ljswwjm989","many_one","0","indirect_first","0","ss09us15","0","24","1","1","3","1","","0","1","0","2821","","","","","neg","GS","GSold","1","category1/CS4.png","targets/24.png","","direct","","72"
"","image-slider-response","325","792604","0.0-12.0-0.41","ljswwjm989","many_one","0","indirect_first","0","ss09us15","0","24","1","1","3","1","","0","1","0","3363","","","","","neg","GS","GSold","1","category1/CS8.png","targets/17.png","","direct","","80"
"","image-slider-response","326","800145","0.0-12.0-0.42","ljswwjm989","many_one","0","indirect_first","0","ss09us15","0","24","1","1","3","1","","0","1","0","7535","","","","","neg","GS","GSnew","2","category2/GS1.png","targets/8.png","","direct","","78"
"","image-slider-response","327","805161","0.0-12.0-0.43","ljswwjm989","many_one","0","indirect_first","0","ss09us15","0","24","1","1","3","1","","0","1","0","5010","","","","","neg","CS","CS","2","category2/CS4.png","targets/31.png","","direct","","78"
"","image-slider-response","328","808037","0.0-12.0-0.44","ljswwjm989","many_one","0","indirect_first","0","ss09us15","0","24","1","1","3","1","","0","1","0","2872","","","","","neg","GS","GSnew","1","category1/GS3.png","targets/48.png","","direct","","75"
"","image-slider-response","329","810918","0.0-12.0-0.45","ljswwjm989","many_one","0","indirect_first","0","ss09us15","0","24","1","1","3","1","","0","1","0","2873","","","","","pos","GS","abstract","4","category4/lin.png","targets/33.png","","direct","","78"
"","image-slider-response","330","813518","0.0-12.0-0.46","ljswwjm989","many_one","0","indirect_first","0","ss09us15","0","24","1","1","3","1","","0","1","0","2595","","","","","neg","CS","CS","1","category1/CS5.png","targets/9.png","","direct","","77"
