"success","trial_type","trial_index","time_elapsed","internal_node_id","subject","condition","condition_code","measure","measure_code","codeword","gender","age","education","chinese","fach","handedness","comment","hinschauen","ablenkung","gewissenhaft","rt","url","responses","stimulus","key_press","val","type","type_specific","category","cs_selected","response","target","task","indirect","nr_pres"
"true","fullscreen","0","189272","0.0-0.0","yzekf20wzp","many_one","0","direct_first","1","yl09en20","0","19","1","1","3","2","","0","1","0","","","","","","","","","","","","","","",""
"","external-html","1","217001","0.0-1.0","yzekf20wzp","many_one","0","direct_first","1","yl09en20","0","19","1","1","3","2","","0","1","0","27629.09000000218","text/information.html","","","","","","","","","","","","",""
"","external-html","2","224648","0.0-2.0","yzekf20wzp","many_one","0","direct_first","1","yl09en20","0","19","1","1","3","2","","0","1","0","7591.820000030566","text/consent.html","","","","","","","","","","","","",""
"","survey-html-form","3","271481","0.0-3.0","yzekf20wzp","many_one","0","direct_first","1","yl09en20","0","19","1","1","3","2","","0","1","0","46829.60500003537","","{""codeword_enter"":""yl09en20""}","","","","","","","","","","","",""
"","survey-html-form","4","294747","0.0-4.0","yzekf20wzp","many_one","0","direct_first","1","yl09en20","0","19","1","1","3","2","","0","1","0","23263.470000005327","","{""age"":""19"",""education"":""1"",""subject"":""3"",""gender"":""0"",""handedness"":""2"",""chinese"":""1""}","","","","","","","","","","","",""
"","survey-html-form","5","304603","0.0-5.0","yzekf20wzp","many_one","0","direct_first","1","yl09en20","0","19","1","1","3","2","","0","1","0","9853.575000015553","","{}","","","","","","","","","","","",""
"","html-keyboard-response","6","308619","0.0-6.0-0.0-0.0","yzekf20wzp","many_one","0","direct_first","1","yl09en20","0","19","1","1","3","2","","0","1","0","null","","","<div class = 'row'><div class = 'column'><img src = 'category1/CS8.png' width = '70%;'></div><div class = 'column'><img src = 'usneg/6838.bmp' width = '100%;'></div></div>","null","neg","CS","CS","1","category1/CS8.png","","","","",""
"","html-keyboard-response","7","311133","0.0-6.0-0.0-0.1","yzekf20wzp","many_one","0","direct_first","1","yl09en20","0","19","1","1","3","2","","0","1","0","null","","","<div class = 'row'><div class = 'column'><img src = 'category2/CS3.png' width = '70%;'></div><div class = 'column'><img src = 'usneg/9415.bmp' width = '100%;'></div></div>","null","neg","CS","CS","2","category2/CS3.png","","","","",""
"","html-keyboard-response","8","313651","0.0-6.0-0.0-0.2","yzekf20wzp","many_one","0","direct_first","1","yl09en20","0","19","1","1","3","2","","0","1","0","null","","","<div class = 'row'><div class = 'column'><img src = 'category1/CS7.png' width = '70%;'></div><div class = 'column'><img src = 'usneg/9920.bmp' width = '100%;'></div></div>","null","neg","CS","CS","1","category1/CS7.png","","","","",""
"","html-keyboard-response","9","316175","0.0-6.0-0.0-0.3","yzekf20wzp","many_one","0","direct_first","1","yl09en20","0","19","1","1","3","2","","0","1","0","null","","","<div class = 'row'><div class = 'column'><img src = 'category3/CS2.png' width = '70%;'></div><div class = 'column'><img src = 'uspos/4625.bmp' width = '100%;'></div></div>","null","pos","CS","CS","3","category3/CS2.png","","","","",""
"","html-keyboard-response","10","318683","0.0-6.0-0.0-0.4","yzekf20wzp","many_one","0","direct_first","1","yl09en20","0","19","1","1","3","2","","0","1","0","null","","","<div class = 'row'><div class = 'column'><img src = 'uspos/8190.bmp' width = '100%;'></div><div class = 'column'><img src = 'category4/CS10.png' width = '70%;'></div></div>","null","pos","CS","CS","4","category4/CS10.png","","","","",""
"","html-keyboard-response","11","321206","0.0-6.0-0.0-0.5","yzekf20wzp","many_one","0","direct_first","1","yl09en20","0","19","1","1","3","2","","0","1","0","null","","","<div class = 'row'><div class = 'column'><img src = 'category2/CS4.png' width = '70%;'></div><div class = 'column'><img src = 'usneg/9290.bmp' width = '100%;'></div></div>","null","neg","CS","CS","2","category2/CS4.png","","","","",""
"","html-keyboard-response","12","323739","0.0-6.0-0.0-0.6","yzekf20wzp","many_one","0","direct_first","1","yl09en20","0","19","1","1","3","2","","0","1","0","null","","","<div class = 'row'><div class = 'column'><img src = 'uspos/5831.bmp' width = '100%;'></div><div class = 'column'><img src = 'category3/CS10.png' width = '70%;'></div></div>","null","pos","CS","CS","3","category3/CS10.png","","","","",""
"","html-keyboard-response","13","326266","0.0-6.0-0.0-0.7","yzekf20wzp","many_one","0","direct_first","1","yl09en20","0","19","1","1","3","2","","0","1","0","null","","","<div class = 'row'><div class = 'column'><img src = 'category4/CS6.png' width = '70%;'></div><div class = 'column'><img src = 'uspos/5629.bmp' width = '100%;'></div></div>","null","pos","CS","CS","4","category4/CS6.png","","","","",""
"","html-keyboard-response","14","328773","0.0-6.0-0.0-0.8","yzekf20wzp","many_one","0","direct_first","1","yl09en20","0","19","1","1","3","2","","0","1","0","null","","","<div class = 'row'><div class = 'column'><img src = 'uspos/5700.bmp' width = '100%;'></div><div class = 'column'><img src = 'category4/CS7.png' width = '70%;'></div></div>","null","pos","CS","CS","4","category4/CS7.png","","","","",""
"","html-keyboard-response","15","331300","0.0-6.0-0.0-0.9","yzekf20wzp","many_one","0","direct_first","1","yl09en20","0","19","1","1","3","2","","0","1","0","null","","","<div class = 'row'><div class = 'column'><img src = 'category1/CS5.png' width = '70%;'></div><div class = 'column'><img src = 'usneg/9220.bmp' width = '100%;'></div></div>","null","neg","CS","CS","1","category1/CS5.png","","","","",""
"","html-keyboard-response","16","333810","0.0-6.0-0.0-0.10","yzekf20wzp","many_one","0","direct_first","1","yl09en20","0","19","1","1","3","2","","0","1","0","null","","","<div class = 'row'><div class = 'column'><img src = 'category2/CS6.png' width = '70%;'></div><div class = 'column'><img src = 'usneg/9560.bmp' width = '100%;'></div></div>","null","neg","CS","CS","2","category2/CS6.png","","","","",""
"","html-keyboard-response","17","336340","0.0-6.0-0.0-0.11","yzekf20wzp","many_one","0","direct_first","1","yl09en20","0","19","1","1","3","2","","0","1","0","null","","","<div class = 'row'><div class = 'column'><img src = 'usneg/9041.bmp' width = '100%;'></div><div class = 'column'><img src = 'category2/CS2.png' width = '70%;'></div></div>","null","neg","CS","CS","2","category2/CS2.png","","","","",""
"","html-keyboard-response","18","338862","0.0-6.0-0.0-0.12","yzekf20wzp","many_one","0","direct_first","1","yl09en20","0","19","1","1","3","2","","0","1","0","null","","","<div class = 'row'><div class = 'column'><img src = 'uspos/8350.bmp' width = '100%;'></div><div class = 'column'><img src = 'category4/CS1.png' width = '70%;'></div></div>","null","pos","CS","CS","4","category4/CS1.png","","","","",""
"","html-keyboard-response","19","341374","0.0-6.0-0.0-0.13","yzekf20wzp","many_one","0","direct_first","1","yl09en20","0","19","1","1","3","2","","0","1","0","null","","","<div class = 'row'><div class = 'column'><img src = 'category1/CS10.png' width = '70%;'></div><div class = 'column'><img src = 'usneg/6570.1.bmp' width = '100%;'></div></div>","null","neg","CS","CS","1","category1/CS10.png","","","","",""
"","html-keyboard-response","20","343901","0.0-6.0-0.0-0.14","yzekf20wzp","many_one","0","direct_first","1","yl09en20","0","19","1","1","3","2","","0","1","0","null","","","<div class = 'row'><div class = 'column'><img src = 'category1/CS4.png' width = '70%;'></div><div class = 'column'><img src = 'usneg/9182.bmp' width = '100%;'></div></div>","null","neg","CS","CS","1","category1/CS4.png","","","","",""
"","html-keyboard-response","21","346413","0.0-6.0-0.0-0.15","yzekf20wzp","many_one","0","direct_first","1","yl09en20","0","19","1","1","3","2","","0","1","0","null","","","<div class = 'row'><div class = 'column'><img src = 'uspos/2058.bmp' width = '100%;'></div><div class = 'column'><img src = 'category3/CS4.png' width = '70%;'></div></div>","null","pos","CS","CS","3","category3/CS4.png","","","","",""
"","html-keyboard-response","22","348930","0.0-6.0-0.0-0.16","yzekf20wzp","many_one","0","direct_first","1","yl09en20","0","19","1","1","3","2","","0","1","0","null","","","<div class = 'row'><div class = 'column'><img src = 'category2/CS7.png' width = '70%;'></div><div class = 'column'><img src = 'usneg/9830.bmp' width = '100%;'></div></div>","null","neg","CS","CS","2","category2/CS7.png","","","","",""
"","html-keyboard-response","23","351449","0.0-6.0-0.0-0.17","yzekf20wzp","many_one","0","direct_first","1","yl09en20","0","19","1","1","3","2","","0","1","0","null","","","<div class = 'row'><div class = 'column'><img src = 'category3/CS1.png' width = '70%;'></div><div class = 'column'><img src = 'uspos/1463.bmp' width = '100%;'></div></div>","null","pos","CS","CS","3","category3/CS1.png","","","","",""
"","html-keyboard-response","24","353981","0.0-6.0-0.0-0.18","yzekf20wzp","many_one","0","direct_first","1","yl09en20","0","19","1","1","3","2","","0","1","0","null","","","<div class = 'row'><div class = 'column'><img src = 'uspos/5621.bmp' width = '100%;'></div><div class = 'column'><img src = 'category4/CS5.png' width = '70%;'></div></div>","null","pos","CS","CS","4","category4/CS5.png","","","","",""
"","html-keyboard-response","25","356520","0.0-6.0-0.0-0.19","yzekf20wzp","many_one","0","direct_first","1","yl09en20","0","19","1","1","3","2","","0","1","0","null","","","<div class = 'row'><div class = 'column'><img src = 'category3/CS6.png' width = '70%;'></div><div class = 'column'><img src = 'uspos/2360.bmp' width = '100%;'></div></div>","null","pos","CS","CS","3","category3/CS6.png","","","","",""
"","survey-html-form","26","359731","0.0-6.0-1.0","yzekf20wzp","many_one","0","direct_first","1","yl09en20","0","19","1","1","3","2","","0","1","0","2708.039999997709","","{}","","","","","","","","","","","",""
"","html-keyboard-response","27","363751","0.0-6.0-2.0-0.0","yzekf20wzp","many_one","0","direct_first","1","yl09en20","0","19","1","1","3","2","","0","1","0","null","","","<div class = 'row'><div class = 'column'><img src = 'category4/CS6.png' width = '70%;'></div><div class = 'column'><img src = 'uspos/5629.bmp' width = '100%;'></div></div>","null","pos","CS","CS","4","category4/CS6.png","","","","",""
"","html-keyboard-response","28","366270","0.0-6.0-2.0-0.1","yzekf20wzp","many_one","0","direct_first","1","yl09en20","0","19","1","1","3","2","","0","1","0","null","","","<div class = 'row'><div class = 'column'><img src = 'usneg/6838.bmp' width = '100%;'></div><div class = 'column'><img src = 'category1/CS8.png' width = '70%;'></div></div>","null","neg","CS","CS","1","category1/CS8.png","","","","",""
"","html-keyboard-response","29","368795","0.0-6.0-2.0-0.2","yzekf20wzp","many_one","0","direct_first","1","yl09en20","0","19","1","1","3","2","","0","1","0","null","","","<div class = 'row'><div class = 'column'><img src = 'category4/CS7.png' width = '70%;'></div><div class = 'column'><img src = 'uspos/5700.bmp' width = '100%;'></div></div>","null","pos","CS","CS","4","category4/CS7.png","","","","",""
"","html-keyboard-response","30","371311","0.0-6.0-2.0-0.3","yzekf20wzp","many_one","0","direct_first","1","yl09en20","0","19","1","1","3","2","","0","1","0","null","","","<div class = 'row'><div class = 'column'><img src = 'uspos/8190.bmp' width = '100%;'></div><div class = 'column'><img src = 'category4/CS10.png' width = '70%;'></div></div>","null","pos","CS","CS","4","category4/CS10.png","","","","",""
"","html-keyboard-response","31","373825","0.0-6.0-2.0-0.4","yzekf20wzp","many_one","0","direct_first","1","yl09en20","0","19","1","1","3","2","","0","1","0","null","","","<div class = 'row'><div class = 'column'><img src = 'usneg/6570.1.bmp' width = '100%;'></div><div class = 'column'><img src = 'category1/CS10.png' width = '70%;'></div></div>","null","neg","CS","CS","1","category1/CS10.png","","","","",""
"","html-keyboard-response","32","376334","0.0-6.0-2.0-0.5","yzekf20wzp","many_one","0","direct_first","1","yl09en20","0","19","1","1","3","2","","0","1","0","null","","","<div class = 'row'><div class = 'column'><img src = 'category3/CS1.png' width = '70%;'></div><div class = 'column'><img src = 'uspos/1463.bmp' width = '100%;'></div></div>","null","pos","CS","CS","3","category3/CS1.png","","","","",""
"","html-keyboard-response","33","378855","0.0-6.0-2.0-0.6","yzekf20wzp","many_one","0","direct_first","1","yl09en20","0","19","1","1","3","2","","0","1","0","null","","","<div class = 'row'><div class = 'column'><img src = 'category1/CS7.png' width = '70%;'></div><div class = 'column'><img src = 'usneg/9920.bmp' width = '100%;'></div></div>","null","neg","CS","CS","1","category1/CS7.png","","","","",""
"","html-keyboard-response","34","381390","0.0-6.0-2.0-0.7","yzekf20wzp","many_one","0","direct_first","1","yl09en20","0","19","1","1","3","2","","0","1","0","null","","","<div class = 'row'><div class = 'column'><img src = 'usneg/9220.bmp' width = '100%;'></div><div class = 'column'><img src = 'category1/CS5.png' width = '70%;'></div></div>","null","neg","CS","CS","1","category1/CS5.png","","","","",""
"","html-keyboard-response","35","383914","0.0-6.0-2.0-0.8","yzekf20wzp","many_one","0","direct_first","1","yl09en20","0","19","1","1","3","2","","0","1","0","null","","","<div class = 'row'><div class = 'column'><img src = 'usneg/9560.bmp' width = '100%;'></div><div class = 'column'><img src = 'category2/CS6.png' width = '70%;'></div></div>","null","neg","CS","CS","2","category2/CS6.png","","","","",""
"","html-keyboard-response","36","386436","0.0-6.0-2.0-0.9","yzekf20wzp","many_one","0","direct_first","1","yl09en20","0","19","1","1","3","2","","0","1","0","null","","","<div class = 'row'><div class = 'column'><img src = 'category3/CS2.png' width = '70%;'></div><div class = 'column'><img src = 'uspos/4625.bmp' width = '100%;'></div></div>","null","pos","CS","CS","3","category3/CS2.png","","","","",""
"","html-keyboard-response","37","388945","0.0-6.0-2.0-0.10","yzekf20wzp","many_one","0","direct_first","1","yl09en20","0","19","1","1","3","2","","0","1","0","null","","","<div class = 'row'><div class = 'column'><img src = 'uspos/5831.bmp' width = '100%;'></div><div class = 'column'><img src = 'category3/CS10.png' width = '70%;'></div></div>","null","pos","CS","CS","3","category3/CS10.png","","","","",""
"","html-keyboard-response","38","391464","0.0-6.0-2.0-0.11","yzekf20wzp","many_one","0","direct_first","1","yl09en20","0","19","1","1","3","2","","0","1","0","null","","","<div class = 'row'><div class = 'column'><img src = 'usneg/9830.bmp' width = '100%;'></div><div class = 'column'><img src = 'category2/CS7.png' width = '70%;'></div></div>","null","neg","CS","CS","2","category2/CS7.png","","","","",""
"","html-keyboard-response","39","393988","0.0-6.0-2.0-0.12","yzekf20wzp","many_one","0","direct_first","1","yl09en20","0","19","1","1","3","2","","0","1","0","null","","","<div class = 'row'><div class = 'column'><img src = 'category2/CS2.png' width = '70%;'></div><div class = 'column'><img src = 'usneg/9041.bmp' width = '100%;'></div></div>","null","neg","CS","CS","2","category2/CS2.png","","","","",""
"","html-keyboard-response","40","396496","0.0-6.0-2.0-0.13","yzekf20wzp","many_one","0","direct_first","1","yl09en20","0","19","1","1","3","2","","0","1","0","null","","","<div class = 'row'><div class = 'column'><img src = 'category3/CS6.png' width = '70%;'></div><div class = 'column'><img src = 'uspos/2360.bmp' width = '100%;'></div></div>","null","pos","CS","CS","3","category3/CS6.png","","","","",""
"","html-keyboard-response","41","399006","0.0-6.0-2.0-0.14","yzekf20wzp","many_one","0","direct_first","1","yl09en20","0","19","1","1","3","2","","0","1","0","null","","","<div class = 'row'><div class = 'column'><img src = 'usneg/9182.bmp' width = '100%;'></div><div class = 'column'><img src = 'category1/CS4.png' width = '70%;'></div></div>","null","neg","CS","CS","1","category1/CS4.png","","","","",""
"","html-keyboard-response","42","401525","0.0-6.0-2.0-0.15","yzekf20wzp","many_one","0","direct_first","1","yl09en20","0","19","1","1","3","2","","0","1","0","null","","","<div class = 'row'><div class = 'column'><img src = 'uspos/5621.bmp' width = '100%;'></div><div class = 'column'><img src = 'category4/CS5.png' width = '70%;'></div></div>","null","pos","CS","CS","4","category4/CS5.png","","","","",""
"","html-keyboard-response","43","404033","0.0-6.0-2.0-0.16","yzekf20wzp","many_one","0","direct_first","1","yl09en20","0","19","1","1","3","2","","0","1","0","null","","","<div class = 'row'><div class = 'column'><img src = 'category4/CS1.png' width = '70%;'></div><div class = 'column'><img src = 'uspos/8350.bmp' width = '100%;'></div></div>","null","pos","CS","CS","4","category4/CS1.png","","","","",""
"","html-keyboard-response","44","406550","0.0-6.0-2.0-0.17","yzekf20wzp","many_one","0","direct_first","1","yl09en20","0","19","1","1","3","2","","0","1","0","null","","","<div class = 'row'><div class = 'column'><img src = 'category2/CS3.png' width = '70%;'></div><div class = 'column'><img src = 'usneg/9415.bmp' width = '100%;'></div></div>","null","neg","CS","CS","2","category2/CS3.png","","","","",""
"","html-keyboard-response","45","409062","0.0-6.0-2.0-0.18","yzekf20wzp","many_one","0","direct_first","1","yl09en20","0","19","1","1","3","2","","0","1","0","null","","","<div class = 'row'><div class = 'column'><img src = 'usneg/9290.bmp' width = '100%;'></div><div class = 'column'><img src = 'category2/CS4.png' width = '70%;'></div></div>","null","neg","CS","CS","2","category2/CS4.png","","","","",""
"","html-keyboard-response","46","411579","0.0-6.0-2.0-0.19","yzekf20wzp","many_one","0","direct_first","1","yl09en20","0","19","1","1","3","2","","0","1","0","null","","","<div class = 'row'><div class = 'column'><img src = 'category3/CS4.png' width = '70%;'></div><div class = 'column'><img src = 'uspos/2058.bmp' width = '100%;'></div></div>","null","pos","CS","CS","3","category3/CS4.png","","","","",""
"","survey-html-form","47","414387","0.0-6.0-3.0","yzekf20wzp","many_one","0","direct_first","1","yl09en20","0","19","1","1","3","2","","0","1","0","2299.654999980703","","{}","","","","","","","","","","","",""
"","html-keyboard-response","48","418407","0.0-6.0-4.0-0.0","yzekf20wzp","many_one","0","direct_first","1","yl09en20","0","19","1","1","3","2","","0","1","0","null","","","<div class = 'row'><div class = 'column'><img src = 'usneg/9182.bmp' width = '100%;'></div><div class = 'column'><img src = 'category1/CS4.png' width = '70%;'></div></div>","null","neg","CS","CS","1","category1/CS4.png","","","","",""
"","html-keyboard-response","49","420926","0.0-6.0-4.0-0.1","yzekf20wzp","many_one","0","direct_first","1","yl09en20","0","19","1","1","3","2","","0","1","0","null","","","<div class = 'row'><div class = 'column'><img src = 'usneg/9560.bmp' width = '100%;'></div><div class = 'column'><img src = 'category2/CS6.png' width = '70%;'></div></div>","null","neg","CS","CS","2","category2/CS6.png","","","","",""
"","html-keyboard-response","50","423440","0.0-6.0-4.0-0.2","yzekf20wzp","many_one","0","direct_first","1","yl09en20","0","19","1","1","3","2","","0","1","0","null","","","<div class = 'row'><div class = 'column'><img src = 'category4/CS6.png' width = '70%;'></div><div class = 'column'><img src = 'uspos/5629.bmp' width = '100%;'></div></div>","null","pos","CS","CS","4","category4/CS6.png","","","","",""
"","html-keyboard-response","51","425966","0.0-6.0-4.0-0.3","yzekf20wzp","many_one","0","direct_first","1","yl09en20","0","19","1","1","3","2","","0","1","0","null","","","<div class = 'row'><div class = 'column'><img src = 'category2/CS2.png' width = '70%;'></div><div class = 'column'><img src = 'usneg/9041.bmp' width = '100%;'></div></div>","null","neg","CS","CS","2","category2/CS2.png","","","","",""
"","html-keyboard-response","52","428513","0.0-6.0-4.0-0.4","yzekf20wzp","many_one","0","direct_first","1","yl09en20","0","19","1","1","3","2","","0","1","0","null","","","<div class = 'row'><div class = 'column'><img src = 'category1/CS7.png' width = '70%;'></div><div class = 'column'><img src = 'usneg/9920.bmp' width = '100%;'></div></div>","null","neg","CS","CS","1","category1/CS7.png","","","","",""
"","html-keyboard-response","53","431040","0.0-6.0-4.0-0.5","yzekf20wzp","many_one","0","direct_first","1","yl09en20","0","19","1","1","3","2","","0","1","0","null","","","<div class = 'row'><div class = 'column'><img src = 'uspos/8190.bmp' width = '100%;'></div><div class = 'column'><img src = 'category4/CS10.png' width = '70%;'></div></div>","null","pos","CS","CS","4","category4/CS10.png","","","","",""
"","html-keyboard-response","54","433567","0.0-6.0-4.0-0.6","yzekf20wzp","many_one","0","direct_first","1","yl09en20","0","19","1","1","3","2","","0","1","0","null","","","<div class = 'row'><div class = 'column'><img src = 'category2/CS7.png' width = '70%;'></div><div class = 'column'><img src = 'usneg/9830.bmp' width = '100%;'></div></div>","null","neg","CS","CS","2","category2/CS7.png","","","","",""
"","html-keyboard-response","55","436080","0.0-6.0-4.0-0.7","yzekf20wzp","many_one","0","direct_first","1","yl09en20","0","19","1","1","3","2","","0","1","0","null","","","<div class = 'row'><div class = 'column'><img src = 'uspos/4625.bmp' width = '100%;'></div><div class = 'column'><img src = 'category3/CS2.png' width = '70%;'></div></div>","null","pos","CS","CS","3","category3/CS2.png","","","","",""
"","html-keyboard-response","56","438601","0.0-6.0-4.0-0.8","yzekf20wzp","many_one","0","direct_first","1","yl09en20","0","19","1","1","3","2","","0","1","0","null","","","<div class = 'row'><div class = 'column'><img src = 'uspos/1463.bmp' width = '100%;'></div><div class = 'column'><img src = 'category3/CS1.png' width = '70%;'></div></div>","null","pos","CS","CS","3","category3/CS1.png","","","","",""
"","html-keyboard-response","57","441145","0.0-6.0-4.0-0.9","yzekf20wzp","many_one","0","direct_first","1","yl09en20","0","19","1","1","3","2","","0","1","0","null","","","<div class = 'row'><div class = 'column'><img src = 'uspos/5700.bmp' width = '100%;'></div><div class = 'column'><img src = 'category4/CS7.png' width = '70%;'></div></div>","null","pos","CS","CS","4","category4/CS7.png","","","","",""
"","html-keyboard-response","58","443671","0.0-6.0-4.0-0.10","yzekf20wzp","many_one","0","direct_first","1","yl09en20","0","19","1","1","3","2","","0","1","0","null","","","<div class = 'row'><div class = 'column'><img src = 'category3/CS10.png' width = '70%;'></div><div class = 'column'><img src = 'uspos/5831.bmp' width = '100%;'></div></div>","null","pos","CS","CS","3","category3/CS10.png","","","","",""
"","html-keyboard-response","59","446192","0.0-6.0-4.0-0.11","yzekf20wzp","many_one","0","direct_first","1","yl09en20","0","19","1","1","3","2","","0","1","0","null","","","<div class = 'row'><div class = 'column'><img src = 'usneg/6838.bmp' width = '100%;'></div><div class = 'column'><img src = 'category1/CS8.png' width = '70%;'></div></div>","null","neg","CS","CS","1","category1/CS8.png","","","","",""
"","html-keyboard-response","60","448715","0.0-6.0-4.0-0.12","yzekf20wzp","many_one","0","direct_first","1","yl09en20","0","19","1","1","3","2","","0","1","0","null","","","<div class = 'row'><div class = 'column'><img src = 'uspos/2058.bmp' width = '100%;'></div><div class = 'column'><img src = 'category3/CS4.png' width = '70%;'></div></div>","null","pos","CS","CS","3","category3/CS4.png","","","","",""
"","html-keyboard-response","61","451237","0.0-6.0-4.0-0.13","yzekf20wzp","many_one","0","direct_first","1","yl09en20","0","19","1","1","3","2","","0","1","0","null","","","<div class = 'row'><div class = 'column'><img src = 'usneg/9290.bmp' width = '100%;'></div><div class = 'column'><img src = 'category2/CS4.png' width = '70%;'></div></div>","null","neg","CS","CS","2","category2/CS4.png","","","","",""
"","html-keyboard-response","62","453772","0.0-6.0-4.0-0.14","yzekf20wzp","many_one","0","direct_first","1","yl09en20","0","19","1","1","3","2","","0","1","0","null","","","<div class = 'row'><div class = 'column'><img src = 'category3/CS6.png' width = '70%;'></div><div class = 'column'><img src = 'uspos/2360.bmp' width = '100%;'></div></div>","null","pos","CS","CS","3","category3/CS6.png","","","","",""
"","html-keyboard-response","63","456313","0.0-6.0-4.0-0.15","yzekf20wzp","many_one","0","direct_first","1","yl09en20","0","19","1","1","3","2","","0","1","0","null","","","<div class = 'row'><div class = 'column'><img src = 'usneg/6570.1.bmp' width = '100%;'></div><div class = 'column'><img src = 'category1/CS10.png' width = '70%;'></div></div>","null","neg","CS","CS","1","category1/CS10.png","","","","",""
"","html-keyboard-response","64","458829","0.0-6.0-4.0-0.16","yzekf20wzp","many_one","0","direct_first","1","yl09en20","0","19","1","1","3","2","","0","1","0","null","","","<div class = 'row'><div class = 'column'><img src = 'category1/CS5.png' width = '70%;'></div><div class = 'column'><img src = 'usneg/9220.bmp' width = '100%;'></div></div>","null","neg","CS","CS","1","category1/CS5.png","","","","",""
"","html-keyboard-response","65","461358","0.0-6.0-4.0-0.17","yzekf20wzp","many_one","0","direct_first","1","yl09en20","0","19","1","1","3","2","","0","1","0","null","","","<div class = 'row'><div class = 'column'><img src = 'uspos/8350.bmp' width = '100%;'></div><div class = 'column'><img src = 'category4/CS1.png' width = '70%;'></div></div>","null","pos","CS","CS","4","category4/CS1.png","","","","",""
"","html-keyboard-response","66","463885","0.0-6.0-4.0-0.18","yzekf20wzp","many_one","0","direct_first","1","yl09en20","0","19","1","1","3","2","","0","1","0","null","","","<div class = 'row'><div class = 'column'><img src = 'category2/CS3.png' width = '70%;'></div><div class = 'column'><img src = 'usneg/9415.bmp' width = '100%;'></div></div>","null","neg","CS","CS","2","category2/CS3.png","","","","",""
"","html-keyboard-response","67","466415","0.0-6.0-4.0-0.19","yzekf20wzp","many_one","0","direct_first","1","yl09en20","0","19","1","1","3","2","","0","1","0","null","","","<div class = 'row'><div class = 'column'><img src = 'category4/CS5.png' width = '70%;'></div><div class = 'column'><img src = 'uspos/5621.bmp' width = '100%;'></div></div>","null","pos","CS","CS","4","category4/CS5.png","","","","",""
"","survey-html-form","68","468147","0.0-6.0-5.0","yzekf20wzp","many_one","0","direct_first","1","yl09en20","0","19","1","1","3","2","","0","1","0","1220.9649999858811","","{}","","","","","","","","","","","",""
"","html-keyboard-response","69","472173","0.0-6.0-6.0-0.0","yzekf20wzp","many_one","0","direct_first","1","yl09en20","0","19","1","1","3","2","","0","1","0","null","","","<div class = 'row'><div class = 'column'><img src = 'category4/CS10.png' width = '70%;'></div><div class = 'column'><img src = 'uspos/8190.bmp' width = '100%;'></div></div>","null","pos","CS","CS","4","category4/CS10.png","","","","",""
"","html-keyboard-response","70","474713","0.0-6.0-6.0-0.1","yzekf20wzp","many_one","0","direct_first","1","yl09en20","0","19","1","1","3","2","","0","1","0","null","","","<div class = 'row'><div class = 'column'><img src = 'uspos/5629.bmp' width = '100%;'></div><div class = 'column'><img src = 'category4/CS6.png' width = '70%;'></div></div>","null","pos","CS","CS","4","category4/CS6.png","","","","",""
"","html-keyboard-response","71","477230","0.0-6.0-6.0-0.2","yzekf20wzp","many_one","0","direct_first","1","yl09en20","0","19","1","1","3","2","","0","1","0","null","","","<div class = 'row'><div class = 'column'><img src = 'category1/CS8.png' width = '70%;'></div><div class = 'column'><img src = 'usneg/6838.bmp' width = '100%;'></div></div>","null","neg","CS","CS","1","category1/CS8.png","","","","",""
"","html-keyboard-response","72","479752","0.0-6.0-6.0-0.3","yzekf20wzp","many_one","0","direct_first","1","yl09en20","0","19","1","1","3","2","","0","1","0","null","","","<div class = 'row'><div class = 'column'><img src = 'category2/CS4.png' width = '70%;'></div><div class = 'column'><img src = 'usneg/9290.bmp' width = '100%;'></div></div>","null","neg","CS","CS","2","category2/CS4.png","","","","",""
"","html-keyboard-response","73","482284","0.0-6.0-6.0-0.4","yzekf20wzp","many_one","0","direct_first","1","yl09en20","0","19","1","1","3","2","","0","1","0","null","","","<div class = 'row'><div class = 'column'><img src = 'category3/CS1.png' width = '70%;'></div><div class = 'column'><img src = 'uspos/1463.bmp' width = '100%;'></div></div>","null","pos","CS","CS","3","category3/CS1.png","","","","",""
"","html-keyboard-response","74","484803","0.0-6.0-6.0-0.5","yzekf20wzp","many_one","0","direct_first","1","yl09en20","0","19","1","1","3","2","","0","1","0","null","","","<div class = 'row'><div class = 'column'><img src = 'usneg/9830.bmp' width = '100%;'></div><div class = 'column'><img src = 'category2/CS7.png' width = '70%;'></div></div>","null","neg","CS","CS","2","category2/CS7.png","","","","",""
"","html-keyboard-response","75","487322","0.0-6.0-6.0-0.6","yzekf20wzp","many_one","0","direct_first","1","yl09en20","0","19","1","1","3","2","","0","1","0","null","","","<div class = 'row'><div class = 'column'><img src = 'usneg/6570.1.bmp' width = '100%;'></div><div class = 'column'><img src = 'category1/CS10.png' width = '70%;'></div></div>","null","neg","CS","CS","1","category1/CS10.png","","","","",""
"","html-keyboard-response","76","489829","0.0-6.0-6.0-0.7","yzekf20wzp","many_one","0","direct_first","1","yl09en20","0","19","1","1","3","2","","0","1","0","null","","","<div class = 'row'><div class = 'column'><img src = 'category2/CS2.png' width = '70%;'></div><div class = 'column'><img src = 'usneg/9041.bmp' width = '100%;'></div></div>","null","neg","CS","CS","2","category2/CS2.png","","","","",""
"","html-keyboard-response","77","492348","0.0-6.0-6.0-0.8","yzekf20wzp","many_one","0","direct_first","1","yl09en20","0","19","1","1","3","2","","0","1","0","null","","","<div class = 'row'><div class = 'column'><img src = 'uspos/2058.bmp' width = '100%;'></div><div class = 'column'><img src = 'category3/CS4.png' width = '70%;'></div></div>","null","pos","CS","CS","3","category3/CS4.png","","","","",""
"","html-keyboard-response","78","494875","0.0-6.0-6.0-0.9","yzekf20wzp","many_one","0","direct_first","1","yl09en20","0","19","1","1","3","2","","0","1","0","null","","","<div class = 'row'><div class = 'column'><img src = 'category2/CS3.png' width = '70%;'></div><div class = 'column'><img src = 'usneg/9415.bmp' width = '100%;'></div></div>","null","neg","CS","CS","2","category2/CS3.png","","","","",""
"","html-keyboard-response","79","497401","0.0-6.0-6.0-0.10","yzekf20wzp","many_one","0","direct_first","1","yl09en20","0","19","1","1","3","2","","0","1","0","null","","","<div class = 'row'><div class = 'column'><img src = 'category2/CS6.png' width = '70%;'></div><div class = 'column'><img src = 'usneg/9560.bmp' width = '100%;'></div></div>","null","neg","CS","CS","2","category2/CS6.png","","","","",""
"","html-keyboard-response","80","499924","0.0-6.0-6.0-0.11","yzekf20wzp","many_one","0","direct_first","1","yl09en20","0","19","1","1","3","2","","0","1","0","null","","","<div class = 'row'><div class = 'column'><img src = 'category1/CS4.png' width = '70%;'></div><div class = 'column'><img src = 'usneg/9182.bmp' width = '100%;'></div></div>","null","neg","CS","CS","1","category1/CS4.png","","","","",""
"","html-keyboard-response","81","502441","0.0-6.0-6.0-0.12","yzekf20wzp","many_one","0","direct_first","1","yl09en20","0","19","1","1","3","2","","0","1","0","null","","","<div class = 'row'><div class = 'column'><img src = 'usneg/9920.bmp' width = '100%;'></div><div class = 'column'><img src = 'category1/CS7.png' width = '70%;'></div></div>","null","neg","CS","CS","1","category1/CS7.png","","","","",""
"","html-keyboard-response","82","504953","0.0-6.0-6.0-0.13","yzekf20wzp","many_one","0","direct_first","1","yl09en20","0","19","1","1","3","2","","0","1","0","null","","","<div class = 'row'><div class = 'column'><img src = 'uspos/5621.bmp' width = '100%;'></div><div class = 'column'><img src = 'category4/CS5.png' width = '70%;'></div></div>","null","pos","CS","CS","4","category4/CS5.png","","","","",""
"","html-keyboard-response","83","507480","0.0-6.0-6.0-0.14","yzekf20wzp","many_one","0","direct_first","1","yl09en20","0","19","1","1","3","2","","0","1","0","null","","","<div class = 'row'><div class = 'column'><img src = 'uspos/8350.bmp' width = '100%;'></div><div class = 'column'><img src = 'category4/CS1.png' width = '70%;'></div></div>","null","pos","CS","CS","4","category4/CS1.png","","","","",""
"","html-keyboard-response","84","509985","0.0-6.0-6.0-0.15","yzekf20wzp","many_one","0","direct_first","1","yl09en20","0","19","1","1","3","2","","0","1","0","null","","","<div class = 'row'><div class = 'column'><img src = 'category3/CS10.png' width = '70%;'></div><div class = 'column'><img src = 'uspos/5831.bmp' width = '100%;'></div></div>","null","pos","CS","CS","3","category3/CS10.png","","","","",""
"","html-keyboard-response","85","512503","0.0-6.0-6.0-0.16","yzekf20wzp","many_one","0","direct_first","1","yl09en20","0","19","1","1","3","2","","0","1","0","null","","","<div class = 'row'><div class = 'column'><img src = 'category3/CS6.png' width = '70%;'></div><div class = 'column'><img src = 'uspos/2360.bmp' width = '100%;'></div></div>","null","pos","CS","CS","3","category3/CS6.png","","","","",""
"","html-keyboard-response","86","515008","0.0-6.0-6.0-0.17","yzekf20wzp","many_one","0","direct_first","1","yl09en20","0","19","1","1","3","2","","0","1","0","null","","","<div class = 'row'><div class = 'column'><img src = 'category4/CS7.png' width = '70%;'></div><div class = 'column'><img src = 'uspos/5700.bmp' width = '100%;'></div></div>","null","pos","CS","CS","4","category4/CS7.png","","","","",""
"","html-keyboard-response","87","517544","0.0-6.0-6.0-0.18","yzekf20wzp","many_one","0","direct_first","1","yl09en20","0","19","1","1","3","2","","0","1","0","null","","","<div class = 'row'><div class = 'column'><img src = 'usneg/9220.bmp' width = '100%;'></div><div class = 'column'><img src = 'category1/CS5.png' width = '70%;'></div></div>","null","neg","CS","CS","1","category1/CS5.png","","","","",""
"","html-keyboard-response","88","520074","0.0-6.0-6.0-0.19","yzekf20wzp","many_one","0","direct_first","1","yl09en20","0","19","1","1","3","2","","0","1","0","null","","","<div class = 'row'><div class = 'column'><img src = 'category3/CS2.png' width = '70%;'></div><div class = 'column'><img src = 'uspos/4625.bmp' width = '100%;'></div></div>","null","pos","CS","CS","3","category3/CS2.png","","","","",""
"","survey-html-form","89","528617","0.0-7.0","yzekf20wzp","many_one","0","direct_first","1","yl09en20","0","19","1","1","3","2","","0","1","0","8039.709999982733","","{}","","","","","","","","","","","",""
"","image-slider-response","90","535478","0.0-8.0-0.0","yzekf20wzp","many_one","0","direct_first","1","yl09en20","0","19","1","1","3","2","","0","1","0","4842.765000008512","","","","","neg","GS","GSold","1","category1/CS3.png","30","targets/35.png","direct","",""
"","image-slider-response","91","539345","0.0-8.0-0.1","yzekf20wzp","many_one","0","direct_first","1","yl09en20","0","19","1","1","3","2","","0","1","0","3864.9699999950826","","","","","neg","CS","CS","2","category2/CS7.png","-37","targets/17.png","direct","",""
"","image-slider-response","92","546177","0.0-8.0-0.2","yzekf20wzp","many_one","0","direct_first","1","yl09en20","0","19","1","1","3","2","","0","1","0","6829.444999981206","","","","","pos","GS","GSnew","3","category3/GS2.png","-61","targets/2.png","direct","",""
"","image-slider-response","93","550694","0.0-8.0-0.3","yzekf20wzp","many_one","0","direct_first","1","yl09en20","0","19","1","1","3","2","","0","1","0","4515.849999967031","","","","","pos","GS","GSnew","4","category4/GS2.png","28","targets/29.png","direct","",""
"","image-slider-response","94","556811","0.0-8.0-0.4","yzekf20wzp","many_one","0","direct_first","1","yl09en20","0","19","1","1","3","2","","0","1","0","6114.354999968782","","","","","neg","CS","CS","1","category1/CS8.png","-35","targets/39.png","direct","",""
"","image-slider-response","95","560951","0.0-8.0-0.5","yzekf20wzp","many_one","0","direct_first","1","yl09en20","0","19","1","1","3","2","","0","1","0","4137.675000005402","","","","","pos","CS","CS","3","category3/CS10.png","77","targets/9.png","direct","",""
"","image-slider-response","96","566456","0.0-8.0-0.6","yzekf20wzp","many_one","0","direct_first","1","yl09en20","0","19","1","1","3","2","","0","1","0","5503.825000021607","","","","","neg","GS","GSnew","2","category2/GS2.png","-87","targets/31.png","direct","",""
"","image-slider-response","97","569941","0.0-8.0-0.7","yzekf20wzp","many_one","0","direct_first","1","yl09en20","0","19","1","1","3","2","","0","1","0","3482.5749999727122","","","","","neg","CS","CS","2","category2/CS6.png","-71","targets/6.png","direct","",""
"","image-slider-response","98","573553","0.0-8.0-0.8","yzekf20wzp","many_one","0","direct_first","1","yl09en20","0","19","1","1","3","2","","0","1","0","3609.6550000365824","","","","","neg","GS","GSold","2","category2/CS5.png","-67","targets/44.png","direct","",""
"","image-slider-response","99","577938","0.0-8.0-0.9","yzekf20wzp","many_one","0","direct_first","1","yl09en20","0","19","1","1","3","2","","0","1","0","4381.359999999404","","","","","neg","GS","GSnew","1","category1/GS2.png","-92","targets/45.png","direct","",""
"","image-slider-response","100","581586","0.0-8.0-0.10","yzekf20wzp","many_one","0","direct_first","1","yl09en20","0","19","1","1","3","2","","0","1","0","3646.390000008978","","","","","neg","CS","CS","1","category1/CS10.png","-100","targets/37.png","direct","",""
"","image-slider-response","101","585470","0.0-8.0-0.11","yzekf20wzp","many_one","0","direct_first","1","yl09en20","0","19","1","1","3","2","","0","1","0","3881.5700000268407","","","","","neg","GS","GSold","1","category1/CS1.png","-56","targets/40.png","direct","",""
"","image-slider-response","102","590502","0.0-8.0-0.12","yzekf20wzp","many_one","0","direct_first","1","yl09en20","0","19","1","1","3","2","","0","1","0","5029.915000020992","","","","","pos","GS","GSold","4","category4/CS4.png","55","targets/19.png","direct","",""
"","image-slider-response","103","593821","0.0-8.0-0.13","yzekf20wzp","many_one","0","direct_first","1","yl09en20","0","19","1","1","3","2","","0","1","0","3316.6549999732524","","","","","pos","GS","GSnew","4","category4/GS1.png","41","targets/1.png","direct","",""
"","image-slider-response","104","597033","0.0-8.0-0.14","yzekf20wzp","many_one","0","direct_first","1","yl09en20","0","19","1","1","3","2","","0","1","0","3209.514999995008","","","","","neg","GS","GSold","2","category2/CS1.png","-68","targets/13.png","direct","",""
"","image-slider-response","105","602391","0.0-8.0-0.15","yzekf20wzp","many_one","0","direct_first","1","yl09en20","0","19","1","1","3","2","","0","1","0","5355.8349999948405","","","","","neg","GS","GSnew","2","category2/GS1.png","-9","targets/22.png","direct","",""
"","image-slider-response","106","606261","0.0-8.0-0.16","yzekf20wzp","many_one","0","direct_first","1","yl09en20","0","19","1","1","3","2","","0","1","0","3868.04500001017","","","","","neg","GS","GSnew","2","category2/GS3.png","-39","targets/15.png","direct","",""
"","image-slider-response","107","610649","0.0-8.0-0.17","yzekf20wzp","many_one","0","direct_first","1","yl09en20","0","19","1","1","3","2","","0","1","0","4386.880000005476","","","","","neg","CS","CS","2","category2/CS2.png","-83","targets/28.png","direct","",""
"","image-slider-response","108","614021","0.0-8.0-0.18","yzekf20wzp","many_one","0","direct_first","1","yl09en20","0","19","1","1","3","2","","0","1","0","3369.3950000451878","","","","","pos","GS","abstract","3","category3/wang.png","100","targets/47.png","direct","",""
"","image-slider-response","109","617349","0.0-8.0-0.19","yzekf20wzp","many_one","0","direct_first","1","yl09en20","0","19","1","1","3","2","","0","1","0","3326.0400000144728","","","","","pos","GS","GSnew","3","category3/GS3.png","65","targets/23.png","direct","",""
"","image-slider-response","110","621163","0.0-8.0-0.20","yzekf20wzp","many_one","0","direct_first","1","yl09en20","0","19","1","1","3","2","","0","1","0","3811.470000015106","","","","","pos","GS","GSold","4","category4/CS3.png","15","targets/20.png","direct","",""
"","image-slider-response","111","624593","0.0-8.0-0.21","yzekf20wzp","many_one","0","direct_first","1","yl09en20","0","19","1","1","3","2","","0","1","0","3428.7200000253506","","","","","pos","CS","CS","4","category4/CS5.png","26","targets/38.png","direct","",""
"","image-slider-response","112","627743","0.0-8.0-0.22","yzekf20wzp","many_one","0","direct_first","1","yl09en20","0","19","1","1","3","2","","0","1","0","3147.709999990184","","","","","pos","CS","CS","4","category4/CS10.png","49","targets/26.png","direct","",""
"","image-slider-response","113","631980","0.0-8.0-0.23","yzekf20wzp","many_one","0","direct_first","1","yl09en20","0","19","1","1","3","2","","0","1","0","4235.469999955967","","","","","neg","CS","CS","1","category1/CS7.png","-59","targets/41.png","direct","",""
"","image-slider-response","114","635543","0.0-8.0-0.24","yzekf20wzp","many_one","0","direct_first","1","yl09en20","0","19","1","1","3","2","","0","1","0","3560.7750000199303","","","","","pos","GS","GSold","4","category4/CS2.png","61","targets/3.png","direct","",""
"","image-slider-response","115","639231","0.0-8.0-0.25","yzekf20wzp","many_one","0","direct_first","1","yl09en20","0","19","1","1","3","2","","0","1","0","3685.989999969024","","","","","pos","CS","CS","3","category3/CS6.png","77","targets/7.png","direct","",""
"","image-slider-response","116","642940","0.0-8.0-0.26","yzekf20wzp","many_one","0","direct_first","1","yl09en20","0","19","1","1","3","2","","0","1","0","3706.2450000084937","","","","","neg","GS","GSnew","1","category1/GS1.png","-15","targets/24.png","direct","",""
"","image-slider-response","117","648223","0.0-8.0-0.27","yzekf20wzp","many_one","0","direct_first","1","yl09en20","0","19","1","1","3","2","","0","1","0","5281.215000024531","","","","","neg","GS","GSold","1","category1/CS9.png","-12","targets/30.png","direct","",""
"","image-slider-response","118","652825","0.0-8.0-0.28","yzekf20wzp","many_one","0","direct_first","1","yl09en20","0","19","1","1","3","2","","0","1","0","4600.634999980684","","","","","neg","CS","CS","1","category1/CS5.png","-66","targets/18.png","direct","",""
"","image-slider-response","119","656133","0.0-8.0-0.29","yzekf20wzp","many_one","0","direct_first","1","yl09en20","0","19","1","1","3","2","","0","1","0","3305.099999997765","","","","","pos","CS","CS","3","category3/CS1.png","89","targets/10.png","direct","",""
"","image-slider-response","120","660160","0.0-8.0-0.30","yzekf20wzp","many_one","0","direct_first","1","yl09en20","0","19","1","1","3","2","","0","1","0","4025.259999965783","","","","","neg","CS","CS","2","category2/CS4.png","-58","targets/48.png","direct","",""
"","image-slider-response","121","664310","0.0-8.0-0.31","yzekf20wzp","many_one","0","direct_first","1","yl09en20","0","19","1","1","3","2","","0","1","0","4147.365000040736","","","","","neg","GS","abstract","1","category1/ma.png","-73","targets/43.png","direct","",""
"","image-slider-response","122","668038","0.0-8.0-0.32","yzekf20wzp","many_one","0","direct_first","1","yl09en20","0","19","1","1","3","2","","0","1","0","3725.860000005923","","","","","pos","CS","CS","4","category4/CS1.png","81","targets/14.png","direct","",""
"","image-slider-response","123","671151","0.0-8.0-0.33","yzekf20wzp","many_one","0","direct_first","1","yl09en20","0","19","1","1","3","2","","0","1","0","3112.0949999894947","","","","","neg","CS","CS","1","category1/CS4.png","-69","targets/27.png","direct","",""
"","image-slider-response","124","675184","0.0-8.0-0.34","yzekf20wzp","many_one","0","direct_first","1","yl09en20","0","19","1","1","3","2","","0","1","0","4031.0150000150315","","","","","pos","GS","GSold","3","category3/CS5.png","96","targets/46.png","direct","",""
"","image-slider-response","125","678177","0.0-8.0-0.35","yzekf20wzp","many_one","0","direct_first","1","yl09en20","0","19","1","1","3","2","","0","1","0","2990.0899999774992","","","","","neg","GS","GSold","2","category2/CS8.png","-47","targets/12.png","direct","",""
"","image-slider-response","126","682447","0.0-8.0-0.36","yzekf20wzp","many_one","0","direct_first","1","yl09en20","0","19","1","1","3","2","","0","1","0","4269.359999976587","","","","","pos","CS","CS","4","category4/CS7.png","97","targets/34.png","direct","",""
"","image-slider-response","127","685215","0.0-8.0-0.37","yzekf20wzp","many_one","0","direct_first","1","yl09en20","0","19","1","1","3","2","","0","1","0","2765.1000000187196","","","","","pos","CS","CS","4","category4/CS6.png","50","targets/4.png","direct","",""
"","image-slider-response","128","688234","0.0-8.0-0.38","yzekf20wzp","many_one","0","direct_first","1","yl09en20","0","19","1","1","3","2","","0","1","0","3016.880000010133","","","","","pos","GS","GSnew","3","category3/GS1.png","70","targets/5.png","direct","",""
"","image-slider-response","129","691947","0.0-8.0-0.39","yzekf20wzp","many_one","0","direct_first","1","yl09en20","0","19","1","1","3","2","","0","1","0","3711.234999995213","","","","","pos","GS","GSnew","4","category4/GS3.png","-23","targets/11.png","direct","",""
"","image-slider-response","130","694880","0.0-8.0-0.40","yzekf20wzp","many_one","0","direct_first","1","yl09en20","0","19","1","1","3","2","","0","1","0","2930.975000024773","","","","","pos","GS","GSold","3","category3/CS3.png","66","targets/33.png","direct","",""
"","image-slider-response","131","700911","0.0-8.0-0.41","yzekf20wzp","many_one","0","direct_first","1","yl09en20","0","19","1","1","3","2","","0","1","0","6029.014999978244","","","","","neg","GS","GSnew","1","category1/GS3.png","10","targets/42.png","direct","",""
"","image-slider-response","132","704545","0.0-8.0-0.42","yzekf20wzp","many_one","0","direct_first","1","yl09en20","0","19","1","1","3","2","","0","1","0","3631.9299999740906","","","","","pos","GS","GSold","3","category3/CS9.png","95","targets/36.png","direct","",""
"","image-slider-response","133","708044","0.0-8.0-0.43","yzekf20wzp","many_one","0","direct_first","1","yl09en20","0","19","1","1","3","2","","0","1","0","3496.400000003632","","","","","pos","GS","abstract","4","category4/lin.png","95","targets/21.png","direct","",""
"","image-slider-response","134","711211","0.0-8.0-0.44","yzekf20wzp","many_one","0","direct_first","1","yl09en20","0","19","1","1","3","2","","0","1","0","3165.0099999969825","","","","","pos","CS","CS","3","category3/CS4.png","55","targets/25.png","direct","",""
"","image-slider-response","135","718076","0.0-8.0-0.45","yzekf20wzp","many_one","0","direct_first","1","yl09en20","0","19","1","1","3","2","","0","1","0","6863.124999974389","","","","","neg","GS","abstract","2","category2/men.png","-93","targets/8.png","direct","",""
"","image-slider-response","136","721351","0.0-8.0-0.46","yzekf20wzp","many_one","0","direct_first","1","yl09en20","0","19","1","1","3","2","","0","1","0","3273.2749999850057","","","","","pos","CS","CS","3","category3/CS2.png","88","targets/16.png","direct","",""
"","image-slider-response","137","724125","0.0-8.0-0.47","yzekf20wzp","many_one","0","direct_first","1","yl09en20","0","19","1","1","3","2","","0","1","0","2772.769999981392","","","","","neg","CS","CS","2","category2/CS3.png","-78","targets/32.png","direct","",""
"","html-keyboard-response","138","740148","0.0-9.0","yzekf20wzp","many_one","0","direct_first","1","yl09en20","0","19","1","1","3","2","","0","1","0","16021.58000000054","","","<p>Sie sehen nun die chinesischen Zeichen nur ganz kurz. Danach sehen Sie die jeweilige Aussprache der Zeichen als Silbe auf dem Bildschrim. Ihre Aufgabe ist es, für jede Silbe anzugeben, ob diese etwas angenehmes, oder unangenehmes bedeuten könnte. Verlassen Sie sich hier vor allem auf Ihre Intuition.<br><br>Die Zeichen werden nur zur Orientierung dargestellt, beachten Sie sie deshalb nicht. Konzentrieren Sie sich vor allem auf die Silben. <br>Reagieren Sie mit folgenden zwei Tasten: <br><br><b>'D' </b> wenn die Silbe etwas <b>unangenehmes</b> bedeuten könnte. <br><b>'K'</b> wenn die Silbe etwas <b>angenehmes</b> bedeuten könnte. <br><br>Bitte legen Sie nun den Zeigefinger der linken Hand auf die Taste 'D' und den Zeigefinger der rechten Hand auf die Taste 'K'. <br>Reagieren Sie auf jede Silbe so schnell wie möglich. Uns interessiert Ihre spontane Reaktion. <br> <br> <br>Drücken Sie 'D' oder 'K', um die nächste Aufgabe zu starten. </p>","75","","","","","","","","","",""
"","html-keyboard-response","139","743175","0.0-10.0-0.0","yzekf20wzp","many_one","0","direct_first","1","yl09en20","0","19","1","1","3","2","","0","1","0","null","","","<div style=""font-size:60px;"">+</div>","null","","","","","","","","","",""
"","html-keyboard-response","140","743288","0.0-10.0-1.0","yzekf20wzp","many_one","0","direct_first","1","yl09en20","0","19","1","1","3","2","","0","1","0","null","","","<img src = 'category3/CS10.png' width = '100%;'>","null","","","","","","","","","",""
"","html-keyboard-response","141","743546","0.0-10.0-2.0","yzekf20wzp","many_one","0","direct_first","1","yl09en20","0","19","1","1","3","2","","0","1","0","null","","","<img src = 'targets/9.png' width = '100%;'>","null","","","","","","","","","",""
"","html-keyboard-response","142","747989","0.0-10.0-3.0","yzekf20wzp","many_one","0","direct_first","1","yl09en20","0","19","1","1","3","2","","0","1","0","4441.984999983106","","","<img src = 'targets/mask.png' width = '100%;'>","75","pos","CS","CS","3","category3/CS10.png","","targets/9.png","indirect","1","0"
"","html-keyboard-response","143","749504","0.0-10.0-0.1","yzekf20wzp","many_one","0","direct_first","1","yl09en20","0","19","1","1","3","2","","0","1","0","null","","","<div style=""font-size:60px;"">+</div>","null","","","","","","","","","",""
"","html-keyboard-response","144","749609","0.0-10.0-1.1","yzekf20wzp","many_one","0","direct_first","1","yl09en20","0","19","1","1","3","2","","0","1","0","null","","","<img src = 'category2/CS1.png' width = '100%;'>","null","","","","","","","","","",""
"","html-keyboard-response","145","749875","0.0-10.0-2.1","yzekf20wzp","many_one","0","direct_first","1","yl09en20","0","19","1","1","3","2","","0","1","0","null","","","<img src = 'targets/13.png' width = '100%;'>","null","","","","","","","","","",""
"","html-keyboard-response","146","751586","0.0-10.0-3.1","yzekf20wzp","many_one","0","direct_first","1","yl09en20","0","19","1","1","3","2","","0","1","0","1710.4050000198185","","","<img src = 'targets/mask.png' width = '100%;'>","75","neg","GS","GSold","2","category2/CS1.png","","targets/13.png","indirect","1","1"
"","html-keyboard-response","147","753101","0.0-10.0-0.2","yzekf20wzp","many_one","0","direct_first","1","yl09en20","0","19","1","1","3","2","","0","1","0","null","","","<div style=""font-size:60px;"">+</div>","null","","","","","","","","","",""
"","html-keyboard-response","148","753206","0.0-10.0-1.2","yzekf20wzp","many_one","0","direct_first","1","yl09en20","0","19","1","1","3","2","","0","1","0","null","","","<img src = 'category4/CS6.png' width = '100%;'>","null","","","","","","","","","",""
"","html-keyboard-response","149","753470","0.0-10.0-2.2","yzekf20wzp","many_one","0","direct_first","1","yl09en20","0","19","1","1","3","2","","0","1","0","null","","","<img src = 'targets/4.png' width = '100%;'>","null","","","","","","","","","",""
"","html-keyboard-response","150","754298","0.0-10.0-3.2","yzekf20wzp","many_one","0","direct_first","1","yl09en20","0","19","1","1","3","2","","0","1","0","825.8250000071712","","","<img src = 'targets/mask.png' width = '100%;'>","68","pos","CS","CS","4","category4/CS6.png","","targets/4.png","indirect","0","2"
"","html-keyboard-response","151","755812","0.0-10.0-0.3","yzekf20wzp","many_one","0","direct_first","1","yl09en20","0","19","1","1","3","2","","0","1","0","null","","","<div style=""font-size:60px;"">+</div>","null","","","","","","","","","",""
"","html-keyboard-response","152","755906","0.0-10.0-1.3","yzekf20wzp","many_one","0","direct_first","1","yl09en20","0","19","1","1","3","2","","0","1","0","null","","","<img src = 'category2/CS4.png' width = '100%;'>","null","","","","","","","","","",""
"","html-keyboard-response","153","756172","0.0-10.0-2.3","yzekf20wzp","many_one","0","direct_first","1","yl09en20","0","19","1","1","3","2","","0","1","0","null","","","<img src = 'targets/48.png' width = '100%;'>","null","","","","","","","","","",""
"","html-keyboard-response","154","757029","0.0-10.0-3.3","yzekf20wzp","many_one","0","direct_first","1","yl09en20","0","19","1","1","3","2","","0","1","0","855.9200000017881","","","<img src = 'targets/mask.png' width = '100%;'>","68","neg","CS","CS","2","category2/CS4.png","","targets/48.png","indirect","0","3"
"","html-keyboard-response","155","758545","0.0-10.0-0.4","yzekf20wzp","many_one","0","direct_first","1","yl09en20","0","19","1","1","3","2","","0","1","0","null","","","<div style=""font-size:60px;"">+</div>","null","","","","","","","","","",""
"","html-keyboard-response","156","758642","0.0-10.0-1.4","yzekf20wzp","many_one","0","direct_first","1","yl09en20","0","19","1","1","3","2","","0","1","0","null","","","<img src = 'category4/CS7.png' width = '100%;'>","null","","","","","","","","","",""
"","html-keyboard-response","157","758900","0.0-10.0-2.4","yzekf20wzp","many_one","0","direct_first","1","yl09en20","0","19","1","1","3","2","","0","1","0","null","","","<img src = 'targets/34.png' width = '100%;'>","null","","","","","","","","","",""
"","html-keyboard-response","158","759713","0.0-10.0-3.4","yzekf20wzp","many_one","0","direct_first","1","yl09en20","0","19","1","1","3","2","","0","1","0","810.7399999862537","","","<img src = 'targets/mask.png' width = '100%;'>","75","pos","CS","CS","4","category4/CS7.png","","targets/34.png","indirect","1","4"
"","html-keyboard-response","159","761238","0.0-10.0-0.5","yzekf20wzp","many_one","0","direct_first","1","yl09en20","0","19","1","1","3","2","","0","1","0","null","","","<div style=""font-size:60px;"">+</div>","null","","","","","","","","","",""
"","html-keyboard-response","160","761342","0.0-10.0-1.5","yzekf20wzp","many_one","0","direct_first","1","yl09en20","0","19","1","1","3","2","","0","1","0","null","","","<img src = 'category4/CS10.png' width = '100%;'>","null","","","","","","","","","",""
"","html-keyboard-response","161","761605","0.0-10.0-2.5","yzekf20wzp","many_one","0","direct_first","1","yl09en20","0","19","1","1","3","2","","0","1","0","null","","","<img src = 'targets/26.png' width = '100%;'>","null","","","","","","","","","",""
"","html-keyboard-response","162","763559","0.0-10.0-3.5","yzekf20wzp","many_one","0","direct_first","1","yl09en20","0","19","1","1","3","2","","0","1","0","1952.6349999941885","","","<img src = 'targets/mask.png' width = '100%;'>","68","pos","CS","CS","4","category4/CS10.png","","targets/26.png","indirect","0","5"
"","html-keyboard-response","163","765071","0.0-10.0-0.6","yzekf20wzp","many_one","0","direct_first","1","yl09en20","0","19","1","1","3","2","","0","1","0","null","","","<div style=""font-size:60px;"">+</div>","null","","","","","","","","","",""
"","html-keyboard-response","164","765172","0.0-10.0-1.6","yzekf20wzp","many_one","0","direct_first","1","yl09en20","0","19","1","1","3","2","","0","1","0","null","","","<img src = 'category4/CS5.png' width = '100%;'>","null","","","","","","","","","",""
"","html-keyboard-response","165","765436","0.0-10.0-2.6","yzekf20wzp","many_one","0","direct_first","1","yl09en20","0","19","1","1","3","2","","0","1","0","null","","","<img src = 'targets/38.png' width = '100%;'>","null","","","","","","","","","",""
"","html-keyboard-response","166","766906","0.0-10.0-3.6","yzekf20wzp","many_one","0","direct_first","1","yl09en20","0","19","1","1","3","2","","0","1","0","1467.5799999968149","","","<img src = 'targets/mask.png' width = '100%;'>","75","pos","CS","CS","4","category4/CS5.png","","targets/38.png","indirect","1","6"
"","html-keyboard-response","167","768416","0.0-10.0-0.7","yzekf20wzp","many_one","0","direct_first","1","yl09en20","0","19","1","1","3","2","","0","1","0","null","","","<div style=""font-size:60px;"">+</div>","null","","","","","","","","","",""
"","html-keyboard-response","168","768522","0.0-10.0-1.7","yzekf20wzp","many_one","0","direct_first","1","yl09en20","0","19","1","1","3","2","","0","1","0","null","","","<img src = 'category2/CS2.png' width = '100%;'>","null","","","","","","","","","",""
"","html-keyboard-response","169","768793","0.0-10.0-2.7","yzekf20wzp","many_one","0","direct_first","1","yl09en20","0","19","1","1","3","2","","0","1","0","null","","","<img src = 'targets/28.png' width = '100%;'>","null","","","","","","","","","",""
"","html-keyboard-response","170","769677","0.0-10.0-3.7","yzekf20wzp","many_one","0","direct_first","1","yl09en20","0","19","1","1","3","2","","0","1","0","882.2749999817461","","","<img src = 'targets/mask.png' width = '100%;'>","68","neg","CS","CS","2","category2/CS2.png","","targets/28.png","indirect","0","7"
"","html-keyboard-response","171","771190","0.0-10.0-0.8","yzekf20wzp","many_one","0","direct_first","1","yl09en20","0","19","1","1","3","2","","0","1","0","null","","","<div style=""font-size:60px;"">+</div>","null","","","","","","","","","",""
"","html-keyboard-response","172","771288","0.0-10.0-1.8","yzekf20wzp","many_one","0","direct_first","1","yl09en20","0","19","1","1","3","2","","0","1","0","null","","","<img src = 'category2/CS3.png' width = '100%;'>","null","","","","","","","","","",""
"","html-keyboard-response","173","771552","0.0-10.0-2.8","yzekf20wzp","many_one","0","direct_first","1","yl09en20","0","19","1","1","3","2","","0","1","0","null","","","<img src = 'targets/32.png' width = '100%;'>","null","","","","","","","","","",""
"","html-keyboard-response","174","772965","0.0-10.0-3.8","yzekf20wzp","many_one","0","direct_first","1","yl09en20","0","19","1","1","3","2","","0","1","0","1412.465000001248","","","<img src = 'targets/mask.png' width = '100%;'>","75","neg","CS","CS","2","category2/CS3.png","","targets/32.png","indirect","1","8"
"","html-keyboard-response","175","774483","0.0-10.0-0.9","yzekf20wzp","many_one","0","direct_first","1","yl09en20","0","19","1","1","3","2","","0","1","0","null","","","<div style=""font-size:60px;"">+</div>","null","","","","","","","","","",""
"","html-keyboard-response","176","774586","0.0-10.0-1.9","yzekf20wzp","many_one","0","direct_first","1","yl09en20","0","19","1","1","3","2","","0","1","0","null","","","<img src = 'category1/CS5.png' width = '100%;'>","null","","","","","","","","","",""
"","html-keyboard-response","177","774851","0.0-10.0-2.9","yzekf20wzp","many_one","0","direct_first","1","yl09en20","0","19","1","1","3","2","","0","1","0","null","","","<img src = 'targets/18.png' width = '100%;'>","null","","","","","","","","","",""
"","html-keyboard-response","178","775574","0.0-10.0-3.9","yzekf20wzp","many_one","0","direct_first","1","yl09en20","0","19","1","1","3","2","","0","1","0","721.8700000084937","","","<img src = 'targets/mask.png' width = '100%;'>","68","neg","CS","CS","1","category1/CS5.png","","targets/18.png","indirect","0","9"
"","html-keyboard-response","179","777088","0.0-10.0-0.10","yzekf20wzp","many_one","0","direct_first","1","yl09en20","0","19","1","1","3","2","","0","1","0","null","","","<div style=""font-size:60px;"">+</div>","null","","","","","","","","","",""
"","html-keyboard-response","180","777186","0.0-10.0-1.10","yzekf20wzp","many_one","0","direct_first","1","yl09en20","0","19","1","1","3","2","","0","1","0","null","","","<img src = 'category2/CS6.png' width = '100%;'>","null","","","","","","","","","",""
"","html-keyboard-response","181","777453","0.0-10.0-2.10","yzekf20wzp","many_one","0","direct_first","1","yl09en20","0","19","1","1","3","2","","0","1","0","null","","","<img src = 'targets/6.png' width = '100%;'>","null","","","","","","","","","",""
"","html-keyboard-response","182","778141","0.0-10.0-3.10","yzekf20wzp","many_one","0","direct_first","1","yl09en20","0","19","1","1","3","2","","0","1","0","686.9999999762513","","","<img src = 'targets/mask.png' width = '100%;'>","68","neg","CS","CS","2","category2/CS6.png","","targets/6.png","indirect","0","10"
"","html-keyboard-response","183","779652","0.0-10.0-0.11","yzekf20wzp","many_one","0","direct_first","1","yl09en20","0","19","1","1","3","2","","0","1","0","null","","","<div style=""font-size:60px;"">+</div>","null","","","","","","","","","",""
"","html-keyboard-response","184","779754","0.0-10.0-1.11","yzekf20wzp","many_one","0","direct_first","1","yl09en20","0","19","1","1","3","2","","0","1","0","null","","","<img src = 'category2/CS5.png' width = '100%;'>","null","","","","","","","","","",""
"","html-keyboard-response","185","780017","0.0-10.0-2.11","yzekf20wzp","many_one","0","direct_first","1","yl09en20","0","19","1","1","3","2","","0","1","0","null","","","<img src = 'targets/44.png' width = '100%;'>","null","","","","","","","","","",""
"","html-keyboard-response","186","781067","0.0-10.0-3.11","yzekf20wzp","many_one","0","direct_first","1","yl09en20","0","19","1","1","3","2","","0","1","0","1049.1849999525584","","","<img src = 'targets/mask.png' width = '100%;'>","75","neg","GS","GSold","2","category2/CS5.png","","targets/44.png","indirect","1","11"
"","html-keyboard-response","187","782592","0.0-10.0-0.12","yzekf20wzp","many_one","0","direct_first","1","yl09en20","0","19","1","1","3","2","","0","1","0","null","","","<div style=""font-size:60px;"">+</div>","null","","","","","","","","","",""
"","html-keyboard-response","188","782686","0.0-10.0-1.12","yzekf20wzp","many_one","0","direct_first","1","yl09en20","0","19","1","1","3","2","","0","1","0","null","","","<img src = 'category4/CS1.png' width = '100%;'>","null","","","","","","","","","",""
"","html-keyboard-response","189","782952","0.0-10.0-2.12","yzekf20wzp","many_one","0","direct_first","1","yl09en20","0","19","1","1","3","2","","0","1","0","null","","","<img src = 'targets/14.png' width = '100%;'>","null","","","","","","","","","",""
"","html-keyboard-response","190","783747","0.0-10.0-3.12","yzekf20wzp","many_one","0","direct_first","1","yl09en20","0","19","1","1","3","2","","0","1","0","793.439999979455","","","<img src = 'targets/mask.png' width = '100%;'>","75","pos","CS","CS","4","category4/CS1.png","","targets/14.png","indirect","1","12"
"","html-keyboard-response","191","785269","0.0-10.0-0.13","yzekf20wzp","many_one","0","direct_first","1","yl09en20","0","19","1","1","3","2","","0","1","0","null","","","<div style=""font-size:60px;"">+</div>","null","","","","","","","","","",""
"","html-keyboard-response","192","785368","0.0-10.0-1.13","yzekf20wzp","many_one","0","direct_first","1","yl09en20","0","19","1","1","3","2","","0","1","0","null","","","<img src = 'category2/CS7.png' width = '100%;'>","null","","","","","","","","","",""
"","html-keyboard-response","193","785636","0.0-10.0-2.13","yzekf20wzp","many_one","0","direct_first","1","yl09en20","0","19","1","1","3","2","","0","1","0","null","","","<img src = 'targets/17.png' width = '100%;'>","null","","","","","","","","","",""
"","html-keyboard-response","194","786399","0.0-10.0-3.13","yzekf20wzp","many_one","0","direct_first","1","yl09en20","0","19","1","1","3","2","","0","1","0","762.1600000420585","","","<img src = 'targets/mask.png' width = '100%;'>","75","neg","CS","CS","2","category2/CS7.png","","targets/17.png","indirect","1","13"
"","html-keyboard-response","195","787926","0.0-10.0-0.14","yzekf20wzp","many_one","0","direct_first","1","yl09en20","0","19","1","1","3","2","","0","1","0","null","","","<div style=""font-size:60px;"">+</div>","null","","","","","","","","","",""
"","html-keyboard-response","196","788017","0.0-10.0-1.14","yzekf20wzp","many_one","0","direct_first","1","yl09en20","0","19","1","1","3","2","","0","1","0","null","","","<img src = 'category1/CS7.png' width = '100%;'>","null","","","","","","","","","",""
"","html-keyboard-response","197","788283","0.0-10.0-2.14","yzekf20wzp","many_one","0","direct_first","1","yl09en20","0","19","1","1","3","2","","0","1","0","null","","","<img src = 'targets/41.png' width = '100%;'>","null","","","","","","","","","",""
"","html-keyboard-response","198","789113","0.0-10.0-3.14","yzekf20wzp","many_one","0","direct_first","1","yl09en20","0","19","1","1","3","2","","0","1","0","829.5849999994971","","","<img src = 'targets/mask.png' width = '100%;'>","75","neg","CS","CS","1","category1/CS7.png","","targets/41.png","indirect","1","14"
"","html-keyboard-response","199","790636","0.0-10.0-0.15","yzekf20wzp","many_one","0","direct_first","1","yl09en20","0","19","1","1","3","2","","0","1","0","null","","","<div style=""font-size:60px;"">+</div>","null","","","","","","","","","",""
"","html-keyboard-response","200","790739","0.0-10.0-1.15","yzekf20wzp","many_one","0","direct_first","1","yl09en20","0","19","1","1","3","2","","0","1","0","null","","","<img src = 'category1/CS10.png' width = '100%;'>","null","","","","","","","","","",""
"","html-keyboard-response","201","791000","0.0-10.0-2.15","yzekf20wzp","many_one","0","direct_first","1","yl09en20","0","19","1","1","3","2","","0","1","0","null","","","<img src = 'targets/37.png' width = '100%;'>","null","","","","","","","","","",""
"","html-keyboard-response","202","792339","0.0-10.0-3.15","yzekf20wzp","many_one","0","direct_first","1","yl09en20","0","19","1","1","3","2","","0","1","0","1337.595000048168","","","<img src = 'targets/mask.png' width = '100%;'>","75","neg","CS","CS","1","category1/CS10.png","","targets/37.png","indirect","1","15"
"","html-keyboard-response","203","793848","0.0-10.0-0.16","yzekf20wzp","many_one","0","direct_first","1","yl09en20","0","19","1","1","3","2","","0","1","0","null","","","<div style=""font-size:60px;"">+</div>","null","","","","","","","","","",""
"","html-keyboard-response","204","793950","0.0-10.0-1.16","yzekf20wzp","many_one","0","direct_first","1","yl09en20","0","19","1","1","3","2","","0","1","0","null","","","<img src = 'category3/CS1.png' width = '100%;'>","null","","","","","","","","","",""
"","html-keyboard-response","205","794208","0.0-10.0-2.16","yzekf20wzp","many_one","0","direct_first","1","yl09en20","0","19","1","1","3","2","","0","1","0","null","","","<img src = 'targets/10.png' width = '100%;'>","null","","","","","","","","","",""
"","html-keyboard-response","206","794746","0.0-10.0-3.16","yzekf20wzp","many_one","0","direct_first","1","yl09en20","0","19","1","1","3","2","","0","1","0","537.0349999866448","","","<img src = 'targets/mask.png' width = '100%;'>","75","pos","CS","CS","3","category3/CS1.png","","targets/10.png","indirect","1","16"
"","html-keyboard-response","207","796256","0.0-10.0-0.17","yzekf20wzp","many_one","0","direct_first","1","yl09en20","0","19","1","1","3","2","","0","1","0","null","","","<div style=""font-size:60px;"">+</div>","null","","","","","","","","","",""
"","html-keyboard-response","208","796359","0.0-10.0-1.17","yzekf20wzp","many_one","0","direct_first","1","yl09en20","0","19","1","1","3","2","","0","1","0","null","","","<img src = 'category1/CS8.png' width = '100%;'>","null","","","","","","","","","",""
"","html-keyboard-response","209","796633","0.0-10.0-2.17","yzekf20wzp","many_one","0","direct_first","1","yl09en20","0","19","1","1","3","2","","0","1","0","null","","","<img src = 'targets/39.png' width = '100%;'>","null","","","","","","","","","",""
"","html-keyboard-response","210","797375","0.0-10.0-3.17","yzekf20wzp","many_one","0","direct_first","1","yl09en20","0","19","1","1","3","2","","0","1","0","741.074999968987","","","<img src = 'targets/mask.png' width = '100%;'>","75","neg","CS","CS","1","category1/CS8.png","","targets/39.png","indirect","1","17"
"","html-keyboard-response","211","798889","0.0-10.0-0.18","yzekf20wzp","many_one","0","direct_first","1","yl09en20","0","19","1","1","3","2","","0","1","0","null","","","<div style=""font-size:60px;"">+</div>","null","","","","","","","","","",""
"","html-keyboard-response","212","798980","0.0-10.0-1.18","yzekf20wzp","many_one","0","direct_first","1","yl09en20","0","19","1","1","3","2","","0","1","0","null","","","<img src = 'category3/CS4.png' width = '100%;'>","null","","","","","","","","","",""
"","html-keyboard-response","213","799249","0.0-10.0-2.18","yzekf20wzp","many_one","0","direct_first","1","yl09en20","0","19","1","1","3","2","","0","1","0","null","","","<img src = 'targets/25.png' width = '100%;'>","null","","","","","","","","","",""
"","html-keyboard-response","214","799918","0.0-10.0-3.18","yzekf20wzp","many_one","0","direct_first","1","yl09en20","0","19","1","1","3","2","","0","1","0","668.3750000083819","","","<img src = 'targets/mask.png' width = '100%;'>","75","pos","CS","CS","3","category3/CS4.png","","targets/25.png","indirect","1","18"
"","html-keyboard-response","215","801427","0.0-10.0-0.19","yzekf20wzp","many_one","0","direct_first","1","yl09en20","0","19","1","1","3","2","","0","1","0","null","","","<div style=""font-size:60px;"">+</div>","null","","","","","","","","","",""
"","html-keyboard-response","216","801532","0.0-10.0-1.19","yzekf20wzp","many_one","0","direct_first","1","yl09en20","0","19","1","1","3","2","","0","1","0","null","","","<img src = 'category3/CS6.png' width = '100%;'>","null","","","","","","","","","",""
"","html-keyboard-response","217","801799","0.0-10.0-2.19","yzekf20wzp","many_one","0","direct_first","1","yl09en20","0","19","1","1","3","2","","0","1","0","null","","","<img src = 'targets/7.png' width = '100%;'>","null","","","","","","","","","",""
"","html-keyboard-response","218","802506","0.0-10.0-3.19","yzekf20wzp","many_one","0","direct_first","1","yl09en20","0","19","1","1","3","2","","0","1","0","706.4250000403263","","","<img src = 'targets/mask.png' width = '100%;'>","68","pos","CS","CS","3","category3/CS6.png","","targets/7.png","indirect","0","19"
"","html-keyboard-response","219","804017","0.0-10.0-0.20","yzekf20wzp","many_one","0","direct_first","1","yl09en20","0","19","1","1","3","2","","0","1","0","null","","","<div style=""font-size:60px;"">+</div>","null","","","","","","","","","",""
"","html-keyboard-response","220","804113","0.0-10.0-1.20","yzekf20wzp","many_one","0","direct_first","1","yl09en20","0","19","1","1","3","2","","0","1","0","null","","","<img src = 'category2/CS8.png' width = '100%;'>","null","","","","","","","","","",""
"","html-keyboard-response","221","804380","0.0-10.0-2.20","yzekf20wzp","many_one","0","direct_first","1","yl09en20","0","19","1","1","3","2","","0","1","0","null","","","<img src = 'targets/12.png' width = '100%;'>","null","","","","","","","","","",""
"","html-keyboard-response","222","805180","0.0-10.0-3.20","yzekf20wzp","many_one","0","direct_first","1","yl09en20","0","19","1","1","3","2","","0","1","0","798.9049999741837","","","<img src = 'targets/mask.png' width = '100%;'>","75","neg","GS","GSold","2","category2/CS8.png","","targets/12.png","indirect","1","20"
"","html-keyboard-response","223","806705","0.0-10.0-0.21","yzekf20wzp","many_one","0","direct_first","1","yl09en20","0","19","1","1","3","2","","0","1","0","null","","","<div style=""font-size:60px;"">+</div>","null","","","","","","","","","",""
"","html-keyboard-response","224","806797","0.0-10.0-1.21","yzekf20wzp","many_one","0","direct_first","1","yl09en20","0","19","1","1","3","2","","0","1","0","null","","","<img src = 'category3/CS2.png' width = '100%;'>","null","","","","","","","","","",""
"","html-keyboard-response","225","807064","0.0-10.0-2.21","yzekf20wzp","many_one","0","direct_first","1","yl09en20","0","19","1","1","3","2","","0","1","0","null","","","<img src = 'targets/16.png' width = '100%;'>","null","","","","","","","","","",""
"","html-keyboard-response","226","807811","0.0-10.0-3.21","yzekf20wzp","many_one","0","direct_first","1","yl09en20","0","19","1","1","3","2","","0","1","0","745.2800000319257","","","<img src = 'targets/mask.png' width = '100%;'>","75","pos","CS","CS","3","category3/CS2.png","","targets/16.png","indirect","1","21"
"","html-keyboard-response","227","809316","0.0-10.0-0.22","yzekf20wzp","many_one","0","direct_first","1","yl09en20","0","19","1","1","3","2","","0","1","0","null","","","<div style=""font-size:60px;"">+</div>","null","","","","","","","","","",""
"","html-keyboard-response","228","809413","0.0-10.0-1.22","yzekf20wzp","many_one","0","direct_first","1","yl09en20","0","19","1","1","3","2","","0","1","0","null","","","<img src = 'category4/CS2.png' width = '100%;'>","null","","","","","","","","","",""
"","html-keyboard-response","229","809677","0.0-10.0-2.22","yzekf20wzp","many_one","0","direct_first","1","yl09en20","0","19","1","1","3","2","","0","1","0","null","","","<img src = 'targets/3.png' width = '100%;'>","null","","","","","","","","","",""
"","html-keyboard-response","230","810260","0.0-10.0-3.22","yzekf20wzp","many_one","0","direct_first","1","yl09en20","0","19","1","1","3","2","","0","1","0","581.9950000150129","","","<img src = 'targets/mask.png' width = '100%;'>","68","pos","GS","GSold","4","category4/CS2.png","","targets/3.png","indirect","0","22"
"","html-keyboard-response","231","811778","0.0-10.0-0.23","yzekf20wzp","many_one","0","direct_first","1","yl09en20","0","19","1","1","3","2","","0","1","0","null","","","<div style=""font-size:60px;"">+</div>","null","","","","","","","","","",""
"","html-keyboard-response","232","811878","0.0-10.0-1.23","yzekf20wzp","many_one","0","direct_first","1","yl09en20","0","19","1","1","3","2","","0","1","0","null","","","<img src = 'category1/CS4.png' width = '100%;'>","null","","","","","","","","","",""
"","html-keyboard-response","233","812144","0.0-10.0-2.23","yzekf20wzp","many_one","0","direct_first","1","yl09en20","0","19","1","1","3","2","","0","1","0","null","","","<img src = 'targets/27.png' width = '100%;'>","null","","","","","","","","","",""
"","html-keyboard-response","234","813066","0.0-10.0-3.23","yzekf20wzp","many_one","0","direct_first","1","yl09en20","0","19","1","1","3","2","","0","1","0","921.2900000275113","","","<img src = 'targets/mask.png' width = '100%;'>","75","neg","CS","CS","1","category1/CS4.png","","targets/27.png","indirect","1","23"
"","survey-html-form","235","818824","0.0-11.0","yzekf20wzp","many_one","0","direct_first","1","yl09en20","0","19","1","1","3","2","","0","1","0","5247.579999966547","","{}","","","","","","","","","","","",""
"","html-keyboard-response","236","821839","0.0-12.0-0.0","yzekf20wzp","many_one","0","direct_first","1","yl09en20","0","19","1","1","3","2","","0","1","0","null","","","<div style=""font-size:60px;"">+</div>","null","","","","","","","","","",""
"","html-keyboard-response","237","821944","0.0-12.0-1.0","yzekf20wzp","many_one","0","direct_first","1","yl09en20","0","19","1","1","3","2","","0","1","0","null","","","<img src = 'category4/CS3.png' width = '100%;'>","null","","","","","","","","","",""
"","html-keyboard-response","238","822210","0.0-12.0-2.0","yzekf20wzp","many_one","0","direct_first","1","yl09en20","0","19","1","1","3","2","","0","1","0","null","","","<img src = 'targets/20.png' width = '100%;'>","null","","","","","","","","","",""
"","html-keyboard-response","239","823169","0.0-12.0-3.0","yzekf20wzp","many_one","0","direct_first","1","yl09en20","0","19","1","1","3","2","","0","1","0","957.784999976866","","","<img src = 'targets/mask.png' width = '100%;'>","68","pos","GS","GSold","4","category4/CS3.png","","targets/20.png","indirect","0","24"
"","html-keyboard-response","240","824675","0.0-12.0-0.1","yzekf20wzp","many_one","0","direct_first","1","yl09en20","0","19","1","1","3","2","","0","1","0","null","","","<div style=""font-size:60px;"">+</div>","null","","","","","","","","","",""
"","html-keyboard-response","241","824777","0.0-12.0-1.1","yzekf20wzp","many_one","0","direct_first","1","yl09en20","0","19","1","1","3","2","","0","1","0","null","","","<img src = 'category4/CS4.png' width = '100%;'>","null","","","","","","","","","",""
"","html-keyboard-response","242","825040","0.0-12.0-2.1","yzekf20wzp","many_one","0","direct_first","1","yl09en20","0","19","1","1","3","2","","0","1","0","null","","","<img src = 'targets/19.png' width = '100%;'>","null","","","","","","","","","",""
"","html-keyboard-response","243","825784","0.0-12.0-3.1","yzekf20wzp","many_one","0","direct_first","1","yl09en20","0","19","1","1","3","2","","0","1","0","742.8100000252016","","","<img src = 'targets/mask.png' width = '100%;'>","68","pos","GS","GSold","4","category4/CS4.png","","targets/19.png","indirect","0","25"
"","html-keyboard-response","244","827304","0.0-12.0-0.2","yzekf20wzp","many_one","0","direct_first","1","yl09en20","0","19","1","1","3","2","","0","1","0","null","","","<div style=""font-size:60px;"">+</div>","null","","","","","","","","","",""
"","html-keyboard-response","245","827409","0.0-12.0-1.2","yzekf20wzp","many_one","0","direct_first","1","yl09en20","0","19","1","1","3","2","","0","1","0","null","","","<img src = 'category3/GS1.png' width = '100%;'>","null","","","","","","","","","",""
"","html-keyboard-response","246","827674","0.0-12.0-2.2","yzekf20wzp","many_one","0","direct_first","1","yl09en20","0","19","1","1","3","2","","0","1","0","null","","","<img src = 'targets/5.png' width = '100%;'>","null","","","","","","","","","",""
"","html-keyboard-response","247","828170","0.0-12.0-3.2","yzekf20wzp","many_one","0","direct_first","1","yl09en20","0","19","1","1","3","2","","0","1","0","494.88000001292676","","","<img src = 'targets/mask.png' width = '100%;'>","75","pos","GS","GSnew","3","category3/GS1.png","","targets/5.png","indirect","1","26"
"","html-keyboard-response","248","829692","0.0-12.0-0.3","yzekf20wzp","many_one","0","direct_first","1","yl09en20","0","19","1","1","3","2","","0","1","0","null","","","<div style=""font-size:60px;"">+</div>","null","","","","","","","","","",""
"","html-keyboard-response","249","829794","0.0-12.0-1.3","yzekf20wzp","many_one","0","direct_first","1","yl09en20","0","19","1","1","3","2","","0","1","0","null","","","<img src = 'category4/GS3.png' width = '100%;'>","null","","","","","","","","","",""
"","html-keyboard-response","250","830058","0.0-12.0-2.3","yzekf20wzp","many_one","0","direct_first","1","yl09en20","0","19","1","1","3","2","","0","1","0","null","","","<img src = 'targets/11.png' width = '100%;'>","null","","","","","","","","","",""
"","html-keyboard-response","251","830619","0.0-12.0-3.3","yzekf20wzp","many_one","0","direct_first","1","yl09en20","0","19","1","1","3","2","","0","1","0","559.6849999856204","","","<img src = 'targets/mask.png' width = '100%;'>","75","pos","GS","GSnew","4","category4/GS3.png","","targets/11.png","indirect","1","27"
"","html-keyboard-response","252","832126","0.0-12.0-0.4","yzekf20wzp","many_one","0","direct_first","1","yl09en20","0","19","1","1","3","2","","0","1","0","null","","","<div style=""font-size:60px;"">+</div>","null","","","","","","","","","",""
"","html-keyboard-response","253","832226","0.0-12.0-1.4","yzekf20wzp","many_one","0","direct_first","1","yl09en20","0","19","1","1","3","2","","0","1","0","null","","","<img src = 'category3/CS3.png' width = '100%;'>","null","","","","","","","","","",""
"","html-keyboard-response","254","832491","0.0-12.0-2.4","yzekf20wzp","many_one","0","direct_first","1","yl09en20","0","19","1","1","3","2","","0","1","0","null","","","<img src = 'targets/33.png' width = '100%;'>","null","","","","","","","","","",""
"","html-keyboard-response","255","833046","0.0-12.0-3.4","yzekf20wzp","many_one","0","direct_first","1","yl09en20","0","19","1","1","3","2","","0","1","0","553.3249999862164","","","<img src = 'targets/mask.png' width = '100%;'>","75","pos","GS","GSold","3","category3/CS3.png","","targets/33.png","indirect","1","28"
"","html-keyboard-response","256","834555","0.0-12.0-0.5","yzekf20wzp","many_one","0","direct_first","1","yl09en20","0","19","1","1","3","2","","0","1","0","null","","","<div style=""font-size:60px;"">+</div>","null","","","","","","","","","",""
"","html-keyboard-response","257","834658","0.0-12.0-1.5","yzekf20wzp","many_one","0","direct_first","1","yl09en20","0","19","1","1","3","2","","0","1","0","null","","","<img src = 'category4/GS2.png' width = '100%;'>","null","","","","","","","","","",""
"","html-keyboard-response","258","834928","0.0-12.0-2.5","yzekf20wzp","many_one","0","direct_first","1","yl09en20","0","19","1","1","3","2","","0","1","0","null","","","<img src = 'targets/29.png' width = '100%;'>","null","","","","","","","","","",""
"","html-keyboard-response","259","835779","0.0-12.0-3.5","yzekf20wzp","many_one","0","direct_first","1","yl09en20","0","19","1","1","3","2","","0","1","0","850.3400000045076","","","<img src = 'targets/mask.png' width = '100%;'>","68","pos","GS","GSnew","4","category4/GS2.png","","targets/29.png","indirect","0","29"
"","html-keyboard-response","260","837291","0.0-12.0-0.6","yzekf20wzp","many_one","0","direct_first","1","yl09en20","0","19","1","1","3","2","","0","1","0","null","","","<div style=""font-size:60px;"">+</div>","null","","","","","","","","","",""
"","html-keyboard-response","261","837397","0.0-12.0-1.6","yzekf20wzp","many_one","0","direct_first","1","yl09en20","0","19","1","1","3","2","","0","1","0","null","","","<img src = 'category1/CS3.png' width = '100%;'>","null","","","","","","","","","",""
"","html-keyboard-response","262","837656","0.0-12.0-2.6","yzekf20wzp","many_one","0","direct_first","1","yl09en20","0","19","1","1","3","2","","0","1","0","null","","","<img src = 'targets/35.png' width = '100%;'>","null","","","","","","","","","",""
"","html-keyboard-response","263","838186","0.0-12.0-3.6","yzekf20wzp","many_one","0","direct_first","1","yl09en20","0","19","1","1","3","2","","0","1","0","529.0399999939837","","","<img src = 'targets/mask.png' width = '100%;'>","75","neg","GS","GSold","1","category1/CS3.png","","targets/35.png","indirect","1","30"
"","html-keyboard-response","264","839706","0.0-12.0-0.7","yzekf20wzp","many_one","0","direct_first","1","yl09en20","0","19","1","1","3","2","","0","1","0","null","","","<div style=""font-size:60px;"">+</div>","null","","","","","","","","","",""
"","html-keyboard-response","265","839807","0.0-12.0-1.7","yzekf20wzp","many_one","0","direct_first","1","yl09en20","0","19","1","1","3","2","","0","1","0","null","","","<img src = 'category1/CS9.png' width = '100%;'>","null","","","","","","","","","",""
"","html-keyboard-response","266","840073","0.0-12.0-2.7","yzekf20wzp","many_one","0","direct_first","1","yl09en20","0","19","1","1","3","2","","0","1","0","null","","","<img src = 'targets/30.png' width = '100%;'>","null","","","","","","","","","",""
"","html-keyboard-response","267","840583","0.0-12.0-3.7","yzekf20wzp","many_one","0","direct_first","1","yl09en20","0","19","1","1","3","2","","0","1","0","509.38000000314787","","","<img src = 'targets/mask.png' width = '100%;'>","75","neg","GS","GSold","1","category1/CS9.png","","targets/30.png","indirect","1","31"
"","html-keyboard-response","268","842102","0.0-12.0-0.8","yzekf20wzp","many_one","0","direct_first","1","yl09en20","0","19","1","1","3","2","","0","1","0","null","","","<div style=""font-size:60px;"">+</div>","null","","","","","","","","","",""
"","html-keyboard-response","269","842207","0.0-12.0-1.8","yzekf20wzp","many_one","0","direct_first","1","yl09en20","0","19","1","1","3","2","","0","1","0","null","","","<img src = 'category4/lin.png' width = '100%;'>","null","","","","","","","","","",""
"","html-keyboard-response","270","842471","0.0-12.0-2.8","yzekf20wzp","many_one","0","direct_first","1","yl09en20","0","19","1","1","3","2","","0","1","0","null","","","<img src = 'targets/21.png' width = '100%;'>","null","","","","","","","","","",""
"","html-keyboard-response","271","843013","0.0-12.0-3.8","yzekf20wzp","many_one","0","direct_first","1","yl09en20","0","19","1","1","3","2","","0","1","0","540.6799999764189","","","<img src = 'targets/mask.png' width = '100%;'>","75","pos","GS","abstract","4","category4/lin.png","","targets/21.png","indirect","1","32"
"","html-keyboard-response","272","844531","0.0-12.0-0.9","yzekf20wzp","many_one","0","direct_first","1","yl09en20","0","19","1","1","3","2","","0","1","0","null","","","<div style=""font-size:60px;"">+</div>","null","","","","","","","","","",""
"","html-keyboard-response","273","844623","0.0-12.0-1.9","yzekf20wzp","many_one","0","direct_first","1","yl09en20","0","19","1","1","3","2","","0","1","0","null","","","<img src = 'category1/GS1.png' width = '100%;'>","null","","","","","","","","","",""
"","html-keyboard-response","274","844891","0.0-12.0-2.9","yzekf20wzp","many_one","0","direct_first","1","yl09en20","0","19","1","1","3","2","","0","1","0","null","","","<img src = 'targets/24.png' width = '100%;'>","null","","","","","","","","","",""
"","html-keyboard-response","275","845407","0.0-12.0-3.9","yzekf20wzp","many_one","0","direct_first","1","yl09en20","0","19","1","1","3","2","","0","1","0","515.064999985043","","","<img src = 'targets/mask.png' width = '100%;'>","68","neg","GS","GSnew","1","category1/GS1.png","","targets/24.png","indirect","0","33"
"","html-keyboard-response","276","846932","0.0-12.0-0.10","yzekf20wzp","many_one","0","direct_first","1","yl09en20","0","19","1","1","3","2","","0","1","0","null","","","<div style=""font-size:60px;"">+</div>","null","","","","","","","","","",""
"","html-keyboard-response","277","847038","0.0-12.0-1.10","yzekf20wzp","many_one","0","direct_first","1","yl09en20","0","19","1","1","3","2","","0","1","0","null","","","<img src = 'category4/GS1.png' width = '100%;'>","null","","","","","","","","","",""
"","html-keyboard-response","278","847305","0.0-12.0-2.10","yzekf20wzp","many_one","0","direct_first","1","yl09en20","0","19","1","1","3","2","","0","1","0","null","","","<img src = 'targets/1.png' width = '100%;'>","null","","","","","","","","","",""
"","html-keyboard-response","279","847859","0.0-12.0-3.10","yzekf20wzp","many_one","0","direct_first","1","yl09en20","0","19","1","1","3","2","","0","1","0","552.7349999756552","","","<img src = 'targets/mask.png' width = '100%;'>","75","pos","GS","GSnew","4","category4/GS1.png","","targets/1.png","indirect","1","34"
"","html-keyboard-response","280","849391","0.0-12.0-0.11","yzekf20wzp","many_one","0","direct_first","1","yl09en20","0","19","1","1","3","2","","0","1","0","null","","","<div style=""font-size:60px;"">+</div>","null","","","","","","","","","",""
"","html-keyboard-response","281","849490","0.0-12.0-1.11","yzekf20wzp","many_one","0","direct_first","1","yl09en20","0","19","1","1","3","2","","0","1","0","null","","","<img src = 'category1/CS1.png' width = '100%;'>","null","","","","","","","","","",""
"","html-keyboard-response","282","849758","0.0-12.0-2.11","yzekf20wzp","many_one","0","direct_first","1","yl09en20","0","19","1","1","3","2","","0","1","0","null","","","<img src = 'targets/40.png' width = '100%;'>","null","","","","","","","","","",""
"","html-keyboard-response","283","850531","0.0-12.0-3.11","yzekf20wzp","many_one","0","direct_first","1","yl09en20","0","19","1","1","3","2","","0","1","0","772.0900000422262","","","<img src = 'targets/mask.png' width = '100%;'>","68","neg","GS","GSold","1","category1/CS1.png","","targets/40.png","indirect","0","35"
"","html-keyboard-response","284","852043","0.0-12.0-0.12","yzekf20wzp","many_one","0","direct_first","1","yl09en20","0","19","1","1","3","2","","0","1","0","null","","","<div style=""font-size:60px;"">+</div>","null","","","","","","","","","",""
"","html-keyboard-response","285","852139","0.0-12.0-1.12","yzekf20wzp","many_one","0","direct_first","1","yl09en20","0","19","1","1","3","2","","0","1","0","null","","","<img src = 'category2/GS2.png' width = '100%;'>","null","","","","","","","","","",""
"","html-keyboard-response","286","852402","0.0-12.0-2.12","yzekf20wzp","many_one","0","direct_first","1","yl09en20","0","19","1","1","3","2","","0","1","0","null","","","<img src = 'targets/31.png' width = '100%;'>","null","","","","","","","","","",""
"","html-keyboard-response","287","853846","0.0-12.0-3.12","yzekf20wzp","many_one","0","direct_first","1","yl09en20","0","19","1","1","3","2","","0","1","0","1442.0699999900535","","","<img src = 'targets/mask.png' width = '100%;'>","68","neg","GS","GSnew","2","category2/GS2.png","","targets/31.png","indirect","0","36"
"","html-keyboard-response","288","855364","0.0-12.0-0.13","yzekf20wzp","many_one","0","direct_first","1","yl09en20","0","19","1","1","3","2","","0","1","0","null","","","<div style=""font-size:60px;"">+</div>","null","","","","","","","","","",""
"","html-keyboard-response","289","855470","0.0-12.0-1.13","yzekf20wzp","many_one","0","direct_first","1","yl09en20","0","19","1","1","3","2","","0","1","0","null","","","<img src = 'category2/GS3.png' width = '100%;'>","null","","","","","","","","","",""
"","html-keyboard-response","290","855735","0.0-12.0-2.13","yzekf20wzp","many_one","0","direct_first","1","yl09en20","0","19","1","1","3","2","","0","1","0","null","","","<img src = 'targets/15.png' width = '100%;'>","null","","","","","","","","","",""
"","html-keyboard-response","291","857260","0.0-12.0-3.13","yzekf20wzp","many_one","0","direct_first","1","yl09en20","0","19","1","1","3","2","","0","1","0","1523.5799999791197","","","<img src = 'targets/mask.png' width = '100%;'>","68","neg","GS","GSnew","2","category2/GS3.png","","targets/15.png","indirect","0","37"
"","html-keyboard-response","292","858768","0.0-12.0-0.14","yzekf20wzp","many_one","0","direct_first","1","yl09en20","0","19","1","1","3","2","","0","1","0","null","","","<div style=""font-size:60px;"">+</div>","null","","","","","","","","","",""
"","html-keyboard-response","293","858872","0.0-12.0-1.14","yzekf20wzp","many_one","0","direct_first","1","yl09en20","0","19","1","1","3","2","","0","1","0","null","","","<img src = 'category1/ma.png' width = '100%;'>","null","","","","","","","","","",""
"","html-keyboard-response","294","859135","0.0-12.0-2.14","yzekf20wzp","many_one","0","direct_first","1","yl09en20","0","19","1","1","3","2","","0","1","0","null","","","<img src = 'targets/43.png' width = '100%;'>","null","","","","","","","","","",""
"","html-keyboard-response","295","859900","0.0-12.0-3.14","yzekf20wzp","many_one","0","direct_first","1","yl09en20","0","19","1","1","3","2","","0","1","0","762.6150000141934","","","<img src = 'targets/mask.png' width = '100%;'>","68","neg","GS","abstract","1","category1/ma.png","","targets/43.png","indirect","0","38"
"","html-keyboard-response","296","861412","0.0-12.0-0.15","yzekf20wzp","many_one","0","direct_first","1","yl09en20","0","19","1","1","3","2","","0","1","0","null","","","<div style=""font-size:60px;"">+</div>","null","","","","","","","","","",""
"","html-keyboard-response","297","861520","0.0-12.0-1.15","yzekf20wzp","many_one","0","direct_first","1","yl09en20","0","19","1","1","3","2","","0","1","0","null","","","<img src = 'category3/wang.png' width = '100%;'>","null","","","","","","","","","",""
"","html-keyboard-response","298","861784","0.0-12.0-2.15","yzekf20wzp","many_one","0","direct_first","1","yl09en20","0","19","1","1","3","2","","0","1","0","null","","","<img src = 'targets/47.png' width = '100%;'>","null","","","","","","","","","",""
"","html-keyboard-response","299","862396","0.0-12.0-3.15","yzekf20wzp","many_one","0","direct_first","1","yl09en20","0","19","1","1","3","2","","0","1","0","610.3749999892898","","","<img src = 'targets/mask.png' width = '100%;'>","75","pos","GS","abstract","3","category3/wang.png","","targets/47.png","indirect","1","39"
"","html-keyboard-response","300","863913","0.0-12.0-0.16","yzekf20wzp","many_one","0","direct_first","1","yl09en20","0","19","1","1","3","2","","0","1","0","null","","","<div style=""font-size:60px;"">+</div>","null","","","","","","","","","",""
"","html-keyboard-response","301","864017","0.0-12.0-1.16","yzekf20wzp","many_one","0","direct_first","1","yl09en20","0","19","1","1","3","2","","0","1","0","null","","","<img src = 'category3/CS5.png' width = '100%;'>","null","","","","","","","","","",""
"","html-keyboard-response","302","864288","0.0-12.0-2.16","yzekf20wzp","many_one","0","direct_first","1","yl09en20","0","19","1","1","3","2","","0","1","0","null","","","<img src = 'targets/46.png' width = '100%;'>","null","","","","","","","","","",""
"","html-keyboard-response","303","865561","0.0-12.0-3.16","yzekf20wzp","many_one","0","direct_first","1","yl09en20","0","19","1","1","3","2","","0","1","0","1272.5349999964237","","","<img src = 'targets/mask.png' width = '100%;'>","75","pos","GS","GSold","3","category3/CS5.png","","targets/46.png","indirect","1","40"
"","html-keyboard-response","304","867082","0.0-12.0-0.17","yzekf20wzp","many_one","0","direct_first","1","yl09en20","0","19","1","1","3","2","","0","1","0","null","","","<div style=""font-size:60px;"">+</div>","null","","","","","","","","","",""
"","html-keyboard-response","305","867184","0.0-12.0-1.17","yzekf20wzp","many_one","0","direct_first","1","yl09en20","0","19","1","1","3","2","","0","1","0","null","","","<img src = 'category2/men.png' width = '100%;'>","null","","","","","","","","","",""
"","html-keyboard-response","306","867456","0.0-12.0-2.17","yzekf20wzp","many_one","0","direct_first","1","yl09en20","0","19","1","1","3","2","","0","1","0","null","","","<img src = 'targets/8.png' width = '100%;'>","null","","","","","","","","","",""
"","html-keyboard-response","307","869134","0.0-12.0-3.17","yzekf20wzp","many_one","0","direct_first","1","yl09en20","0","19","1","1","3","2","","0","1","0","1676.2749999761581","","","<img src = 'targets/mask.png' width = '100%;'>","68","neg","GS","abstract","2","category2/men.png","","targets/8.png","indirect","0","41"
"","html-keyboard-response","308","870655","0.0-12.0-0.18","yzekf20wzp","many_one","0","direct_first","1","yl09en20","0","19","1","1","3","2","","0","1","0","null","","","<div style=""font-size:60px;"">+</div>","null","","","","","","","","","",""
"","html-keyboard-response","309","870753","0.0-12.0-1.18","yzekf20wzp","many_one","0","direct_first","1","yl09en20","0","19","1","1","3","2","","0","1","0","null","","","<img src = 'category3/CS9.png' width = '100%;'>","null","","","","","","","","","",""
"","html-keyboard-response","310","871016","0.0-12.0-2.18","yzekf20wzp","many_one","0","direct_first","1","yl09en20","0","19","1","1","3","2","","0","1","0","null","","","<img src = 'targets/36.png' width = '100%;'>","null","","","","","","","","","",""
"","html-keyboard-response","311","871976","0.0-12.0-3.18","yzekf20wzp","many_one","0","direct_first","1","yl09en20","0","19","1","1","3","2","","0","1","0","957.3250000248663","","","<img src = 'targets/mask.png' width = '100%;'>","68","pos","GS","GSold","3","category3/CS9.png","","targets/36.png","indirect","0","42"
"","html-keyboard-response","312","873486","0.0-12.0-0.19","yzekf20wzp","many_one","0","direct_first","1","yl09en20","0","19","1","1","3","2","","0","1","0","null","","","<div style=""font-size:60px;"">+</div>","null","","","","","","","","","",""
"","html-keyboard-response","313","873586","0.0-12.0-1.19","yzekf20wzp","many_one","0","direct_first","1","yl09en20","0","19","1","1","3","2","","0","1","0","null","","","<img src = 'category1/GS3.png' width = '100%;'>","null","","","","","","","","","",""
"","html-keyboard-response","314","873854","0.0-12.0-2.19","yzekf20wzp","many_one","0","direct_first","1","yl09en20","0","19","1","1","3","2","","0","1","0","null","","","<img src = 'targets/42.png' width = '100%;'>","null","","","","","","","","","",""
"","html-keyboard-response","315","874534","0.0-12.0-3.19","yzekf20wzp","many_one","0","direct_first","1","yl09en20","0","19","1","1","3","2","","0","1","0","678.0799999833107","","","<img src = 'targets/mask.png' width = '100%;'>","75","neg","GS","GSnew","1","category1/GS3.png","","targets/42.png","indirect","1","43"
"","html-keyboard-response","316","876054","0.0-12.0-0.20","yzekf20wzp","many_one","0","direct_first","1","yl09en20","0","19","1","1","3","2","","0","1","0","null","","","<div style=""font-size:60px;"">+</div>","null","","","","","","","","","",""
"","html-keyboard-response","317","876149","0.0-12.0-1.20","yzekf20wzp","many_one","0","direct_first","1","yl09en20","0","19","1","1","3","2","","0","1","0","null","","","<img src = 'category2/GS1.png' width = '100%;'>","null","","","","","","","","","",""
"","html-keyboard-response","318","876414","0.0-12.0-2.20","yzekf20wzp","many_one","0","direct_first","1","yl09en20","0","19","1","1","3","2","","0","1","0","null","","","<img src = 'targets/22.png' width = '100%;'>","null","","","","","","","","","",""
"","html-keyboard-response","319","877088","0.0-12.0-3.20","yzekf20wzp","many_one","0","direct_first","1","yl09en20","0","19","1","1","3","2","","0","1","0","672.1949999919161","","","<img src = 'targets/mask.png' width = '100%;'>","75","neg","GS","GSnew","2","category2/GS1.png","","targets/22.png","indirect","1","44"
"","html-keyboard-response","320","878608","0.0-12.0-0.21","yzekf20wzp","many_one","0","direct_first","1","yl09en20","0","19","1","1","3","2","","0","1","0","null","","","<div style=""font-size:60px;"">+</div>","null","","","","","","","","","",""
"","html-keyboard-response","321","878700","0.0-12.0-1.21","yzekf20wzp","many_one","0","direct_first","1","yl09en20","0","19","1","1","3","2","","0","1","0","null","","","<img src = 'category3/GS2.png' width = '100%;'>","null","","","","","","","","","",""
"","html-keyboard-response","322","878966","0.0-12.0-2.21","yzekf20wzp","many_one","0","direct_first","1","yl09en20","0","19","1","1","3","2","","0","1","0","null","","","<img src = 'targets/2.png' width = '100%;'>","null","","","","","","","","","",""
"","html-keyboard-response","323","879753","0.0-12.0-3.21","yzekf20wzp","many_one","0","direct_first","1","yl09en20","0","19","1","1","3","2","","0","1","0","785.524999955669","","","<img src = 'targets/mask.png' width = '100%;'>","68","pos","GS","GSnew","3","category3/GS2.png","","targets/2.png","indirect","0","45"
"","html-keyboard-response","324","881266","0.0-12.0-0.22","yzekf20wzp","many_one","0","direct_first","1","yl09en20","0","19","1","1","3","2","","0","1","0","null","","","<div style=""font-size:60px;"">+</div>","null","","","","","","","","","",""
"","html-keyboard-response","325","881366","0.0-12.0-1.22","yzekf20wzp","many_one","0","direct_first","1","yl09en20","0","19","1","1","3","2","","0","1","0","null","","","<img src = 'category3/GS3.png' width = '100%;'>","null","","","","","","","","","",""
"","html-keyboard-response","326","881654","0.0-12.0-2.22","yzekf20wzp","many_one","0","direct_first","1","yl09en20","0","19","1","1","3","2","","0","1","0","null","","","<img src = 'targets/23.png' width = '100%;'>","null","","","","","","","","","",""
"","html-keyboard-response","327","882584","0.0-12.0-3.22","yzekf20wzp","many_one","0","direct_first","1","yl09en20","0","19","1","1","3","2","","0","1","0","928.6149999825284","","","<img src = 'targets/mask.png' width = '100%;'>","68","pos","GS","GSnew","3","category3/GS3.png","","targets/23.png","indirect","0","46"
