"success","trial_type","trial_index","time_elapsed","internal_node_id","subject","condition","condition_code","measure","measure_code","codeword","gender","age","education","chinese","fach","handedness","comment","hinschauen","ablenkung","gewissenhaft","rt","url","responses","stimulus","key_press","val","type","type_specific","category","cs_selected","target","indirect","task","nr_pres","response"
"true","fullscreen","0","6914","0.0-0.0","c6a7ppw7fp","many_one","0","indirect_first","0","er06rn28","0","24","1","1","3","1","","0","0","0","","","","","","","","","","","","","","",""
"","external-html","1","37694","0.0-1.0","c6a7ppw7fp","many_one","0","indirect_first","0","er06rn28","0","24","1","1","3","1","","0","0","0","30752","text/information.html","","","","","","","","","","","","",""
"","external-html","2","51275","0.0-2.0","c6a7ppw7fp","many_one","0","indirect_first","0","er06rn28","0","24","1","1","3","1","","0","0","0","13528","text/consent.html","","","","","","","","","","","","",""
"","survey-html-form","3","90660","0.0-3.0","c6a7ppw7fp","many_one","0","indirect_first","0","er06rn28","0","24","1","1","3","1","","0","0","0","39383","","{""codeword_enter"":""er06rn28""}","","","","","","","","","","","",""
"","survey-html-form","4","104756","0.0-4.0","c6a7ppw7fp","many_one","0","indirect_first","0","er06rn28","0","24","1","1","3","1","","0","0","0","14093","","{""age"":""24"",""education"":""1"",""subject"":""3"",""gender"":""0"",""handedness"":""1"",""chinese"":""1""}","","","","","","","","","","","",""
"","survey-html-form","5","112962","0.0-5.0","c6a7ppw7fp","many_one","0","indirect_first","0","er06rn28","0","24","1","1","3","1","","0","0","0","8205","","{}","","","","","","","","","","","",""
"","html-keyboard-response","6","116967","0.0-6.0-0.0-0.0","c6a7ppw7fp","many_one","0","indirect_first","0","er06rn28","0","24","1","1","3","1","","0","0","0","null","","","<div class = 'row'><div class = 'column'><img src = 'category3/CS7.png' width = '70%;'></div><div class = 'column'><img src = 'uspos/1710.bmp' width = '100%;'></div></div>","null","pos","CS","CS","3","category3/CS7.png","","","","",""
"","html-keyboard-response","7","119474","0.0-6.0-0.0-0.1","c6a7ppw7fp","many_one","0","indirect_first","0","er06rn28","0","24","1","1","3","1","","0","0","0","null","","","<div class = 'row'><div class = 'column'><img src = 'uspos/5600.bmp' width = '100%;'></div><div class = 'column'><img src = 'category4/CS2.png' width = '70%;'></div></div>","null","pos","CS","CS","4","category4/CS2.png","","","","",""
"","html-keyboard-response","8","121984","0.0-6.0-0.0-0.2","c6a7ppw7fp","many_one","0","indirect_first","0","er06rn28","0","24","1","1","3","1","","0","0","0","null","","","<div class = 'row'><div class = 'column'><img src = 'category1/CS7.png' width = '70%;'></div><div class = 'column'><img src = 'usneg/9000.bmp' width = '100%;'></div></div>","null","neg","CS","CS","1","category1/CS7.png","","","","",""
"","html-keyboard-response","9","124489","0.0-6.0-0.0-0.3","c6a7ppw7fp","many_one","0","indirect_first","0","er06rn28","0","24","1","1","3","1","","0","0","0","null","","","<div class = 'row'><div class = 'column'><img src = 'category3/CS4.png' width = '70%;'></div><div class = 'column'><img src = 'uspos/5629.bmp' width = '100%;'></div></div>","null","pos","CS","CS","3","category3/CS4.png","","","","",""
"","html-keyboard-response","10","126994","0.0-6.0-0.0-0.4","c6a7ppw7fp","many_one","0","indirect_first","0","er06rn28","0","24","1","1","3","1","","0","0","0","null","","","<div class = 'row'><div class = 'column'><img src = 'category2/CS10.png' width = '70%;'></div><div class = 'column'><img src = 'usneg/9635.2.bmp' width = '100%;'></div></div>","null","neg","CS","CS","2","category2/CS10.png","","","","",""
"","html-keyboard-response","11","129505","0.0-6.0-0.0-0.5","c6a7ppw7fp","many_one","0","indirect_first","0","er06rn28","0","24","1","1","3","1","","0","0","0","null","","","<div class = 'row'><div class = 'column'><img src = 'usneg/6838.bmp' width = '100%;'></div><div class = 'column'><img src = 'category1/CS5.png' width = '70%;'></div></div>","null","neg","CS","CS","1","category1/CS5.png","","","","",""
"","html-keyboard-response","12","132015","0.0-6.0-0.0-0.6","c6a7ppw7fp","many_one","0","indirect_first","0","er06rn28","0","24","1","1","3","1","","0","0","0","null","","","<div class = 'row'><div class = 'column'><img src = 'category4/CS5.png' width = '70%;'></div><div class = 'column'><img src = 'uspos/5470.bmp' width = '100%;'></div></div>","null","pos","CS","CS","4","category4/CS5.png","","","","",""
"","html-keyboard-response","13","134520","0.0-6.0-0.0-0.7","c6a7ppw7fp","many_one","0","indirect_first","0","er06rn28","0","24","1","1","3","1","","0","0","0","null","","","<div class = 'row'><div class = 'column'><img src = 'category2/CS6.png' width = '70%;'></div><div class = 'column'><img src = 'usneg/9404.bmp' width = '100%;'></div></div>","null","neg","CS","CS","2","category2/CS6.png","","","","",""
"","html-keyboard-response","14","137025","0.0-6.0-0.0-0.8","c6a7ppw7fp","many_one","0","indirect_first","0","er06rn28","0","24","1","1","3","1","","0","0","0","null","","","<div class = 'row'><div class = 'column'><img src = 'uspos/1463.bmp' width = '100%;'></div><div class = 'column'><img src = 'category4/CS6.png' width = '70%;'></div></div>","null","pos","CS","CS","4","category4/CS6.png","","","","",""
"","html-keyboard-response","15","139533","0.0-6.0-0.0-0.9","c6a7ppw7fp","many_one","0","indirect_first","0","er06rn28","0","24","1","1","3","1","","0","0","0","null","","","<div class = 'row'><div class = 'column'><img src = 'usneg/7380.bmp' width = '100%;'></div><div class = 'column'><img src = 'category2/CS2.png' width = '70%;'></div></div>","null","neg","CS","CS","2","category2/CS2.png","","","","",""
"","html-keyboard-response","16","142040","0.0-6.0-0.0-0.10","c6a7ppw7fp","many_one","0","indirect_first","0","er06rn28","0","24","1","1","3","1","","0","0","0","null","","","<div class = 'row'><div class = 'column'><img src = 'usneg/9435.bmp' width = '100%;'></div><div class = 'column'><img src = 'category1/CS4.png' width = '70%;'></div></div>","null","neg","CS","CS","1","category1/CS4.png","","","","",""
"","html-keyboard-response","17","144548","0.0-6.0-0.0-0.11","c6a7ppw7fp","many_one","0","indirect_first","0","er06rn28","0","24","1","1","3","1","","0","0","0","null","","","<div class = 'row'><div class = 'column'><img src = 'category3/CS3.png' width = '70%;'></div><div class = 'column'><img src = 'uspos/5830.bmp' width = '100%;'></div></div>","null","pos","CS","CS","3","category3/CS3.png","","","","",""
"","html-keyboard-response","18","147049","0.0-6.0-0.0-0.12","c6a7ppw7fp","many_one","0","indirect_first","0","er06rn28","0","24","1","1","3","1","","0","0","0","null","","","<div class = 'row'><div class = 'column'><img src = 'uspos/7580.bmp' width = '100%;'></div><div class = 'column'><img src = 'category3/CS2.png' width = '70%;'></div></div>","null","pos","CS","CS","3","category3/CS2.png","","","","",""
"","html-keyboard-response","19","149551","0.0-6.0-0.0-0.13","c6a7ppw7fp","many_one","0","indirect_first","0","er06rn28","0","24","1","1","3","1","","0","0","0","null","","","<div class = 'row'><div class = 'column'><img src = 'usneg/2750.bmp' width = '100%;'></div><div class = 'column'><img src = 'category1/CS6.png' width = '70%;'></div></div>","null","neg","CS","CS","1","category1/CS6.png","","","","",""
"","html-keyboard-response","20","152056","0.0-6.0-0.0-0.14","c6a7ppw7fp","many_one","0","indirect_first","0","er06rn28","0","24","1","1","3","1","","0","0","0","null","","","<div class = 'row'><div class = 'column'><img src = 'uspos/5621.bmp' width = '100%;'></div><div class = 'column'><img src = 'category4/CS4.png' width = '70%;'></div></div>","null","pos","CS","CS","4","category4/CS4.png","","","","",""
"","html-keyboard-response","21","154563","0.0-6.0-0.0-0.15","c6a7ppw7fp","many_one","0","indirect_first","0","er06rn28","0","24","1","1","3","1","","0","0","0","null","","","<div class = 'row'><div class = 'column'><img src = 'usneg/9421.bmp' width = '100%;'></div><div class = 'column'><img src = 'category2/CS1.png' width = '70%;'></div></div>","null","neg","CS","CS","2","category2/CS1.png","","","","",""
"","html-keyboard-response","22","157071","0.0-6.0-0.0-0.16","c6a7ppw7fp","many_one","0","indirect_first","0","er06rn28","0","24","1","1","3","1","","0","0","0","null","","","<div class = 'row'><div class = 'column'><img src = 'category4/CS3.png' width = '70%;'></div><div class = 'column'><img src = 'uspos/5831.bmp' width = '100%;'></div></div>","null","pos","CS","CS","4","category4/CS3.png","","","","",""
"","html-keyboard-response","23","159579","0.0-6.0-0.0-0.17","c6a7ppw7fp","many_one","0","indirect_first","0","er06rn28","0","24","1","1","3","1","","0","0","0","null","","","<div class = 'row'><div class = 'column'><img src = 'usneg/9561.bmp' width = '100%;'></div><div class = 'column'><img src = 'category2/CS5.png' width = '70%;'></div></div>","null","neg","CS","CS","2","category2/CS5.png","","","","",""
"","html-keyboard-response","24","162084","0.0-6.0-0.0-0.18","c6a7ppw7fp","many_one","0","indirect_first","0","er06rn28","0","24","1","1","3","1","","0","0","0","null","","","<div class = 'row'><div class = 'column'><img src = 'usneg/9050.bmp' width = '100%;'></div><div class = 'column'><img src = 'category1/CS3.png' width = '70%;'></div></div>","null","neg","CS","CS","1","category1/CS3.png","","","","",""
"","html-keyboard-response","25","164591","0.0-6.0-0.0-0.19","c6a7ppw7fp","many_one","0","indirect_first","0","er06rn28","0","24","1","1","3","1","","0","0","0","null","","","<div class = 'row'><div class = 'column'><img src = 'uspos/2150.bmp' width = '100%;'></div><div class = 'column'><img src = 'category3/CS8.png' width = '70%;'></div></div>","null","pos","CS","CS","3","category3/CS8.png","","","","",""
"","survey-html-form","26","167086","0.0-6.0-1.0","c6a7ppw7fp","many_one","0","indirect_first","0","er06rn28","0","24","1","1","3","1","","0","0","0","1994","","{}","","","","","","","","","","","",""
"","html-keyboard-response","27","171092","0.0-6.0-2.0-0.0","c6a7ppw7fp","many_one","0","indirect_first","0","er06rn28","0","24","1","1","3","1","","0","0","0","null","","","<div class = 'row'><div class = 'column'><img src = 'category3/CS4.png' width = '70%;'></div><div class = 'column'><img src = 'uspos/5629.bmp' width = '100%;'></div></div>","null","pos","CS","CS","3","category3/CS4.png","","","","",""
"","html-keyboard-response","28","173600","0.0-6.0-2.0-0.1","c6a7ppw7fp","many_one","0","indirect_first","0","er06rn28","0","24","1","1","3","1","","0","0","0","null","","","<div class = 'row'><div class = 'column'><img src = 'category4/CS3.png' width = '70%;'></div><div class = 'column'><img src = 'uspos/5831.bmp' width = '100%;'></div></div>","null","pos","CS","CS","4","category4/CS3.png","","","","",""
"","html-keyboard-response","29","176104","0.0-6.0-2.0-0.2","c6a7ppw7fp","many_one","0","indirect_first","0","er06rn28","0","24","1","1","3","1","","0","0","0","null","","","<div class = 'row'><div class = 'column'><img src = 'category3/CS8.png' width = '70%;'></div><div class = 'column'><img src = 'uspos/2150.bmp' width = '100%;'></div></div>","null","pos","CS","CS","3","category3/CS8.png","","","","",""
"","html-keyboard-response","30","178612","0.0-6.0-2.0-0.3","c6a7ppw7fp","many_one","0","indirect_first","0","er06rn28","0","24","1","1","3","1","","0","0","0","null","","","<div class = 'row'><div class = 'column'><img src = 'category2/CS2.png' width = '70%;'></div><div class = 'column'><img src = 'usneg/7380.bmp' width = '100%;'></div></div>","null","neg","CS","CS","2","category2/CS2.png","","","","",""
"","html-keyboard-response","31","181116","0.0-6.0-2.0-0.4","c6a7ppw7fp","many_one","0","indirect_first","0","er06rn28","0","24","1","1","3","1","","0","0","0","null","","","<div class = 'row'><div class = 'column'><img src = 'usneg/2750.bmp' width = '100%;'></div><div class = 'column'><img src = 'category1/CS6.png' width = '70%;'></div></div>","null","neg","CS","CS","1","category1/CS6.png","","","","",""
"","html-keyboard-response","32","183621","0.0-6.0-2.0-0.5","c6a7ppw7fp","many_one","0","indirect_first","0","er06rn28","0","24","1","1","3","1","","0","0","0","null","","","<div class = 'row'><div class = 'column'><img src = 'category1/CS3.png' width = '70%;'></div><div class = 'column'><img src = 'usneg/9050.bmp' width = '100%;'></div></div>","null","neg","CS","CS","1","category1/CS3.png","","","","",""
"","html-keyboard-response","33","186126","0.0-6.0-2.0-0.6","c6a7ppw7fp","many_one","0","indirect_first","0","er06rn28","0","24","1","1","3","1","","0","0","0","null","","","<div class = 'row'><div class = 'column'><img src = 'category1/CS5.png' width = '70%;'></div><div class = 'column'><img src = 'usneg/6838.bmp' width = '100%;'></div></div>","null","neg","CS","CS","1","category1/CS5.png","","","","",""
"","html-keyboard-response","34","188634","0.0-6.0-2.0-0.7","c6a7ppw7fp","many_one","0","indirect_first","0","er06rn28","0","24","1","1","3","1","","0","0","0","null","","","<div class = 'row'><div class = 'column'><img src = 'category4/CS5.png' width = '70%;'></div><div class = 'column'><img src = 'uspos/5470.bmp' width = '100%;'></div></div>","null","pos","CS","CS","4","category4/CS5.png","","","","",""
"","html-keyboard-response","35","191141","0.0-6.0-2.0-0.8","c6a7ppw7fp","many_one","0","indirect_first","0","er06rn28","0","24","1","1","3","1","","0","0","0","null","","","<div class = 'row'><div class = 'column'><img src = 'usneg/9421.bmp' width = '100%;'></div><div class = 'column'><img src = 'category2/CS1.png' width = '70%;'></div></div>","null","neg","CS","CS","2","category2/CS1.png","","","","",""
"","html-keyboard-response","36","193644","0.0-6.0-2.0-0.9","c6a7ppw7fp","many_one","0","indirect_first","0","er06rn28","0","24","1","1","3","1","","0","0","0","null","","","<div class = 'row'><div class = 'column'><img src = 'usneg/9561.bmp' width = '100%;'></div><div class = 'column'><img src = 'category2/CS5.png' width = '70%;'></div></div>","null","neg","CS","CS","2","category2/CS5.png","","","","",""
"","html-keyboard-response","37","196150","0.0-6.0-2.0-0.10","c6a7ppw7fp","many_one","0","indirect_first","0","er06rn28","0","24","1","1","3","1","","0","0","0","null","","","<div class = 'row'><div class = 'column'><img src = 'usneg/9404.bmp' width = '100%;'></div><div class = 'column'><img src = 'category2/CS6.png' width = '70%;'></div></div>","null","neg","CS","CS","2","category2/CS6.png","","","","",""
"","html-keyboard-response","38","198658","0.0-6.0-2.0-0.11","c6a7ppw7fp","many_one","0","indirect_first","0","er06rn28","0","24","1","1","3","1","","0","0","0","null","","","<div class = 'row'><div class = 'column'><img src = 'uspos/1463.bmp' width = '100%;'></div><div class = 'column'><img src = 'category4/CS6.png' width = '70%;'></div></div>","null","pos","CS","CS","4","category4/CS6.png","","","","",""
"","html-keyboard-response","39","201165","0.0-6.0-2.0-0.12","c6a7ppw7fp","many_one","0","indirect_first","0","er06rn28","0","24","1","1","3","1","","0","0","0","null","","","<div class = 'row'><div class = 'column'><img src = 'uspos/1710.bmp' width = '100%;'></div><div class = 'column'><img src = 'category3/CS7.png' width = '70%;'></div></div>","null","pos","CS","CS","3","category3/CS7.png","","","","",""
"","html-keyboard-response","40","203671","0.0-6.0-2.0-0.13","c6a7ppw7fp","many_one","0","indirect_first","0","er06rn28","0","24","1","1","3","1","","0","0","0","null","","","<div class = 'row'><div class = 'column'><img src = 'category3/CS2.png' width = '70%;'></div><div class = 'column'><img src = 'uspos/7580.bmp' width = '100%;'></div></div>","null","pos","CS","CS","3","category3/CS2.png","","","","",""
"","html-keyboard-response","41","206178","0.0-6.0-2.0-0.14","c6a7ppw7fp","many_one","0","indirect_first","0","er06rn28","0","24","1","1","3","1","","0","0","0","null","","","<div class = 'row'><div class = 'column'><img src = 'category4/CS2.png' width = '70%;'></div><div class = 'column'><img src = 'uspos/5600.bmp' width = '100%;'></div></div>","null","pos","CS","CS","4","category4/CS2.png","","","","",""
"","html-keyboard-response","42","208682","0.0-6.0-2.0-0.15","c6a7ppw7fp","many_one","0","indirect_first","0","er06rn28","0","24","1","1","3","1","","0","0","0","null","","","<div class = 'row'><div class = 'column'><img src = 'uspos/5830.bmp' width = '100%;'></div><div class = 'column'><img src = 'category3/CS3.png' width = '70%;'></div></div>","null","pos","CS","CS","3","category3/CS3.png","","","","",""
"","html-keyboard-response","43","211187","0.0-6.0-2.0-0.16","c6a7ppw7fp","many_one","0","indirect_first","0","er06rn28","0","24","1","1","3","1","","0","0","0","null","","","<div class = 'row'><div class = 'column'><img src = 'category1/CS7.png' width = '70%;'></div><div class = 'column'><img src = 'usneg/9000.bmp' width = '100%;'></div></div>","null","neg","CS","CS","1","category1/CS7.png","","","","",""
"","html-keyboard-response","44","213691","0.0-6.0-2.0-0.17","c6a7ppw7fp","many_one","0","indirect_first","0","er06rn28","0","24","1","1","3","1","","0","0","0","null","","","<div class = 'row'><div class = 'column'><img src = 'usneg/9635.2.bmp' width = '100%;'></div><div class = 'column'><img src = 'category2/CS10.png' width = '70%;'></div></div>","null","neg","CS","CS","2","category2/CS10.png","","","","",""
"","html-keyboard-response","45","216197","0.0-6.0-2.0-0.18","c6a7ppw7fp","many_one","0","indirect_first","0","er06rn28","0","24","1","1","3","1","","0","0","0","null","","","<div class = 'row'><div class = 'column'><img src = 'usneg/9435.bmp' width = '100%;'></div><div class = 'column'><img src = 'category1/CS4.png' width = '70%;'></div></div>","null","neg","CS","CS","1","category1/CS4.png","","","","",""
"","html-keyboard-response","46","218702","0.0-6.0-2.0-0.19","c6a7ppw7fp","many_one","0","indirect_first","0","er06rn28","0","24","1","1","3","1","","0","0","0","null","","","<div class = 'row'><div class = 'column'><img src = 'category4/CS4.png' width = '70%;'></div><div class = 'column'><img src = 'uspos/5621.bmp' width = '100%;'></div></div>","null","pos","CS","CS","4","category4/CS4.png","","","","",""
"","survey-html-form","47","220275","0.0-6.0-3.0","c6a7ppw7fp","many_one","0","indirect_first","0","er06rn28","0","24","1","1","3","1","","0","0","0","1071","","{}","","","","","","","","","","","",""
"","html-keyboard-response","48","224280","0.0-6.0-4.0-0.0","c6a7ppw7fp","many_one","0","indirect_first","0","er06rn28","0","24","1","1","3","1","","0","0","0","null","","","<div class = 'row'><div class = 'column'><img src = 'uspos/1710.bmp' width = '100%;'></div><div class = 'column'><img src = 'category3/CS7.png' width = '70%;'></div></div>","null","pos","CS","CS","3","category3/CS7.png","","","","",""
"","html-keyboard-response","49","226788","0.0-6.0-4.0-0.1","c6a7ppw7fp","many_one","0","indirect_first","0","er06rn28","0","24","1","1","3","1","","0","0","0","null","","","<div class = 'row'><div class = 'column'><img src = 'usneg/6838.bmp' width = '100%;'></div><div class = 'column'><img src = 'category1/CS5.png' width = '70%;'></div></div>","null","neg","CS","CS","1","category1/CS5.png","","","","",""
"","html-keyboard-response","50","229295","0.0-6.0-4.0-0.2","c6a7ppw7fp","many_one","0","indirect_first","0","er06rn28","0","24","1","1","3","1","","0","0","0","null","","","<div class = 'row'><div class = 'column'><img src = 'usneg/9000.bmp' width = '100%;'></div><div class = 'column'><img src = 'category1/CS7.png' width = '70%;'></div></div>","null","neg","CS","CS","1","category1/CS7.png","","","","",""
"","html-keyboard-response","51","231798","0.0-6.0-4.0-0.3","c6a7ppw7fp","many_one","0","indirect_first","0","er06rn28","0","24","1","1","3","1","","0","0","0","null","","","<div class = 'row'><div class = 'column'><img src = 'uspos/5600.bmp' width = '100%;'></div><div class = 'column'><img src = 'category4/CS2.png' width = '70%;'></div></div>","null","pos","CS","CS","4","category4/CS2.png","","","","",""
"","html-keyboard-response","52","234299","0.0-6.0-4.0-0.4","c6a7ppw7fp","many_one","0","indirect_first","0","er06rn28","0","24","1","1","3","1","","0","0","0","null","","","<div class = 'row'><div class = 'column'><img src = 'category4/CS4.png' width = '70%;'></div><div class = 'column'><img src = 'uspos/5621.bmp' width = '100%;'></div></div>","null","pos","CS","CS","4","category4/CS4.png","","","","",""
"","html-keyboard-response","53","236806","0.0-6.0-4.0-0.5","c6a7ppw7fp","many_one","0","indirect_first","0","er06rn28","0","24","1","1","3","1","","0","0","0","null","","","<div class = 'row'><div class = 'column'><img src = 'usneg/9435.bmp' width = '100%;'></div><div class = 'column'><img src = 'category1/CS4.png' width = '70%;'></div></div>","null","neg","CS","CS","1","category1/CS4.png","","","","",""
"","html-keyboard-response","54","239311","0.0-6.0-4.0-0.6","c6a7ppw7fp","many_one","0","indirect_first","0","er06rn28","0","24","1","1","3","1","","0","0","0","null","","","<div class = 'row'><div class = 'column'><img src = 'uspos/5629.bmp' width = '100%;'></div><div class = 'column'><img src = 'category3/CS4.png' width = '70%;'></div></div>","null","pos","CS","CS","3","category3/CS4.png","","","","",""
"","html-keyboard-response","55","241816","0.0-6.0-4.0-0.7","c6a7ppw7fp","many_one","0","indirect_first","0","er06rn28","0","24","1","1","3","1","","0","0","0","null","","","<div class = 'row'><div class = 'column'><img src = 'uspos/7580.bmp' width = '100%;'></div><div class = 'column'><img src = 'category3/CS2.png' width = '70%;'></div></div>","null","pos","CS","CS","3","category3/CS2.png","","","","",""
"","html-keyboard-response","56","244326","0.0-6.0-4.0-0.8","c6a7ppw7fp","many_one","0","indirect_first","0","er06rn28","0","24","1","1","3","1","","0","0","0","null","","","<div class = 'row'><div class = 'column'><img src = 'category3/CS3.png' width = '70%;'></div><div class = 'column'><img src = 'uspos/5830.bmp' width = '100%;'></div></div>","null","pos","CS","CS","3","category3/CS3.png","","","","",""
"","html-keyboard-response","57","246834","0.0-6.0-4.0-0.9","c6a7ppw7fp","many_one","0","indirect_first","0","er06rn28","0","24","1","1","3","1","","0","0","0","null","","","<div class = 'row'><div class = 'column'><img src = 'category2/CS10.png' width = '70%;'></div><div class = 'column'><img src = 'usneg/9635.2.bmp' width = '100%;'></div></div>","null","neg","CS","CS","2","category2/CS10.png","","","","",""
"","html-keyboard-response","58","249341","0.0-6.0-4.0-0.10","c6a7ppw7fp","many_one","0","indirect_first","0","er06rn28","0","24","1","1","3","1","","0","0","0","null","","","<div class = 'row'><div class = 'column'><img src = 'usneg/9050.bmp' width = '100%;'></div><div class = 'column'><img src = 'category1/CS3.png' width = '70%;'></div></div>","null","neg","CS","CS","1","category1/CS3.png","","","","",""
"","html-keyboard-response","59","251843","0.0-6.0-4.0-0.11","c6a7ppw7fp","many_one","0","indirect_first","0","er06rn28","0","24","1","1","3","1","","0","0","0","null","","","<div class = 'row'><div class = 'column'><img src = 'usneg/2750.bmp' width = '100%;'></div><div class = 'column'><img src = 'category1/CS6.png' width = '70%;'></div></div>","null","neg","CS","CS","1","category1/CS6.png","","","","",""
"","html-keyboard-response","60","254348","0.0-6.0-4.0-0.12","c6a7ppw7fp","many_one","0","indirect_first","0","er06rn28","0","24","1","1","3","1","","0","0","0","null","","","<div class = 'row'><div class = 'column'><img src = 'category2/CS2.png' width = '70%;'></div><div class = 'column'><img src = 'usneg/7380.bmp' width = '100%;'></div></div>","null","neg","CS","CS","2","category2/CS2.png","","","","",""
"","html-keyboard-response","61","256849","0.0-6.0-4.0-0.13","c6a7ppw7fp","many_one","0","indirect_first","0","er06rn28","0","24","1","1","3","1","","0","0","0","null","","","<div class = 'row'><div class = 'column'><img src = 'category4/CS6.png' width = '70%;'></div><div class = 'column'><img src = 'uspos/1463.bmp' width = '100%;'></div></div>","null","pos","CS","CS","4","category4/CS6.png","","","","",""
"","html-keyboard-response","62","259355","0.0-6.0-4.0-0.14","c6a7ppw7fp","many_one","0","indirect_first","0","er06rn28","0","24","1","1","3","1","","0","0","0","null","","","<div class = 'row'><div class = 'column'><img src = 'uspos/5831.bmp' width = '100%;'></div><div class = 'column'><img src = 'category4/CS3.png' width = '70%;'></div></div>","null","pos","CS","CS","4","category4/CS3.png","","","","",""
"","html-keyboard-response","63","261859","0.0-6.0-4.0-0.15","c6a7ppw7fp","many_one","0","indirect_first","0","er06rn28","0","24","1","1","3","1","","0","0","0","null","","","<div class = 'row'><div class = 'column'><img src = 'uspos/2150.bmp' width = '100%;'></div><div class = 'column'><img src = 'category3/CS8.png' width = '70%;'></div></div>","null","pos","CS","CS","3","category3/CS8.png","","","","",""
"","html-keyboard-response","64","264367","0.0-6.0-4.0-0.16","c6a7ppw7fp","many_one","0","indirect_first","0","er06rn28","0","24","1","1","3","1","","0","0","0","null","","","<div class = 'row'><div class = 'column'><img src = 'usneg/9404.bmp' width = '100%;'></div><div class = 'column'><img src = 'category2/CS6.png' width = '70%;'></div></div>","null","neg","CS","CS","2","category2/CS6.png","","","","",""
"","html-keyboard-response","65","266871","0.0-6.0-4.0-0.17","c6a7ppw7fp","many_one","0","indirect_first","0","er06rn28","0","24","1","1","3","1","","0","0","0","null","","","<div class = 'row'><div class = 'column'><img src = 'uspos/5470.bmp' width = '100%;'></div><div class = 'column'><img src = 'category4/CS5.png' width = '70%;'></div></div>","null","pos","CS","CS","4","category4/CS5.png","","","","",""
"","html-keyboard-response","66","269376","0.0-6.0-4.0-0.18","c6a7ppw7fp","many_one","0","indirect_first","0","er06rn28","0","24","1","1","3","1","","0","0","0","null","","","<div class = 'row'><div class = 'column'><img src = 'usneg/9561.bmp' width = '100%;'></div><div class = 'column'><img src = 'category2/CS5.png' width = '70%;'></div></div>","null","neg","CS","CS","2","category2/CS5.png","","","","",""
"","html-keyboard-response","67","271882","0.0-6.0-4.0-0.19","c6a7ppw7fp","many_one","0","indirect_first","0","er06rn28","0","24","1","1","3","1","","0","0","0","null","","","<div class = 'row'><div class = 'column'><img src = 'usneg/9421.bmp' width = '100%;'></div><div class = 'column'><img src = 'category2/CS1.png' width = '70%;'></div></div>","null","neg","CS","CS","2","category2/CS1.png","","","","",""
"","survey-html-form","68","273795","0.0-6.0-5.0","c6a7ppw7fp","many_one","0","indirect_first","0","er06rn28","0","24","1","1","3","1","","0","0","0","1413","","{}","","","","","","","","","","","",""
"","html-keyboard-response","69","277801","0.0-6.0-6.0-0.0","c6a7ppw7fp","many_one","0","indirect_first","0","er06rn28","0","24","1","1","3","1","","0","0","0","null","","","<div class = 'row'><div class = 'column'><img src = 'usneg/9000.bmp' width = '100%;'></div><div class = 'column'><img src = 'category1/CS7.png' width = '70%;'></div></div>","null","neg","CS","CS","1","category1/CS7.png","","","","",""
"","html-keyboard-response","70","280310","0.0-6.0-6.0-0.1","c6a7ppw7fp","many_one","0","indirect_first","0","er06rn28","0","24","1","1","3","1","","0","0","0","null","","","<div class = 'row'><div class = 'column'><img src = 'category2/CS5.png' width = '70%;'></div><div class = 'column'><img src = 'usneg/9561.bmp' width = '100%;'></div></div>","null","neg","CS","CS","2","category2/CS5.png","","","","",""
"","html-keyboard-response","71","282820","0.0-6.0-6.0-0.2","c6a7ppw7fp","many_one","0","indirect_first","0","er06rn28","0","24","1","1","3","1","","0","0","0","null","","","<div class = 'row'><div class = 'column'><img src = 'uspos/5629.bmp' width = '100%;'></div><div class = 'column'><img src = 'category3/CS4.png' width = '70%;'></div></div>","null","pos","CS","CS","3","category3/CS4.png","","","","",""
"","html-keyboard-response","72","285324","0.0-6.0-6.0-0.3","c6a7ppw7fp","many_one","0","indirect_first","0","er06rn28","0","24","1","1","3","1","","0","0","0","null","","","<div class = 'row'><div class = 'column'><img src = 'usneg/9404.bmp' width = '100%;'></div><div class = 'column'><img src = 'category2/CS6.png' width = '70%;'></div></div>","null","neg","CS","CS","2","category2/CS6.png","","","","",""
"","html-keyboard-response","73","287832","0.0-6.0-6.0-0.4","c6a7ppw7fp","many_one","0","indirect_first","0","er06rn28","0","24","1","1","3","1","","0","0","0","null","","","<div class = 'row'><div class = 'column'><img src = 'uspos/1710.bmp' width = '100%;'></div><div class = 'column'><img src = 'category3/CS7.png' width = '70%;'></div></div>","null","pos","CS","CS","3","category3/CS7.png","","","","",""
"","html-keyboard-response","74","290337","0.0-6.0-6.0-0.5","c6a7ppw7fp","many_one","0","indirect_first","0","er06rn28","0","24","1","1","3","1","","0","0","0","null","","","<div class = 'row'><div class = 'column'><img src = 'category4/CS3.png' width = '70%;'></div><div class = 'column'><img src = 'uspos/5831.bmp' width = '100%;'></div></div>","null","pos","CS","CS","4","category4/CS3.png","","","","",""
"","html-keyboard-response","75","292844","0.0-6.0-6.0-0.6","c6a7ppw7fp","many_one","0","indirect_first","0","er06rn28","0","24","1","1","3","1","","0","0","0","null","","","<div class = 'row'><div class = 'column'><img src = 'category1/CS4.png' width = '70%;'></div><div class = 'column'><img src = 'usneg/9435.bmp' width = '100%;'></div></div>","null","neg","CS","CS","1","category1/CS4.png","","","","",""
"","html-keyboard-response","76","295352","0.0-6.0-6.0-0.7","c6a7ppw7fp","many_one","0","indirect_first","0","er06rn28","0","24","1","1","3","1","","0","0","0","null","","","<div class = 'row'><div class = 'column'><img src = 'category1/CS6.png' width = '70%;'></div><div class = 'column'><img src = 'usneg/2750.bmp' width = '100%;'></div></div>","null","neg","CS","CS","1","category1/CS6.png","","","","",""
"","html-keyboard-response","77","297857","0.0-6.0-6.0-0.8","c6a7ppw7fp","many_one","0","indirect_first","0","er06rn28","0","24","1","1","3","1","","0","0","0","null","","","<div class = 'row'><div class = 'column'><img src = 'usneg/9421.bmp' width = '100%;'></div><div class = 'column'><img src = 'category2/CS1.png' width = '70%;'></div></div>","null","neg","CS","CS","2","category2/CS1.png","","","","",""
"","html-keyboard-response","78","300364","0.0-6.0-6.0-0.9","c6a7ppw7fp","many_one","0","indirect_first","0","er06rn28","0","24","1","1","3","1","","0","0","0","null","","","<div class = 'row'><div class = 'column'><img src = 'category2/CS2.png' width = '70%;'></div><div class = 'column'><img src = 'usneg/7380.bmp' width = '100%;'></div></div>","null","neg","CS","CS","2","category2/CS2.png","","","","",""
"","html-keyboard-response","79","302869","0.0-6.0-6.0-0.10","c6a7ppw7fp","many_one","0","indirect_first","0","er06rn28","0","24","1","1","3","1","","0","0","0","null","","","<div class = 'row'><div class = 'column'><img src = 'category3/CS2.png' width = '70%;'></div><div class = 'column'><img src = 'uspos/7580.bmp' width = '100%;'></div></div>","null","pos","CS","CS","3","category3/CS2.png","","","","",""
"","html-keyboard-response","80","305377","0.0-6.0-6.0-0.11","c6a7ppw7fp","many_one","0","indirect_first","0","er06rn28","0","24","1","1","3","1","","0","0","0","null","","","<div class = 'row'><div class = 'column'><img src = 'usneg/9635.2.bmp' width = '100%;'></div><div class = 'column'><img src = 'category2/CS10.png' width = '70%;'></div></div>","null","neg","CS","CS","2","category2/CS10.png","","","","",""
"","html-keyboard-response","81","307881","0.0-6.0-6.0-0.12","c6a7ppw7fp","many_one","0","indirect_first","0","er06rn28","0","24","1","1","3","1","","0","0","0","null","","","<div class = 'row'><div class = 'column'><img src = 'category4/CS2.png' width = '70%;'></div><div class = 'column'><img src = 'uspos/5600.bmp' width = '100%;'></div></div>","null","pos","CS","CS","4","category4/CS2.png","","","","",""
"","html-keyboard-response","82","310386","0.0-6.0-6.0-0.13","c6a7ppw7fp","many_one","0","indirect_first","0","er06rn28","0","24","1","1","3","1","","0","0","0","null","","","<div class = 'row'><div class = 'column'><img src = 'category4/CS6.png' width = '70%;'></div><div class = 'column'><img src = 'uspos/1463.bmp' width = '100%;'></div></div>","null","pos","CS","CS","4","category4/CS6.png","","","","",""
"","html-keyboard-response","83","312893","0.0-6.0-6.0-0.14","c6a7ppw7fp","many_one","0","indirect_first","0","er06rn28","0","24","1","1","3","1","","0","0","0","null","","","<div class = 'row'><div class = 'column'><img src = 'usneg/6838.bmp' width = '100%;'></div><div class = 'column'><img src = 'category1/CS5.png' width = '70%;'></div></div>","null","neg","CS","CS","1","category1/CS5.png","","","","",""
"","html-keyboard-response","84","315398","0.0-6.0-6.0-0.15","c6a7ppw7fp","many_one","0","indirect_first","0","er06rn28","0","24","1","1","3","1","","0","0","0","null","","","<div class = 'row'><div class = 'column'><img src = 'category4/CS4.png' width = '70%;'></div><div class = 'column'><img src = 'uspos/5621.bmp' width = '100%;'></div></div>","null","pos","CS","CS","4","category4/CS4.png","","","","",""
"","html-keyboard-response","85","317903","0.0-6.0-6.0-0.16","c6a7ppw7fp","many_one","0","indirect_first","0","er06rn28","0","24","1","1","3","1","","0","0","0","null","","","<div class = 'row'><div class = 'column'><img src = 'uspos/5830.bmp' width = '100%;'></div><div class = 'column'><img src = 'category3/CS3.png' width = '70%;'></div></div>","null","pos","CS","CS","3","category3/CS3.png","","","","",""
"","html-keyboard-response","86","320411","0.0-6.0-6.0-0.17","c6a7ppw7fp","many_one","0","indirect_first","0","er06rn28","0","24","1","1","3","1","","0","0","0","null","","","<div class = 'row'><div class = 'column'><img src = 'usneg/9050.bmp' width = '100%;'></div><div class = 'column'><img src = 'category1/CS3.png' width = '70%;'></div></div>","null","neg","CS","CS","1","category1/CS3.png","","","","",""
"","html-keyboard-response","87","322918","0.0-6.0-6.0-0.18","c6a7ppw7fp","many_one","0","indirect_first","0","er06rn28","0","24","1","1","3","1","","0","0","0","null","","","<div class = 'row'><div class = 'column'><img src = 'uspos/2150.bmp' width = '100%;'></div><div class = 'column'><img src = 'category3/CS8.png' width = '70%;'></div></div>","null","pos","CS","CS","3","category3/CS8.png","","","","",""
"","html-keyboard-response","88","325420","0.0-6.0-6.0-0.19","c6a7ppw7fp","many_one","0","indirect_first","0","er06rn28","0","24","1","1","3","1","","0","0","0","null","","","<div class = 'row'><div class = 'column'><img src = 'uspos/5470.bmp' width = '100%;'></div><div class = 'column'><img src = 'category4/CS5.png' width = '70%;'></div></div>","null","pos","CS","CS","4","category4/CS5.png","","","","",""
"","html-keyboard-response","89","348617","0.0-7.0","c6a7ppw7fp","many_one","0","indirect_first","0","er06rn28","0","24","1","1","3","1","","0","0","0","22697","","","<p>Sie sehen nun die chinesischen Zeichen nur ganz kurz. Danach sehen Sie die jeweilige Aussprache der Zeichen als Silbe auf dem Bildschrim. Ihre Aufgabe ist es, für jede Silbe anzugeben, ob diese etwas angenehmes, oder unangenehmes bedeuten könnte. Verlassen Sie sich hier vor allem auf Ihre Intuition.<br><br>Die Zeichen werden nur zur Orientierung dargestellt, beachten Sie sie deshalb nicht. Konzentrieren Sie sich vor allem auf die Silben. <br>Reagieren Sie mit folgenden zwei Tasten: <br><br><b>'D' </b> wenn die Silbe etwas <b>unangenehmes</b> bedeuten könnte. <br><b>'K'</b> wenn die Silbe etwas <b>angenehmes</b> bedeuten könnte. <br><br>Bitte legen Sie nun den Zeigefinger der linken Hand auf die Taste 'D' und den Zeigefinger der rechten Hand auf die Taste 'K'. <br>Reagieren Sie auf jede Silbe so schnell wie möglich. Uns interessiert Ihre spontane Reaktion. <br> <br> <br>Drücken Sie 'D' oder 'K', um die nächste Aufgabe zu starten. </p>","68","","","","","","","","","",""
"","html-keyboard-response","90","351625","0.0-8.0-0.0","c6a7ppw7fp","many_one","0","indirect_first","0","er06rn28","0","24","1","1","3","1","","0","0","0","null","","","<div style=""font-size:60px;"">+</div>","null","","","","","","","","","",""
"","html-keyboard-response","91","351718","0.0-8.0-1.0","c6a7ppw7fp","many_one","0","indirect_first","0","er06rn28","0","24","1","1","3","1","","0","0","0","null","","","<img src = 'category1/CS5.png' width = '100%;'>","null","","","","","","","","","",""
"","html-keyboard-response","92","351971","0.0-8.0-2.0","c6a7ppw7fp","many_one","0","indirect_first","0","er06rn28","0","24","1","1","3","1","","0","0","0","null","","","<img src = 'targets/47.png' width = '100%;'>","null","","","","","","","","","",""
"","html-keyboard-response","93","359040","0.0-8.0-3.0","c6a7ppw7fp","many_one","0","indirect_first","0","er06rn28","0","24","1","1","3","1","","0","0","0","7068","","","<img src = 'targets/mask.png' width = '100%;'>","68","neg","CS","CS","1","category1/CS5.png","targets/47.png","0","indirect","0",""
"","html-keyboard-response","94","360547","0.0-8.0-0.1","c6a7ppw7fp","many_one","0","indirect_first","0","er06rn28","0","24","1","1","3","1","","0","0","0","null","","","<div style=""font-size:60px;"">+</div>","null","","","","","","","","","",""
"","html-keyboard-response","95","360639","0.0-8.0-1.1","c6a7ppw7fp","many_one","0","indirect_first","0","er06rn28","0","24","1","1","3","1","","0","0","0","null","","","<img src = 'category2/CS2.png' width = '100%;'>","null","","","","","","","","","",""
"","html-keyboard-response","96","360895","0.0-8.0-2.1","c6a7ppw7fp","many_one","0","indirect_first","0","er06rn28","0","24","1","1","3","1","","0","0","0","null","","","<img src = 'targets/9.png' width = '100%;'>","null","","","","","","","","","",""
"","html-keyboard-response","97","364546","0.0-8.0-3.1","c6a7ppw7fp","many_one","0","indirect_first","0","er06rn28","0","24","1","1","3","1","","0","0","0","3651","","","<img src = 'targets/mask.png' width = '100%;'>","75","neg","CS","CS","2","category2/CS2.png","targets/9.png","1","indirect","1",""
"","html-keyboard-response","98","366050","0.0-8.0-0.2","c6a7ppw7fp","many_one","0","indirect_first","0","er06rn28","0","24","1","1","3","1","","0","0","0","null","","","<div style=""font-size:60px;"">+</div>","null","","","","","","","","","",""
"","html-keyboard-response","99","366143","0.0-8.0-1.2","c6a7ppw7fp","many_one","0","indirect_first","0","er06rn28","0","24","1","1","3","1","","0","0","0","null","","","<img src = 'category1/CS8.png' width = '100%;'>","null","","","","","","","","","",""
"","html-keyboard-response","100","366397","0.0-8.0-2.2","c6a7ppw7fp","many_one","0","indirect_first","0","er06rn28","0","24","1","1","3","1","","0","0","0","null","","","<img src = 'targets/45.png' width = '100%;'>","null","","","","","","","","","",""
"","html-keyboard-response","101","367813","0.0-8.0-3.2","c6a7ppw7fp","many_one","0","indirect_first","0","er06rn28","0","24","1","1","3","1","","0","0","0","1415","","","<img src = 'targets/mask.png' width = '100%;'>","68","neg","GS","GSold","1","category1/CS8.png","targets/45.png","0","indirect","2",""
"","html-keyboard-response","102","369321","0.0-8.0-0.3","c6a7ppw7fp","many_one","0","indirect_first","0","er06rn28","0","24","1","1","3","1","","0","0","0","null","","","<div style=""font-size:60px;"">+</div>","null","","","","","","","","","",""
"","html-keyboard-response","103","369414","0.0-8.0-1.3","c6a7ppw7fp","many_one","0","indirect_first","0","er06rn28","0","24","1","1","3","1","","0","0","0","null","","","<img src = 'category2/CS6.png' width = '100%;'>","null","","","","","","","","","",""
"","html-keyboard-response","104","369669","0.0-8.0-2.3","c6a7ppw7fp","many_one","0","indirect_first","0","er06rn28","0","24","1","1","3","1","","0","0","0","null","","","<img src = 'targets/30.png' width = '100%;'>","null","","","","","","","","","",""
"","html-keyboard-response","105","372086","0.0-8.0-3.3","c6a7ppw7fp","many_one","0","indirect_first","0","er06rn28","0","24","1","1","3","1","","0","0","0","2416","","","<img src = 'targets/mask.png' width = '100%;'>","75","neg","CS","CS","2","category2/CS6.png","targets/30.png","1","indirect","3",""
"","html-keyboard-response","106","373593","0.0-8.0-0.4","c6a7ppw7fp","many_one","0","indirect_first","0","er06rn28","0","24","1","1","3","1","","0","0","0","null","","","<div style=""font-size:60px;"">+</div>","null","","","","","","","","","",""
"","html-keyboard-response","107","373685","0.0-8.0-1.4","c6a7ppw7fp","many_one","0","indirect_first","0","er06rn28","0","24","1","1","3","1","","0","0","0","null","","","<img src = 'category4/CS2.png' width = '100%;'>","null","","","","","","","","","",""
"","html-keyboard-response","108","373941","0.0-8.0-2.4","c6a7ppw7fp","many_one","0","indirect_first","0","er06rn28","0","24","1","1","3","1","","0","0","0","null","","","<img src = 'targets/25.png' width = '100%;'>","null","","","","","","","","","",""
"","html-keyboard-response","109","375696","0.0-8.0-3.4","c6a7ppw7fp","many_one","0","indirect_first","0","er06rn28","0","24","1","1","3","1","","0","0","0","1755","","","<img src = 'targets/mask.png' width = '100%;'>","75","pos","CS","CS","4","category4/CS2.png","targets/25.png","1","indirect","4",""
"","html-keyboard-response","110","377201","0.0-8.0-0.5","c6a7ppw7fp","many_one","0","indirect_first","0","er06rn28","0","24","1","1","3","1","","0","0","0","null","","","<div style=""font-size:60px;"">+</div>","null","","","","","","","","","",""
"","html-keyboard-response","111","377295","0.0-8.0-1.5","c6a7ppw7fp","many_one","0","indirect_first","0","er06rn28","0","24","1","1","3","1","","0","0","0","null","","","<img src = 'category3/CS7.png' width = '100%;'>","null","","","","","","","","","",""
"","html-keyboard-response","112","377554","0.0-8.0-2.5","c6a7ppw7fp","many_one","0","indirect_first","0","er06rn28","0","24","1","1","3","1","","0","0","0","null","","","<img src = 'targets/28.png' width = '100%;'>","null","","","","","","","","","",""
"","html-keyboard-response","113","379495","0.0-8.0-3.5","c6a7ppw7fp","many_one","0","indirect_first","0","er06rn28","0","24","1","1","3","1","","0","0","0","1941","","","<img src = 'targets/mask.png' width = '100%;'>","68","pos","CS","CS","3","category3/CS7.png","targets/28.png","0","indirect","5",""
"","html-keyboard-response","114","381002","0.0-8.0-0.6","c6a7ppw7fp","many_one","0","indirect_first","0","er06rn28","0","24","1","1","3","1","","0","0","0","null","","","<div style=""font-size:60px;"">+</div>","null","","","","","","","","","",""
"","html-keyboard-response","115","381095","0.0-8.0-1.6","c6a7ppw7fp","many_one","0","indirect_first","0","er06rn28","0","24","1","1","3","1","","0","0","0","null","","","<img src = 'category4/CS10.png' width = '100%;'>","null","","","","","","","","","",""
"","html-keyboard-response","116","381353","0.0-8.0-2.6","c6a7ppw7fp","many_one","0","indirect_first","0","er06rn28","0","24","1","1","3","1","","0","0","0","null","","","<img src = 'targets/17.png' width = '100%;'>","null","","","","","","","","","",""
"","html-keyboard-response","117","384147","0.0-8.0-3.6","c6a7ppw7fp","many_one","0","indirect_first","0","er06rn28","0","24","1","1","3","1","","0","0","0","2793","","","<img src = 'targets/mask.png' width = '100%;'>","68","pos","GS","GSold","4","category4/CS10.png","targets/17.png","0","indirect","6",""
"","html-keyboard-response","118","385655","0.0-8.0-0.7","c6a7ppw7fp","many_one","0","indirect_first","0","er06rn28","0","24","1","1","3","1","","0","0","0","null","","","<div style=""font-size:60px;"">+</div>","null","","","","","","","","","",""
"","html-keyboard-response","119","385748","0.0-8.0-1.7","c6a7ppw7fp","many_one","0","indirect_first","0","er06rn28","0","24","1","1","3","1","","0","0","0","null","","","<img src = 'category3/CS3.png' width = '100%;'>","null","","","","","","","","","",""
"","html-keyboard-response","120","386003","0.0-8.0-2.7","c6a7ppw7fp","many_one","0","indirect_first","0","er06rn28","0","24","1","1","3","1","","0","0","0","null","","","<img src = 'targets/23.png' width = '100%;'>","null","","","","","","","","","",""
"","html-keyboard-response","121","387033","0.0-8.0-3.7","c6a7ppw7fp","many_one","0","indirect_first","0","er06rn28","0","24","1","1","3","1","","0","0","0","1029","","","<img src = 'targets/mask.png' width = '100%;'>","75","pos","CS","CS","3","category3/CS3.png","targets/23.png","1","indirect","7",""
"","html-keyboard-response","122","388540","0.0-8.0-0.8","c6a7ppw7fp","many_one","0","indirect_first","0","er06rn28","0","24","1","1","3","1","","0","0","0","null","","","<div style=""font-size:60px;"">+</div>","null","","","","","","","","","",""
"","html-keyboard-response","123","388630","0.0-8.0-1.8","c6a7ppw7fp","many_one","0","indirect_first","0","er06rn28","0","24","1","1","3","1","","0","0","0","null","","","<img src = 'category4/CS3.png' width = '100%;'>","null","","","","","","","","","",""
"","html-keyboard-response","124","388888","0.0-8.0-2.8","c6a7ppw7fp","many_one","0","indirect_first","0","er06rn28","0","24","1","1","3","1","","0","0","0","null","","","<img src = 'targets/35.png' width = '100%;'>","null","","","","","","","","","",""
"","html-keyboard-response","125","389994","0.0-8.0-3.8","c6a7ppw7fp","many_one","0","indirect_first","0","er06rn28","0","24","1","1","3","1","","0","0","0","1105","","","<img src = 'targets/mask.png' width = '100%;'>","75","pos","CS","CS","4","category4/CS3.png","targets/35.png","1","indirect","8",""
"","html-keyboard-response","126","391500","0.0-8.0-0.9","c6a7ppw7fp","many_one","0","indirect_first","0","er06rn28","0","24","1","1","3","1","","0","0","0","null","","","<div style=""font-size:60px;"">+</div>","null","","","","","","","","","",""
"","html-keyboard-response","127","391593","0.0-8.0-1.9","c6a7ppw7fp","many_one","0","indirect_first","0","er06rn28","0","24","1","1","3","1","","0","0","0","null","","","<img src = 'category2/CS10.png' width = '100%;'>","null","","","","","","","","","",""
"","html-keyboard-response","128","391848","0.0-8.0-2.9","c6a7ppw7fp","many_one","0","indirect_first","0","er06rn28","0","24","1","1","3","1","","0","0","0","null","","","<img src = 'targets/34.png' width = '100%;'>","null","","","","","","","","","",""
"","html-keyboard-response","129","392878","0.0-8.0-3.9","c6a7ppw7fp","many_one","0","indirect_first","0","er06rn28","0","24","1","1","3","1","","0","0","0","1030","","","<img src = 'targets/mask.png' width = '100%;'>","75","neg","CS","CS","2","category2/CS10.png","targets/34.png","1","indirect","9",""
"","html-keyboard-response","130","394382","0.0-8.0-0.10","c6a7ppw7fp","many_one","0","indirect_first","0","er06rn28","0","24","1","1","3","1","","0","0","0","null","","","<div style=""font-size:60px;"">+</div>","null","","","","","","","","","",""
"","html-keyboard-response","131","394475","0.0-8.0-1.10","c6a7ppw7fp","many_one","0","indirect_first","0","er06rn28","0","24","1","1","3","1","","0","0","0","null","","","<img src = 'category4/CS6.png' width = '100%;'>","null","","","","","","","","","",""
"","html-keyboard-response","132","394733","0.0-8.0-2.10","c6a7ppw7fp","many_one","0","indirect_first","0","er06rn28","0","24","1","1","3","1","","0","0","0","null","","","<img src = 'targets/22.png' width = '100%;'>","null","","","","","","","","","",""
"","html-keyboard-response","133","395554","0.0-8.0-3.10","c6a7ppw7fp","many_one","0","indirect_first","0","er06rn28","0","24","1","1","3","1","","0","0","0","821","","","<img src = 'targets/mask.png' width = '100%;'>","75","pos","CS","CS","4","category4/CS6.png","targets/22.png","1","indirect","10",""
"","html-keyboard-response","134","397060","0.0-8.0-0.11","c6a7ppw7fp","many_one","0","indirect_first","0","er06rn28","0","24","1","1","3","1","","0","0","0","null","","","<div style=""font-size:60px;"">+</div>","null","","","","","","","","","",""
"","html-keyboard-response","135","397155","0.0-8.0-1.11","c6a7ppw7fp","many_one","0","indirect_first","0","er06rn28","0","24","1","1","3","1","","0","0","0","null","","","<img src = 'category1/CS6.png' width = '100%;'>","null","","","","","","","","","",""
"","html-keyboard-response","136","397412","0.0-8.0-2.11","c6a7ppw7fp","many_one","0","indirect_first","0","er06rn28","0","24","1","1","3","1","","0","0","0","null","","","<img src = 'targets/48.png' width = '100%;'>","null","","","","","","","","","",""
"","html-keyboard-response","137","398100","0.0-8.0-3.11","c6a7ppw7fp","many_one","0","indirect_first","0","er06rn28","0","24","1","1","3","1","","0","0","0","688","","","<img src = 'targets/mask.png' width = '100%;'>","75","neg","CS","CS","1","category1/CS6.png","targets/48.png","1","indirect","11",""
"","html-keyboard-response","138","399606","0.0-8.0-0.12","c6a7ppw7fp","many_one","0","indirect_first","0","er06rn28","0","24","1","1","3","1","","0","0","0","null","","","<div style=""font-size:60px;"">+</div>","null","","","","","","","","","",""
"","html-keyboard-response","139","399698","0.0-8.0-1.12","c6a7ppw7fp","many_one","0","indirect_first","0","er06rn28","0","24","1","1","3","1","","0","0","0","null","","","<img src = 'category2/CS1.png' width = '100%;'>","null","","","","","","","","","",""
"","html-keyboard-response","140","399948","0.0-8.0-2.12","c6a7ppw7fp","many_one","0","indirect_first","0","er06rn28","0","24","1","1","3","1","","0","0","0","null","","","<img src = 'targets/33.png' width = '100%;'>","null","","","","","","","","","",""
"","html-keyboard-response","141","400546","0.0-8.0-3.12","c6a7ppw7fp","many_one","0","indirect_first","0","er06rn28","0","24","1","1","3","1","","0","0","0","597","","","<img src = 'targets/mask.png' width = '100%;'>","75","neg","CS","CS","2","category2/CS1.png","targets/33.png","1","indirect","12",""
"","html-keyboard-response","142","402050","0.0-8.0-0.13","c6a7ppw7fp","many_one","0","indirect_first","0","er06rn28","0","24","1","1","3","1","","0","0","0","null","","","<div style=""font-size:60px;"">+</div>","null","","","","","","","","","",""
"","html-keyboard-response","143","402143","0.0-8.0-1.13","c6a7ppw7fp","many_one","0","indirect_first","0","er06rn28","0","24","1","1","3","1","","0","0","0","null","","","<img src = 'category3/CS8.png' width = '100%;'>","null","","","","","","","","","",""
"","html-keyboard-response","144","402398","0.0-8.0-2.13","c6a7ppw7fp","many_one","0","indirect_first","0","er06rn28","0","24","1","1","3","1","","0","0","0","null","","","<img src = 'targets/36.png' width = '100%;'>","null","","","","","","","","","",""
"","html-keyboard-response","145","403530","0.0-8.0-3.13","c6a7ppw7fp","many_one","0","indirect_first","0","er06rn28","0","24","1","1","3","1","","0","0","0","1131","","","<img src = 'targets/mask.png' width = '100%;'>","68","pos","CS","CS","3","category3/CS8.png","targets/36.png","0","indirect","13",""
"","html-keyboard-response","146","405036","0.0-8.0-0.14","c6a7ppw7fp","many_one","0","indirect_first","0","er06rn28","0","24","1","1","3","1","","0","0","0","null","","","<div style=""font-size:60px;"">+</div>","null","","","","","","","","","",""
"","html-keyboard-response","147","405129","0.0-8.0-1.14","c6a7ppw7fp","many_one","0","indirect_first","0","er06rn28","0","24","1","1","3","1","","0","0","0","null","","","<img src = 'category3/CS2.png' width = '100%;'>","null","","","","","","","","","",""
"","html-keyboard-response","148","405385","0.0-8.0-2.14","c6a7ppw7fp","many_one","0","indirect_first","0","er06rn28","0","24","1","1","3","1","","0","0","0","null","","","<img src = 'targets/37.png' width = '100%;'>","null","","","","","","","","","",""
"","html-keyboard-response","149","406874","0.0-8.0-3.14","c6a7ppw7fp","many_one","0","indirect_first","0","er06rn28","0","24","1","1","3","1","","0","0","0","1488","","","<img src = 'targets/mask.png' width = '100%;'>","68","pos","CS","CS","3","category3/CS2.png","targets/37.png","0","indirect","14",""
"","html-keyboard-response","150","408380","0.0-8.0-0.15","c6a7ppw7fp","many_one","0","indirect_first","0","er06rn28","0","24","1","1","3","1","","0","0","0","null","","","<div style=""font-size:60px;"">+</div>","null","","","","","","","","","",""
"","html-keyboard-response","151","408472","0.0-8.0-1.15","c6a7ppw7fp","many_one","0","indirect_first","0","er06rn28","0","24","1","1","3","1","","0","0","0","null","","","<img src = 'category4/CS4.png' width = '100%;'>","null","","","","","","","","","",""
"","html-keyboard-response","152","408728","0.0-8.0-2.15","c6a7ppw7fp","many_one","0","indirect_first","0","er06rn28","0","24","1","1","3","1","","0","0","0","null","","","<img src = 'targets/5.png' width = '100%;'>","null","","","","","","","","","",""
"","html-keyboard-response","153","409325","0.0-8.0-3.15","c6a7ppw7fp","many_one","0","indirect_first","0","er06rn28","0","24","1","1","3","1","","0","0","0","597","","","<img src = 'targets/mask.png' width = '100%;'>","75","pos","CS","CS","4","category4/CS4.png","targets/5.png","1","indirect","15",""
"","html-keyboard-response","154","410832","0.0-8.0-0.16","c6a7ppw7fp","many_one","0","indirect_first","0","er06rn28","0","24","1","1","3","1","","0","0","0","null","","","<div style=""font-size:60px;"">+</div>","null","","","","","","","","","",""
"","html-keyboard-response","155","410927","0.0-8.0-1.16","c6a7ppw7fp","many_one","0","indirect_first","0","er06rn28","0","24","1","1","3","1","","0","0","0","null","","","<img src = 'category1/CS7.png' width = '100%;'>","null","","","","","","","","","",""
"","html-keyboard-response","156","411184","0.0-8.0-2.16","c6a7ppw7fp","many_one","0","indirect_first","0","er06rn28","0","24","1","1","3","1","","0","0","0","null","","","<img src = 'targets/20.png' width = '100%;'>","null","","","","","","","","","",""
"","html-keyboard-response","157","412667","0.0-8.0-3.16","c6a7ppw7fp","many_one","0","indirect_first","0","er06rn28","0","24","1","1","3","1","","0","0","0","1484","","","<img src = 'targets/mask.png' width = '100%;'>","68","neg","CS","CS","1","category1/CS7.png","targets/20.png","0","indirect","16",""
"","html-keyboard-response","158","414173","0.0-8.0-0.17","c6a7ppw7fp","many_one","0","indirect_first","0","er06rn28","0","24","1","1","3","1","","0","0","0","null","","","<div style=""font-size:60px;"">+</div>","null","","","","","","","","","",""
"","html-keyboard-response","159","414266","0.0-8.0-1.17","c6a7ppw7fp","many_one","0","indirect_first","0","er06rn28","0","24","1","1","3","1","","0","0","0","null","","","<img src = 'category1/CS2.png' width = '100%;'>","null","","","","","","","","","",""
"","html-keyboard-response","160","414520","0.0-8.0-2.17","c6a7ppw7fp","many_one","0","indirect_first","0","er06rn28","0","24","1","1","3","1","","0","0","0","null","","","<img src = 'targets/26.png' width = '100%;'>","null","","","","","","","","","",""
"","html-keyboard-response","161","415750","0.0-8.0-3.17","c6a7ppw7fp","many_one","0","indirect_first","0","er06rn28","0","24","1","1","3","1","","0","0","0","1230","","","<img src = 'targets/mask.png' width = '100%;'>","68","neg","GS","GSold","1","category1/CS2.png","targets/26.png","0","indirect","17",""
"","html-keyboard-response","162","417252","0.0-8.0-0.18","c6a7ppw7fp","many_one","0","indirect_first","0","er06rn28","0","24","1","1","3","1","","0","0","0","null","","","<div style=""font-size:60px;"">+</div>","null","","","","","","","","","",""
"","html-keyboard-response","163","417345","0.0-8.0-1.18","c6a7ppw7fp","many_one","0","indirect_first","0","er06rn28","0","24","1","1","3","1","","0","0","0","null","","","<img src = 'category1/CS9.png' width = '100%;'>","null","","","","","","","","","",""
"","html-keyboard-response","164","417601","0.0-8.0-2.18","c6a7ppw7fp","many_one","0","indirect_first","0","er06rn28","0","24","1","1","3","1","","0","0","0","null","","","<img src = 'targets/3.png' width = '100%;'>","null","","","","","","","","","",""
"","html-keyboard-response","165","418816","0.0-8.0-3.18","c6a7ppw7fp","many_one","0","indirect_first","0","er06rn28","0","24","1","1","3","1","","0","0","0","1214","","","<img src = 'targets/mask.png' width = '100%;'>","68","neg","GS","GSold","1","category1/CS9.png","targets/3.png","0","indirect","18",""
"","html-keyboard-response","166","420322","0.0-8.0-0.19","c6a7ppw7fp","many_one","0","indirect_first","0","er06rn28","0","24","1","1","3","1","","0","0","0","null","","","<div style=""font-size:60px;"">+</div>","null","","","","","","","","","",""
"","html-keyboard-response","167","420417","0.0-8.0-1.19","c6a7ppw7fp","many_one","0","indirect_first","0","er06rn28","0","24","1","1","3","1","","0","0","0","null","","","<img src = 'category3/CS4.png' width = '100%;'>","null","","","","","","","","","",""
"","html-keyboard-response","168","420674","0.0-8.0-2.19","c6a7ppw7fp","many_one","0","indirect_first","0","er06rn28","0","24","1","1","3","1","","0","0","0","null","","","<img src = 'targets/19.png' width = '100%;'>","null","","","","","","","","","",""
"","html-keyboard-response","169","422072","0.0-8.0-3.19","c6a7ppw7fp","many_one","0","indirect_first","0","er06rn28","0","24","1","1","3","1","","0","0","0","1397","","","<img src = 'targets/mask.png' width = '100%;'>","75","pos","CS","CS","3","category3/CS4.png","targets/19.png","1","indirect","19",""
"","html-keyboard-response","170","423579","0.0-8.0-0.20","c6a7ppw7fp","many_one","0","indirect_first","0","er06rn28","0","24","1","1","3","1","","0","0","0","null","","","<div style=""font-size:60px;"">+</div>","null","","","","","","","","","",""
"","html-keyboard-response","171","423672","0.0-8.0-1.20","c6a7ppw7fp","many_one","0","indirect_first","0","er06rn28","0","24","1","1","3","1","","0","0","0","null","","","<img src = 'category4/CS5.png' width = '100%;'>","null","","","","","","","","","",""
"","html-keyboard-response","172","423927","0.0-8.0-2.20","c6a7ppw7fp","many_one","0","indirect_first","0","er06rn28","0","24","1","1","3","1","","0","0","0","null","","","<img src = 'targets/41.png' width = '100%;'>","null","","","","","","","","","",""
"","html-keyboard-response","173","425013","0.0-8.0-3.20","c6a7ppw7fp","many_one","0","indirect_first","0","er06rn28","0","24","1","1","3","1","","0","0","0","1084","","","<img src = 'targets/mask.png' width = '100%;'>","75","pos","CS","CS","4","category4/CS5.png","targets/41.png","1","indirect","20",""
"","html-keyboard-response","174","426519","0.0-8.0-0.21","c6a7ppw7fp","many_one","0","indirect_first","0","er06rn28","0","24","1","1","3","1","","0","0","0","null","","","<div style=""font-size:60px;"">+</div>","null","","","","","","","","","",""
"","html-keyboard-response","175","426611","0.0-8.0-1.21","c6a7ppw7fp","many_one","0","indirect_first","0","er06rn28","0","24","1","1","3","1","","0","0","0","null","","","<img src = 'category1/CS3.png' width = '100%;'>","null","","","","","","","","","",""
"","html-keyboard-response","176","426868","0.0-8.0-2.21","c6a7ppw7fp","many_one","0","indirect_first","0","er06rn28","0","24","1","1","3","1","","0","0","0","null","","","<img src = 'targets/43.png' width = '100%;'>","null","","","","","","","","","",""
"","html-keyboard-response","177","428510","0.0-8.0-3.21","c6a7ppw7fp","many_one","0","indirect_first","0","er06rn28","0","24","1","1","3","1","","0","0","0","1641","","","<img src = 'targets/mask.png' width = '100%;'>","68","neg","CS","CS","1","category1/CS3.png","targets/43.png","0","indirect","21",""
"","html-keyboard-response","178","430017","0.0-8.0-0.22","c6a7ppw7fp","many_one","0","indirect_first","0","er06rn28","0","24","1","1","3","1","","0","0","0","null","","","<div style=""font-size:60px;"">+</div>","null","","","","","","","","","",""
"","html-keyboard-response","179","430110","0.0-8.0-1.22","c6a7ppw7fp","many_one","0","indirect_first","0","er06rn28","0","24","1","1","3","1","","0","0","0","null","","","<img src = 'category2/CS5.png' width = '100%;'>","null","","","","","","","","","",""
"","html-keyboard-response","180","430365","0.0-8.0-2.22","c6a7ppw7fp","many_one","0","indirect_first","0","er06rn28","0","24","1","1","3","1","","0","0","0","null","","","<img src = 'targets/46.png' width = '100%;'>","null","","","","","","","","","",""
"","html-keyboard-response","181","431289","0.0-8.0-3.22","c6a7ppw7fp","many_one","0","indirect_first","0","er06rn28","0","24","1","1","3","1","","0","0","0","923","","","<img src = 'targets/mask.png' width = '100%;'>","75","neg","CS","CS","2","category2/CS5.png","targets/46.png","1","indirect","22",""
"","html-keyboard-response","182","432798","0.0-8.0-0.23","c6a7ppw7fp","many_one","0","indirect_first","0","er06rn28","0","24","1","1","3","1","","0","0","0","null","","","<div style=""font-size:60px;"">+</div>","null","","","","","","","","","",""
"","html-keyboard-response","183","432890","0.0-8.0-1.23","c6a7ppw7fp","many_one","0","indirect_first","0","er06rn28","0","24","1","1","3","1","","0","0","0","null","","","<img src = 'category1/CS4.png' width = '100%;'>","null","","","","","","","","","",""
"","html-keyboard-response","184","433145","0.0-8.0-2.23","c6a7ppw7fp","many_one","0","indirect_first","0","er06rn28","0","24","1","1","3","1","","0","0","0","null","","","<img src = 'targets/21.png' width = '100%;'>","null","","","","","","","","","",""
"","html-keyboard-response","185","434710","0.0-8.0-3.23","c6a7ppw7fp","many_one","0","indirect_first","0","er06rn28","0","24","1","1","3","1","","0","0","0","1563","","","<img src = 'targets/mask.png' width = '100%;'>","68","neg","CS","CS","1","category1/CS4.png","targets/21.png","0","indirect","23",""
"","survey-html-form","186","437247","0.0-9.0","c6a7ppw7fp","many_one","0","indirect_first","0","er06rn28","0","24","1","1","3","1","","0","0","0","2036","","{}","","","","","","","","","","","",""
"","html-keyboard-response","187","440256","0.0-10.0-0.0","c6a7ppw7fp","many_one","0","indirect_first","0","er06rn28","0","24","1","1","3","1","","0","0","0","null","","","<div style=""font-size:60px;"">+</div>","null","","","","","","","","","",""
"","html-keyboard-response","188","440349","0.0-10.0-1.0","c6a7ppw7fp","many_one","0","indirect_first","0","er06rn28","0","24","1","1","3","1","","0","0","0","null","","","<img src = 'category4/CS8.png' width = '100%;'>","null","","","","","","","","","",""
"","html-keyboard-response","189","440603","0.0-10.0-2.0","c6a7ppw7fp","many_one","0","indirect_first","0","er06rn28","0","24","1","1","3","1","","0","0","0","null","","","<img src = 'targets/8.png' width = '100%;'>","null","","","","","","","","","",""
"","html-keyboard-response","190","442409","0.0-10.0-3.0","c6a7ppw7fp","many_one","0","indirect_first","0","er06rn28","0","24","1","1","3","1","","0","0","0","1805","","","<img src = 'targets/mask.png' width = '100%;'>","75","pos","GS","GSold","4","category4/CS8.png","targets/8.png","1","indirect","24",""
"","html-keyboard-response","191","443913","0.0-10.0-0.1","c6a7ppw7fp","many_one","0","indirect_first","0","er06rn28","0","24","1","1","3","1","","0","0","0","null","","","<div style=""font-size:60px;"">+</div>","null","","","","","","","","","",""
"","html-keyboard-response","192","444006","0.0-10.0-1.1","c6a7ppw7fp","many_one","0","indirect_first","0","er06rn28","0","24","1","1","3","1","","0","0","0","null","","","<img src = 'category4/GS3.png' width = '100%;'>","null","","","","","","","","","",""
"","html-keyboard-response","193","444261","0.0-10.0-2.1","c6a7ppw7fp","many_one","0","indirect_first","0","er06rn28","0","24","1","1","3","1","","0","0","0","null","","","<img src = 'targets/2.png' width = '100%;'>","null","","","","","","","","","",""
"","html-keyboard-response","194","444892","0.0-10.0-3.1","c6a7ppw7fp","many_one","0","indirect_first","0","er06rn28","0","24","1","1","3","1","","0","0","0","630","","","<img src = 'targets/mask.png' width = '100%;'>","75","pos","GS","GSnew","4","category4/GS3.png","targets/2.png","1","indirect","25",""
"","html-keyboard-response","195","446401","0.0-10.0-0.2","c6a7ppw7fp","many_one","0","indirect_first","0","er06rn28","0","24","1","1","3","1","","0","0","0","null","","","<div style=""font-size:60px;"">+</div>","null","","","","","","","","","",""
"","html-keyboard-response","196","446496","0.0-10.0-1.2","c6a7ppw7fp","many_one","0","indirect_first","0","er06rn28","0","24","1","1","3","1","","0","0","0","null","","","<img src = 'category2/men.png' width = '100%;'>","null","","","","","","","","","",""
"","html-keyboard-response","197","446752","0.0-10.0-2.2","c6a7ppw7fp","many_one","0","indirect_first","0","er06rn28","0","24","1","1","3","1","","0","0","0","null","","","<img src = 'targets/42.png' width = '100%;'>","null","","","","","","","","","",""
"","html-keyboard-response","198","447511","0.0-10.0-3.2","c6a7ppw7fp","many_one","0","indirect_first","0","er06rn28","0","24","1","1","3","1","","0","0","0","759","","","<img src = 'targets/mask.png' width = '100%;'>","75","neg","GS","abstract","2","category2/men.png","targets/42.png","1","indirect","26",""
"","html-keyboard-response","199","449015","0.0-10.0-0.3","c6a7ppw7fp","many_one","0","indirect_first","0","er06rn28","0","24","1","1","3","1","","0","0","0","null","","","<div style=""font-size:60px;"">+</div>","null","","","","","","","","","",""
"","html-keyboard-response","200","449108","0.0-10.0-1.3","c6a7ppw7fp","many_one","0","indirect_first","0","er06rn28","0","24","1","1","3","1","","0","0","0","null","","","<img src = 'category1/GS1.png' width = '100%;'>","null","","","","","","","","","",""
"","html-keyboard-response","201","449364","0.0-10.0-2.3","c6a7ppw7fp","many_one","0","indirect_first","0","er06rn28","0","24","1","1","3","1","","0","0","0","null","","","<img src = 'targets/44.png' width = '100%;'>","null","","","","","","","","","",""
"","html-keyboard-response","202","450033","0.0-10.0-3.3","c6a7ppw7fp","many_one","0","indirect_first","0","er06rn28","0","24","1","1","3","1","","0","0","0","668","","","<img src = 'targets/mask.png' width = '100%;'>","68","neg","GS","GSnew","1","category1/GS1.png","targets/44.png","0","indirect","27",""
"","html-keyboard-response","203","451535","0.0-10.0-0.4","c6a7ppw7fp","many_one","0","indirect_first","0","er06rn28","0","24","1","1","3","1","","0","0","0","null","","","<div style=""font-size:60px;"">+</div>","null","","","","","","","","","",""
"","html-keyboard-response","204","451628","0.0-10.0-1.4","c6a7ppw7fp","many_one","0","indirect_first","0","er06rn28","0","24","1","1","3","1","","0","0","0","null","","","<img src = 'category4/GS1.png' width = '100%;'>","null","","","","","","","","","",""
"","html-keyboard-response","205","451886","0.0-10.0-2.4","c6a7ppw7fp","many_one","0","indirect_first","0","er06rn28","0","24","1","1","3","1","","0","0","0","null","","","<img src = 'targets/10.png' width = '100%;'>","null","","","","","","","","","",""
"","html-keyboard-response","206","452118","0.0-10.0-3.4","c6a7ppw7fp","many_one","0","indirect_first","0","er06rn28","0","24","1","1","3","1","","0","0","0","232","","","<img src = 'targets/mask.png' width = '100%;'>","75","pos","GS","GSnew","4","category4/GS1.png","targets/10.png","1","indirect","28",""
"","html-keyboard-response","207","453625","0.0-10.0-0.5","c6a7ppw7fp","many_one","0","indirect_first","0","er06rn28","0","24","1","1","3","1","","0","0","0","null","","","<div style=""font-size:60px;"">+</div>","null","","","","","","","","","",""
"","html-keyboard-response","208","453717","0.0-10.0-1.5","c6a7ppw7fp","many_one","0","indirect_first","0","er06rn28","0","24","1","1","3","1","","0","0","0","null","","","<img src = 'category2/CS9.png' width = '100%;'>","null","","","","","","","","","",""
"","html-keyboard-response","209","453973","0.0-10.0-2.5","c6a7ppw7fp","many_one","0","indirect_first","0","er06rn28","0","24","1","1","3","1","","0","0","0","null","","","<img src = 'targets/18.png' width = '100%;'>","null","","","","","","","","","",""
"","html-keyboard-response","210","454774","0.0-10.0-3.5","c6a7ppw7fp","many_one","0","indirect_first","0","er06rn28","0","24","1","1","3","1","","0","0","0","801","","","<img src = 'targets/mask.png' width = '100%;'>","68","neg","GS","GSold","2","category2/CS9.png","targets/18.png","0","indirect","29",""
"","html-keyboard-response","211","456282","0.0-10.0-0.6","c6a7ppw7fp","many_one","0","indirect_first","0","er06rn28","0","24","1","1","3","1","","0","0","0","null","","","<div style=""font-size:60px;"">+</div>","null","","","","","","","","","",""
"","html-keyboard-response","212","456376","0.0-10.0-1.6","c6a7ppw7fp","many_one","0","indirect_first","0","er06rn28","0","24","1","1","3","1","","0","0","0","null","","","<img src = 'category4/lin.png' width = '100%;'>","null","","","","","","","","","",""
"","html-keyboard-response","213","456631","0.0-10.0-2.6","c6a7ppw7fp","many_one","0","indirect_first","0","er06rn28","0","24","1","1","3","1","","0","0","0","null","","","<img src = 'targets/1.png' width = '100%;'>","null","","","","","","","","","",""
"","html-keyboard-response","214","457213","0.0-10.0-3.6","c6a7ppw7fp","many_one","0","indirect_first","0","er06rn28","0","24","1","1","3","1","","0","0","0","581","","","<img src = 'targets/mask.png' width = '100%;'>","75","pos","GS","abstract","4","category4/lin.png","targets/1.png","1","indirect","30",""
"","html-keyboard-response","215","458721","0.0-10.0-0.7","c6a7ppw7fp","many_one","0","indirect_first","0","er06rn28","0","24","1","1","3","1","","0","0","0","null","","","<div style=""font-size:60px;"">+</div>","null","","","","","","","","","",""
"","html-keyboard-response","216","458812","0.0-10.0-1.7","c6a7ppw7fp","many_one","0","indirect_first","0","er06rn28","0","24","1","1","3","1","","0","0","0","null","","","<img src = 'category3/CS5.png' width = '100%;'>","null","","","","","","","","","",""
"","html-keyboard-response","217","459066","0.0-10.0-2.7","c6a7ppw7fp","many_one","0","indirect_first","0","er06rn28","0","24","1","1","3","1","","0","0","0","null","","","<img src = 'targets/6.png' width = '100%;'>","null","","","","","","","","","",""
"","html-keyboard-response","218","459779","0.0-10.0-3.7","c6a7ppw7fp","many_one","0","indirect_first","0","er06rn28","0","24","1","1","3","1","","0","0","0","712","","","<img src = 'targets/mask.png' width = '100%;'>","75","pos","GS","GSold","3","category3/CS5.png","targets/6.png","1","indirect","31",""
"","html-keyboard-response","219","461286","0.0-10.0-0.8","c6a7ppw7fp","many_one","0","indirect_first","0","er06rn28","0","24","1","1","3","1","","0","0","0","null","","","<div style=""font-size:60px;"">+</div>","null","","","","","","","","","",""
"","html-keyboard-response","220","461380","0.0-10.0-1.8","c6a7ppw7fp","many_one","0","indirect_first","0","er06rn28","0","24","1","1","3","1","","0","0","0","null","","","<img src = 'category3/GS3.png' width = '100%;'>","null","","","","","","","","","",""
"","html-keyboard-response","221","461636","0.0-10.0-2.8","c6a7ppw7fp","many_one","0","indirect_first","0","er06rn28","0","24","1","1","3","1","","0","0","0","null","","","<img src = 'targets/7.png' width = '100%;'>","null","","","","","","","","","",""
"","html-keyboard-response","222","462185","0.0-10.0-3.8","c6a7ppw7fp","many_one","0","indirect_first","0","er06rn28","0","24","1","1","3","1","","0","0","0","548","","","<img src = 'targets/mask.png' width = '100%;'>","75","pos","GS","GSnew","3","category3/GS3.png","targets/7.png","1","indirect","32",""
"","html-keyboard-response","223","463690","0.0-10.0-0.9","c6a7ppw7fp","many_one","0","indirect_first","0","er06rn28","0","24","1","1","3","1","","0","0","0","null","","","<div style=""font-size:60px;"">+</div>","null","","","","","","","","","",""
"","html-keyboard-response","224","463782","0.0-10.0-1.9","c6a7ppw7fp","many_one","0","indirect_first","0","er06rn28","0","24","1","1","3","1","","0","0","0","null","","","<img src = 'category3/CS9.png' width = '100%;'>","null","","","","","","","","","",""
"","html-keyboard-response","225","464037","0.0-10.0-2.9","c6a7ppw7fp","many_one","0","indirect_first","0","er06rn28","0","24","1","1","3","1","","0","0","0","null","","","<img src = 'targets/24.png' width = '100%;'>","null","","","","","","","","","",""
"","html-keyboard-response","226","464994","0.0-10.0-3.9","c6a7ppw7fp","many_one","0","indirect_first","0","er06rn28","0","24","1","1","3","1","","0","0","0","957","","","<img src = 'targets/mask.png' width = '100%;'>","68","pos","GS","GSold","3","category3/CS9.png","targets/24.png","0","indirect","33",""
"","html-keyboard-response","227","466502","0.0-10.0-0.10","c6a7ppw7fp","many_one","0","indirect_first","0","er06rn28","0","24","1","1","3","1","","0","0","0","null","","","<div style=""font-size:60px;"">+</div>","null","","","","","","","","","",""
"","html-keyboard-response","228","466595","0.0-10.0-1.10","c6a7ppw7fp","many_one","0","indirect_first","0","er06rn28","0","24","1","1","3","1","","0","0","0","null","","","<img src = 'category1/ma.png' width = '100%;'>","null","","","","","","","","","",""
"","html-keyboard-response","229","466850","0.0-10.0-2.10","c6a7ppw7fp","many_one","0","indirect_first","0","er06rn28","0","24","1","1","3","1","","0","0","0","null","","","<img src = 'targets/29.png' width = '100%;'>","null","","","","","","","","","",""
"","html-keyboard-response","230","467351","0.0-10.0-3.10","c6a7ppw7fp","many_one","0","indirect_first","0","er06rn28","0","24","1","1","3","1","","0","0","0","500","","","<img src = 'targets/mask.png' width = '100%;'>","75","neg","GS","abstract","1","category1/ma.png","targets/29.png","1","indirect","34",""
"","html-keyboard-response","231","468856","0.0-10.0-0.11","c6a7ppw7fp","many_one","0","indirect_first","0","er06rn28","0","24","1","1","3","1","","0","0","0","null","","","<div style=""font-size:60px;"">+</div>","null","","","","","","","","","",""
"","html-keyboard-response","232","468948","0.0-10.0-1.11","c6a7ppw7fp","many_one","0","indirect_first","0","er06rn28","0","24","1","1","3","1","","0","0","0","null","","","<img src = 'category1/GS3.png' width = '100%;'>","null","","","","","","","","","",""
"","html-keyboard-response","233","469206","0.0-10.0-2.11","c6a7ppw7fp","many_one","0","indirect_first","0","er06rn28","0","24","1","1","3","1","","0","0","0","null","","","<img src = 'targets/40.png' width = '100%;'>","null","","","","","","","","","",""
"","html-keyboard-response","234","469846","0.0-10.0-3.11","c6a7ppw7fp","many_one","0","indirect_first","0","er06rn28","0","24","1","1","3","1","","0","0","0","639","","","<img src = 'targets/mask.png' width = '100%;'>","75","neg","GS","GSnew","1","category1/GS3.png","targets/40.png","1","indirect","35",""
"","html-keyboard-response","235","471352","0.0-10.0-0.12","c6a7ppw7fp","many_one","0","indirect_first","0","er06rn28","0","24","1","1","3","1","","0","0","0","null","","","<div style=""font-size:60px;"">+</div>","null","","","","","","","","","",""
"","html-keyboard-response","236","471444","0.0-10.0-1.12","c6a7ppw7fp","many_one","0","indirect_first","0","er06rn28","0","24","1","1","3","1","","0","0","0","null","","","<img src = 'category3/GS2.png' width = '100%;'>","null","","","","","","","","","",""
"","html-keyboard-response","237","471700","0.0-10.0-2.12","c6a7ppw7fp","many_one","0","indirect_first","0","er06rn28","0","24","1","1","3","1","","0","0","0","null","","","<img src = 'targets/11.png' width = '100%;'>","null","","","","","","","","","",""
"","html-keyboard-response","238","471952","0.0-10.0-3.12","c6a7ppw7fp","many_one","0","indirect_first","0","er06rn28","0","24","1","1","3","1","","0","0","0","253","","","<img src = 'targets/mask.png' width = '100%;'>","75","pos","GS","GSnew","3","category3/GS2.png","targets/11.png","1","indirect","36",""
"","html-keyboard-response","239","473456","0.0-10.0-0.13","c6a7ppw7fp","many_one","0","indirect_first","0","er06rn28","0","24","1","1","3","1","","0","0","0","null","","","<div style=""font-size:60px;"">+</div>","null","","","","","","","","","",""
"","html-keyboard-response","240","473549","0.0-10.0-1.13","c6a7ppw7fp","many_one","0","indirect_first","0","er06rn28","0","24","1","1","3","1","","0","0","0","null","","","<img src = 'category1/GS2.png' width = '100%;'>","null","","","","","","","","","",""
"","html-keyboard-response","241","473804","0.0-10.0-2.13","c6a7ppw7fp","many_one","0","indirect_first","0","er06rn28","0","24","1","1","3","1","","0","0","0","null","","","<img src = 'targets/15.png' width = '100%;'>","null","","","","","","","","","",""
"","html-keyboard-response","242","474062","0.0-10.0-3.13","c6a7ppw7fp","many_one","0","indirect_first","0","er06rn28","0","24","1","1","3","1","","0","0","0","256","","","<img src = 'targets/mask.png' width = '100%;'>","75","neg","GS","GSnew","1","category1/GS2.png","targets/15.png","1","indirect","37",""
"","html-keyboard-response","243","475569","0.0-10.0-0.14","c6a7ppw7fp","many_one","0","indirect_first","0","er06rn28","0","24","1","1","3","1","","0","0","0","null","","","<div style=""font-size:60px;"">+</div>","null","","","","","","","","","",""
"","html-keyboard-response","244","475665","0.0-10.0-1.14","c6a7ppw7fp","many_one","0","indirect_first","0","er06rn28","0","24","1","1","3","1","","0","0","0","null","","","<img src = 'category3/wang.png' width = '100%;'>","null","","","","","","","","","",""
"","html-keyboard-response","245","475923","0.0-10.0-2.14","c6a7ppw7fp","many_one","0","indirect_first","0","er06rn28","0","24","1","1","3","1","","0","0","0","null","","","<img src = 'targets/13.png' width = '100%;'>","null","","","","","","","","","",""
"","html-keyboard-response","246","476441","0.0-10.0-3.14","c6a7ppw7fp","many_one","0","indirect_first","0","er06rn28","0","24","1","1","3","1","","0","0","0","517","","","<img src = 'targets/mask.png' width = '100%;'>","75","pos","GS","abstract","3","category3/wang.png","targets/13.png","1","indirect","38",""
"","html-keyboard-response","247","477948","0.0-10.0-0.15","c6a7ppw7fp","many_one","0","indirect_first","0","er06rn28","0","24","1","1","3","1","","0","0","0","null","","","<div style=""font-size:60px;"">+</div>","null","","","","","","","","","",""
"","html-keyboard-response","248","478042","0.0-10.0-1.15","c6a7ppw7fp","many_one","0","indirect_first","0","er06rn28","0","24","1","1","3","1","","0","0","0","null","","","<img src = 'category2/GS3.png' width = '100%;'>","null","","","","","","","","","",""
"","html-keyboard-response","249","478297","0.0-10.0-2.15","c6a7ppw7fp","many_one","0","indirect_first","0","er06rn28","0","24","1","1","3","1","","0","0","0","null","","","<img src = 'targets/31.png' width = '100%;'>","null","","","","","","","","","",""
"","html-keyboard-response","250","479406","0.0-10.0-3.15","c6a7ppw7fp","many_one","0","indirect_first","0","er06rn28","0","24","1","1","3","1","","0","0","0","1108","","","<img src = 'targets/mask.png' width = '100%;'>","68","neg","GS","GSnew","2","category2/GS3.png","targets/31.png","0","indirect","39",""
"","html-keyboard-response","251","480911","0.0-10.0-0.16","c6a7ppw7fp","many_one","0","indirect_first","0","er06rn28","0","24","1","1","3","1","","0","0","0","null","","","<div style=""font-size:60px;"">+</div>","null","","","","","","","","","",""
"","html-keyboard-response","252","481005","0.0-10.0-1.16","c6a7ppw7fp","many_one","0","indirect_first","0","er06rn28","0","24","1","1","3","1","","0","0","0","null","","","<img src = 'category2/GS1.png' width = '100%;'>","null","","","","","","","","","",""
"","html-keyboard-response","253","481260","0.0-10.0-2.16","c6a7ppw7fp","many_one","0","indirect_first","0","er06rn28","0","24","1","1","3","1","","0","0","0","null","","","<img src = 'targets/32.png' width = '100%;'>","null","","","","","","","","","",""
"","html-keyboard-response","254","481920","0.0-10.0-3.16","c6a7ppw7fp","many_one","0","indirect_first","0","er06rn28","0","24","1","1","3","1","","0","0","0","659","","","<img src = 'targets/mask.png' width = '100%;'>","68","neg","GS","GSnew","2","category2/GS1.png","targets/32.png","0","indirect","40",""
"","html-keyboard-response","255","483422","0.0-10.0-0.17","c6a7ppw7fp","many_one","0","indirect_first","0","er06rn28","0","24","1","1","3","1","","0","0","0","null","","","<div style=""font-size:60px;"">+</div>","null","","","","","","","","","",""
"","html-keyboard-response","256","483514","0.0-10.0-1.17","c6a7ppw7fp","many_one","0","indirect_first","0","er06rn28","0","24","1","1","3","1","","0","0","0","null","","","<img src = 'category3/CS10.png' width = '100%;'>","null","","","","","","","","","",""
"","html-keyboard-response","257","483770","0.0-10.0-2.17","c6a7ppw7fp","many_one","0","indirect_first","0","er06rn28","0","24","1","1","3","1","","0","0","0","null","","","<img src = 'targets/4.png' width = '100%;'>","null","","","","","","","","","",""
"","html-keyboard-response","258","484246","0.0-10.0-3.17","c6a7ppw7fp","many_one","0","indirect_first","0","er06rn28","0","24","1","1","3","1","","0","0","0","475","","","<img src = 'targets/mask.png' width = '100%;'>","75","pos","GS","GSold","3","category3/CS10.png","targets/4.png","1","indirect","41",""
"","html-keyboard-response","259","485752","0.0-10.0-0.18","c6a7ppw7fp","many_one","0","indirect_first","0","er06rn28","0","24","1","1","3","1","","0","0","0","null","","","<div style=""font-size:60px;"">+</div>","null","","","","","","","","","",""
"","html-keyboard-response","260","485848","0.0-10.0-1.18","c6a7ppw7fp","many_one","0","indirect_first","0","er06rn28","0","24","1","1","3","1","","0","0","0","null","","","<img src = 'category3/GS1.png' width = '100%;'>","null","","","","","","","","","",""
"","html-keyboard-response","261","486107","0.0-10.0-2.18","c6a7ppw7fp","many_one","0","indirect_first","0","er06rn28","0","24","1","1","3","1","","0","0","0","null","","","<img src = 'targets/16.png' width = '100%;'>","null","","","","","","","","","",""
"","html-keyboard-response","262","486605","0.0-10.0-3.18","c6a7ppw7fp","many_one","0","indirect_first","0","er06rn28","0","24","1","1","3","1","","0","0","0","498","","","<img src = 'targets/mask.png' width = '100%;'>","68","pos","GS","GSnew","3","category3/GS1.png","targets/16.png","0","indirect","42",""
"","html-keyboard-response","263","488108","0.0-10.0-0.19","c6a7ppw7fp","many_one","0","indirect_first","0","er06rn28","0","24","1","1","3","1","","0","0","0","null","","","<div style=""font-size:60px;"">+</div>","null","","","","","","","","","",""
"","html-keyboard-response","264","488202","0.0-10.0-1.19","c6a7ppw7fp","many_one","0","indirect_first","0","er06rn28","0","24","1","1","3","1","","0","0","0","null","","","<img src = 'category2/CS7.png' width = '100%;'>","null","","","","","","","","","",""
"","html-keyboard-response","265","488458","0.0-10.0-2.19","c6a7ppw7fp","many_one","0","indirect_first","0","er06rn28","0","24","1","1","3","1","","0","0","0","null","","","<img src = 'targets/12.png' width = '100%;'>","null","","","","","","","","","",""
"","html-keyboard-response","266","488902","0.0-10.0-3.19","c6a7ppw7fp","many_one","0","indirect_first","0","er06rn28","0","24","1","1","3","1","","0","0","0","444","","","<img src = 'targets/mask.png' width = '100%;'>","75","neg","GS","GSold","2","category2/CS7.png","targets/12.png","1","indirect","43",""
"","html-keyboard-response","267","490407","0.0-10.0-0.20","c6a7ppw7fp","many_one","0","indirect_first","0","er06rn28","0","24","1","1","3","1","","0","0","0","null","","","<div style=""font-size:60px;"">+</div>","null","","","","","","","","","",""
"","html-keyboard-response","268","490501","0.0-10.0-1.20","c6a7ppw7fp","many_one","0","indirect_first","0","er06rn28","0","24","1","1","3","1","","0","0","0","null","","","<img src = 'category4/CS1.png' width = '100%;'>","null","","","","","","","","","",""
"","html-keyboard-response","269","490754","0.0-10.0-2.20","c6a7ppw7fp","many_one","0","indirect_first","0","er06rn28","0","24","1","1","3","1","","0","0","0","null","","","<img src = 'targets/27.png' width = '100%;'>","null","","","","","","","","","",""
"","html-keyboard-response","270","491759","0.0-10.0-3.20","c6a7ppw7fp","many_one","0","indirect_first","0","er06rn28","0","24","1","1","3","1","","0","0","0","1004","","","<img src = 'targets/mask.png' width = '100%;'>","75","pos","GS","GSold","4","category4/CS1.png","targets/27.png","1","indirect","44",""
"","html-keyboard-response","271","493264","0.0-10.0-0.21","c6a7ppw7fp","many_one","0","indirect_first","0","er06rn28","0","24","1","1","3","1","","0","0","0","null","","","<div style=""font-size:60px;"">+</div>","null","","","","","","","","","",""
"","html-keyboard-response","272","493357","0.0-10.0-1.21","c6a7ppw7fp","many_one","0","indirect_first","0","er06rn28","0","24","1","1","3","1","","0","0","0","null","","","<img src = 'category4/GS2.png' width = '100%;'>","null","","","","","","","","","",""
"","html-keyboard-response","273","493614","0.0-10.0-2.21","c6a7ppw7fp","many_one","0","indirect_first","0","er06rn28","0","24","1","1","3","1","","0","0","0","null","","","<img src = 'targets/38.png' width = '100%;'>","null","","","","","","","","","",""
"","html-keyboard-response","274","494063","0.0-10.0-3.21","c6a7ppw7fp","many_one","0","indirect_first","0","er06rn28","0","24","1","1","3","1","","0","0","0","448","","","<img src = 'targets/mask.png' width = '100%;'>","75","pos","GS","GSnew","4","category4/GS2.png","targets/38.png","1","indirect","45",""
"","html-keyboard-response","275","495572","0.0-10.0-0.22","c6a7ppw7fp","many_one","0","indirect_first","0","er06rn28","0","24","1","1","3","1","","0","0","0","null","","","<div style=""font-size:60px;"">+</div>","null","","","","","","","","","",""
"","html-keyboard-response","276","495666","0.0-10.0-1.22","c6a7ppw7fp","many_one","0","indirect_first","0","er06rn28","0","24","1","1","3","1","","0","0","0","null","","","<img src = 'category2/GS2.png' width = '100%;'>","null","","","","","","","","","",""
"","html-keyboard-response","277","495921","0.0-10.0-2.22","c6a7ppw7fp","many_one","0","indirect_first","0","er06rn28","0","24","1","1","3","1","","0","0","0","null","","","<img src = 'targets/39.png' width = '100%;'>","null","","","","","","","","","",""
"","html-keyboard-response","278","496853","0.0-10.0-3.22","c6a7ppw7fp","many_one","0","indirect_first","0","er06rn28","0","24","1","1","3","1","","0","0","0","931","","","<img src = 'targets/mask.png' width = '100%;'>","68","neg","GS","GSnew","2","category2/GS2.png","targets/39.png","0","indirect","46",""
"","html-keyboard-response","279","498358","0.0-10.0-0.23","c6a7ppw7fp","many_one","0","indirect_first","0","er06rn28","0","24","1","1","3","1","","0","0","0","null","","","<div style=""font-size:60px;"">+</div>","null","","","","","","","","","",""
"","html-keyboard-response","280","498450","0.0-10.0-1.23","c6a7ppw7fp","many_one","0","indirect_first","0","er06rn28","0","24","1","1","3","1","","0","0","0","null","","","<img src = 'category2/CS8.png' width = '100%;'>","null","","","","","","","","","",""
"","html-keyboard-response","281","498706","0.0-10.0-2.23","c6a7ppw7fp","many_one","0","indirect_first","0","er06rn28","0","24","1","1","3","1","","0","0","0","null","","","<img src = 'targets/14.png' width = '100%;'>","null","","","","","","","","","",""
"","html-keyboard-response","282","499503","0.0-10.0-3.23","c6a7ppw7fp","many_one","0","indirect_first","0","er06rn28","0","24","1","1","3","1","","0","0","0","797","","","<img src = 'targets/mask.png' width = '100%;'>","68","neg","GS","GSold","2","category2/CS8.png","targets/14.png","0","indirect","47",""
"","survey-html-form","283","504710","0.0-11.0","c6a7ppw7fp","many_one","0","indirect_first","0","er06rn28","0","24","1","1","3","1","","0","0","0","4703","","{}","","","","","","","","","","","",""
"","image-slider-response","284","511875","0.0-12.0-0.0","c6a7ppw7fp","many_one","0","indirect_first","0","er06rn28","0","24","1","1","3","1","","0","0","0","5159","","","","","pos","GS","abstract","3","category3/wang.png","targets/13.png","","direct","","86"
"","image-slider-response","285","516199","0.0-12.0-0.1","c6a7ppw7fp","many_one","0","indirect_first","0","er06rn28","0","24","1","1","3","1","","0","0","0","4323","","","","","neg","CS","CS","2","category2/CS5.png","targets/46.png","","direct","","-65"
"","image-slider-response","286","521265","0.0-12.0-0.2","c6a7ppw7fp","many_one","0","indirect_first","0","er06rn28","0","24","1","1","3","1","","0","0","0","5065","","","","","pos","CS","CS","4","category4/CS4.png","targets/5.png","","direct","","21"
"","image-slider-response","287","523712","0.0-12.0-0.3","c6a7ppw7fp","many_one","0","indirect_first","0","er06rn28","0","24","1","1","3","1","","0","0","0","2446","","","","","neg","CS","CS","2","category2/CS2.png","targets/9.png","","direct","","-65"
"","image-slider-response","288","527398","0.0-12.0-0.4","c6a7ppw7fp","many_one","0","indirect_first","0","er06rn28","0","24","1","1","3","1","","0","0","0","3686","","","","","neg","GS","GSold","1","category1/CS8.png","targets/45.png","","direct","","-68"
"","image-slider-response","289","533421","0.0-12.0-0.5","c6a7ppw7fp","many_one","0","indirect_first","0","er06rn28","0","24","1","1","3","1","","0","0","0","6023","","","","","pos","GS","GSold","3","category3/CS10.png","targets/4.png","","direct","","27"
"","image-slider-response","290","536837","0.0-12.0-0.6","c6a7ppw7fp","many_one","0","indirect_first","0","er06rn28","0","24","1","1","3","1","","0","0","0","3415","","","","","neg","CS","CS","1","category1/CS5.png","targets/47.png","","direct","","-40"
"","image-slider-response","291","539719","0.0-12.0-0.7","c6a7ppw7fp","many_one","0","indirect_first","0","er06rn28","0","24","1","1","3","1","","0","0","0","2880","","","","","neg","GS","abstract","2","category2/men.png","targets/42.png","","direct","","-54"
"","image-slider-response","292","544767","0.0-12.0-0.8","c6a7ppw7fp","many_one","0","indirect_first","0","er06rn28","0","24","1","1","3","1","","0","0","0","5049","","","","","pos","GS","GSnew","4","category4/GS1.png","targets/10.png","","direct","","27"
"","image-slider-response","293","549451","0.0-12.0-0.9","c6a7ppw7fp","many_one","0","indirect_first","0","er06rn28","0","24","1","1","3","1","","0","0","0","4682","","","","","neg","CS","CS","2","category2/CS6.png","targets/30.png","","direct","","-33"
"","image-slider-response","294","553273","0.0-12.0-0.10","c6a7ppw7fp","many_one","0","indirect_first","0","er06rn28","0","24","1","1","3","1","","0","0","0","3822","","","","","pos","CS","CS","4","category4/CS3.png","targets/35.png","","direct","","1"
"","image-slider-response","295","556024","0.0-12.0-0.11","c6a7ppw7fp","many_one","0","indirect_first","0","er06rn28","0","24","1","1","3","1","","0","0","0","2749","","","","","neg","GS","GSold","2","category2/CS9.png","targets/18.png","","direct","","-39"
"","image-slider-response","296","559320","0.0-12.0-0.12","c6a7ppw7fp","many_one","0","indirect_first","0","er06rn28","0","24","1","1","3","1","","0","0","0","3295","","","","","pos","GS","GSold","3","category3/CS9.png","targets/24.png","","direct","","17"
"","image-slider-response","297","562053","0.0-12.0-0.13","c6a7ppw7fp","many_one","0","indirect_first","0","er06rn28","0","24","1","1","3","1","","0","0","0","2733","","","","","neg","GS","GSnew","1","category1/GS1.png","targets/44.png","","direct","","-15"
"","image-slider-response","298","564305","0.0-12.0-0.14","c6a7ppw7fp","many_one","0","indirect_first","0","er06rn28","0","24","1","1","3","1","","0","0","0","2252","","","","","pos","CS","CS","3","category3/CS3.png","targets/23.png","","direct","","11"
"","image-slider-response","299","568422","0.0-12.0-0.15","c6a7ppw7fp","many_one","0","indirect_first","0","er06rn28","0","24","1","1","3","1","","0","0","0","4117","","","","","neg","GS","GSold","2","category2/CS8.png","targets/14.png","","direct","","10"
"","image-slider-response","300","570734","0.0-12.0-0.16","c6a7ppw7fp","many_one","0","indirect_first","0","er06rn28","0","24","1","1","3","1","","0","0","0","2311","","","","","pos","GS","GSnew","3","category3/GS3.png","targets/7.png","","direct","","8"
"","image-slider-response","301","573257","0.0-12.0-0.17","c6a7ppw7fp","many_one","0","indirect_first","0","er06rn28","0","24","1","1","3","1","","0","0","0","2522","","","","","neg","GS","abstract","1","category1/ma.png","targets/29.png","","direct","","-14"
"","image-slider-response","302","575823","0.0-12.0-0.18","c6a7ppw7fp","many_one","0","indirect_first","0","er06rn28","0","24","1","1","3","1","","0","0","0","2566","","","","","neg","CS","CS","1","category1/CS7.png","targets/20.png","","direct","","-20"
"","image-slider-response","303","578418","0.0-12.0-0.19","c6a7ppw7fp","many_one","0","indirect_first","0","er06rn28","0","24","1","1","3","1","","0","0","0","2593","","","","","pos","GS","GSnew","4","category4/GS2.png","targets/38.png","","direct","","-23"
"","image-slider-response","304","580682","0.0-12.0-0.20","c6a7ppw7fp","many_one","0","indirect_first","0","er06rn28","0","24","1","1","3","1","","0","0","0","2262","","","","","neg","GS","GSold","1","category1/CS2.png","targets/26.png","","direct","","-26"
"","image-slider-response","305","583189","0.0-12.0-0.21","c6a7ppw7fp","many_one","0","indirect_first","0","er06rn28","0","24","1","1","3","1","","0","0","0","2507","","","","","pos","CS","CS","3","category3/CS2.png","targets/37.png","","direct","","11"
"","image-slider-response","306","585600","0.0-12.0-0.22","c6a7ppw7fp","many_one","0","indirect_first","0","er06rn28","0","24","1","1","3","1","","0","0","0","2411","","","","","pos","GS","GSold","3","category3/CS5.png","targets/6.png","","direct","","13"
"","image-slider-response","307","587831","0.0-12.0-0.23","c6a7ppw7fp","many_one","0","indirect_first","0","er06rn28","0","24","1","1","3","1","","0","0","0","2231","","","","","neg","CS","CS","2","category2/CS10.png","targets/34.png","","direct","","-18"
"","image-slider-response","308","590028","0.0-12.0-0.24","c6a7ppw7fp","many_one","0","indirect_first","0","er06rn28","0","24","1","1","3","1","","0","0","0","2195","","","","","neg","GS","GSold","2","category2/CS7.png","targets/12.png","","direct","","-14"
"","image-slider-response","309","591981","0.0-12.0-0.25","c6a7ppw7fp","many_one","0","indirect_first","0","er06rn28","0","24","1","1","3","1","","0","0","0","1951","","","","","pos","GS","abstract","4","category4/lin.png","targets/1.png","","direct","","-8"
"","image-slider-response","310","594104","0.0-12.0-0.26","c6a7ppw7fp","many_one","0","indirect_first","0","er06rn28","0","24","1","1","3","1","","0","0","0","2124","","","","","neg","CS","CS","1","category1/CS4.png","targets/21.png","","direct","","-11"
"","image-slider-response","311","596225","0.0-12.0-0.27","c6a7ppw7fp","many_one","0","indirect_first","0","er06rn28","0","24","1","1","3","1","","0","0","0","2119","","","","","pos","CS","CS","3","category3/CS8.png","targets/36.png","","direct","","-36"
"","image-slider-response","312","598357","0.0-12.0-0.28","c6a7ppw7fp","many_one","0","indirect_first","0","er06rn28","0","24","1","1","3","1","","0","0","0","2131","","","","","pos","CS","CS","3","category3/CS7.png","targets/28.png","","direct","","-34"
"","image-slider-response","313","600421","0.0-12.0-0.29","c6a7ppw7fp","many_one","0","indirect_first","0","er06rn28","0","24","1","1","3","1","","0","0","0","2064","","","","","neg","GS","GSnew","2","category2/GS1.png","targets/32.png","","direct","","-35"
"","image-slider-response","314","602465","0.0-12.0-0.30","c6a7ppw7fp","many_one","0","indirect_first","0","er06rn28","0","24","1","1","3","1","","0","0","0","2044","","","","","pos","GS","GSnew","3","category3/GS1.png","targets/16.png","","direct","","-29"
"","image-slider-response","315","604482","0.0-12.0-0.31","c6a7ppw7fp","many_one","0","indirect_first","0","er06rn28","0","24","1","1","3","1","","0","0","0","2015","","","","","pos","GS","GSold","4","category4/CS8.png","targets/8.png","","direct","","-21"
"","image-slider-response","316","606432","0.0-12.0-0.32","c6a7ppw7fp","many_one","0","indirect_first","0","er06rn28","0","24","1","1","3","1","","0","0","0","1948","","","","","neg","CS","CS","1","category1/CS6.png","targets/48.png","","direct","","-41"
"","image-slider-response","317","608281","0.0-12.0-0.33","c6a7ppw7fp","many_one","0","indirect_first","0","er06rn28","0","24","1","1","3","1","","0","0","0","1849","","","","","neg","GS","GSnew","2","category2/GS2.png","targets/39.png","","direct","","-28"
"","image-slider-response","318","610337","0.0-12.0-0.34","c6a7ppw7fp","many_one","0","indirect_first","0","er06rn28","0","24","1","1","3","1","","0","0","0","2056","","","","","pos","CS","CS","4","category4/CS2.png","targets/25.png","","direct","","-35"
"","image-slider-response","319","612373","0.0-12.0-0.35","c6a7ppw7fp","many_one","0","indirect_first","0","er06rn28","0","24","1","1","3","1","","0","0","0","2036","","","","","pos","GS","GSnew","4","category4/GS3.png","targets/2.png","","direct","","-29"
"","image-slider-response","320","614279","0.0-12.0-0.36","c6a7ppw7fp","many_one","0","indirect_first","0","er06rn28","0","24","1","1","3","1","","0","0","0","1905","","","","","pos","CS","CS","3","category3/CS4.png","targets/19.png","","direct","","-40"
"","image-slider-response","321","616267","0.0-12.0-0.37","c6a7ppw7fp","many_one","0","indirect_first","0","er06rn28","0","24","1","1","3","1","","0","0","0","1988","","","","","neg","GS","GSnew","1","category1/GS2.png","targets/15.png","","direct","","-28"
"","image-slider-response","322","618197","0.0-12.0-0.38","c6a7ppw7fp","many_one","0","indirect_first","0","er06rn28","0","24","1","1","3","1","","0","0","0","1930","","","","","neg","GS","GSold","1","category1/CS9.png","targets/3.png","","direct","","-36"
"","image-slider-response","323","620344","0.0-12.0-0.39","c6a7ppw7fp","many_one","0","indirect_first","0","er06rn28","0","24","1","1","3","1","","0","0","0","2146","","","","","pos","CS","CS","4","category4/CS6.png","targets/22.png","","direct","","-27"
"","image-slider-response","324","622417","0.0-12.0-0.40","c6a7ppw7fp","many_one","0","indirect_first","0","er06rn28","0","24","1","1","3","1","","0","0","0","2071","","","","","neg","GS","GSnew","1","category1/GS3.png","targets/40.png","","direct","","-26"
"","image-slider-response","325","625354","0.0-12.0-0.41","c6a7ppw7fp","many_one","0","indirect_first","0","er06rn28","0","24","1","1","3","1","","0","0","0","2936","","","","","pos","GS","GSnew","3","category3/GS2.png","targets/11.png","","direct","","-28"
"","image-slider-response","326","627454","0.0-12.0-0.42","c6a7ppw7fp","many_one","0","indirect_first","0","er06rn28","0","24","1","1","3","1","","0","0","0","2099","","","","","pos","GS","GSold","4","category4/CS10.png","targets/17.png","","direct","","-19"
"","image-slider-response","327","630085","0.0-12.0-0.43","c6a7ppw7fp","many_one","0","indirect_first","0","er06rn28","0","24","1","1","3","1","","0","0","0","2630","","","","","neg","GS","GSnew","2","category2/GS3.png","targets/31.png","","direct","","-31"
"","image-slider-response","328","632878","0.0-12.0-0.44","c6a7ppw7fp","many_one","0","indirect_first","0","er06rn28","0","24","1","1","3","1","","0","0","0","2793","","","","","pos","GS","GSold","4","category4/CS1.png","targets/27.png","","direct","","-30"
"","image-slider-response","329","636206","0.0-12.0-0.45","c6a7ppw7fp","many_one","0","indirect_first","0","er06rn28","0","24","1","1","3","1","","0","0","0","3327","","","","","pos","CS","CS","4","category4/CS5.png","targets/41.png","","direct","","-26"
"","image-slider-response","330","638629","0.0-12.0-0.46","c6a7ppw7fp","many_one","0","indirect_first","0","er06rn28","0","24","1","1","3","1","","0","0","0","2422","","","","","neg","CS","CS","2","category2/CS1.png","targets/33.png","","direct","","-66"
