"success","trial_type","trial_index","time_elapsed","internal_node_id","subject","condition","condition_code","measure","measure_code","codeword","gender","age","education","chinese","fach","handedness","comment","hinschauen","ablenkung","gewissenhaft","rt","url","responses","stimulus","key_press","val","type","type_specific","category","cs_selected","target","indirect","task","nr_pres","response"
"true","fullscreen","0","6921","0.0-0.0","czl1ztupjr","many_one","0","indirect_first","0","le05ij22","1","25","1","1","3","1","","0","1","0","","","","","","","","","","","","","","",""
"","external-html","1","124341","0.0-1.0","czl1ztupjr","many_one","0","indirect_first","0","le05ij22","1","25","1","1","3","1","","0","1","0","116728","text/information.html","","","","","","","","","","","","",""
"","external-html","2","140606","0.0-2.0","czl1ztupjr","many_one","0","indirect_first","0","le05ij22","1","25","1","1","3","1","","0","1","0","16169","text/consent.html","","","","","","","","","","","","",""
"","survey-html-form","3","226027","0.0-3.0","czl1ztupjr","many_one","0","indirect_first","0","le05ij22","1","25","1","1","3","1","","0","1","0","85412","","{""codeword_enter"":""le05ij22""}","","","","","","","","","","","",""
"","survey-html-form","4","242942","0.0-4.0","czl1ztupjr","many_one","0","indirect_first","0","le05ij22","1","25","1","1","3","1","","0","1","0","16907","","{""age"":""25"",""education"":""1"",""subject"":""3"",""gender"":""1"",""handedness"":""1"",""chinese"":""1""}","","","","","","","","","","","",""
"","survey-html-form","5","248621","0.0-5.0","czl1ztupjr","many_one","0","indirect_first","0","le05ij22","1","25","1","1","3","1","","0","1","0","5674","","{}","","","","","","","","","","","",""
"","html-keyboard-response","6","252632","0.0-6.0-0.0-0.0","czl1ztupjr","many_one","0","indirect_first","0","le05ij22","1","25","1","1","3","1","","0","1","0","null","","","<div class = 'row'><div class = 'column'><img src = 'category1/CS6.png' width = '70%;'></div><div class = 'column'><img src = 'uspos/1440.bmp' width = '100%;'></div></div>","null","pos","CS","CS","1","category1/CS6.png","","","","",""
"","html-keyboard-response","7","255143","0.0-6.0-0.0-0.1","czl1ztupjr","many_one","0","indirect_first","0","le05ij22","1","25","1","1","3","1","","0","1","0","null","","","<div class = 'row'><div class = 'column'><img src = 'uspos/1710.bmp' width = '100%;'></div><div class = 'column'><img src = 'category2/CS1.png' width = '70%;'></div></div>","null","pos","CS","CS","2","category2/CS1.png","","","","",""
"","html-keyboard-response","8","257649","0.0-6.0-0.0-0.2","czl1ztupjr","many_one","0","indirect_first","0","le05ij22","1","25","1","1","3","1","","0","1","0","null","","","<div class = 'row'><div class = 'column'><img src = 'category4/CS3.png' width = '70%;'></div><div class = 'column'><img src = 'usneg/9000.bmp' width = '100%;'></div></div>","null","neg","CS","CS","4","category4/CS3.png","","","","",""
"","html-keyboard-response","9","260154","0.0-6.0-0.0-0.3","czl1ztupjr","many_one","0","indirect_first","0","le05ij22","1","25","1","1","3","1","","0","1","0","null","","","<div class = 'row'><div class = 'column'><img src = 'category3/CS5.png' width = '70%;'></div><div class = 'column'><img src = 'usneg/9280.bmp' width = '100%;'></div></div>","null","neg","CS","CS","3","category3/CS5.png","","","","",""
"","html-keyboard-response","10","262658","0.0-6.0-0.0-0.4","czl1ztupjr","many_one","0","indirect_first","0","le05ij22","1","25","1","1","3","1","","0","1","0","null","","","<div class = 'row'><div class = 'column'><img src = 'category4/CS8.png' width = '70%;'></div><div class = 'column'><img src = 'usneg/3300.bmp' width = '100%;'></div></div>","null","neg","CS","CS","4","category4/CS8.png","","","","",""
"","html-keyboard-response","11","265161","0.0-6.0-0.0-0.5","czl1ztupjr","many_one","0","indirect_first","0","le05ij22","1","25","1","1","3","1","","0","1","0","null","","","<div class = 'row'><div class = 'column'><img src = 'usneg/6020.bmp' width = '100%;'></div><div class = 'column'><img src = 'category4/CS6.png' width = '70%;'></div></div>","null","neg","CS","CS","4","category4/CS6.png","","","","",""
"","html-keyboard-response","12","267665","0.0-6.0-0.0-0.6","czl1ztupjr","many_one","0","indirect_first","0","le05ij22","1","25","1","1","3","1","","0","1","0","null","","","<div class = 'row'><div class = 'column'><img src = 'uspos/2311.bmp' width = '100%;'></div><div class = 'column'><img src = 'category1/CS9.png' width = '70%;'></div></div>","null","pos","CS","CS","1","category1/CS9.png","","","","",""
"","html-keyboard-response","13","270170","0.0-6.0-0.0-0.7","czl1ztupjr","many_one","0","indirect_first","0","le05ij22","1","25","1","1","3","1","","0","1","0","null","","","<div class = 'row'><div class = 'column'><img src = 'usneg/9050.bmp' width = '100%;'></div><div class = 'column'><img src = 'category3/CS6.png' width = '70%;'></div></div>","null","neg","CS","CS","3","category3/CS6.png","","","","",""
"","html-keyboard-response","14","272675","0.0-6.0-0.0-0.8","czl1ztupjr","many_one","0","indirect_first","0","le05ij22","1","25","1","1","3","1","","0","1","0","null","","","<div class = 'row'><div class = 'column'><img src = 'uspos/2165.bmp' width = '100%;'></div><div class = 'column'><img src = 'category2/CS7.png' width = '70%;'></div></div>","null","pos","CS","CS","2","category2/CS7.png","","","","",""
"","html-keyboard-response","15","275180","0.0-6.0-0.0-0.9","czl1ztupjr","many_one","0","indirect_first","0","le05ij22","1","25","1","1","3","1","","0","1","0","null","","","<div class = 'row'><div class = 'column'><img src = 'category4/CS7.png' width = '70%;'></div><div class = 'column'><img src = 'usneg/9340.bmp' width = '100%;'></div></div>","null","neg","CS","CS","4","category4/CS7.png","","","","",""
"","html-keyboard-response","16","277686","0.0-6.0-0.0-0.10","czl1ztupjr","many_one","0","indirect_first","0","le05ij22","1","25","1","1","3","1","","0","1","0","null","","","<div class = 'row'><div class = 'column'><img src = 'uspos/5700.bmp' width = '100%;'></div><div class = 'column'><img src = 'category2/CS8.png' width = '70%;'></div></div>","null","pos","CS","CS","2","category2/CS8.png","","","","",""
"","html-keyboard-response","17","280189","0.0-6.0-0.0-0.11","czl1ztupjr","many_one","0","indirect_first","0","le05ij22","1","25","1","1","3","1","","0","1","0","null","","","<div class = 'row'><div class = 'column'><img src = 'category4/CS9.png' width = '70%;'></div><div class = 'column'><img src = 'usneg/9330.bmp' width = '100%;'></div></div>","null","neg","CS","CS","4","category4/CS9.png","","","","",""
"","html-keyboard-response","18","282692","0.0-6.0-0.0-0.12","czl1ztupjr","many_one","0","indirect_first","0","le05ij22","1","25","1","1","3","1","","0","1","0","null","","","<div class = 'row'><div class = 'column'><img src = 'category2/CS9.png' width = '70%;'></div><div class = 'column'><img src = 'uspos/8350.bmp' width = '100%;'></div></div>","null","pos","CS","CS","2","category2/CS9.png","","","","",""
"","html-keyboard-response","19","285197","0.0-6.0-0.0-0.13","czl1ztupjr","many_one","0","indirect_first","0","le05ij22","1","25","1","1","3","1","","0","1","0","null","","","<div class = 'row'><div class = 'column'><img src = 'uspos/8461.bmp' width = '100%;'></div><div class = 'column'><img src = 'category1/CS3.png' width = '70%;'></div></div>","null","pos","CS","CS","1","category1/CS3.png","","","","",""
"","html-keyboard-response","20","287699","0.0-6.0-0.0-0.14","czl1ztupjr","many_one","0","indirect_first","0","le05ij22","1","25","1","1","3","1","","0","1","0","null","","","<div class = 'row'><div class = 'column'><img src = 'category1/CS1.png' width = '70%;'></div><div class = 'column'><img src = 'uspos/5629.bmp' width = '100%;'></div></div>","null","pos","CS","CS","1","category1/CS1.png","","","","",""
"","html-keyboard-response","21","290203","0.0-6.0-0.0-0.15","czl1ztupjr","many_one","0","indirect_first","0","le05ij22","1","25","1","1","3","1","","0","1","0","null","","","<div class = 'row'><div class = 'column'><img src = 'category1/CS10.png' width = '70%;'></div><div class = 'column'><img src = 'uspos/2900.2.bmp' width = '100%;'></div></div>","null","pos","CS","CS","1","category1/CS10.png","","","","",""
"","html-keyboard-response","22","292707","0.0-6.0-0.0-0.16","czl1ztupjr","many_one","0","indirect_first","0","le05ij22","1","25","1","1","3","1","","0","1","0","null","","","<div class = 'row'><div class = 'column'><img src = 'usneg/2205.bmp' width = '100%;'></div><div class = 'column'><img src = 'category3/CS4.png' width = '70%;'></div></div>","null","neg","CS","CS","3","category3/CS4.png","","","","",""
"","html-keyboard-response","23","295210","0.0-6.0-0.0-0.17","czl1ztupjr","many_one","0","indirect_first","0","le05ij22","1","25","1","1","3","1","","0","1","0","null","","","<div class = 'row'><div class = 'column'><img src = 'usneg/6570.1.bmp' width = '100%;'></div><div class = 'column'><img src = 'category3/CS2.png' width = '70%;'></div></div>","null","neg","CS","CS","3","category3/CS2.png","","","","",""
"","html-keyboard-response","24","297713","0.0-6.0-0.0-0.18","czl1ztupjr","many_one","0","indirect_first","0","le05ij22","1","25","1","1","3","1","","0","1","0","null","","","<div class = 'row'><div class = 'column'><img src = 'usneg/9584.bmp' width = '100%;'></div><div class = 'column'><img src = 'category3/CS8.png' width = '70%;'></div></div>","null","neg","CS","CS","3","category3/CS8.png","","","","",""
"","html-keyboard-response","25","300218","0.0-6.0-0.0-0.19","czl1ztupjr","many_one","0","indirect_first","0","le05ij22","1","25","1","1","3","1","","0","1","0","null","","","<div class = 'row'><div class = 'column'><img src = 'category2/CS2.png' width = '70%;'></div><div class = 'column'><img src = 'uspos/2160.bmp' width = '100%;'></div></div>","null","pos","CS","CS","2","category2/CS2.png","","","","",""
"","survey-html-form","26","312827","0.0-6.0-1.0","czl1ztupjr","many_one","0","indirect_first","0","le05ij22","1","25","1","1","3","1","","0","1","0","12105","","{}","","","","","","","","","","","",""
"","html-keyboard-response","27","316832","0.0-6.0-2.0-0.0","czl1ztupjr","many_one","0","indirect_first","0","le05ij22","1","25","1","1","3","1","","0","1","0","null","","","<div class = 'row'><div class = 'column'><img src = 'uspos/2900.2.bmp' width = '100%;'></div><div class = 'column'><img src = 'category1/CS10.png' width = '70%;'></div></div>","null","pos","CS","CS","1","category1/CS10.png","","","","",""
"","html-keyboard-response","28","319336","0.0-6.0-2.0-0.1","czl1ztupjr","many_one","0","indirect_first","0","le05ij22","1","25","1","1","3","1","","0","1","0","null","","","<div class = 'row'><div class = 'column'><img src = 'usneg/6570.1.bmp' width = '100%;'></div><div class = 'column'><img src = 'category3/CS2.png' width = '70%;'></div></div>","null","neg","CS","CS","3","category3/CS2.png","","","","",""
"","html-keyboard-response","29","321839","0.0-6.0-2.0-0.2","czl1ztupjr","many_one","0","indirect_first","0","le05ij22","1","25","1","1","3","1","","0","1","0","null","","","<div class = 'row'><div class = 'column'><img src = 'category4/CS9.png' width = '70%;'></div><div class = 'column'><img src = 'usneg/9330.bmp' width = '100%;'></div></div>","null","neg","CS","CS","4","category4/CS9.png","","","","",""
"","html-keyboard-response","30","324342","0.0-6.0-2.0-0.3","czl1ztupjr","many_one","0","indirect_first","0","le05ij22","1","25","1","1","3","1","","0","1","0","null","","","<div class = 'row'><div class = 'column'><img src = 'category3/CS8.png' width = '70%;'></div><div class = 'column'><img src = 'usneg/9584.bmp' width = '100%;'></div></div>","null","neg","CS","CS","3","category3/CS8.png","","","","",""
"","html-keyboard-response","31","326846","0.0-6.0-2.0-0.4","czl1ztupjr","many_one","0","indirect_first","0","le05ij22","1","25","1","1","3","1","","0","1","0","null","","","<div class = 'row'><div class = 'column'><img src = 'uspos/5700.bmp' width = '100%;'></div><div class = 'column'><img src = 'category2/CS8.png' width = '70%;'></div></div>","null","pos","CS","CS","2","category2/CS8.png","","","","",""
"","html-keyboard-response","32","329349","0.0-6.0-2.0-0.5","czl1ztupjr","many_one","0","indirect_first","0","le05ij22","1","25","1","1","3","1","","0","1","0","null","","","<div class = 'row'><div class = 'column'><img src = 'category1/CS1.png' width = '70%;'></div><div class = 'column'><img src = 'uspos/5629.bmp' width = '100%;'></div></div>","null","pos","CS","CS","1","category1/CS1.png","","","","",""
"","html-keyboard-response","33","331852","0.0-6.0-2.0-0.6","czl1ztupjr","many_one","0","indirect_first","0","le05ij22","1","25","1","1","3","1","","0","1","0","null","","","<div class = 'row'><div class = 'column'><img src = 'category3/CS4.png' width = '70%;'></div><div class = 'column'><img src = 'usneg/2205.bmp' width = '100%;'></div></div>","null","neg","CS","CS","3","category3/CS4.png","","","","",""
"","html-keyboard-response","34","334356","0.0-6.0-2.0-0.7","czl1ztupjr","many_one","0","indirect_first","0","le05ij22","1","25","1","1","3","1","","0","1","0","null","","","<div class = 'row'><div class = 'column'><img src = 'category4/CS8.png' width = '70%;'></div><div class = 'column'><img src = 'usneg/3300.bmp' width = '100%;'></div></div>","null","neg","CS","CS","4","category4/CS8.png","","","","",""
"","html-keyboard-response","35","336859","0.0-6.0-2.0-0.8","czl1ztupjr","many_one","0","indirect_first","0","le05ij22","1","25","1","1","3","1","","0","1","0","null","","","<div class = 'row'><div class = 'column'><img src = 'category1/CS3.png' width = '70%;'></div><div class = 'column'><img src = 'uspos/8461.bmp' width = '100%;'></div></div>","null","pos","CS","CS","1","category1/CS3.png","","","","",""
"","html-keyboard-response","36","339364","0.0-6.0-2.0-0.9","czl1ztupjr","many_one","0","indirect_first","0","le05ij22","1","25","1","1","3","1","","0","1","0","null","","","<div class = 'row'><div class = 'column'><img src = 'uspos/1710.bmp' width = '100%;'></div><div class = 'column'><img src = 'category2/CS1.png' width = '70%;'></div></div>","null","pos","CS","CS","2","category2/CS1.png","","","","",""
"","html-keyboard-response","37","341867","0.0-6.0-2.0-0.10","czl1ztupjr","many_one","0","indirect_first","0","le05ij22","1","25","1","1","3","1","","0","1","0","null","","","<div class = 'row'><div class = 'column'><img src = 'uspos/2311.bmp' width = '100%;'></div><div class = 'column'><img src = 'category1/CS9.png' width = '70%;'></div></div>","null","pos","CS","CS","1","category1/CS9.png","","","","",""
"","html-keyboard-response","38","344372","0.0-6.0-2.0-0.11","czl1ztupjr","many_one","0","indirect_first","0","le05ij22","1","25","1","1","3","1","","0","1","0","null","","","<div class = 'row'><div class = 'column'><img src = 'category4/CS6.png' width = '70%;'></div><div class = 'column'><img src = 'usneg/6020.bmp' width = '100%;'></div></div>","null","neg","CS","CS","4","category4/CS6.png","","","","",""
"","html-keyboard-response","39","346876","0.0-6.0-2.0-0.12","czl1ztupjr","many_one","0","indirect_first","0","le05ij22","1","25","1","1","3","1","","0","1","0","null","","","<div class = 'row'><div class = 'column'><img src = 'uspos/2165.bmp' width = '100%;'></div><div class = 'column'><img src = 'category2/CS7.png' width = '70%;'></div></div>","null","pos","CS","CS","2","category2/CS7.png","","","","",""
"","html-keyboard-response","40","349379","0.0-6.0-2.0-0.13","czl1ztupjr","many_one","0","indirect_first","0","le05ij22","1","25","1","1","3","1","","0","1","0","null","","","<div class = 'row'><div class = 'column'><img src = 'category2/CS2.png' width = '70%;'></div><div class = 'column'><img src = 'uspos/2160.bmp' width = '100%;'></div></div>","null","pos","CS","CS","2","category2/CS2.png","","","","",""
"","html-keyboard-response","41","351883","0.0-6.0-2.0-0.14","czl1ztupjr","many_one","0","indirect_first","0","le05ij22","1","25","1","1","3","1","","0","1","0","null","","","<div class = 'row'><div class = 'column'><img src = 'category4/CS3.png' width = '70%;'></div><div class = 'column'><img src = 'usneg/9000.bmp' width = '100%;'></div></div>","null","neg","CS","CS","4","category4/CS3.png","","","","",""
"","html-keyboard-response","42","354386","0.0-6.0-2.0-0.15","czl1ztupjr","many_one","0","indirect_first","0","le05ij22","1","25","1","1","3","1","","0","1","0","null","","","<div class = 'row'><div class = 'column'><img src = 'category3/CS5.png' width = '70%;'></div><div class = 'column'><img src = 'usneg/9280.bmp' width = '100%;'></div></div>","null","neg","CS","CS","3","category3/CS5.png","","","","",""
"","html-keyboard-response","43","356890","0.0-6.0-2.0-0.16","czl1ztupjr","many_one","0","indirect_first","0","le05ij22","1","25","1","1","3","1","","0","1","0","null","","","<div class = 'row'><div class = 'column'><img src = 'category4/CS7.png' width = '70%;'></div><div class = 'column'><img src = 'usneg/9340.bmp' width = '100%;'></div></div>","null","neg","CS","CS","4","category4/CS7.png","","","","",""
"","html-keyboard-response","44","359393","0.0-6.0-2.0-0.17","czl1ztupjr","many_one","0","indirect_first","0","le05ij22","1","25","1","1","3","1","","0","1","0","null","","","<div class = 'row'><div class = 'column'><img src = 'usneg/9050.bmp' width = '100%;'></div><div class = 'column'><img src = 'category3/CS6.png' width = '70%;'></div></div>","null","neg","CS","CS","3","category3/CS6.png","","","","",""
"","html-keyboard-response","45","361896","0.0-6.0-2.0-0.18","czl1ztupjr","many_one","0","indirect_first","0","le05ij22","1","25","1","1","3","1","","0","1","0","null","","","<div class = 'row'><div class = 'column'><img src = 'uspos/8350.bmp' width = '100%;'></div><div class = 'column'><img src = 'category2/CS9.png' width = '70%;'></div></div>","null","pos","CS","CS","2","category2/CS9.png","","","","",""
"","html-keyboard-response","46","364399","0.0-6.0-2.0-0.19","czl1ztupjr","many_one","0","indirect_first","0","le05ij22","1","25","1","1","3","1","","0","1","0","null","","","<div class = 'row'><div class = 'column'><img src = 'uspos/1440.bmp' width = '100%;'></div><div class = 'column'><img src = 'category1/CS6.png' width = '70%;'></div></div>","null","pos","CS","CS","1","category1/CS6.png","","","","",""
"","survey-html-form","47","375054","0.0-6.0-3.0","czl1ztupjr","many_one","0","indirect_first","0","le05ij22","1","25","1","1","3","1","","0","1","0","10152","","{}","","","","","","","","","","","",""
"","html-keyboard-response","48","379059","0.0-6.0-4.0-0.0","czl1ztupjr","many_one","0","indirect_first","0","le05ij22","1","25","1","1","3","1","","0","1","0","null","","","<div class = 'row'><div class = 'column'><img src = 'uspos/2165.bmp' width = '100%;'></div><div class = 'column'><img src = 'category2/CS7.png' width = '70%;'></div></div>","null","pos","CS","CS","2","category2/CS7.png","","","","",""
"","html-keyboard-response","49","381563","0.0-6.0-4.0-0.1","czl1ztupjr","many_one","0","indirect_first","0","le05ij22","1","25","1","1","3","1","","0","1","0","null","","","<div class = 'row'><div class = 'column'><img src = 'uspos/5629.bmp' width = '100%;'></div><div class = 'column'><img src = 'category1/CS1.png' width = '70%;'></div></div>","null","pos","CS","CS","1","category1/CS1.png","","","","",""
"","html-keyboard-response","50","384066","0.0-6.0-4.0-0.2","czl1ztupjr","many_one","0","indirect_first","0","le05ij22","1","25","1","1","3","1","","0","1","0","null","","","<div class = 'row'><div class = 'column'><img src = 'usneg/9340.bmp' width = '100%;'></div><div class = 'column'><img src = 'category4/CS7.png' width = '70%;'></div></div>","null","neg","CS","CS","4","category4/CS7.png","","","","",""
"","html-keyboard-response","51","386569","0.0-6.0-4.0-0.3","czl1ztupjr","many_one","0","indirect_first","0","le05ij22","1","25","1","1","3","1","","0","1","0","null","","","<div class = 'row'><div class = 'column'><img src = 'uspos/2160.bmp' width = '100%;'></div><div class = 'column'><img src = 'category2/CS2.png' width = '70%;'></div></div>","null","pos","CS","CS","2","category2/CS2.png","","","","",""
"","html-keyboard-response","52","389072","0.0-6.0-4.0-0.4","czl1ztupjr","many_one","0","indirect_first","0","le05ij22","1","25","1","1","3","1","","0","1","0","null","","","<div class = 'row'><div class = 'column'><img src = 'usneg/9000.bmp' width = '100%;'></div><div class = 'column'><img src = 'category4/CS3.png' width = '70%;'></div></div>","null","neg","CS","CS","4","category4/CS3.png","","","","",""
"","html-keyboard-response","53","391577","0.0-6.0-4.0-0.5","czl1ztupjr","many_one","0","indirect_first","0","le05ij22","1","25","1","1","3","1","","0","1","0","null","","","<div class = 'row'><div class = 'column'><img src = 'uspos/2900.2.bmp' width = '100%;'></div><div class = 'column'><img src = 'category1/CS10.png' width = '70%;'></div></div>","null","pos","CS","CS","1","category1/CS10.png","","","","",""
"","html-keyboard-response","54","394081","0.0-6.0-4.0-0.6","czl1ztupjr","many_one","0","indirect_first","0","le05ij22","1","25","1","1","3","1","","0","1","0","null","","","<div class = 'row'><div class = 'column'><img src = 'category1/CS3.png' width = '70%;'></div><div class = 'column'><img src = 'uspos/8461.bmp' width = '100%;'></div></div>","null","pos","CS","CS","1","category1/CS3.png","","","","",""
"","html-keyboard-response","55","396586","0.0-6.0-4.0-0.7","czl1ztupjr","many_one","0","indirect_first","0","le05ij22","1","25","1","1","3","1","","0","1","0","null","","","<div class = 'row'><div class = 'column'><img src = 'category3/CS6.png' width = '70%;'></div><div class = 'column'><img src = 'usneg/9050.bmp' width = '100%;'></div></div>","null","neg","CS","CS","3","category3/CS6.png","","","","",""
"","html-keyboard-response","56","399089","0.0-6.0-4.0-0.8","czl1ztupjr","many_one","0","indirect_first","0","le05ij22","1","25","1","1","3","1","","0","1","0","null","","","<div class = 'row'><div class = 'column'><img src = 'uspos/1710.bmp' width = '100%;'></div><div class = 'column'><img src = 'category2/CS1.png' width = '70%;'></div></div>","null","pos","CS","CS","2","category2/CS1.png","","","","",""
"","html-keyboard-response","57","401592","0.0-6.0-4.0-0.9","czl1ztupjr","many_one","0","indirect_first","0","le05ij22","1","25","1","1","3","1","","0","1","0","null","","","<div class = 'row'><div class = 'column'><img src = 'uspos/2311.bmp' width = '100%;'></div><div class = 'column'><img src = 'category1/CS9.png' width = '70%;'></div></div>","null","pos","CS","CS","1","category1/CS9.png","","","","",""
"","html-keyboard-response","58","404096","0.0-6.0-4.0-0.10","czl1ztupjr","many_one","0","indirect_first","0","le05ij22","1","25","1","1","3","1","","0","1","0","null","","","<div class = 'row'><div class = 'column'><img src = 'category4/CS9.png' width = '70%;'></div><div class = 'column'><img src = 'usneg/9330.bmp' width = '100%;'></div></div>","null","neg","CS","CS","4","category4/CS9.png","","","","",""
"","html-keyboard-response","59","406599","0.0-6.0-4.0-0.11","czl1ztupjr","many_one","0","indirect_first","0","le05ij22","1","25","1","1","3","1","","0","1","0","null","","","<div class = 'row'><div class = 'column'><img src = 'usneg/9280.bmp' width = '100%;'></div><div class = 'column'><img src = 'category3/CS5.png' width = '70%;'></div></div>","null","neg","CS","CS","3","category3/CS5.png","","","","",""
"","html-keyboard-response","60","409103","0.0-6.0-4.0-0.12","czl1ztupjr","many_one","0","indirect_first","0","le05ij22","1","25","1","1","3","1","","0","1","0","null","","","<div class = 'row'><div class = 'column'><img src = 'uspos/5700.bmp' width = '100%;'></div><div class = 'column'><img src = 'category2/CS8.png' width = '70%;'></div></div>","null","pos","CS","CS","2","category2/CS8.png","","","","",""
"","html-keyboard-response","61","411607","0.0-6.0-4.0-0.13","czl1ztupjr","many_one","0","indirect_first","0","le05ij22","1","25","1","1","3","1","","0","1","0","null","","","<div class = 'row'><div class = 'column'><img src = 'usneg/6020.bmp' width = '100%;'></div><div class = 'column'><img src = 'category4/CS6.png' width = '70%;'></div></div>","null","neg","CS","CS","4","category4/CS6.png","","","","",""
"","html-keyboard-response","62","414113","0.0-6.0-4.0-0.14","czl1ztupjr","many_one","0","indirect_first","0","le05ij22","1","25","1","1","3","1","","0","1","0","null","","","<div class = 'row'><div class = 'column'><img src = 'category3/CS4.png' width = '70%;'></div><div class = 'column'><img src = 'usneg/2205.bmp' width = '100%;'></div></div>","null","neg","CS","CS","3","category3/CS4.png","","","","",""
"","html-keyboard-response","63","416615","0.0-6.0-4.0-0.15","czl1ztupjr","many_one","0","indirect_first","0","le05ij22","1","25","1","1","3","1","","0","1","0","null","","","<div class = 'row'><div class = 'column'><img src = 'usneg/9584.bmp' width = '100%;'></div><div class = 'column'><img src = 'category3/CS8.png' width = '70%;'></div></div>","null","neg","CS","CS","3","category3/CS8.png","","","","",""
"","html-keyboard-response","64","419118","0.0-6.0-4.0-0.16","czl1ztupjr","many_one","0","indirect_first","0","le05ij22","1","25","1","1","3","1","","0","1","0","null","","","<div class = 'row'><div class = 'column'><img src = 'uspos/1440.bmp' width = '100%;'></div><div class = 'column'><img src = 'category1/CS6.png' width = '70%;'></div></div>","null","pos","CS","CS","1","category1/CS6.png","","","","",""
"","html-keyboard-response","65","421621","0.0-6.0-4.0-0.17","czl1ztupjr","many_one","0","indirect_first","0","le05ij22","1","25","1","1","3","1","","0","1","0","null","","","<div class = 'row'><div class = 'column'><img src = 'category2/CS9.png' width = '70%;'></div><div class = 'column'><img src = 'uspos/8350.bmp' width = '100%;'></div></div>","null","pos","CS","CS","2","category2/CS9.png","","","","",""
"","html-keyboard-response","66","424124","0.0-6.0-4.0-0.18","czl1ztupjr","many_one","0","indirect_first","0","le05ij22","1","25","1","1","3","1","","0","1","0","null","","","<div class = 'row'><div class = 'column'><img src = 'category4/CS8.png' width = '70%;'></div><div class = 'column'><img src = 'usneg/3300.bmp' width = '100%;'></div></div>","null","neg","CS","CS","4","category4/CS8.png","","","","",""
"","html-keyboard-response","67","426628","0.0-6.0-4.0-0.19","czl1ztupjr","many_one","0","indirect_first","0","le05ij22","1","25","1","1","3","1","","0","1","0","null","","","<div class = 'row'><div class = 'column'><img src = 'usneg/6570.1.bmp' width = '100%;'></div><div class = 'column'><img src = 'category3/CS2.png' width = '70%;'></div></div>","null","neg","CS","CS","3","category3/CS2.png","","","","",""
"","survey-html-form","68","428834","0.0-6.0-5.0","czl1ztupjr","many_one","0","indirect_first","0","le05ij22","1","25","1","1","3","1","","0","1","0","1701","","{}","","","","","","","","","","","",""
"","html-keyboard-response","69","432840","0.0-6.0-6.0-0.0","czl1ztupjr","many_one","0","indirect_first","0","le05ij22","1","25","1","1","3","1","","0","1","0","null","","","<div class = 'row'><div class = 'column'><img src = 'usneg/9000.bmp' width = '100%;'></div><div class = 'column'><img src = 'category4/CS3.png' width = '70%;'></div></div>","null","neg","CS","CS","4","category4/CS3.png","","","","",""
"","html-keyboard-response","70","435344","0.0-6.0-6.0-0.1","czl1ztupjr","many_one","0","indirect_first","0","le05ij22","1","25","1","1","3","1","","0","1","0","null","","","<div class = 'row'><div class = 'column'><img src = 'category2/CS1.png' width = '70%;'></div><div class = 'column'><img src = 'uspos/1710.bmp' width = '100%;'></div></div>","null","pos","CS","CS","2","category2/CS1.png","","","","",""
"","html-keyboard-response","71","437850","0.0-6.0-6.0-0.2","czl1ztupjr","many_one","0","indirect_first","0","le05ij22","1","25","1","1","3","1","","0","1","0","null","","","<div class = 'row'><div class = 'column'><img src = 'uspos/5629.bmp' width = '100%;'></div><div class = 'column'><img src = 'category1/CS1.png' width = '70%;'></div></div>","null","pos","CS","CS","1","category1/CS1.png","","","","",""
"","html-keyboard-response","72","440353","0.0-6.0-6.0-0.3","czl1ztupjr","many_one","0","indirect_first","0","le05ij22","1","25","1","1","3","1","","0","1","0","null","","","<div class = 'row'><div class = 'column'><img src = 'category4/CS9.png' width = '70%;'></div><div class = 'column'><img src = 'usneg/9330.bmp' width = '100%;'></div></div>","null","neg","CS","CS","4","category4/CS9.png","","","","",""
"","html-keyboard-response","73","442857","0.0-6.0-6.0-0.4","czl1ztupjr","many_one","0","indirect_first","0","le05ij22","1","25","1","1","3","1","","0","1","0","null","","","<div class = 'row'><div class = 'column'><img src = 'usneg/9050.bmp' width = '100%;'></div><div class = 'column'><img src = 'category3/CS6.png' width = '70%;'></div></div>","null","neg","CS","CS","3","category3/CS6.png","","","","",""
"","html-keyboard-response","74","445361","0.0-6.0-6.0-0.5","czl1ztupjr","many_one","0","indirect_first","0","le05ij22","1","25","1","1","3","1","","0","1","0","null","","","<div class = 'row'><div class = 'column'><img src = 'category4/CS6.png' width = '70%;'></div><div class = 'column'><img src = 'usneg/6020.bmp' width = '100%;'></div></div>","null","neg","CS","CS","4","category4/CS6.png","","","","",""
"","html-keyboard-response","75","447865","0.0-6.0-6.0-0.6","czl1ztupjr","many_one","0","indirect_first","0","le05ij22","1","25","1","1","3","1","","0","1","0","null","","","<div class = 'row'><div class = 'column'><img src = 'category1/CS6.png' width = '70%;'></div><div class = 'column'><img src = 'uspos/1440.bmp' width = '100%;'></div></div>","null","pos","CS","CS","1","category1/CS6.png","","","","",""
"","html-keyboard-response","76","450369","0.0-6.0-6.0-0.7","czl1ztupjr","many_one","0","indirect_first","0","le05ij22","1","25","1","1","3","1","","0","1","0","null","","","<div class = 'row'><div class = 'column'><img src = 'uspos/2165.bmp' width = '100%;'></div><div class = 'column'><img src = 'category2/CS7.png' width = '70%;'></div></div>","null","pos","CS","CS","2","category2/CS7.png","","","","",""
"","html-keyboard-response","77","452873","0.0-6.0-6.0-0.8","czl1ztupjr","many_one","0","indirect_first","0","le05ij22","1","25","1","1","3","1","","0","1","0","null","","","<div class = 'row'><div class = 'column'><img src = 'category2/CS9.png' width = '70%;'></div><div class = 'column'><img src = 'uspos/8350.bmp' width = '100%;'></div></div>","null","pos","CS","CS","2","category2/CS9.png","","","","",""
"","html-keyboard-response","78","455377","0.0-6.0-6.0-0.9","czl1ztupjr","many_one","0","indirect_first","0","le05ij22","1","25","1","1","3","1","","0","1","0","null","","","<div class = 'row'><div class = 'column'><img src = 'uspos/2900.2.bmp' width = '100%;'></div><div class = 'column'><img src = 'category1/CS10.png' width = '70%;'></div></div>","null","pos","CS","CS","1","category1/CS10.png","","","","",""
"","html-keyboard-response","79","457881","0.0-6.0-6.0-0.10","czl1ztupjr","many_one","0","indirect_first","0","le05ij22","1","25","1","1","3","1","","0","1","0","null","","","<div class = 'row'><div class = 'column'><img src = 'category4/CS7.png' width = '70%;'></div><div class = 'column'><img src = 'usneg/9340.bmp' width = '100%;'></div></div>","null","neg","CS","CS","4","category4/CS7.png","","","","",""
"","html-keyboard-response","80","460384","0.0-6.0-6.0-0.11","czl1ztupjr","many_one","0","indirect_first","0","le05ij22","1","25","1","1","3","1","","0","1","0","null","","","<div class = 'row'><div class = 'column'><img src = 'usneg/6570.1.bmp' width = '100%;'></div><div class = 'column'><img src = 'category3/CS2.png' width = '70%;'></div></div>","null","neg","CS","CS","3","category3/CS2.png","","","","",""
"","html-keyboard-response","81","462888","0.0-6.0-6.0-0.12","czl1ztupjr","many_one","0","indirect_first","0","le05ij22","1","25","1","1","3","1","","0","1","0","null","","","<div class = 'row'><div class = 'column'><img src = 'category3/CS4.png' width = '70%;'></div><div class = 'column'><img src = 'usneg/2205.bmp' width = '100%;'></div></div>","null","neg","CS","CS","3","category3/CS4.png","","","","",""
"","html-keyboard-response","82","465392","0.0-6.0-6.0-0.13","czl1ztupjr","many_one","0","indirect_first","0","le05ij22","1","25","1","1","3","1","","0","1","0","null","","","<div class = 'row'><div class = 'column'><img src = 'category3/CS5.png' width = '70%;'></div><div class = 'column'><img src = 'usneg/9280.bmp' width = '100%;'></div></div>","null","neg","CS","CS","3","category3/CS5.png","","","","",""
"","html-keyboard-response","83","467894","0.0-6.0-6.0-0.14","czl1ztupjr","many_one","0","indirect_first","0","le05ij22","1","25","1","1","3","1","","0","1","0","null","","","<div class = 'row'><div class = 'column'><img src = 'uspos/2160.bmp' width = '100%;'></div><div class = 'column'><img src = 'category2/CS2.png' width = '70%;'></div></div>","null","pos","CS","CS","2","category2/CS2.png","","","","",""
"","html-keyboard-response","84","470398","0.0-6.0-6.0-0.15","czl1ztupjr","many_one","0","indirect_first","0","le05ij22","1","25","1","1","3","1","","0","1","0","null","","","<div class = 'row'><div class = 'column'><img src = 'uspos/5700.bmp' width = '100%;'></div><div class = 'column'><img src = 'category2/CS8.png' width = '70%;'></div></div>","null","pos","CS","CS","2","category2/CS8.png","","","","",""
"","html-keyboard-response","85","472901","0.0-6.0-6.0-0.16","czl1ztupjr","many_one","0","indirect_first","0","le05ij22","1","25","1","1","3","1","","0","1","0","null","","","<div class = 'row'><div class = 'column'><img src = 'uspos/2311.bmp' width = '100%;'></div><div class = 'column'><img src = 'category1/CS9.png' width = '70%;'></div></div>","null","pos","CS","CS","1","category1/CS9.png","","","","",""
"","html-keyboard-response","86","475404","0.0-6.0-6.0-0.17","czl1ztupjr","many_one","0","indirect_first","0","le05ij22","1","25","1","1","3","1","","0","1","0","null","","","<div class = 'row'><div class = 'column'><img src = 'uspos/8461.bmp' width = '100%;'></div><div class = 'column'><img src = 'category1/CS3.png' width = '70%;'></div></div>","null","pos","CS","CS","1","category1/CS3.png","","","","",""
"","html-keyboard-response","87","477907","0.0-6.0-6.0-0.18","czl1ztupjr","many_one","0","indirect_first","0","le05ij22","1","25","1","1","3","1","","0","1","0","null","","","<div class = 'row'><div class = 'column'><img src = 'usneg/3300.bmp' width = '100%;'></div><div class = 'column'><img src = 'category4/CS8.png' width = '70%;'></div></div>","null","neg","CS","CS","4","category4/CS8.png","","","","",""
"","html-keyboard-response","88","480411","0.0-6.0-6.0-0.19","czl1ztupjr","many_one","0","indirect_first","0","le05ij22","1","25","1","1","3","1","","0","1","0","null","","","<div class = 'row'><div class = 'column'><img src = 'category3/CS8.png' width = '70%;'></div><div class = 'column'><img src = 'usneg/9584.bmp' width = '100%;'></div></div>","null","neg","CS","CS","3","category3/CS8.png","","","","",""
"","html-keyboard-response","89","512183","0.0-7.0","czl1ztupjr","many_one","0","indirect_first","0","le05ij22","1","25","1","1","3","1","","0","1","0","31270","","","<p>Sie sehen nun die chinesischen Zeichen nur ganz kurz. Danach sehen Sie die jeweilige Aussprache der Zeichen als Silbe auf dem Bildschrim. Ihre Aufgabe ist es, für jede Silbe anzugeben, ob diese etwas angenehmes, oder unangenehmes bedeuten könnte. Verlassen Sie sich hier vor allem auf Ihre Intuition.<br><br>Die Zeichen werden nur zur Orientierung dargestellt, beachten Sie sie deshalb nicht. Konzentrieren Sie sich vor allem auf die Silben. <br>Reagieren Sie mit folgenden zwei Tasten: <br><br><b>'D' </b> wenn die Silbe etwas <b>unangenehmes</b> bedeuten könnte. <br><b>'K'</b> wenn die Silbe etwas <b>angenehmes</b> bedeuten könnte. <br><br>Bitte legen Sie nun den Zeigefinger der linken Hand auf die Taste 'D' und den Zeigefinger der rechten Hand auf die Taste 'K'. <br>Reagieren Sie auf jede Silbe so schnell wie möglich. Uns interessiert Ihre spontane Reaktion. <br> <br> <br>Drücken Sie 'D' oder 'K', um die nächste Aufgabe zu starten. </p>","68","","","","","","","","","",""
"","html-keyboard-response","90","515184","0.0-8.0-0.0","czl1ztupjr","many_one","0","indirect_first","0","le05ij22","1","25","1","1","3","1","","0","1","0","null","","","<div style=""font-size:60px;"">+</div>","null","","","","","","","","","",""
"","html-keyboard-response","91","515277","0.0-8.0-1.0","czl1ztupjr","many_one","0","indirect_first","0","le05ij22","1","25","1","1","3","1","","0","1","0","null","","","<img src = 'category1/CS1.png' width = '100%;'>","null","","","","","","","","","",""
"","html-keyboard-response","92","515532","0.0-8.0-2.0","czl1ztupjr","many_one","0","indirect_first","0","le05ij22","1","25","1","1","3","1","","0","1","0","null","","","<img src = 'targets/15.png' width = '100%;'>","null","","","","","","","","","",""
"","html-keyboard-response","93","517948","0.0-8.0-3.0","czl1ztupjr","many_one","0","indirect_first","0","le05ij22","1","25","1","1","3","1","","0","1","0","2414","","","<img src = 'targets/mask.png' width = '100%;'>","75","pos","CS","CS","1","category1/CS1.png","targets/15.png","1","indirect","0",""
"","html-keyboard-response","94","519452","0.0-8.0-0.1","czl1ztupjr","many_one","0","indirect_first","0","le05ij22","1","25","1","1","3","1","","0","1","0","null","","","<div style=""font-size:60px;"">+</div>","null","","","","","","","","","",""
"","html-keyboard-response","95","519544","0.0-8.0-1.1","czl1ztupjr","many_one","0","indirect_first","0","le05ij22","1","25","1","1","3","1","","0","1","0","null","","","<img src = 'category4/CS8.png' width = '100%;'>","null","","","","","","","","","",""
"","html-keyboard-response","96","519798","0.0-8.0-2.1","czl1ztupjr","many_one","0","indirect_first","0","le05ij22","1","25","1","1","3","1","","0","1","0","null","","","<img src = 'targets/11.png' width = '100%;'>","null","","","","","","","","","",""
"","html-keyboard-response","97","520764","0.0-8.0-3.1","czl1ztupjr","many_one","0","indirect_first","0","le05ij22","1","25","1","1","3","1","","0","1","0","962","","","<img src = 'targets/mask.png' width = '100%;'>","68","neg","CS","CS","4","category4/CS8.png","targets/11.png","0","indirect","1",""
"","html-keyboard-response","98","522266","0.0-8.0-0.2","czl1ztupjr","many_one","0","indirect_first","0","le05ij22","1","25","1","1","3","1","","0","1","0","null","","","<div style=""font-size:60px;"">+</div>","null","","","","","","","","","",""
"","html-keyboard-response","99","522360","0.0-8.0-1.2","czl1ztupjr","many_one","0","indirect_first","0","le05ij22","1","25","1","1","3","1","","0","1","0","null","","","<img src = 'category3/CS6.png' width = '100%;'>","null","","","","","","","","","",""
"","html-keyboard-response","100","522613","0.0-8.0-2.2","czl1ztupjr","many_one","0","indirect_first","0","le05ij22","1","25","1","1","3","1","","0","1","0","null","","","<img src = 'targets/44.png' width = '100%;'>","null","","","","","","","","","",""
"","html-keyboard-response","101","525695","0.0-8.0-3.2","czl1ztupjr","many_one","0","indirect_first","0","le05ij22","1","25","1","1","3","1","","0","1","0","3081","","","<img src = 'targets/mask.png' width = '100%;'>","68","neg","CS","CS","3","category3/CS6.png","targets/44.png","0","indirect","2",""
"","html-keyboard-response","102","527198","0.0-8.0-0.3","czl1ztupjr","many_one","0","indirect_first","0","le05ij22","1","25","1","1","3","1","","0","1","0","null","","","<div style=""font-size:60px;"">+</div>","null","","","","","","","","","",""
"","html-keyboard-response","103","527290","0.0-8.0-1.3","czl1ztupjr","many_one","0","indirect_first","0","le05ij22","1","25","1","1","3","1","","0","1","0","null","","","<img src = 'category2/CS8.png' width = '100%;'>","null","","","","","","","","","",""
"","html-keyboard-response","104","527544","0.0-8.0-2.3","czl1ztupjr","many_one","0","indirect_first","0","le05ij22","1","25","1","1","3","1","","0","1","0","null","","","<img src = 'targets/28.png' width = '100%;'>","null","","","","","","","","","",""
"","html-keyboard-response","105","528268","0.0-8.0-3.3","czl1ztupjr","many_one","0","indirect_first","0","le05ij22","1","25","1","1","3","1","","0","1","0","721","","","<img src = 'targets/mask.png' width = '100%;'>","75","pos","CS","CS","2","category2/CS8.png","targets/28.png","1","indirect","3",""
"","html-keyboard-response","106","529771","0.0-8.0-0.4","czl1ztupjr","many_one","0","indirect_first","0","le05ij22","1","25","1","1","3","1","","0","1","0","null","","","<div style=""font-size:60px;"">+</div>","null","","","","","","","","","",""
"","html-keyboard-response","107","529863","0.0-8.0-1.4","czl1ztupjr","many_one","0","indirect_first","0","le05ij22","1","25","1","1","3","1","","0","1","0","null","","","<img src = 'category2/CS9.png' width = '100%;'>","null","","","","","","","","","",""
"","html-keyboard-response","108","530117","0.0-8.0-2.4","czl1ztupjr","many_one","0","indirect_first","0","le05ij22","1","25","1","1","3","1","","0","1","0","null","","","<img src = 'targets/1.png' width = '100%;'>","null","","","","","","","","","",""
"","html-keyboard-response","109","533379","0.0-8.0-3.4","czl1ztupjr","many_one","0","indirect_first","0","le05ij22","1","25","1","1","3","1","","0","1","0","3257","","","<img src = 'targets/mask.png' width = '100%;'>","75","pos","CS","CS","2","category2/CS9.png","targets/1.png","1","indirect","4",""
"","html-keyboard-response","110","534880","0.0-8.0-0.5","czl1ztupjr","many_one","0","indirect_first","0","le05ij22","1","25","1","1","3","1","","0","1","0","null","","","<div style=""font-size:60px;"">+</div>","null","","","","","","","","","",""
"","html-keyboard-response","111","534972","0.0-8.0-1.5","czl1ztupjr","many_one","0","indirect_first","0","le05ij22","1","25","1","1","3","1","","0","1","0","null","","","<img src = 'category3/CS8.png' width = '100%;'>","null","","","","","","","","","",""
"","html-keyboard-response","112","535226","0.0-8.0-2.5","czl1ztupjr","many_one","0","indirect_first","0","le05ij22","1","25","1","1","3","1","","0","1","0","null","","","<img src = 'targets/26.png' width = '100%;'>","null","","","","","","","","","",""
"","html-keyboard-response","113","536655","0.0-8.0-3.5","czl1ztupjr","many_one","0","indirect_first","0","le05ij22","1","25","1","1","3","1","","0","1","0","1429","","","<img src = 'targets/mask.png' width = '100%;'>","68","neg","CS","CS","3","category3/CS8.png","targets/26.png","0","indirect","5",""
"","html-keyboard-response","114","538159","0.0-8.0-0.6","czl1ztupjr","many_one","0","indirect_first","0","le05ij22","1","25","1","1","3","1","","0","1","0","null","","","<div style=""font-size:60px;"">+</div>","null","","","","","","","","","",""
"","html-keyboard-response","115","538250","0.0-8.0-1.6","czl1ztupjr","many_one","0","indirect_first","0","le05ij22","1","25","1","1","3","1","","0","1","0","null","","","<img src = 'category3/CS4.png' width = '100%;'>","null","","","","","","","","","",""
"","html-keyboard-response","116","538503","0.0-8.0-2.6","czl1ztupjr","many_one","0","indirect_first","0","le05ij22","1","25","1","1","3","1","","0","1","0","null","","","<img src = 'targets/21.png' width = '100%;'>","null","","","","","","","","","",""
"","html-keyboard-response","117","541131","0.0-8.0-3.6","czl1ztupjr","many_one","0","indirect_first","0","le05ij22","1","25","1","1","3","1","","0","1","0","2626","","","<img src = 'targets/mask.png' width = '100%;'>","68","neg","CS","CS","3","category3/CS4.png","targets/21.png","0","indirect","6",""
"","html-keyboard-response","118","542636","0.0-8.0-0.7","czl1ztupjr","many_one","0","indirect_first","0","le05ij22","1","25","1","1","3","1","","0","1","0","null","","","<div style=""font-size:60px;"">+</div>","null","","","","","","","","","",""
"","html-keyboard-response","119","542729","0.0-8.0-1.7","czl1ztupjr","many_one","0","indirect_first","0","le05ij22","1","25","1","1","3","1","","0","1","0","null","","","<img src = 'category4/CS6.png' width = '100%;'>","null","","","","","","","","","",""
"","html-keyboard-response","120","542983","0.0-8.0-2.7","czl1ztupjr","many_one","0","indirect_first","0","le05ij22","1","25","1","1","3","1","","0","1","0","null","","","<img src = 'targets/24.png' width = '100%;'>","null","","","","","","","","","",""
"","html-keyboard-response","121","543834","0.0-8.0-3.7","czl1ztupjr","many_one","0","indirect_first","0","le05ij22","1","25","1","1","3","1","","0","1","0","846","","","<img src = 'targets/mask.png' width = '100%;'>","68","neg","CS","CS","4","category4/CS6.png","targets/24.png","0","indirect","7",""
"","html-keyboard-response","122","545337","0.0-8.0-0.8","czl1ztupjr","many_one","0","indirect_first","0","le05ij22","1","25","1","1","3","1","","0","1","0","null","","","<div style=""font-size:60px;"">+</div>","null","","","","","","","","","",""
"","html-keyboard-response","123","545429","0.0-8.0-1.8","czl1ztupjr","many_one","0","indirect_first","0","le05ij22","1","25","1","1","3","1","","0","1","0","null","","","<img src = 'category2/CS7.png' width = '100%;'>","null","","","","","","","","","",""
"","html-keyboard-response","124","545682","0.0-8.0-2.8","czl1ztupjr","many_one","0","indirect_first","0","le05ij22","1","25","1","1","3","1","","0","1","0","null","","","<img src = 'targets/31.png' width = '100%;'>","null","","","","","","","","","",""
"","html-keyboard-response","125","547005","0.0-8.0-3.8","czl1ztupjr","many_one","0","indirect_first","0","le05ij22","1","25","1","1","3","1","","0","1","0","1322","","","<img src = 'targets/mask.png' width = '100%;'>","68","pos","CS","CS","2","category2/CS7.png","targets/31.png","0","indirect","8",""
"","html-keyboard-response","126","548508","0.0-8.0-0.9","czl1ztupjr","many_one","0","indirect_first","0","le05ij22","1","25","1","1","3","1","","0","1","0","null","","","<div style=""font-size:60px;"">+</div>","null","","","","","","","","","",""
"","html-keyboard-response","127","548600","0.0-8.0-1.9","czl1ztupjr","many_one","0","indirect_first","0","le05ij22","1","25","1","1","3","1","","0","1","0","null","","","<img src = 'category2/CS4.png' width = '100%;'>","null","","","","","","","","","",""
"","html-keyboard-response","128","548853","0.0-8.0-2.9","czl1ztupjr","many_one","0","indirect_first","0","le05ij22","1","25","1","1","3","1","","0","1","0","null","","","<img src = 'targets/29.png' width = '100%;'>","null","","","","","","","","","",""
"","html-keyboard-response","129","550835","0.0-8.0-3.9","czl1ztupjr","many_one","0","indirect_first","0","le05ij22","1","25","1","1","3","1","","0","1","0","1979","","","<img src = 'targets/mask.png' width = '100%;'>","68","pos","GS","GSold","2","category2/CS4.png","targets/29.png","0","indirect","9",""
"","html-keyboard-response","130","552336","0.0-8.0-0.10","czl1ztupjr","many_one","0","indirect_first","0","le05ij22","1","25","1","1","3","1","","0","1","0","null","","","<div style=""font-size:60px;"">+</div>","null","","","","","","","","","",""
"","html-keyboard-response","131","552429","0.0-8.0-1.10","czl1ztupjr","many_one","0","indirect_first","0","le05ij22","1","25","1","1","3","1","","0","1","0","null","","","<img src = 'category2/CS2.png' width = '100%;'>","null","","","","","","","","","",""
"","html-keyboard-response","132","552682","0.0-8.0-2.10","czl1ztupjr","many_one","0","indirect_first","0","le05ij22","1","25","1","1","3","1","","0","1","0","null","","","<img src = 'targets/34.png' width = '100%;'>","null","","","","","","","","","",""
"","html-keyboard-response","133","555451","0.0-8.0-3.10","czl1ztupjr","many_one","0","indirect_first","0","le05ij22","1","25","1","1","3","1","","0","1","0","2767","","","<img src = 'targets/mask.png' width = '100%;'>","68","pos","CS","CS","2","category2/CS2.png","targets/34.png","0","indirect","10",""
"","html-keyboard-response","134","556954","0.0-8.0-0.11","czl1ztupjr","many_one","0","indirect_first","0","le05ij22","1","25","1","1","3","1","","0","1","0","null","","","<div style=""font-size:60px;"">+</div>","null","","","","","","","","","",""
"","html-keyboard-response","135","557047","0.0-8.0-1.11","czl1ztupjr","many_one","0","indirect_first","0","le05ij22","1","25","1","1","3","1","","0","1","0","null","","","<img src = 'category4/CS3.png' width = '100%;'>","null","","","","","","","","","",""
"","html-keyboard-response","136","557300","0.0-8.0-2.11","czl1ztupjr","many_one","0","indirect_first","0","le05ij22","1","25","1","1","3","1","","0","1","0","null","","","<img src = 'targets/22.png' width = '100%;'>","null","","","","","","","","","",""
"","html-keyboard-response","137","558099","0.0-8.0-3.11","czl1ztupjr","many_one","0","indirect_first","0","le05ij22","1","25","1","1","3","1","","0","1","0","797","","","<img src = 'targets/mask.png' width = '100%;'>","68","neg","CS","CS","4","category4/CS3.png","targets/22.png","0","indirect","11",""
"","html-keyboard-response","138","559603","0.0-8.0-0.12","czl1ztupjr","many_one","0","indirect_first","0","le05ij22","1","25","1","1","3","1","","0","1","0","null","","","<div style=""font-size:60px;"">+</div>","null","","","","","","","","","",""
"","html-keyboard-response","139","559695","0.0-8.0-1.12","czl1ztupjr","many_one","0","indirect_first","0","le05ij22","1","25","1","1","3","1","","0","1","0","null","","","<img src = 'category4/CS4.png' width = '100%;'>","null","","","","","","","","","",""
"","html-keyboard-response","140","559948","0.0-8.0-2.12","czl1ztupjr","many_one","0","indirect_first","0","le05ij22","1","25","1","1","3","1","","0","1","0","null","","","<img src = 'targets/39.png' width = '100%;'>","null","","","","","","","","","",""
"","html-keyboard-response","141","561279","0.0-8.0-3.12","czl1ztupjr","many_one","0","indirect_first","0","le05ij22","1","25","1","1","3","1","","0","1","0","1329","","","<img src = 'targets/mask.png' width = '100%;'>","68","neg","GS","GSold","4","category4/CS4.png","targets/39.png","0","indirect","12",""
"","html-keyboard-response","142","562781","0.0-8.0-0.13","czl1ztupjr","many_one","0","indirect_first","0","le05ij22","1","25","1","1","3","1","","0","1","0","null","","","<div style=""font-size:60px;"">+</div>","null","","","","","","","","","",""
"","html-keyboard-response","143","562875","0.0-8.0-1.13","czl1ztupjr","many_one","0","indirect_first","0","le05ij22","1","25","1","1","3","1","","0","1","0","null","","","<img src = 'category2/CS1.png' width = '100%;'>","null","","","","","","","","","",""
"","html-keyboard-response","144","563128","0.0-8.0-2.13","czl1ztupjr","many_one","0","indirect_first","0","le05ij22","1","25","1","1","3","1","","0","1","0","null","","","<img src = 'targets/27.png' width = '100%;'>","null","","","","","","","","","",""
"","html-keyboard-response","145","565478","0.0-8.0-3.13","czl1ztupjr","many_one","0","indirect_first","0","le05ij22","1","25","1","1","3","1","","0","1","0","2349","","","<img src = 'targets/mask.png' width = '100%;'>","75","pos","CS","CS","2","category2/CS1.png","targets/27.png","1","indirect","13",""
"","html-keyboard-response","146","566982","0.0-8.0-0.14","czl1ztupjr","many_one","0","indirect_first","0","le05ij22","1","25","1","1","3","1","","0","1","0","null","","","<div style=""font-size:60px;"">+</div>","null","","","","","","","","","",""
"","html-keyboard-response","147","567074","0.0-8.0-1.14","czl1ztupjr","many_one","0","indirect_first","0","le05ij22","1","25","1","1","3","1","","0","1","0","null","","","<img src = 'category1/CS10.png' width = '100%;'>","null","","","","","","","","","",""
"","html-keyboard-response","148","567326","0.0-8.0-2.14","czl1ztupjr","many_one","0","indirect_first","0","le05ij22","1","25","1","1","3","1","","0","1","0","null","","","<img src = 'targets/20.png' width = '100%;'>","null","","","","","","","","","",""
"","html-keyboard-response","149","568640","0.0-8.0-3.14","czl1ztupjr","many_one","0","indirect_first","0","le05ij22","1","25","1","1","3","1","","0","1","0","1312","","","<img src = 'targets/mask.png' width = '100%;'>","75","pos","CS","CS","1","category1/CS10.png","targets/20.png","1","indirect","14",""
"","html-keyboard-response","150","570143","0.0-8.0-0.15","czl1ztupjr","many_one","0","indirect_first","0","le05ij22","1","25","1","1","3","1","","0","1","0","null","","","<div style=""font-size:60px;"">+</div>","null","","","","","","","","","",""
"","html-keyboard-response","151","570237","0.0-8.0-1.15","czl1ztupjr","many_one","0","indirect_first","0","le05ij22","1","25","1","1","3","1","","0","1","0","null","","","<img src = 'category3/CS2.png' width = '100%;'>","null","","","","","","","","","",""
"","html-keyboard-response","152","570492","0.0-8.0-2.15","czl1ztupjr","many_one","0","indirect_first","0","le05ij22","1","25","1","1","3","1","","0","1","0","null","","","<img src = 'targets/7.png' width = '100%;'>","null","","","","","","","","","",""
"","html-keyboard-response","153","576349","0.0-8.0-3.15","czl1ztupjr","many_one","0","indirect_first","0","le05ij22","1","25","1","1","3","1","","0","1","0","5854","","","<img src = 'targets/mask.png' width = '100%;'>","68","neg","CS","CS","3","category3/CS2.png","targets/7.png","0","indirect","15",""
"","html-keyboard-response","154","577850","0.0-8.0-0.16","czl1ztupjr","many_one","0","indirect_first","0","le05ij22","1","25","1","1","3","1","","0","1","0","null","","","<div style=""font-size:60px;"">+</div>","null","","","","","","","","","",""
"","html-keyboard-response","155","577943","0.0-8.0-1.16","czl1ztupjr","many_one","0","indirect_first","0","le05ij22","1","25","1","1","3","1","","0","1","0","null","","","<img src = 'category1/CS6.png' width = '100%;'>","null","","","","","","","","","",""
"","html-keyboard-response","156","578195","0.0-8.0-2.16","czl1ztupjr","many_one","0","indirect_first","0","le05ij22","1","25","1","1","3","1","","0","1","0","null","","","<img src = 'targets/6.png' width = '100%;'>","null","","","","","","","","","",""
"","html-keyboard-response","157","581974","0.0-8.0-3.16","czl1ztupjr","many_one","0","indirect_first","0","le05ij22","1","25","1","1","3","1","","0","1","0","3776","","","<img src = 'targets/mask.png' width = '100%;'>","68","pos","CS","CS","1","category1/CS6.png","targets/6.png","0","indirect","16",""
"","html-keyboard-response","158","583476","0.0-8.0-0.17","czl1ztupjr","many_one","0","indirect_first","0","le05ij22","1","25","1","1","3","1","","0","1","0","null","","","<div style=""font-size:60px;"">+</div>","null","","","","","","","","","",""
"","html-keyboard-response","159","583569","0.0-8.0-1.17","czl1ztupjr","many_one","0","indirect_first","0","le05ij22","1","25","1","1","3","1","","0","1","0","null","","","<img src = 'category1/CS9.png' width = '100%;'>","null","","","","","","","","","",""
"","html-keyboard-response","160","583822","0.0-8.0-2.17","czl1ztupjr","many_one","0","indirect_first","0","le05ij22","1","25","1","1","3","1","","0","1","0","null","","","<img src = 'targets/19.png' width = '100%;'>","null","","","","","","","","","",""
"","html-keyboard-response","161","585075","0.0-8.0-3.17","czl1ztupjr","many_one","0","indirect_first","0","le05ij22","1","25","1","1","3","1","","0","1","0","1250","","","<img src = 'targets/mask.png' width = '100%;'>","75","pos","CS","CS","1","category1/CS9.png","targets/19.png","1","indirect","17",""
"","html-keyboard-response","162","586577","0.0-8.0-0.18","czl1ztupjr","many_one","0","indirect_first","0","le05ij22","1","25","1","1","3","1","","0","1","0","null","","","<div style=""font-size:60px;"">+</div>","null","","","","","","","","","",""
"","html-keyboard-response","163","586669","0.0-8.0-1.18","czl1ztupjr","many_one","0","indirect_first","0","le05ij22","1","25","1","1","3","1","","0","1","0","null","","","<img src = 'category4/CS9.png' width = '100%;'>","null","","","","","","","","","",""
"","html-keyboard-response","164","586922","0.0-8.0-2.18","czl1ztupjr","many_one","0","indirect_first","0","le05ij22","1","25","1","1","3","1","","0","1","0","null","","","<img src = 'targets/16.png' width = '100%;'>","null","","","","","","","","","",""
"","html-keyboard-response","165","589465","0.0-8.0-3.18","czl1ztupjr","many_one","0","indirect_first","0","le05ij22","1","25","1","1","3","1","","0","1","0","2541","","","<img src = 'targets/mask.png' width = '100%;'>","68","neg","CS","CS","4","category4/CS9.png","targets/16.png","0","indirect","18",""
"","html-keyboard-response","166","590968","0.0-8.0-0.19","czl1ztupjr","many_one","0","indirect_first","0","le05ij22","1","25","1","1","3","1","","0","1","0","null","","","<div style=""font-size:60px;"">+</div>","null","","","","","","","","","",""
"","html-keyboard-response","167","591060","0.0-8.0-1.19","czl1ztupjr","many_one","0","indirect_first","0","le05ij22","1","25","1","1","3","1","","0","1","0","null","","","<img src = 'category4/CS5.png' width = '100%;'>","null","","","","","","","","","",""
"","html-keyboard-response","168","591313","0.0-8.0-2.19","czl1ztupjr","many_one","0","indirect_first","0","le05ij22","1","25","1","1","3","1","","0","1","0","null","","","<img src = 'targets/43.png' width = '100%;'>","null","","","","","","","","","",""
"","html-keyboard-response","169","591816","0.0-8.0-3.19","czl1ztupjr","many_one","0","indirect_first","0","le05ij22","1","25","1","1","3","1","","0","1","0","500","","","<img src = 'targets/mask.png' width = '100%;'>","75","neg","GS","GSold","4","category4/CS5.png","targets/43.png","1","indirect","19",""
"","html-keyboard-response","170","593319","0.0-8.0-0.20","czl1ztupjr","many_one","0","indirect_first","0","le05ij22","1","25","1","1","3","1","","0","1","0","null","","","<div style=""font-size:60px;"">+</div>","null","","","","","","","","","",""
"","html-keyboard-response","171","593413","0.0-8.0-1.20","czl1ztupjr","many_one","0","indirect_first","0","le05ij22","1","25","1","1","3","1","","0","1","0","null","","","<img src = 'category3/CS5.png' width = '100%;'>","null","","","","","","","","","",""
"","html-keyboard-response","172","593665","0.0-8.0-2.20","czl1ztupjr","many_one","0","indirect_first","0","le05ij22","1","25","1","1","3","1","","0","1","0","null","","","<img src = 'targets/32.png' width = '100%;'>","null","","","","","","","","","",""
"","html-keyboard-response","173","595770","0.0-8.0-3.20","czl1ztupjr","many_one","0","indirect_first","0","le05ij22","1","25","1","1","3","1","","0","1","0","2104","","","<img src = 'targets/mask.png' width = '100%;'>","68","neg","CS","CS","3","category3/CS5.png","targets/32.png","0","indirect","20",""
"","html-keyboard-response","174","597273","0.0-8.0-0.21","czl1ztupjr","many_one","0","indirect_first","0","le05ij22","1","25","1","1","3","1","","0","1","0","null","","","<div style=""font-size:60px;"">+</div>","null","","","","","","","","","",""
"","html-keyboard-response","175","597365","0.0-8.0-1.21","czl1ztupjr","many_one","0","indirect_first","0","le05ij22","1","25","1","1","3","1","","0","1","0","null","","","<img src = 'category1/CS3.png' width = '100%;'>","null","","","","","","","","","",""
"","html-keyboard-response","176","597618","0.0-8.0-2.21","czl1ztupjr","many_one","0","indirect_first","0","le05ij22","1","25","1","1","3","1","","0","1","0","null","","","<img src = 'targets/14.png' width = '100%;'>","null","","","","","","","","","",""
"","html-keyboard-response","177","601673","0.0-8.0-3.21","czl1ztupjr","many_one","0","indirect_first","0","le05ij22","1","25","1","1","3","1","","0","1","0","4053","","","<img src = 'targets/mask.png' width = '100%;'>","75","pos","CS","CS","1","category1/CS3.png","targets/14.png","1","indirect","21",""
"","html-keyboard-response","178","603175","0.0-8.0-0.22","czl1ztupjr","many_one","0","indirect_first","0","le05ij22","1","25","1","1","3","1","","0","1","0","null","","","<div style=""font-size:60px;"">+</div>","null","","","","","","","","","",""
"","html-keyboard-response","179","603268","0.0-8.0-1.22","czl1ztupjr","many_one","0","indirect_first","0","le05ij22","1","25","1","1","3","1","","0","1","0","null","","","<img src = 'category4/CS1.png' width = '100%;'>","null","","","","","","","","","",""
"","html-keyboard-response","180","603522","0.0-8.0-2.22","czl1ztupjr","many_one","0","indirect_first","0","le05ij22","1","25","1","1","3","1","","0","1","0","null","","","<img src = 'targets/36.png' width = '100%;'>","null","","","","","","","","","",""
"","html-keyboard-response","181","606239","0.0-8.0-3.22","czl1ztupjr","many_one","0","indirect_first","0","le05ij22","1","25","1","1","3","1","","0","1","0","2715","","","<img src = 'targets/mask.png' width = '100%;'>","68","neg","GS","GSold","4","category4/CS1.png","targets/36.png","0","indirect","22",""
"","html-keyboard-response","182","607741","0.0-8.0-0.23","czl1ztupjr","many_one","0","indirect_first","0","le05ij22","1","25","1","1","3","1","","0","1","0","null","","","<div style=""font-size:60px;"">+</div>","null","","","","","","","","","",""
"","html-keyboard-response","183","607833","0.0-8.0-1.23","czl1ztupjr","many_one","0","indirect_first","0","le05ij22","1","25","1","1","3","1","","0","1","0","null","","","<img src = 'category4/CS7.png' width = '100%;'>","null","","","","","","","","","",""
"","html-keyboard-response","184","608086","0.0-8.0-2.23","czl1ztupjr","many_one","0","indirect_first","0","le05ij22","1","25","1","1","3","1","","0","1","0","null","","","<img src = 'targets/42.png' width = '100%;'>","null","","","","","","","","","",""
"","html-keyboard-response","185","609101","0.0-8.0-3.23","czl1ztupjr","many_one","0","indirect_first","0","le05ij22","1","25","1","1","3","1","","0","1","0","1013","","","<img src = 'targets/mask.png' width = '100%;'>","68","neg","CS","CS","4","category4/CS7.png","targets/42.png","0","indirect","23",""
"","survey-html-form","186","612558","0.0-9.0","czl1ztupjr","many_one","0","indirect_first","0","le05ij22","1","25","1","1","3","1","","0","1","0","2954","","{}","","","","","","","","","","","",""
"","html-keyboard-response","187","615562","0.0-10.0-0.0","czl1ztupjr","many_one","0","indirect_first","0","le05ij22","1","25","1","1","3","1","","0","1","0","null","","","<div style=""font-size:60px;"">+</div>","null","","","","","","","","","",""
"","html-keyboard-response","188","615656","0.0-10.0-1.0","czl1ztupjr","many_one","0","indirect_first","0","le05ij22","1","25","1","1","3","1","","0","1","0","null","","","<img src = 'category2/GS3.png' width = '100%;'>","null","","","","","","","","","",""
"","html-keyboard-response","189","615908","0.0-10.0-2.0","czl1ztupjr","many_one","0","indirect_first","0","le05ij22","1","25","1","1","3","1","","0","1","0","null","","","<img src = 'targets/48.png' width = '100%;'>","null","","","","","","","","","",""
"","html-keyboard-response","190","617186","0.0-10.0-3.0","czl1ztupjr","many_one","0","indirect_first","0","le05ij22","1","25","1","1","3","1","","0","1","0","1276","","","<img src = 'targets/mask.png' width = '100%;'>","75","pos","GS","GSnew","2","category2/GS3.png","targets/48.png","1","indirect","24",""
"","html-keyboard-response","191","618689","0.0-10.0-0.1","czl1ztupjr","many_one","0","indirect_first","0","le05ij22","1","25","1","1","3","1","","0","1","0","null","","","<div style=""font-size:60px;"">+</div>","null","","","","","","","","","",""
"","html-keyboard-response","192","618783","0.0-10.0-1.1","czl1ztupjr","many_one","0","indirect_first","0","le05ij22","1","25","1","1","3","1","","0","1","0","null","","","<img src = 'category2/GS1.png' width = '100%;'>","null","","","","","","","","","",""
"","html-keyboard-response","193","619036","0.0-10.0-2.1","czl1ztupjr","many_one","0","indirect_first","0","le05ij22","1","25","1","1","3","1","","0","1","0","null","","","<img src = 'targets/8.png' width = '100%;'>","null","","","","","","","","","",""
"","html-keyboard-response","194","620266","0.0-10.0-3.1","czl1ztupjr","many_one","0","indirect_first","0","le05ij22","1","25","1","1","3","1","","0","1","0","1227","","","<img src = 'targets/mask.png' width = '100%;'>","75","pos","GS","GSnew","2","category2/GS1.png","targets/8.png","1","indirect","25",""
"","html-keyboard-response","195","621769","0.0-10.0-0.2","czl1ztupjr","many_one","0","indirect_first","0","le05ij22","1","25","1","1","3","1","","0","1","0","null","","","<div style=""font-size:60px;"">+</div>","null","","","","","","","","","",""
"","html-keyboard-response","196","621862","0.0-10.0-1.2","czl1ztupjr","many_one","0","indirect_first","0","le05ij22","1","25","1","1","3","1","","0","1","0","null","","","<img src = 'category3/GS3.png' width = '100%;'>","null","","","","","","","","","",""
"","html-keyboard-response","197","622115","0.0-10.0-2.2","czl1ztupjr","many_one","0","indirect_first","0","le05ij22","1","25","1","1","3","1","","0","1","0","null","","","<img src = 'targets/35.png' width = '100%;'>","null","","","","","","","","","",""
"","html-keyboard-response","198","625649","0.0-10.0-3.2","czl1ztupjr","many_one","0","indirect_first","0","le05ij22","1","25","1","1","3","1","","0","1","0","3532","","","<img src = 'targets/mask.png' width = '100%;'>","68","neg","GS","GSnew","3","category3/GS3.png","targets/35.png","0","indirect","26",""
"","html-keyboard-response","199","627152","0.0-10.0-0.3","czl1ztupjr","many_one","0","indirect_first","0","le05ij22","1","25","1","1","3","1","","0","1","0","null","","","<div style=""font-size:60px;"">+</div>","null","","","","","","","","","",""
"","html-keyboard-response","200","627245","0.0-10.0-1.3","czl1ztupjr","many_one","0","indirect_first","0","le05ij22","1","25","1","1","3","1","","0","1","0","null","","","<img src = 'category2/men.png' width = '100%;'>","null","","","","","","","","","",""
"","html-keyboard-response","201","627499","0.0-10.0-2.3","czl1ztupjr","many_one","0","indirect_first","0","le05ij22","1","25","1","1","3","1","","0","1","0","null","","","<img src = 'targets/37.png' width = '100%;'>","null","","","","","","","","","",""
"","html-keyboard-response","202","635328","0.0-10.0-3.3","czl1ztupjr","many_one","0","indirect_first","0","le05ij22","1","25","1","1","3","1","","0","1","0","7826","","","<img src = 'targets/mask.png' width = '100%;'>","68","pos","GS","abstract","2","category2/men.png","targets/37.png","0","indirect","27",""
"","html-keyboard-response","203","636831","0.0-10.0-0.4","czl1ztupjr","many_one","0","indirect_first","0","le05ij22","1","25","1","1","3","1","","0","1","0","null","","","<div style=""font-size:60px;"">+</div>","null","","","","","","","","","",""
"","html-keyboard-response","204","636924","0.0-10.0-1.4","czl1ztupjr","many_one","0","indirect_first","0","le05ij22","1","25","1","1","3","1","","0","1","0","null","","","<img src = 'category2/CS3.png' width = '100%;'>","null","","","","","","","","","",""
"","html-keyboard-response","205","637176","0.0-10.0-2.4","czl1ztupjr","many_one","0","indirect_first","0","le05ij22","1","25","1","1","3","1","","0","1","0","null","","","<img src = 'targets/33.png' width = '100%;'>","null","","","","","","","","","",""
"","html-keyboard-response","206","638240","0.0-10.0-3.4","czl1ztupjr","many_one","0","indirect_first","0","le05ij22","1","25","1","1","3","1","","0","1","0","1062","","","<img src = 'targets/mask.png' width = '100%;'>","75","pos","GS","GSold","2","category2/CS3.png","targets/33.png","1","indirect","28",""
"","html-keyboard-response","207","639743","0.0-10.0-0.5","czl1ztupjr","many_one","0","indirect_first","0","le05ij22","1","25","1","1","3","1","","0","1","0","null","","","<div style=""font-size:60px;"">+</div>","null","","","","","","","","","",""
"","html-keyboard-response","208","639836","0.0-10.0-1.5","czl1ztupjr","many_one","0","indirect_first","0","le05ij22","1","25","1","1","3","1","","0","1","0","null","","","<img src = 'category1/GS2.png' width = '100%;'>","null","","","","","","","","","",""
"","html-keyboard-response","209","640089","0.0-10.0-2.5","czl1ztupjr","many_one","0","indirect_first","0","le05ij22","1","25","1","1","3","1","","0","1","0","null","","","<img src = 'targets/17.png' width = '100%;'>","null","","","","","","","","","",""
"","html-keyboard-response","210","645579","0.0-10.0-3.5","czl1ztupjr","many_one","0","indirect_first","0","le05ij22","1","25","1","1","3","1","","0","1","0","5489","","","<img src = 'targets/mask.png' width = '100%;'>","68","pos","GS","GSnew","1","category1/GS2.png","targets/17.png","0","indirect","29",""
"","html-keyboard-response","211","647082","0.0-10.0-0.6","czl1ztupjr","many_one","0","indirect_first","0","le05ij22","1","25","1","1","3","1","","0","1","0","null","","","<div style=""font-size:60px;"">+</div>","null","","","","","","","","","",""
"","html-keyboard-response","212","647175","0.0-10.0-1.6","czl1ztupjr","many_one","0","indirect_first","0","le05ij22","1","25","1","1","3","1","","0","1","0","null","","","<img src = 'category4/GS3.png' width = '100%;'>","null","","","","","","","","","",""
"","html-keyboard-response","213","647428","0.0-10.0-2.6","czl1ztupjr","many_one","0","indirect_first","0","le05ij22","1","25","1","1","3","1","","0","1","0","null","","","<img src = 'targets/38.png' width = '100%;'>","null","","","","","","","","","",""
"","html-keyboard-response","214","648605","0.0-10.0-3.6","czl1ztupjr","many_one","0","indirect_first","0","le05ij22","1","25","1","1","3","1","","0","1","0","1174","","","<img src = 'targets/mask.png' width = '100%;'>","75","neg","GS","GSnew","4","category4/GS3.png","targets/38.png","1","indirect","30",""
"","html-keyboard-response","215","650107","0.0-10.0-0.7","czl1ztupjr","many_one","0","indirect_first","0","le05ij22","1","25","1","1","3","1","","0","1","0","null","","","<div style=""font-size:60px;"">+</div>","null","","","","","","","","","",""
"","html-keyboard-response","216","650199","0.0-10.0-1.7","czl1ztupjr","many_one","0","indirect_first","0","le05ij22","1","25","1","1","3","1","","0","1","0","null","","","<img src = 'category3/GS2.png' width = '100%;'>","null","","","","","","","","","",""
"","html-keyboard-response","217","650451","0.0-10.0-2.7","czl1ztupjr","many_one","0","indirect_first","0","le05ij22","1","25","1","1","3","1","","0","1","0","null","","","<img src = 'targets/30.png' width = '100%;'>","null","","","","","","","","","",""
"","html-keyboard-response","218","651799","0.0-10.0-3.7","czl1ztupjr","many_one","0","indirect_first","0","le05ij22","1","25","1","1","3","1","","0","1","0","1345","","","<img src = 'targets/mask.png' width = '100%;'>","75","neg","GS","GSnew","3","category3/GS2.png","targets/30.png","1","indirect","31",""
"","html-keyboard-response","219","653306","0.0-10.0-0.8","czl1ztupjr","many_one","0","indirect_first","0","le05ij22","1","25","1","1","3","1","","0","1","0","null","","","<div style=""font-size:60px;"">+</div>","null","","","","","","","","","",""
"","html-keyboard-response","220","653399","0.0-10.0-1.8","czl1ztupjr","many_one","0","indirect_first","0","le05ij22","1","25","1","1","3","1","","0","1","0","null","","","<img src = 'category1/ma.png' width = '100%;'>","null","","","","","","","","","",""
"","html-keyboard-response","221","653652","0.0-10.0-2.8","czl1ztupjr","many_one","0","indirect_first","0","le05ij22","1","25","1","1","3","1","","0","1","0","null","","","<img src = 'targets/46.png' width = '100%;'>","null","","","","","","","","","",""
"","html-keyboard-response","222","655478","0.0-10.0-3.8","czl1ztupjr","many_one","0","indirect_first","0","le05ij22","1","25","1","1","3","1","","0","1","0","1824","","","<img src = 'targets/mask.png' width = '100%;'>","68","pos","GS","abstract","1","category1/ma.png","targets/46.png","0","indirect","32",""
"","html-keyboard-response","223","656981","0.0-10.0-0.9","czl1ztupjr","many_one","0","indirect_first","0","le05ij22","1","25","1","1","3","1","","0","1","0","null","","","<div style=""font-size:60px;"">+</div>","null","","","","","","","","","",""
"","html-keyboard-response","224","657074","0.0-10.0-1.9","czl1ztupjr","many_one","0","indirect_first","0","le05ij22","1","25","1","1","3","1","","0","1","0","null","","","<img src = 'category3/wang.png' width = '100%;'>","null","","","","","","","","","",""
"","html-keyboard-response","225","657327","0.0-10.0-2.9","czl1ztupjr","many_one","0","indirect_first","0","le05ij22","1","25","1","1","3","1","","0","1","0","null","","","<img src = 'targets/5.png' width = '100%;'>","null","","","","","","","","","",""
"","html-keyboard-response","226","660791","0.0-10.0-3.9","czl1ztupjr","many_one","0","indirect_first","0","le05ij22","1","25","1","1","3","1","","0","1","0","3461","","","<img src = 'targets/mask.png' width = '100%;'>","68","neg","GS","abstract","3","category3/wang.png","targets/5.png","0","indirect","33",""
"","html-keyboard-response","227","662294","0.0-10.0-0.10","czl1ztupjr","many_one","0","indirect_first","0","le05ij22","1","25","1","1","3","1","","0","1","0","null","","","<div style=""font-size:60px;"">+</div>","null","","","","","","","","","",""
"","html-keyboard-response","228","662386","0.0-10.0-1.10","czl1ztupjr","many_one","0","indirect_first","0","le05ij22","1","25","1","1","3","1","","0","1","0","null","","","<img src = 'category1/CS2.png' width = '100%;'>","null","","","","","","","","","",""
"","html-keyboard-response","229","662639","0.0-10.0-2.10","czl1ztupjr","many_one","0","indirect_first","0","le05ij22","1","25","1","1","3","1","","0","1","0","null","","","<img src = 'targets/2.png' width = '100%;'>","null","","","","","","","","","",""
"","html-keyboard-response","230","665066","0.0-10.0-3.10","czl1ztupjr","many_one","0","indirect_first","0","le05ij22","1","25","1","1","3","1","","0","1","0","2424","","","<img src = 'targets/mask.png' width = '100%;'>","75","pos","GS","GSold","1","category1/CS2.png","targets/2.png","1","indirect","34",""
"","html-keyboard-response","231","666569","0.0-10.0-0.11","czl1ztupjr","many_one","0","indirect_first","0","le05ij22","1","25","1","1","3","1","","0","1","0","null","","","<div style=""font-size:60px;"">+</div>","null","","","","","","","","","",""
"","html-keyboard-response","232","666661","0.0-10.0-1.11","czl1ztupjr","many_one","0","indirect_first","0","le05ij22","1","25","1","1","3","1","","0","1","0","null","","","<img src = 'category4/GS2.png' width = '100%;'>","null","","","","","","","","","",""
"","html-keyboard-response","233","666915","0.0-10.0-2.11","czl1ztupjr","many_one","0","indirect_first","0","le05ij22","1","25","1","1","3","1","","0","1","0","null","","","<img src = 'targets/9.png' width = '100%;'>","null","","","","","","","","","",""
"","html-keyboard-response","234","668199","0.0-10.0-3.11","czl1ztupjr","many_one","0","indirect_first","0","le05ij22","1","25","1","1","3","1","","0","1","0","1280","","","<img src = 'targets/mask.png' width = '100%;'>","75","neg","GS","GSnew","4","category4/GS2.png","targets/9.png","1","indirect","35",""
"","html-keyboard-response","235","669701","0.0-10.0-0.12","czl1ztupjr","many_one","0","indirect_first","0","le05ij22","1","25","1","1","3","1","","0","1","0","null","","","<div style=""font-size:60px;"">+</div>","null","","","","","","","","","",""
"","html-keyboard-response","236","669794","0.0-10.0-1.12","czl1ztupjr","many_one","0","indirect_first","0","le05ij22","1","25","1","1","3","1","","0","1","0","null","","","<img src = 'category4/lin.png' width = '100%;'>","null","","","","","","","","","",""
"","html-keyboard-response","237","670047","0.0-10.0-2.12","czl1ztupjr","many_one","0","indirect_first","0","le05ij22","1","25","1","1","3","1","","0","1","0","null","","","<img src = 'targets/41.png' width = '100%;'>","null","","","","","","","","","",""
"","html-keyboard-response","238","675371","0.0-10.0-3.12","czl1ztupjr","many_one","0","indirect_first","0","le05ij22","1","25","1","1","3","1","","0","1","0","5320","","","<img src = 'targets/mask.png' width = '100%;'>","68","neg","GS","abstract","4","category4/lin.png","targets/41.png","0","indirect","36",""
"","html-keyboard-response","239","676875","0.0-10.0-0.13","czl1ztupjr","many_one","0","indirect_first","0","le05ij22","1","25","1","1","3","1","","0","1","0","null","","","<div style=""font-size:60px;"">+</div>","null","","","","","","","","","",""
"","html-keyboard-response","240","676968","0.0-10.0-1.13","czl1ztupjr","many_one","0","indirect_first","0","le05ij22","1","25","1","1","3","1","","0","1","0","null","","","<img src = 'category1/GS3.png' width = '100%;'>","null","","","","","","","","","",""
"","html-keyboard-response","241","677221","0.0-10.0-2.13","czl1ztupjr","many_one","0","indirect_first","0","le05ij22","1","25","1","1","3","1","","0","1","0","null","","","<img src = 'targets/25.png' width = '100%;'>","null","","","","","","","","","",""
"","html-keyboard-response","242","679110","0.0-10.0-3.13","czl1ztupjr","many_one","0","indirect_first","0","le05ij22","1","25","1","1","3","1","","0","1","0","1886","","","<img src = 'targets/mask.png' width = '100%;'>","68","pos","GS","GSnew","1","category1/GS3.png","targets/25.png","0","indirect","37",""
"","html-keyboard-response","243","680613","0.0-10.0-0.14","czl1ztupjr","many_one","0","indirect_first","0","le05ij22","1","25","1","1","3","1","","0","1","0","null","","","<div style=""font-size:60px;"">+</div>","null","","","","","","","","","",""
"","html-keyboard-response","244","680705","0.0-10.0-1.14","czl1ztupjr","many_one","0","indirect_first","0","le05ij22","1","25","1","1","3","1","","0","1","0","null","","","<img src = 'category3/CS10.png' width = '100%;'>","null","","","","","","","","","",""
"","html-keyboard-response","245","680957","0.0-10.0-2.14","czl1ztupjr","many_one","0","indirect_first","0","le05ij22","1","25","1","1","3","1","","0","1","0","null","","","<img src = 'targets/47.png' width = '100%;'>","null","","","","","","","","","",""
"","html-keyboard-response","246","686307","0.0-10.0-3.14","czl1ztupjr","many_one","0","indirect_first","0","le05ij22","1","25","1","1","3","1","","0","1","0","5347","","","<img src = 'targets/mask.png' width = '100%;'>","75","neg","GS","GSold","3","category3/CS10.png","targets/47.png","1","indirect","38",""
"","html-keyboard-response","247","687812","0.0-10.0-0.15","czl1ztupjr","many_one","0","indirect_first","0","le05ij22","1","25","1","1","3","1","","0","1","0","null","","","<div style=""font-size:60px;"">+</div>","null","","","","","","","","","",""
"","html-keyboard-response","248","687905","0.0-10.0-1.15","czl1ztupjr","many_one","0","indirect_first","0","le05ij22","1","25","1","1","3","1","","0","1","0","null","","","<img src = 'category1/CS4.png' width = '100%;'>","null","","","","","","","","","",""
"","html-keyboard-response","249","688159","0.0-10.0-2.15","czl1ztupjr","many_one","0","indirect_first","0","le05ij22","1","25","1","1","3","1","","0","1","0","null","","","<img src = 'targets/4.png' width = '100%;'>","null","","","","","","","","","",""
"","html-keyboard-response","250","689398","0.0-10.0-3.15","czl1ztupjr","many_one","0","indirect_first","0","le05ij22","1","25","1","1","3","1","","0","1","0","1238","","","<img src = 'targets/mask.png' width = '100%;'>","75","pos","GS","GSold","1","category1/CS4.png","targets/4.png","1","indirect","39",""
"","html-keyboard-response","251","690901","0.0-10.0-0.16","czl1ztupjr","many_one","0","indirect_first","0","le05ij22","1","25","1","1","3","1","","0","1","0","null","","","<div style=""font-size:60px;"">+</div>","null","","","","","","","","","",""
"","html-keyboard-response","252","690992","0.0-10.0-1.16","czl1ztupjr","many_one","0","indirect_first","0","le05ij22","1","25","1","1","3","1","","0","1","0","null","","","<img src = 'category4/GS1.png' width = '100%;'>","null","","","","","","","","","",""
"","html-keyboard-response","253","691246","0.0-10.0-2.16","czl1ztupjr","many_one","0","indirect_first","0","le05ij22","1","25","1","1","3","1","","0","1","0","null","","","<img src = 'targets/13.png' width = '100%;'>","null","","","","","","","","","",""
"","html-keyboard-response","254","692250","0.0-10.0-3.16","czl1ztupjr","many_one","0","indirect_first","0","le05ij22","1","25","1","1","3","1","","0","1","0","1002","","","<img src = 'targets/mask.png' width = '100%;'>","75","neg","GS","GSnew","4","category4/GS1.png","targets/13.png","1","indirect","40",""
"","html-keyboard-response","255","693753","0.0-10.0-0.17","czl1ztupjr","many_one","0","indirect_first","0","le05ij22","1","25","1","1","3","1","","0","1","0","null","","","<div style=""font-size:60px;"">+</div>","null","","","","","","","","","",""
"","html-keyboard-response","256","693845","0.0-10.0-1.17","czl1ztupjr","many_one","0","indirect_first","0","le05ij22","1","25","1","1","3","1","","0","1","0","null","","","<img src = 'category2/CS6.png' width = '100%;'>","null","","","","","","","","","",""
"","html-keyboard-response","257","694098","0.0-10.0-2.17","czl1ztupjr","many_one","0","indirect_first","0","le05ij22","1","25","1","1","3","1","","0","1","0","null","","","<img src = 'targets/23.png' width = '100%;'>","null","","","","","","","","","",""
"","html-keyboard-response","258","697343","0.0-10.0-3.17","czl1ztupjr","many_one","0","indirect_first","0","le05ij22","1","25","1","1","3","1","","0","1","0","3241","","","<img src = 'targets/mask.png' width = '100%;'>","75","pos","GS","GSold","2","category2/CS6.png","targets/23.png","1","indirect","41",""
"","html-keyboard-response","259","698845","0.0-10.0-0.18","czl1ztupjr","many_one","0","indirect_first","0","le05ij22","1","25","1","1","3","1","","0","1","0","null","","","<div style=""font-size:60px;"">+</div>","null","","","","","","","","","",""
"","html-keyboard-response","260","698938","0.0-10.0-1.18","czl1ztupjr","many_one","0","indirect_first","0","le05ij22","1","25","1","1","3","1","","0","1","0","null","","","<img src = 'category1/GS1.png' width = '100%;'>","null","","","","","","","","","",""
"","html-keyboard-response","261","699191","0.0-10.0-2.18","czl1ztupjr","many_one","0","indirect_first","0","le05ij22","1","25","1","1","3","1","","0","1","0","null","","","<img src = 'targets/3.png' width = '100%;'>","null","","","","","","","","","",""
"","html-keyboard-response","262","701556","0.0-10.0-3.18","czl1ztupjr","many_one","0","indirect_first","0","le05ij22","1","25","1","1","3","1","","0","1","0","2360","","","<img src = 'targets/mask.png' width = '100%;'>","68","pos","GS","GSnew","1","category1/GS1.png","targets/3.png","0","indirect","42",""
"","html-keyboard-response","263","703059","0.0-10.0-0.19","czl1ztupjr","many_one","0","indirect_first","0","le05ij22","1","25","1","1","3","1","","0","1","0","null","","","<div style=""font-size:60px;"">+</div>","null","","","","","","","","","",""
"","html-keyboard-response","264","703153","0.0-10.0-1.19","czl1ztupjr","many_one","0","indirect_first","0","le05ij22","1","25","1","1","3","1","","0","1","0","null","","","<img src = 'category3/CS1.png' width = '100%;'>","null","","","","","","","","","",""
"","html-keyboard-response","265","703406","0.0-10.0-2.19","czl1ztupjr","many_one","0","indirect_first","0","le05ij22","1","25","1","1","3","1","","0","1","0","null","","","<img src = 'targets/18.png' width = '100%;'>","null","","","","","","","","","",""
"","html-keyboard-response","266","706031","0.0-10.0-3.19","czl1ztupjr","many_one","0","indirect_first","0","le05ij22","1","25","1","1","3","1","","0","1","0","2622","","","<img src = 'targets/mask.png' width = '100%;'>","68","neg","GS","GSold","3","category3/CS1.png","targets/18.png","0","indirect","43",""
"","html-keyboard-response","267","707533","0.0-10.0-0.20","czl1ztupjr","many_one","0","indirect_first","0","le05ij22","1","25","1","1","3","1","","0","1","0","null","","","<div style=""font-size:60px;"">+</div>","null","","","","","","","","","",""
"","html-keyboard-response","268","707625","0.0-10.0-1.20","czl1ztupjr","many_one","0","indirect_first","0","le05ij22","1","25","1","1","3","1","","0","1","0","null","","","<img src = 'category2/GS2.png' width = '100%;'>","null","","","","","","","","","",""
"","html-keyboard-response","269","707878","0.0-10.0-2.20","czl1ztupjr","many_one","0","indirect_first","0","le05ij22","1","25","1","1","3","1","","0","1","0","null","","","<img src = 'targets/40.png' width = '100%;'>","null","","","","","","","","","",""
"","html-keyboard-response","270","709092","0.0-10.0-3.20","czl1ztupjr","many_one","0","indirect_first","0","le05ij22","1","25","1","1","3","1","","0","1","0","1212","","","<img src = 'targets/mask.png' width = '100%;'>","68","pos","GS","GSnew","2","category2/GS2.png","targets/40.png","0","indirect","44",""
"","html-keyboard-response","271","710595","0.0-10.0-0.21","czl1ztupjr","many_one","0","indirect_first","0","le05ij22","1","25","1","1","3","1","","0","1","0","null","","","<div style=""font-size:60px;"">+</div>","null","","","","","","","","","",""
"","html-keyboard-response","272","710688","0.0-10.0-1.21","czl1ztupjr","many_one","0","indirect_first","0","le05ij22","1","25","1","1","3","1","","0","1","0","null","","","<img src = 'category1/CS8.png' width = '100%;'>","null","","","","","","","","","",""
"","html-keyboard-response","273","710942","0.0-10.0-2.21","czl1ztupjr","many_one","0","indirect_first","0","le05ij22","1","25","1","1","3","1","","0","1","0","null","","","<img src = 'targets/10.png' width = '100%;'>","null","","","","","","","","","",""
"","html-keyboard-response","274","711862","0.0-10.0-3.21","czl1ztupjr","many_one","0","indirect_first","0","le05ij22","1","25","1","1","3","1","","0","1","0","918","","","<img src = 'targets/mask.png' width = '100%;'>","75","pos","GS","GSold","1","category1/CS8.png","targets/10.png","1","indirect","45",""
"","html-keyboard-response","275","713364","0.0-10.0-0.22","czl1ztupjr","many_one","0","indirect_first","0","le05ij22","1","25","1","1","3","1","","0","1","0","null","","","<div style=""font-size:60px;"">+</div>","null","","","","","","","","","",""
"","html-keyboard-response","276","713457","0.0-10.0-1.22","czl1ztupjr","many_one","0","indirect_first","0","le05ij22","1","25","1","1","3","1","","0","1","0","null","","","<img src = 'category3/GS1.png' width = '100%;'>","null","","","","","","","","","",""
"","html-keyboard-response","277","713709","0.0-10.0-2.22","czl1ztupjr","many_one","0","indirect_first","0","le05ij22","1","25","1","1","3","1","","0","1","0","null","","","<img src = 'targets/45.png' width = '100%;'>","null","","","","","","","","","",""
"","html-keyboard-response","278","714485","0.0-10.0-3.22","czl1ztupjr","many_one","0","indirect_first","0","le05ij22","1","25","1","1","3","1","","0","1","0","774","","","<img src = 'targets/mask.png' width = '100%;'>","75","neg","GS","GSnew","3","category3/GS1.png","targets/45.png","1","indirect","46",""
"","html-keyboard-response","279","715987","0.0-10.0-0.23","czl1ztupjr","many_one","0","indirect_first","0","le05ij22","1","25","1","1","3","1","","0","1","0","null","","","<div style=""font-size:60px;"">+</div>","null","","","","","","","","","",""
"","html-keyboard-response","280","716079","0.0-10.0-1.23","czl1ztupjr","many_one","0","indirect_first","0","le05ij22","1","25","1","1","3","1","","0","1","0","null","","","<img src = 'category3/CS3.png' width = '100%;'>","null","","","","","","","","","",""
"","html-keyboard-response","281","716332","0.0-10.0-2.23","czl1ztupjr","many_one","0","indirect_first","0","le05ij22","1","25","1","1","3","1","","0","1","0","null","","","<img src = 'targets/12.png' width = '100%;'>","null","","","","","","","","","",""
"","html-keyboard-response","282","717197","0.0-10.0-3.23","czl1ztupjr","many_one","0","indirect_first","0","le05ij22","1","25","1","1","3","1","","0","1","0","863","","","<img src = 'targets/mask.png' width = '100%;'>","75","neg","GS","GSold","3","category3/CS3.png","targets/12.png","1","indirect","47",""
"","survey-html-form","283","733992","0.0-11.0","czl1ztupjr","many_one","0","indirect_first","0","le05ij22","1","25","1","1","3","1","","0","1","0","16293","","{}","","","","","","","","","","","",""
"","image-slider-response","284","741115","0.0-12.0-0.0","czl1ztupjr","many_one","0","indirect_first","0","le05ij22","1","25","1","1","3","1","","0","1","0","5105","","","","","neg","GS","GSold","3","category3/CS1.png","targets/18.png","","direct","","-50"
"","image-slider-response","285","744561","0.0-12.0-0.1","czl1ztupjr","many_one","0","indirect_first","0","le05ij22","1","25","1","1","3","1","","0","1","0","3439","","","","","neg","GS","GSold","3","category3/CS10.png","targets/47.png","","direct","","-74"
"","image-slider-response","286","749390","0.0-12.0-0.2","czl1ztupjr","many_one","0","indirect_first","0","le05ij22","1","25","1","1","3","1","","0","1","0","4822","","","","","neg","GS","GSnew","4","category4/GS2.png","targets/9.png","","direct","","26"
"","image-slider-response","287","753271","0.0-12.0-0.3","czl1ztupjr","many_one","0","indirect_first","0","le05ij22","1","25","1","1","3","1","","0","1","0","3874","","","","","neg","GS","GSold","4","category4/CS1.png","targets/36.png","","direct","","-29"
"","image-slider-response","288","757511","0.0-12.0-0.4","czl1ztupjr","many_one","0","indirect_first","0","le05ij22","1","25","1","1","3","1","","0","1","0","4233","","","","","neg","GS","GSnew","4","category4/GS3.png","targets/38.png","","direct","","-48"
"","image-slider-response","289","761070","0.0-12.0-0.5","czl1ztupjr","many_one","0","indirect_first","0","le05ij22","1","25","1","1","3","1","","0","1","0","3551","","","","","pos","GS","GSold","1","category1/CS8.png","targets/10.png","","direct","","36"
"","image-slider-response","290","764232","0.0-12.0-0.6","czl1ztupjr","many_one","0","indirect_first","0","le05ij22","1","25","1","1","3","1","","0","1","0","3153","","","","","pos","CS","CS","2","category2/CS1.png","targets/27.png","","direct","","-12"
"","image-slider-response","291","773662","0.0-12.0-0.7","czl1ztupjr","many_one","0","indirect_first","0","le05ij22","1","25","1","1","3","1","","0","1","0","9420","","","","","neg","GS","GSnew","3","category3/GS3.png","targets/35.png","","direct","","-1"
"","image-slider-response","292","777429","0.0-12.0-0.8","czl1ztupjr","many_one","0","indirect_first","0","le05ij22","1","25","1","1","3","1","","0","1","0","3759","","","","","pos","GS","abstract","2","category2/men.png","targets/37.png","","direct","","24"
"","image-slider-response","293","785282","0.0-12.0-0.9","czl1ztupjr","many_one","0","indirect_first","0","le05ij22","1","25","1","1","3","1","","0","1","0","7844","","","","","pos","CS","CS","1","category1/CS6.png","targets/6.png","","direct","","45"
"","image-slider-response","294","789765","0.0-12.0-0.10","czl1ztupjr","many_one","0","indirect_first","0","le05ij22","1","25","1","1","3","1","","0","1","0","4473","","","","","pos","GS","GSold","1","category1/CS4.png","targets/4.png","","direct","","14"
"","image-slider-response","295","793837","0.0-12.0-0.11","czl1ztupjr","many_one","0","indirect_first","0","le05ij22","1","25","1","1","3","1","","0","1","0","4061","","","","","neg","CS","CS","3","category3/CS4.png","targets/21.png","","direct","","-37"
"","image-slider-response","296","796070","0.0-12.0-0.12","czl1ztupjr","many_one","0","indirect_first","0","le05ij22","1","25","1","1","3","1","","0","1","0","2227","","","","","neg","CS","CS","4","category4/CS6.png","targets/24.png","","direct","","-39"
"","image-slider-response","297","799033","0.0-12.0-0.13","czl1ztupjr","many_one","0","indirect_first","0","le05ij22","1","25","1","1","3","1","","0","1","0","2958","","","","","pos","GS","GSold","1","category1/CS2.png","targets/2.png","","direct","","22"
"","image-slider-response","298","801804","0.0-12.0-0.14","czl1ztupjr","many_one","0","indirect_first","0","le05ij22","1","25","1","1","3","1","","0","1","0","2765","","","","","neg","CS","CS","4","category4/CS8.png","targets/11.png","","direct","","-40"
"","image-slider-response","299","805886","0.0-12.0-0.15","czl1ztupjr","many_one","0","indirect_first","0","le05ij22","1","25","1","1","3","1","","0","1","0","4074","","","","","pos","GS","GSnew","2","category2/GS2.png","targets/40.png","","direct","","-63"
"","image-slider-response","300","808210","0.0-12.0-0.16","czl1ztupjr","many_one","0","indirect_first","0","le05ij22","1","25","1","1","3","1","","0","1","0","2313","","","","","neg","GS","abstract","4","category4/lin.png","targets/41.png","","direct","","-82"
"","image-slider-response","301","810841","0.0-12.0-0.17","czl1ztupjr","many_one","0","indirect_first","0","le05ij22","1","25","1","1","3","1","","0","1","0","2623","","","","","neg","CS","CS","4","category4/CS3.png","targets/22.png","","direct","","-56"
"","image-slider-response","302","813664","0.0-12.0-0.18","czl1ztupjr","many_one","0","indirect_first","0","le05ij22","1","25","1","1","3","1","","0","1","0","2814","","","","","pos","GS","GSnew","2","category2/GS3.png","targets/48.png","","direct","","28"
"","image-slider-response","303","816208","0.0-12.0-0.19","czl1ztupjr","many_one","0","indirect_first","0","le05ij22","1","25","1","1","3","1","","0","1","0","2538","","","","","pos","CS","CS","2","category2/CS7.png","targets/31.png","","direct","","13"
"","image-slider-response","304","819269","0.0-12.0-0.20","czl1ztupjr","many_one","0","indirect_first","0","le05ij22","1","25","1","1","3","1","","0","1","0","3050","","","","","neg","GS","GSnew","3","category3/GS1.png","targets/45.png","","direct","","-40"
"","image-slider-response","305","822431","0.0-12.0-0.21","czl1ztupjr","many_one","0","indirect_first","0","le05ij22","1","25","1","1","3","1","","0","1","0","3154","","","","","neg","CS","CS","3","category3/CS5.png","targets/32.png","","direct","","-18"
"","image-slider-response","306","824936","0.0-12.0-0.22","czl1ztupjr","many_one","0","indirect_first","0","le05ij22","1","25","1","1","3","1","","0","1","0","2499","","","","","pos","CS","CS","1","category1/CS10.png","targets/20.png","","direct","","31"
"","image-slider-response","307","827599","0.0-12.0-0.23","czl1ztupjr","many_one","0","indirect_first","0","le05ij22","1","25","1","1","3","1","","0","1","0","2654","","","","","pos","CS","CS","2","category2/CS2.png","targets/34.png","","direct","","-42"
"","image-slider-response","308","831728","0.0-12.0-0.24","czl1ztupjr","many_one","0","indirect_first","0","le05ij22","1","25","1","1","3","1","","0","1","0","4116","","","","","pos","GS","GSnew","1","category1/GS3.png","targets/25.png","","direct","","40"
"","image-slider-response","309","834171","0.0-12.0-0.25","czl1ztupjr","many_one","0","indirect_first","0","le05ij22","1","25","1","1","3","1","","0","1","0","2434","","","","","neg","GS","GSold","4","category4/CS4.png","targets/39.png","","direct","","-53"
"","image-slider-response","310","839673","0.0-12.0-0.26","czl1ztupjr","many_one","0","indirect_first","0","le05ij22","1","25","1","1","3","1","","0","1","0","5494","","","","","pos","CS","CS","1","category1/CS3.png","targets/14.png","","direct","","-10"
"","image-slider-response","311","842088","0.0-12.0-0.27","czl1ztupjr","many_one","0","indirect_first","0","le05ij22","1","25","1","1","3","1","","0","1","0","2408","","","","","pos","GS","GSold","2","category2/CS3.png","targets/33.png","","direct","","-37"
"","image-slider-response","312","844973","0.0-12.0-0.28","czl1ztupjr","many_one","0","indirect_first","0","le05ij22","1","25","1","1","3","1","","0","1","0","2876","","","","","neg","CS","CS","4","category4/CS7.png","targets/42.png","","direct","","23"
"","image-slider-response","313","847915","0.0-12.0-0.29","czl1ztupjr","many_one","0","indirect_first","0","le05ij22","1","25","1","1","3","1","","0","1","0","2934","","","","","neg","CS","CS","3","category3/CS8.png","targets/26.png","","direct","","-61"
"","image-slider-response","314","850339","0.0-12.0-0.30","czl1ztupjr","many_one","0","indirect_first","0","le05ij22","1","25","1","1","3","1","","0","1","0","2415","","","","","neg","CS","CS","3","category3/CS6.png","targets/44.png","","direct","","-27"
"","image-slider-response","315","853339","0.0-12.0-0.31","czl1ztupjr","many_one","0","indirect_first","0","le05ij22","1","25","1","1","3","1","","0","1","0","2995","","","","","neg","GS","GSnew","3","category3/GS2.png","targets/30.png","","direct","","28"
"","image-slider-response","316","857919","0.0-12.0-0.32","czl1ztupjr","many_one","0","indirect_first","0","le05ij22","1","25","1","1","3","1","","0","1","0","4575","","","","","pos","CS","CS","1","category1/CS9.png","targets/19.png","","direct","","32"
"","image-slider-response","317","860739","0.0-12.0-0.33","czl1ztupjr","many_one","0","indirect_first","0","le05ij22","1","25","1","1","3","1","","0","1","0","2812","","","","","pos","GS","GSold","2","category2/CS6.png","targets/23.png","","direct","","-33"
"","image-slider-response","318","863483","0.0-12.0-0.34","czl1ztupjr","many_one","0","indirect_first","0","le05ij22","1","25","1","1","3","1","","0","1","0","2739","","","","","neg","CS","CS","4","category4/CS9.png","targets/16.png","","direct","","-56"
"","image-slider-response","319","866288","0.0-12.0-0.35","czl1ztupjr","many_one","0","indirect_first","0","le05ij22","1","25","1","1","3","1","","0","1","0","2799","","","","","pos","GS","GSnew","1","category1/GS2.png","targets/17.png","","direct","","26"
"","image-slider-response","320","868310","0.0-12.0-0.36","czl1ztupjr","many_one","0","indirect_first","0","le05ij22","1","25","1","1","3","1","","0","1","0","2015","","","","","neg","CS","CS","3","category3/CS2.png","targets/7.png","","direct","","-30"
"","image-slider-response","321","870814","0.0-12.0-0.37","czl1ztupjr","many_one","0","indirect_first","0","le05ij22","1","25","1","1","3","1","","0","1","0","2496","","","","","pos","GS","GSold","2","category2/CS4.png","targets/29.png","","direct","","32"
"","image-slider-response","322","874645","0.0-12.0-0.38","czl1ztupjr","many_one","0","indirect_first","0","le05ij22","1","25","1","1","3","1","","0","1","0","3825","","","","","pos","CS","CS","2","category2/CS8.png","targets/28.png","","direct","","42"
"","image-slider-response","323","881469","0.0-12.0-0.39","czl1ztupjr","many_one","0","indirect_first","0","le05ij22","1","25","1","1","3","1","","0","1","0","6818","","","","","pos","GS","GSnew","1","category1/GS1.png","targets/3.png","","direct","","-35"
"","image-slider-response","324","884442","0.0-12.0-0.40","czl1ztupjr","many_one","0","indirect_first","0","le05ij22","1","25","1","1","3","1","","0","1","0","2967","","","","","neg","GS","abstract","3","category3/wang.png","targets/5.png","","direct","","-44"
"","image-slider-response","325","887355","0.0-12.0-0.41","czl1ztupjr","many_one","0","indirect_first","0","le05ij22","1","25","1","1","3","1","","0","1","0","2907","","","","","neg","GS","GSold","3","category3/CS3.png","targets/12.png","","direct","","-43"
"","image-slider-response","326","889909","0.0-12.0-0.42","czl1ztupjr","many_one","0","indirect_first","0","le05ij22","1","25","1","1","3","1","","0","1","0","2547","","","","","neg","GS","GSnew","4","category4/GS1.png","targets/13.png","","direct","","18"
"","image-slider-response","327","892255","0.0-12.0-0.43","czl1ztupjr","many_one","0","indirect_first","0","le05ij22","1","25","1","1","3","1","","0","1","0","2337","","","","","pos","CS","CS","1","category1/CS1.png","targets/15.png","","direct","","-37"
"","image-slider-response","328","895187","0.0-12.0-0.44","czl1ztupjr","many_one","0","indirect_first","0","le05ij22","1","25","1","1","3","1","","0","1","0","2925","","","","","pos","GS","abstract","1","category1/ma.png","targets/46.png","","direct","","20"
"","image-slider-response","329","898565","0.0-12.0-0.45","czl1ztupjr","many_one","0","indirect_first","0","le05ij22","1","25","1","1","3","1","","0","1","0","3370","","","","","pos","GS","GSnew","2","category2/GS1.png","targets/8.png","","direct","","-27"
