"success","trial_type","trial_index","time_elapsed","internal_node_id","subject","condition","condition_code","measure","measure_code","codeword","gender","age","education","chinese","fach","handedness","rt","url","responses","stimulus","key_press","val","type","type_specific","category","cs_selected","target","indirect","task","nr_pres","response"
"true","fullscreen","0","14839","0.0-0.0","bdo9qujmkb","one_one","1","indirect_first","0","nn05as13","0","19","1","1","2","2","","","","","","","","","","","","","","",""
"","external-html","1","73060","0.0-1.0","bdo9qujmkb","one_one","1","indirect_first","0","nn05as13","0","19","1","1","2","2","58206","text/information.html","","","","","","","","","","","","",""
"","external-html","2","109404","0.0-2.0","bdo9qujmkb","one_one","1","indirect_first","0","nn05as13","0","19","1","1","2","2","36327","text/consent.html","","","","","","","","","","","","",""
"","survey-html-form","3","195932","0.0-3.0","bdo9qujmkb","one_one","1","indirect_first","0","nn05as13","0","19","1","1","2","2","86526","","{""codeword_enter"":""nn05as13""}","","","","","","","","","","","",""
"","survey-html-form","4","216934","0.0-4.0","bdo9qujmkb","one_one","1","indirect_first","0","nn05as13","0","19","1","1","2","2","21001","","{""age"":""19"",""education"":""1"",""subject"":""2"",""gender"":""0"",""handedness"":""2"",""chinese"":""1""}","","","","","","","","","","","",""
"","survey-html-form","5","230349","0.0-5.0","bdo9qujmkb","one_one","1","indirect_first","0","nn05as13","0","19","1","1","2","2","13415","","{}","","","","","","","","","","","",""
"","html-keyboard-response","6","234380","0.0-6.0-0.0-0.0","bdo9qujmkb","one_one","1","indirect_first","0","nn05as13","0","19","1","1","2","2","null","","","<div class = 'row'><div class = 'column'><img src = 'uspos/4625.bmp' width = '100%;'></div><div class = 'column'><img src = 'category3/CS3.png' width = '70%;'></div></div>","null","pos","CS","CS","3","category3/CS3.png","","","","",""
"","html-keyboard-response","7","236919","0.0-6.0-0.0-0.1","bdo9qujmkb","one_one","1","indirect_first","0","nn05as13","0","19","1","1","2","2","null","","","<div class = 'row'><div class = 'column'><img src = 'category2/CS10.png' width = '70%;'></div><div class = 'column'><img src = 'uspos/1463.bmp' width = '100%;'></div></div>","null","pos","CS","CS","2","category2/CS10.png","","","","",""
"","html-keyboard-response","8","239458","0.0-6.0-0.0-0.2","bdo9qujmkb","one_one","1","indirect_first","0","nn05as13","0","19","1","1","2","2","null","","","<div class = 'row'><div class = 'column'><img src = 'uspos/4625.bmp' width = '100%;'></div><div class = 'column'><img src = 'category3/CS3.png' width = '70%;'></div></div>","null","pos","CS","CS","3","category3/CS3.png","","","","",""
"","html-keyboard-response","9","241998","0.0-6.0-0.0-0.3","bdo9qujmkb","one_one","1","indirect_first","0","nn05as13","0","19","1","1","2","2","null","","","<div class = 'row'><div class = 'column'><img src = 'category1/CS10.png' width = '70%;'></div><div class = 'column'><img src = 'usneg/9404.bmp' width = '100%;'></div></div>","null","neg","CS","CS","1","category1/CS10.png","","","","",""
"","html-keyboard-response","10","244528","0.0-6.0-0.0-0.4","bdo9qujmkb","one_one","1","indirect_first","0","nn05as13","0","19","1","1","2","2","null","","","<div class = 'row'><div class = 'column'><img src = 'uspos/4625.bmp' width = '100%;'></div><div class = 'column'><img src = 'category3/CS3.png' width = '70%;'></div></div>","null","pos","CS","CS","3","category3/CS3.png","","","","",""
"","html-keyboard-response","11","247058","0.0-6.0-0.0-0.5","bdo9qujmkb","one_one","1","indirect_first","0","nn05as13","0","19","1","1","2","2","null","","","<div class = 'row'><div class = 'column'><img src = 'uspos/1463.bmp' width = '100%;'></div><div class = 'column'><img src = 'category2/CS10.png' width = '70%;'></div></div>","null","pos","CS","CS","2","category2/CS10.png","","","","",""
"","html-keyboard-response","12","249599","0.0-6.0-0.0-0.6","bdo9qujmkb","one_one","1","indirect_first","0","nn05as13","0","19","1","1","2","2","null","","","<div class = 'row'><div class = 'column'><img src = 'category4/CS3.png' width = '70%;'></div><div class = 'column'><img src = 'usneg/9561.bmp' width = '100%;'></div></div>","null","neg","CS","CS","4","category4/CS3.png","","","","",""
"","html-keyboard-response","13","252138","0.0-6.0-0.0-0.7","bdo9qujmkb","one_one","1","indirect_first","0","nn05as13","0","19","1","1","2","2","null","","","<div class = 'row'><div class = 'column'><img src = 'category3/CS3.png' width = '70%;'></div><div class = 'column'><img src = 'uspos/4625.bmp' width = '100%;'></div></div>","null","pos","CS","CS","3","category3/CS3.png","","","","",""
"","html-keyboard-response","14","254678","0.0-6.0-0.0-0.8","bdo9qujmkb","one_one","1","indirect_first","0","nn05as13","0","19","1","1","2","2","null","","","<div class = 'row'><div class = 'column'><img src = 'category1/CS10.png' width = '70%;'></div><div class = 'column'><img src = 'usneg/9404.bmp' width = '100%;'></div></div>","null","neg","CS","CS","1","category1/CS10.png","","","","",""
"","html-keyboard-response","15","257218","0.0-6.0-0.0-0.9","bdo9qujmkb","one_one","1","indirect_first","0","nn05as13","0","19","1","1","2","2","null","","","<div class = 'row'><div class = 'column'><img src = 'usneg/9561.bmp' width = '100%;'></div><div class = 'column'><img src = 'category4/CS3.png' width = '70%;'></div></div>","null","neg","CS","CS","4","category4/CS3.png","","","","",""
"","html-keyboard-response","16","259758","0.0-6.0-0.0-0.10","bdo9qujmkb","one_one","1","indirect_first","0","nn05as13","0","19","1","1","2","2","null","","","<div class = 'row'><div class = 'column'><img src = 'usneg/9404.bmp' width = '100%;'></div><div class = 'column'><img src = 'category1/CS10.png' width = '70%;'></div></div>","null","neg","CS","CS","1","category1/CS10.png","","","","",""
"","html-keyboard-response","17","262298","0.0-6.0-0.0-0.11","bdo9qujmkb","one_one","1","indirect_first","0","nn05as13","0","19","1","1","2","2","null","","","<div class = 'row'><div class = 'column'><img src = 'usneg/9561.bmp' width = '100%;'></div><div class = 'column'><img src = 'category4/CS3.png' width = '70%;'></div></div>","null","neg","CS","CS","4","category4/CS3.png","","","","",""
"","html-keyboard-response","18","264828","0.0-6.0-0.0-0.12","bdo9qujmkb","one_one","1","indirect_first","0","nn05as13","0","19","1","1","2","2","null","","","<div class = 'row'><div class = 'column'><img src = 'uspos/1463.bmp' width = '100%;'></div><div class = 'column'><img src = 'category2/CS10.png' width = '70%;'></div></div>","null","pos","CS","CS","2","category2/CS10.png","","","","",""
"","html-keyboard-response","19","267358","0.0-6.0-0.0-0.13","bdo9qujmkb","one_one","1","indirect_first","0","nn05as13","0","19","1","1","2","2","null","","","<div class = 'row'><div class = 'column'><img src = 'category4/CS3.png' width = '70%;'></div><div class = 'column'><img src = 'usneg/9561.bmp' width = '100%;'></div></div>","null","neg","CS","CS","4","category4/CS3.png","","","","",""
"","html-keyboard-response","20","269887","0.0-6.0-0.0-0.14","bdo9qujmkb","one_one","1","indirect_first","0","nn05as13","0","19","1","1","2","2","null","","","<div class = 'row'><div class = 'column'><img src = 'category1/CS10.png' width = '70%;'></div><div class = 'column'><img src = 'usneg/9404.bmp' width = '100%;'></div></div>","null","neg","CS","CS","1","category1/CS10.png","","","","",""
"","html-keyboard-response","21","272426","0.0-6.0-0.0-0.15","bdo9qujmkb","one_one","1","indirect_first","0","nn05as13","0","19","1","1","2","2","null","","","<div class = 'row'><div class = 'column'><img src = 'uspos/1463.bmp' width = '100%;'></div><div class = 'column'><img src = 'category2/CS10.png' width = '70%;'></div></div>","null","pos","CS","CS","2","category2/CS10.png","","","","",""
"","html-keyboard-response","22","274948","0.0-6.0-0.0-0.16","bdo9qujmkb","one_one","1","indirect_first","0","nn05as13","0","19","1","1","2","2","null","","","<div class = 'row'><div class = 'column'><img src = 'category3/CS3.png' width = '70%;'></div><div class = 'column'><img src = 'uspos/4625.bmp' width = '100%;'></div></div>","null","pos","CS","CS","3","category3/CS3.png","","","","",""
"","html-keyboard-response","23","277487","0.0-6.0-0.0-0.17","bdo9qujmkb","one_one","1","indirect_first","0","nn05as13","0","19","1","1","2","2","null","","","<div class = 'row'><div class = 'column'><img src = 'usneg/9404.bmp' width = '100%;'></div><div class = 'column'><img src = 'category1/CS10.png' width = '70%;'></div></div>","null","neg","CS","CS","1","category1/CS10.png","","","","",""
"","html-keyboard-response","24","280018","0.0-6.0-0.0-0.18","bdo9qujmkb","one_one","1","indirect_first","0","nn05as13","0","19","1","1","2","2","null","","","<div class = 'row'><div class = 'column'><img src = 'category2/CS10.png' width = '70%;'></div><div class = 'column'><img src = 'uspos/1463.bmp' width = '100%;'></div></div>","null","pos","CS","CS","2","category2/CS10.png","","","","",""
"","html-keyboard-response","25","282553","0.0-6.0-0.0-0.19","bdo9qujmkb","one_one","1","indirect_first","0","nn05as13","0","19","1","1","2","2","null","","","<div class = 'row'><div class = 'column'><img src = 'usneg/9561.bmp' width = '100%;'></div><div class = 'column'><img src = 'category4/CS3.png' width = '70%;'></div></div>","null","neg","CS","CS","4","category4/CS3.png","","","","",""
"","survey-html-form","26","288716","0.0-6.0-1.0","bdo9qujmkb","one_one","1","indirect_first","0","nn05as13","0","19","1","1","2","2","5661","","{}","","","","","","","","","","","",""
"","html-keyboard-response","27","292737","0.0-6.0-2.0-0.0","bdo9qujmkb","one_one","1","indirect_first","0","nn05as13","0","19","1","1","2","2","null","","","<div class = 'row'><div class = 'column'><img src = 'category3/CS3.png' width = '70%;'></div><div class = 'column'><img src = 'uspos/4625.bmp' width = '100%;'></div></div>","null","pos","CS","CS","3","category3/CS3.png","","","","",""
"","html-keyboard-response","28","295260","0.0-6.0-2.0-0.1","bdo9qujmkb","one_one","1","indirect_first","0","nn05as13","0","19","1","1","2","2","null","","","<div class = 'row'><div class = 'column'><img src = 'usneg/9404.bmp' width = '100%;'></div><div class = 'column'><img src = 'category1/CS10.png' width = '70%;'></div></div>","null","neg","CS","CS","1","category1/CS10.png","","","","",""
"","html-keyboard-response","29","297797","0.0-6.0-2.0-0.2","bdo9qujmkb","one_one","1","indirect_first","0","nn05as13","0","19","1","1","2","2","null","","","<div class = 'row'><div class = 'column'><img src = 'category2/CS10.png' width = '70%;'></div><div class = 'column'><img src = 'uspos/1463.bmp' width = '100%;'></div></div>","null","pos","CS","CS","2","category2/CS10.png","","","","",""
"","html-keyboard-response","30","300317","0.0-6.0-2.0-0.3","bdo9qujmkb","one_one","1","indirect_first","0","nn05as13","0","19","1","1","2","2","null","","","<div class = 'row'><div class = 'column'><img src = 'usneg/9561.bmp' width = '100%;'></div><div class = 'column'><img src = 'category4/CS3.png' width = '70%;'></div></div>","null","neg","CS","CS","4","category4/CS3.png","","","","",""
"","html-keyboard-response","31","302857","0.0-6.0-2.0-0.4","bdo9qujmkb","one_one","1","indirect_first","0","nn05as13","0","19","1","1","2","2","null","","","<div class = 'row'><div class = 'column'><img src = 'uspos/1463.bmp' width = '100%;'></div><div class = 'column'><img src = 'category2/CS10.png' width = '70%;'></div></div>","null","pos","CS","CS","2","category2/CS10.png","","","","",""
"","html-keyboard-response","32","305397","0.0-6.0-2.0-0.5","bdo9qujmkb","one_one","1","indirect_first","0","nn05as13","0","19","1","1","2","2","null","","","<div class = 'row'><div class = 'column'><img src = 'category1/CS10.png' width = '70%;'></div><div class = 'column'><img src = 'usneg/9404.bmp' width = '100%;'></div></div>","null","neg","CS","CS","1","category1/CS10.png","","","","",""
"","html-keyboard-response","33","307936","0.0-6.0-2.0-0.6","bdo9qujmkb","one_one","1","indirect_first","0","nn05as13","0","19","1","1","2","2","null","","","<div class = 'row'><div class = 'column'><img src = 'category4/CS3.png' width = '70%;'></div><div class = 'column'><img src = 'usneg/9561.bmp' width = '100%;'></div></div>","null","neg","CS","CS","4","category4/CS3.png","","","","",""
"","html-keyboard-response","34","310457","0.0-6.0-2.0-0.7","bdo9qujmkb","one_one","1","indirect_first","0","nn05as13","0","19","1","1","2","2","null","","","<div class = 'row'><div class = 'column'><img src = 'uspos/4625.bmp' width = '100%;'></div><div class = 'column'><img src = 'category3/CS3.png' width = '70%;'></div></div>","null","pos","CS","CS","3","category3/CS3.png","","","","",""
"","html-keyboard-response","35","312996","0.0-6.0-2.0-0.8","bdo9qujmkb","one_one","1","indirect_first","0","nn05as13","0","19","1","1","2","2","null","","","<div class = 'row'><div class = 'column'><img src = 'category2/CS10.png' width = '70%;'></div><div class = 'column'><img src = 'uspos/1463.bmp' width = '100%;'></div></div>","null","pos","CS","CS","2","category2/CS10.png","","","","",""
"","html-keyboard-response","36","315517","0.0-6.0-2.0-0.9","bdo9qujmkb","one_one","1","indirect_first","0","nn05as13","0","19","1","1","2","2","null","","","<div class = 'row'><div class = 'column'><img src = 'uspos/4625.bmp' width = '100%;'></div><div class = 'column'><img src = 'category3/CS3.png' width = '70%;'></div></div>","null","pos","CS","CS","3","category3/CS3.png","","","","",""
"","html-keyboard-response","37","318057","0.0-6.0-2.0-0.10","bdo9qujmkb","one_one","1","indirect_first","0","nn05as13","0","19","1","1","2","2","null","","","<div class = 'row'><div class = 'column'><img src = 'category4/CS3.png' width = '70%;'></div><div class = 'column'><img src = 'usneg/9561.bmp' width = '100%;'></div></div>","null","neg","CS","CS","4","category4/CS3.png","","","","",""
"","html-keyboard-response","38","320596","0.0-6.0-2.0-0.11","bdo9qujmkb","one_one","1","indirect_first","0","nn05as13","0","19","1","1","2","2","null","","","<div class = 'row'><div class = 'column'><img src = 'uspos/4625.bmp' width = '100%;'></div><div class = 'column'><img src = 'category3/CS3.png' width = '70%;'></div></div>","null","pos","CS","CS","3","category3/CS3.png","","","","",""
"","html-keyboard-response","39","323117","0.0-6.0-2.0-0.12","bdo9qujmkb","one_one","1","indirect_first","0","nn05as13","0","19","1","1","2","2","null","","","<div class = 'row'><div class = 'column'><img src = 'category2/CS10.png' width = '70%;'></div><div class = 'column'><img src = 'uspos/1463.bmp' width = '100%;'></div></div>","null","pos","CS","CS","2","category2/CS10.png","","","","",""
"","html-keyboard-response","40","325657","0.0-6.0-2.0-0.13","bdo9qujmkb","one_one","1","indirect_first","0","nn05as13","0","19","1","1","2","2","null","","","<div class = 'row'><div class = 'column'><img src = 'usneg/9404.bmp' width = '100%;'></div><div class = 'column'><img src = 'category1/CS10.png' width = '70%;'></div></div>","null","neg","CS","CS","1","category1/CS10.png","","","","",""
"","html-keyboard-response","41","328197","0.0-6.0-2.0-0.14","bdo9qujmkb","one_one","1","indirect_first","0","nn05as13","0","19","1","1","2","2","null","","","<div class = 'row'><div class = 'column'><img src = 'category2/CS10.png' width = '70%;'></div><div class = 'column'><img src = 'uspos/1463.bmp' width = '100%;'></div></div>","null","pos","CS","CS","2","category2/CS10.png","","","","",""
"","html-keyboard-response","42","330736","0.0-6.0-2.0-0.15","bdo9qujmkb","one_one","1","indirect_first","0","nn05as13","0","19","1","1","2","2","null","","","<div class = 'row'><div class = 'column'><img src = 'category1/CS10.png' width = '70%;'></div><div class = 'column'><img src = 'usneg/9404.bmp' width = '100%;'></div></div>","null","neg","CS","CS","1","category1/CS10.png","","","","",""
"","html-keyboard-response","43","333276","0.0-6.0-2.0-0.16","bdo9qujmkb","one_one","1","indirect_first","0","nn05as13","0","19","1","1","2","2","null","","","<div class = 'row'><div class = 'column'><img src = 'category4/CS3.png' width = '70%;'></div><div class = 'column'><img src = 'usneg/9561.bmp' width = '100%;'></div></div>","null","neg","CS","CS","4","category4/CS3.png","","","","",""
"","html-keyboard-response","44","335816","0.0-6.0-2.0-0.17","bdo9qujmkb","one_one","1","indirect_first","0","nn05as13","0","19","1","1","2","2","null","","","<div class = 'row'><div class = 'column'><img src = 'usneg/9404.bmp' width = '100%;'></div><div class = 'column'><img src = 'category1/CS10.png' width = '70%;'></div></div>","null","neg","CS","CS","1","category1/CS10.png","","","","",""
"","html-keyboard-response","45","338356","0.0-6.0-2.0-0.18","bdo9qujmkb","one_one","1","indirect_first","0","nn05as13","0","19","1","1","2","2","null","","","<div class = 'row'><div class = 'column'><img src = 'category4/CS3.png' width = '70%;'></div><div class = 'column'><img src = 'usneg/9561.bmp' width = '100%;'></div></div>","null","neg","CS","CS","4","category4/CS3.png","","","","",""
"","html-keyboard-response","46","340895","0.0-6.0-2.0-0.19","bdo9qujmkb","one_one","1","indirect_first","0","nn05as13","0","19","1","1","2","2","null","","","<div class = 'row'><div class = 'column'><img src = 'uspos/4625.bmp' width = '100%;'></div><div class = 'column'><img src = 'category3/CS3.png' width = '70%;'></div></div>","null","pos","CS","CS","3","category3/CS3.png","","","","",""
"","survey-html-form","47","346755","0.0-6.0-3.0","bdo9qujmkb","one_one","1","indirect_first","0","nn05as13","0","19","1","1","2","2","5338","","{}","","","","","","","","","","","",""
"","html-keyboard-response","48","350796","0.0-6.0-4.0-0.0","bdo9qujmkb","one_one","1","indirect_first","0","nn05as13","0","19","1","1","2","2","null","","","<div class = 'row'><div class = 'column'><img src = 'category1/CS10.png' width = '70%;'></div><div class = 'column'><img src = 'usneg/9404.bmp' width = '100%;'></div></div>","null","neg","CS","CS","1","category1/CS10.png","","","","",""
"","html-keyboard-response","49","353336","0.0-6.0-4.0-0.1","bdo9qujmkb","one_one","1","indirect_first","0","nn05as13","0","19","1","1","2","2","null","","","<div class = 'row'><div class = 'column'><img src = 'uspos/1463.bmp' width = '100%;'></div><div class = 'column'><img src = 'category2/CS10.png' width = '70%;'></div></div>","null","pos","CS","CS","2","category2/CS10.png","","","","",""
"","html-keyboard-response","50","355857","0.0-6.0-4.0-0.2","bdo9qujmkb","one_one","1","indirect_first","0","nn05as13","0","19","1","1","2","2","null","","","<div class = 'row'><div class = 'column'><img src = 'usneg/9561.bmp' width = '100%;'></div><div class = 'column'><img src = 'category4/CS3.png' width = '70%;'></div></div>","null","neg","CS","CS","4","category4/CS3.png","","","","",""
"","html-keyboard-response","51","358395","0.0-6.0-4.0-0.3","bdo9qujmkb","one_one","1","indirect_first","0","nn05as13","0","19","1","1","2","2","null","","","<div class = 'row'><div class = 'column'><img src = 'category3/CS3.png' width = '70%;'></div><div class = 'column'><img src = 'uspos/4625.bmp' width = '100%;'></div></div>","null","pos","CS","CS","3","category3/CS3.png","","","","",""
"","html-keyboard-response","52","360925","0.0-6.0-4.0-0.4","bdo9qujmkb","one_one","1","indirect_first","0","nn05as13","0","19","1","1","2","2","null","","","<div class = 'row'><div class = 'column'><img src = 'category4/CS3.png' width = '70%;'></div><div class = 'column'><img src = 'usneg/9561.bmp' width = '100%;'></div></div>","null","neg","CS","CS","4","category4/CS3.png","","","","",""
"","html-keyboard-response","53","363466","0.0-6.0-4.0-0.5","bdo9qujmkb","one_one","1","indirect_first","0","nn05as13","0","19","1","1","2","2","null","","","<div class = 'row'><div class = 'column'><img src = 'uspos/1463.bmp' width = '100%;'></div><div class = 'column'><img src = 'category2/CS10.png' width = '70%;'></div></div>","null","pos","CS","CS","2","category2/CS10.png","","","","",""
"","html-keyboard-response","54","366005","0.0-6.0-4.0-0.6","bdo9qujmkb","one_one","1","indirect_first","0","nn05as13","0","19","1","1","2","2","null","","","<div class = 'row'><div class = 'column'><img src = 'uspos/4625.bmp' width = '100%;'></div><div class = 'column'><img src = 'category3/CS3.png' width = '70%;'></div></div>","null","pos","CS","CS","3","category3/CS3.png","","","","",""
"","html-keyboard-response","55","368545","0.0-6.0-4.0-0.7","bdo9qujmkb","one_one","1","indirect_first","0","nn05as13","0","19","1","1","2","2","null","","","<div class = 'row'><div class = 'column'><img src = 'usneg/9404.bmp' width = '100%;'></div><div class = 'column'><img src = 'category1/CS10.png' width = '70%;'></div></div>","null","neg","CS","CS","1","category1/CS10.png","","","","",""
"","html-keyboard-response","56","371085","0.0-6.0-4.0-0.8","bdo9qujmkb","one_one","1","indirect_first","0","nn05as13","0","19","1","1","2","2","null","","","<div class = 'row'><div class = 'column'><img src = 'category2/CS10.png' width = '70%;'></div><div class = 'column'><img src = 'uspos/1463.bmp' width = '100%;'></div></div>","null","pos","CS","CS","2","category2/CS10.png","","","","",""
"","html-keyboard-response","57","373626","0.0-6.0-4.0-0.9","bdo9qujmkb","one_one","1","indirect_first","0","nn05as13","0","19","1","1","2","2","null","","","<div class = 'row'><div class = 'column'><img src = 'uspos/4625.bmp' width = '100%;'></div><div class = 'column'><img src = 'category3/CS3.png' width = '70%;'></div></div>","null","pos","CS","CS","3","category3/CS3.png","","","","",""
"","html-keyboard-response","58","376165","0.0-6.0-4.0-0.10","bdo9qujmkb","one_one","1","indirect_first","0","nn05as13","0","19","1","1","2","2","null","","","<div class = 'row'><div class = 'column'><img src = 'category2/CS10.png' width = '70%;'></div><div class = 'column'><img src = 'uspos/1463.bmp' width = '100%;'></div></div>","null","pos","CS","CS","2","category2/CS10.png","","","","",""
"","html-keyboard-response","59","378695","0.0-6.0-4.0-0.11","bdo9qujmkb","one_one","1","indirect_first","0","nn05as13","0","19","1","1","2","2","null","","","<div class = 'row'><div class = 'column'><img src = 'category1/CS10.png' width = '70%;'></div><div class = 'column'><img src = 'usneg/9404.bmp' width = '100%;'></div></div>","null","neg","CS","CS","1","category1/CS10.png","","","","",""
"","html-keyboard-response","60","381235","0.0-6.0-4.0-0.12","bdo9qujmkb","one_one","1","indirect_first","0","nn05as13","0","19","1","1","2","2","null","","","<div class = 'row'><div class = 'column'><img src = 'usneg/9561.bmp' width = '100%;'></div><div class = 'column'><img src = 'category4/CS3.png' width = '70%;'></div></div>","null","neg","CS","CS","4","category4/CS3.png","","","","",""
"","html-keyboard-response","61","383775","0.0-6.0-4.0-0.13","bdo9qujmkb","one_one","1","indirect_first","0","nn05as13","0","19","1","1","2","2","null","","","<div class = 'row'><div class = 'column'><img src = 'usneg/9404.bmp' width = '100%;'></div><div class = 'column'><img src = 'category1/CS10.png' width = '70%;'></div></div>","null","neg","CS","CS","1","category1/CS10.png","","","","",""
"","html-keyboard-response","62","386315","0.0-6.0-4.0-0.14","bdo9qujmkb","one_one","1","indirect_first","0","nn05as13","0","19","1","1","2","2","null","","","<div class = 'row'><div class = 'column'><img src = 'category4/CS3.png' width = '70%;'></div><div class = 'column'><img src = 'usneg/9561.bmp' width = '100%;'></div></div>","null","neg","CS","CS","4","category4/CS3.png","","","","",""
"","html-keyboard-response","63","388855","0.0-6.0-4.0-0.15","bdo9qujmkb","one_one","1","indirect_first","0","nn05as13","0","19","1","1","2","2","null","","","<div class = 'row'><div class = 'column'><img src = 'category1/CS10.png' width = '70%;'></div><div class = 'column'><img src = 'usneg/9404.bmp' width = '100%;'></div></div>","null","neg","CS","CS","1","category1/CS10.png","","","","",""
"","html-keyboard-response","64","391395","0.0-6.0-4.0-0.16","bdo9qujmkb","one_one","1","indirect_first","0","nn05as13","0","19","1","1","2","2","null","","","<div class = 'row'><div class = 'column'><img src = 'uspos/4625.bmp' width = '100%;'></div><div class = 'column'><img src = 'category3/CS3.png' width = '70%;'></div></div>","null","pos","CS","CS","3","category3/CS3.png","","","","",""
"","html-keyboard-response","65","393935","0.0-6.0-4.0-0.17","bdo9qujmkb","one_one","1","indirect_first","0","nn05as13","0","19","1","1","2","2","null","","","<div class = 'row'><div class = 'column'><img src = 'usneg/9561.bmp' width = '100%;'></div><div class = 'column'><img src = 'category4/CS3.png' width = '70%;'></div></div>","null","neg","CS","CS","4","category4/CS3.png","","","","",""
"","html-keyboard-response","66","396475","0.0-6.0-4.0-0.18","bdo9qujmkb","one_one","1","indirect_first","0","nn05as13","0","19","1","1","2","2","null","","","<div class = 'row'><div class = 'column'><img src = 'category3/CS3.png' width = '70%;'></div><div class = 'column'><img src = 'uspos/4625.bmp' width = '100%;'></div></div>","null","pos","CS","CS","3","category3/CS3.png","","","","",""
"","html-keyboard-response","67","399015","0.0-6.0-4.0-0.19","bdo9qujmkb","one_one","1","indirect_first","0","nn05as13","0","19","1","1","2","2","null","","","<div class = 'row'><div class = 'column'><img src = 'category2/CS10.png' width = '70%;'></div><div class = 'column'><img src = 'uspos/1463.bmp' width = '100%;'></div></div>","null","pos","CS","CS","2","category2/CS10.png","","","","",""
"","survey-html-form","68","403666","0.0-6.0-5.0","bdo9qujmkb","one_one","1","indirect_first","0","nn05as13","0","19","1","1","2","2","4131","","{}","","","","","","","","","","","",""
"","html-keyboard-response","69","407694","0.0-6.0-6.0-0.0","bdo9qujmkb","one_one","1","indirect_first","0","nn05as13","0","19","1","1","2","2","null","","","<div class = 'row'><div class = 'column'><img src = 'category4/CS3.png' width = '70%;'></div><div class = 'column'><img src = 'usneg/9561.bmp' width = '100%;'></div></div>","null","neg","CS","CS","4","category4/CS3.png","","","","",""
"","html-keyboard-response","70","410234","0.0-6.0-6.0-0.1","bdo9qujmkb","one_one","1","indirect_first","0","nn05as13","0","19","1","1","2","2","null","","","<div class = 'row'><div class = 'column'><img src = 'category3/CS3.png' width = '70%;'></div><div class = 'column'><img src = 'uspos/4625.bmp' width = '100%;'></div></div>","null","pos","CS","CS","3","category3/CS3.png","","","","",""
"","html-keyboard-response","71","412774","0.0-6.0-6.0-0.2","bdo9qujmkb","one_one","1","indirect_first","0","nn05as13","0","19","1","1","2","2","null","","","<div class = 'row'><div class = 'column'><img src = 'category2/CS10.png' width = '70%;'></div><div class = 'column'><img src = 'uspos/1463.bmp' width = '100%;'></div></div>","null","pos","CS","CS","2","category2/CS10.png","","","","",""
"","html-keyboard-response","72","415314","0.0-6.0-6.0-0.3","bdo9qujmkb","one_one","1","indirect_first","0","nn05as13","0","19","1","1","2","2","null","","","<div class = 'row'><div class = 'column'><img src = 'category1/CS10.png' width = '70%;'></div><div class = 'column'><img src = 'usneg/9404.bmp' width = '100%;'></div></div>","null","neg","CS","CS","1","category1/CS10.png","","","","",""
"","html-keyboard-response","73","417854","0.0-6.0-6.0-0.4","bdo9qujmkb","one_one","1","indirect_first","0","nn05as13","0","19","1","1","2","2","null","","","<div class = 'row'><div class = 'column'><img src = 'category3/CS3.png' width = '70%;'></div><div class = 'column'><img src = 'uspos/4625.bmp' width = '100%;'></div></div>","null","pos","CS","CS","3","category3/CS3.png","","","","",""
"","html-keyboard-response","74","420374","0.0-6.0-6.0-0.5","bdo9qujmkb","one_one","1","indirect_first","0","nn05as13","0","19","1","1","2","2","null","","","<div class = 'row'><div class = 'column'><img src = 'uspos/1463.bmp' width = '100%;'></div><div class = 'column'><img src = 'category2/CS10.png' width = '70%;'></div></div>","null","pos","CS","CS","2","category2/CS10.png","","","","",""
"","html-keyboard-response","75","422914","0.0-6.0-6.0-0.6","bdo9qujmkb","one_one","1","indirect_first","0","nn05as13","0","19","1","1","2","2","null","","","<div class = 'row'><div class = 'column'><img src = 'usneg/9561.bmp' width = '100%;'></div><div class = 'column'><img src = 'category4/CS3.png' width = '70%;'></div></div>","null","neg","CS","CS","4","category4/CS3.png","","","","",""
"","html-keyboard-response","76","425454","0.0-6.0-6.0-0.7","bdo9qujmkb","one_one","1","indirect_first","0","nn05as13","0","19","1","1","2","2","null","","","<div class = 'row'><div class = 'column'><img src = 'category2/CS10.png' width = '70%;'></div><div class = 'column'><img src = 'uspos/1463.bmp' width = '100%;'></div></div>","null","pos","CS","CS","2","category2/CS10.png","","","","",""
"","html-keyboard-response","77","427994","0.0-6.0-6.0-0.8","bdo9qujmkb","one_one","1","indirect_first","0","nn05as13","0","19","1","1","2","2","null","","","<div class = 'row'><div class = 'column'><img src = 'category1/CS10.png' width = '70%;'></div><div class = 'column'><img src = 'usneg/9404.bmp' width = '100%;'></div></div>","null","neg","CS","CS","1","category1/CS10.png","","","","",""
"","html-keyboard-response","78","430533","0.0-6.0-6.0-0.9","bdo9qujmkb","one_one","1","indirect_first","0","nn05as13","0","19","1","1","2","2","null","","","<div class = 'row'><div class = 'column'><img src = 'uspos/1463.bmp' width = '100%;'></div><div class = 'column'><img src = 'category2/CS10.png' width = '70%;'></div></div>","null","pos","CS","CS","2","category2/CS10.png","","","","",""
"","html-keyboard-response","79","433074","0.0-6.0-6.0-0.10","bdo9qujmkb","one_one","1","indirect_first","0","nn05as13","0","19","1","1","2","2","null","","","<div class = 'row'><div class = 'column'><img src = 'usneg/9561.bmp' width = '100%;'></div><div class = 'column'><img src = 'category4/CS3.png' width = '70%;'></div></div>","null","neg","CS","CS","4","category4/CS3.png","","","","",""
"","html-keyboard-response","80","435614","0.0-6.0-6.0-0.11","bdo9qujmkb","one_one","1","indirect_first","0","nn05as13","0","19","1","1","2","2","null","","","<div class = 'row'><div class = 'column'><img src = 'category3/CS3.png' width = '70%;'></div><div class = 'column'><img src = 'uspos/4625.bmp' width = '100%;'></div></div>","null","pos","CS","CS","3","category3/CS3.png","","","","",""
"","html-keyboard-response","81","438153","0.0-6.0-6.0-0.12","bdo9qujmkb","one_one","1","indirect_first","0","nn05as13","0","19","1","1","2","2","null","","","<div class = 'row'><div class = 'column'><img src = 'usneg/9404.bmp' width = '100%;'></div><div class = 'column'><img src = 'category1/CS10.png' width = '70%;'></div></div>","null","neg","CS","CS","1","category1/CS10.png","","","","",""
"","html-keyboard-response","82","440693","0.0-6.0-6.0-0.13","bdo9qujmkb","one_one","1","indirect_first","0","nn05as13","0","19","1","1","2","2","null","","","<div class = 'row'><div class = 'column'><img src = 'usneg/9561.bmp' width = '100%;'></div><div class = 'column'><img src = 'category4/CS3.png' width = '70%;'></div></div>","null","neg","CS","CS","4","category4/CS3.png","","","","",""
"","html-keyboard-response","83","443213","0.0-6.0-6.0-0.14","bdo9qujmkb","one_one","1","indirect_first","0","nn05as13","0","19","1","1","2","2","null","","","<div class = 'row'><div class = 'column'><img src = 'usneg/9404.bmp' width = '100%;'></div><div class = 'column'><img src = 'category1/CS10.png' width = '70%;'></div></div>","null","neg","CS","CS","1","category1/CS10.png","","","","",""
"","html-keyboard-response","84","445733","0.0-6.0-6.0-0.15","bdo9qujmkb","one_one","1","indirect_first","0","nn05as13","0","19","1","1","2","2","null","","","<div class = 'row'><div class = 'column'><img src = 'uspos/4625.bmp' width = '100%;'></div><div class = 'column'><img src = 'category3/CS3.png' width = '70%;'></div></div>","null","pos","CS","CS","3","category3/CS3.png","","","","",""
"","html-keyboard-response","85","448253","0.0-6.0-6.0-0.16","bdo9qujmkb","one_one","1","indirect_first","0","nn05as13","0","19","1","1","2","2","null","","","<div class = 'row'><div class = 'column'><img src = 'usneg/9561.bmp' width = '100%;'></div><div class = 'column'><img src = 'category4/CS3.png' width = '70%;'></div></div>","null","neg","CS","CS","4","category4/CS3.png","","","","",""
"","html-keyboard-response","86","450793","0.0-6.0-6.0-0.17","bdo9qujmkb","one_one","1","indirect_first","0","nn05as13","0","19","1","1","2","2","null","","","<div class = 'row'><div class = 'column'><img src = 'uspos/1463.bmp' width = '100%;'></div><div class = 'column'><img src = 'category2/CS10.png' width = '70%;'></div></div>","null","pos","CS","CS","2","category2/CS10.png","","","","",""
"","html-keyboard-response","87","453323","0.0-6.0-6.0-0.18","bdo9qujmkb","one_one","1","indirect_first","0","nn05as13","0","19","1","1","2","2","null","","","<div class = 'row'><div class = 'column'><img src = 'usneg/9404.bmp' width = '100%;'></div><div class = 'column'><img src = 'category1/CS10.png' width = '70%;'></div></div>","null","neg","CS","CS","1","category1/CS10.png","","","","",""
"","html-keyboard-response","88","455863","0.0-6.0-6.0-0.19","bdo9qujmkb","one_one","1","indirect_first","0","nn05as13","0","19","1","1","2","2","null","","","<div class = 'row'><div class = 'column'><img src = 'category3/CS3.png' width = '70%;'></div><div class = 'column'><img src = 'uspos/4625.bmp' width = '100%;'></div></div>","null","pos","CS","CS","3","category3/CS3.png","","","","",""
"","html-keyboard-response","89","490609","0.0-7.0","bdo9qujmkb","one_one","1","indirect_first","0","nn05as13","0","19","1","1","2","2","34230","","","<p>Sie sehen nun die chinesischen Zeichen nur ganz kurz, und danach die jeweilige Aussprache der Zeichen. Ihre Aufgabe ist es, für jede Silbe anzugeben, ob diese etwas angenehmes, oder unangenehmes bedeuten könnte. Verlassen Sie sich hier vor allem auf Ihre Intuition.<br><br>Die Zeichen werden nur zur Orientierung dargestellt, beachten Sie sie deshalb nicht. Konzentrieren Sie sich vor allem auf die Silben. <br>Reagieren Sie mit folgenden zwei Tasten: <br><br><b>'D' </b> wenn die Silbe etwas <b>unangenehmes</b> bedeuten könnte. <br><b>'K'</b> wenn die Silbe etwas <b>angenehmes</b> bedeuten könnte. <br><br>Bitte legen Sie nun den Zeigefinger der linken Hand auf die Taste 'D' und den Zeigefinger der rechten Hand auf die Taste 'K'. <br>Reagieren Sie auf jede Silbe so schnell wie möglich. Uns interessiert Ihre spontane Reaktion. <br> <br> <br>Drücken Sie 'D' oder 'K', um die nächste Aufgabe zu starten. </p>","68","","","","","","","","","",""
"","html-keyboard-response","90","493632","0.0-8.0-0.0","bdo9qujmkb","one_one","1","indirect_first","0","nn05as13","0","19","1","1","2","2","null","","","<div style=""font-size:60px;"">+</div>","null","","","","","","","","","",""
"","html-keyboard-response","91","493733","0.0-8.0-1.0","bdo9qujmkb","one_one","1","indirect_first","0","nn05as13","0","19","1","1","2","2","null","","","<img src = 'category2/CS9.png' width = '100%;'>","null","","","","","","","","","",""
"","html-keyboard-response","92","494012","0.0-8.0-2.0","bdo9qujmkb","one_one","1","indirect_first","0","nn05as13","0","19","1","1","2","2","null","","","<img src = 'targets/6.png' width = '100%;'>","null","","","","","","","","","",""
"","html-keyboard-response","93","499151","0.0-8.0-3.0","bdo9qujmkb","one_one","1","indirect_first","0","nn05as13","0","19","1","1","2","2","5137","","","<img src = 'targets/mask.png' width = '100%;'>","68","pos","GS","GSold","2","category2/CS9.png","targets/6.png","0","indirect","0",""
"","html-keyboard-response","94","500672","0.0-8.0-0.1","bdo9qujmkb","one_one","1","indirect_first","0","nn05as13","0","19","1","1","2","2","null","","","<div style=""font-size:60px;"">+</div>","null","","","","","","","","","",""
"","html-keyboard-response","95","500772","0.0-8.0-1.1","bdo9qujmkb","one_one","1","indirect_first","0","nn05as13","0","19","1","1","2","2","null","","","<img src = 'category4/CS3.png' width = '100%;'>","null","","","","","","","","","",""
"","html-keyboard-response","96","501052","0.0-8.0-2.1","bdo9qujmkb","one_one","1","indirect_first","0","nn05as13","0","19","1","1","2","2","null","","","<img src = 'targets/36.png' width = '100%;'>","null","","","","","","","","","",""
"","html-keyboard-response","97","502880","0.0-8.0-3.1","bdo9qujmkb","one_one","1","indirect_first","0","nn05as13","0","19","1","1","2","2","1826","","","<img src = 'targets/mask.png' width = '100%;'>","75","neg","CS","CS","4","category4/CS3.png","targets/36.png","1","indirect","1",""
"","html-keyboard-response","98","504412","0.0-8.0-0.2","bdo9qujmkb","one_one","1","indirect_first","0","nn05as13","0","19","1","1","2","2","null","","","<div style=""font-size:60px;"">+</div>","null","","","","","","","","","",""
"","html-keyboard-response","99","504512","0.0-8.0-1.2","bdo9qujmkb","one_one","1","indirect_first","0","nn05as13","0","19","1","1","2","2","null","","","<img src = 'category4/CS8.png' width = '100%;'>","null","","","","","","","","","",""
"","html-keyboard-response","100","504792","0.0-8.0-2.2","bdo9qujmkb","one_one","1","indirect_first","0","nn05as13","0","19","1","1","2","2","null","","","<img src = 'targets/19.png' width = '100%;'>","null","","","","","","","","","",""
"","html-keyboard-response","101","505471","0.0-8.0-3.2","bdo9qujmkb","one_one","1","indirect_first","0","nn05as13","0","19","1","1","2","2","679","","","<img src = 'targets/mask.png' width = '100%;'>","75","neg","GS","GSold","4","category4/CS8.png","targets/19.png","1","indirect","2",""
"","html-keyboard-response","102","507011","0.0-8.0-0.3","bdo9qujmkb","one_one","1","indirect_first","0","nn05as13","0","19","1","1","2","2","null","","","<div style=""font-size:60px;"">+</div>","null","","","","","","","","","",""
"","html-keyboard-response","103","507111","0.0-8.0-1.3","bdo9qujmkb","one_one","1","indirect_first","0","nn05as13","0","19","1","1","2","2","null","","","<img src = 'category1/CS9.png' width = '100%;'>","null","","","","","","","","","",""
"","html-keyboard-response","104","507392","0.0-8.0-2.3","bdo9qujmkb","one_one","1","indirect_first","0","nn05as13","0","19","1","1","2","2","null","","","<img src = 'targets/28.png' width = '100%;'>","null","","","","","","","","","",""
"","html-keyboard-response","105","508295","0.0-8.0-3.3","bdo9qujmkb","one_one","1","indirect_first","0","nn05as13","0","19","1","1","2","2","902","","","<img src = 'targets/mask.png' width = '100%;'>","68","neg","GS","GSold","1","category1/CS9.png","targets/28.png","0","indirect","3",""
"","html-keyboard-response","106","509832","0.0-8.0-0.4","bdo9qujmkb","one_one","1","indirect_first","0","nn05as13","0","19","1","1","2","2","null","","","<div style=""font-size:60px;"">+</div>","null","","","","","","","","","",""
"","html-keyboard-response","107","509932","0.0-8.0-1.4","bdo9qujmkb","one_one","1","indirect_first","0","nn05as13","0","19","1","1","2","2","null","","","<img src = 'category3/CS9.png' width = '100%;'>","null","","","","","","","","","",""
"","html-keyboard-response","108","510212","0.0-8.0-2.4","bdo9qujmkb","one_one","1","indirect_first","0","nn05as13","0","19","1","1","2","2","null","","","<img src = 'targets/32.png' width = '100%;'>","null","","","","","","","","","",""
"","html-keyboard-response","109","511135","0.0-8.0-3.4","bdo9qujmkb","one_one","1","indirect_first","0","nn05as13","0","19","1","1","2","2","922","","","<img src = 'targets/mask.png' width = '100%;'>","68","pos","GS","GSold","3","category3/CS9.png","targets/32.png","0","indirect","4",""
"","html-keyboard-response","110","512652","0.0-8.0-0.5","bdo9qujmkb","one_one","1","indirect_first","0","nn05as13","0","19","1","1","2","2","null","","","<div style=""font-size:60px;"">+</div>","null","","","","","","","","","",""
"","html-keyboard-response","111","512762","0.0-8.0-1.5","bdo9qujmkb","one_one","1","indirect_first","0","nn05as13","0","19","1","1","2","2","null","","","<img src = 'category4/CS10.png' width = '100%;'>","null","","","","","","","","","",""
"","html-keyboard-response","112","513041","0.0-8.0-2.5","bdo9qujmkb","one_one","1","indirect_first","0","nn05as13","0","19","1","1","2","2","null","","","<img src = 'targets/5.png' width = '100%;'>","null","","","","","","","","","",""
"","html-keyboard-response","113","513719","0.0-8.0-3.5","bdo9qujmkb","one_one","1","indirect_first","0","nn05as13","0","19","1","1","2","2","677","","","<img src = 'targets/mask.png' width = '100%;'>","75","neg","GS","GSold","4","category4/CS10.png","targets/5.png","1","indirect","5",""
"","html-keyboard-response","114","515241","0.0-8.0-0.6","bdo9qujmkb","one_one","1","indirect_first","0","nn05as13","0","19","1","1","2","2","null","","","<div style=""font-size:60px;"">+</div>","null","","","","","","","","","",""
"","html-keyboard-response","115","515341","0.0-8.0-1.6","bdo9qujmkb","one_one","1","indirect_first","0","nn05as13","0","19","1","1","2","2","null","","","<img src = 'category3/CS3.png' width = '100%;'>","null","","","","","","","","","",""
"","html-keyboard-response","116","515622","0.0-8.0-2.6","bdo9qujmkb","one_one","1","indirect_first","0","nn05as13","0","19","1","1","2","2","null","","","<img src = 'targets/38.png' width = '100%;'>","null","","","","","","","","","",""
"","html-keyboard-response","117","516694","0.0-8.0-3.6","bdo9qujmkb","one_one","1","indirect_first","0","nn05as13","0","19","1","1","2","2","1071","","","<img src = 'targets/mask.png' width = '100%;'>","68","pos","CS","CS","3","category3/CS3.png","targets/38.png","0","indirect","6",""
"","html-keyboard-response","118","518222","0.0-8.0-0.7","bdo9qujmkb","one_one","1","indirect_first","0","nn05as13","0","19","1","1","2","2","null","","","<div style=""font-size:60px;"">+</div>","null","","","","","","","","","",""
"","html-keyboard-response","119","518322","0.0-8.0-1.7","bdo9qujmkb","one_one","1","indirect_first","0","nn05as13","0","19","1","1","2","2","null","","","<img src = 'category1/CS8.png' width = '100%;'>","null","","","","","","","","","",""
"","html-keyboard-response","120","518581","0.0-8.0-2.7","bdo9qujmkb","one_one","1","indirect_first","0","nn05as13","0","19","1","1","2","2","null","","","<img src = 'targets/39.png' width = '100%;'>","null","","","","","","","","","",""
"","html-keyboard-response","121","520126","0.0-8.0-3.7","bdo9qujmkb","one_one","1","indirect_first","0","nn05as13","0","19","1","1","2","2","1545","","","<img src = 'targets/mask.png' width = '100%;'>","75","neg","GS","GSold","1","category1/CS8.png","targets/39.png","1","indirect","7",""
"","html-keyboard-response","122","521661","0.0-8.0-0.8","bdo9qujmkb","one_one","1","indirect_first","0","nn05as13","0","19","1","1","2","2","null","","","<div style=""font-size:60px;"">+</div>","null","","","","","","","","","",""
"","html-keyboard-response","123","521762","0.0-8.0-1.8","bdo9qujmkb","one_one","1","indirect_first","0","nn05as13","0","19","1","1","2","2","null","","","<img src = 'category1/CS2.png' width = '100%;'>","null","","","","","","","","","",""
"","html-keyboard-response","124","522041","0.0-8.0-2.8","bdo9qujmkb","one_one","1","indirect_first","0","nn05as13","0","19","1","1","2","2","null","","","<img src = 'targets/11.png' width = '100%;'>","null","","","","","","","","","",""
"","html-keyboard-response","125","523559","0.0-8.0-3.8","bdo9qujmkb","one_one","1","indirect_first","0","nn05as13","0","19","1","1","2","2","1517","","","<img src = 'targets/mask.png' width = '100%;'>","68","neg","GS","GSold","1","category1/CS2.png","targets/11.png","0","indirect","8",""
"","html-keyboard-response","126","525071","0.0-8.0-0.9","bdo9qujmkb","one_one","1","indirect_first","0","nn05as13","0","19","1","1","2","2","null","","","<div style=""font-size:60px;"">+</div>","null","","","","","","","","","",""
"","html-keyboard-response","127","525172","0.0-8.0-1.9","bdo9qujmkb","one_one","1","indirect_first","0","nn05as13","0","19","1","1","2","2","null","","","<img src = 'category3/CS2.png' width = '100%;'>","null","","","","","","","","","",""
"","html-keyboard-response","128","525431","0.0-8.0-2.9","bdo9qujmkb","one_one","1","indirect_first","0","nn05as13","0","19","1","1","2","2","null","","","<img src = 'targets/43.png' width = '100%;'>","null","","","","","","","","","",""
"","html-keyboard-response","129","526254","0.0-8.0-3.9","bdo9qujmkb","one_one","1","indirect_first","0","nn05as13","0","19","1","1","2","2","821","","","<img src = 'targets/mask.png' width = '100%;'>","75","pos","GS","GSold","3","category3/CS2.png","targets/43.png","1","indirect","9",""
"","html-keyboard-response","130","527781","0.0-8.0-0.10","bdo9qujmkb","one_one","1","indirect_first","0","nn05as13","0","19","1","1","2","2","null","","","<div style=""font-size:60px;"">+</div>","null","","","","","","","","","",""
"","html-keyboard-response","131","527881","0.0-8.0-1.10","bdo9qujmkb","one_one","1","indirect_first","0","nn05as13","0","19","1","1","2","2","null","","","<img src = 'category2/CS7.png' width = '100%;'>","null","","","","","","","","","",""
"","html-keyboard-response","132","528161","0.0-8.0-2.10","bdo9qujmkb","one_one","1","indirect_first","0","nn05as13","0","19","1","1","2","2","null","","","<img src = 'targets/21.png' width = '100%;'>","null","","","","","","","","","",""
"","html-keyboard-response","133","528815","0.0-8.0-3.10","bdo9qujmkb","one_one","1","indirect_first","0","nn05as13","0","19","1","1","2","2","652","","","<img src = 'targets/mask.png' width = '100%;'>","68","pos","GS","GSold","2","category2/CS7.png","targets/21.png","0","indirect","10",""
"","html-keyboard-response","134","530342","0.0-8.0-0.11","bdo9qujmkb","one_one","1","indirect_first","0","nn05as13","0","19","1","1","2","2","null","","","<div style=""font-size:60px;"">+</div>","null","","","","","","","","","",""
"","html-keyboard-response","135","530442","0.0-8.0-1.11","bdo9qujmkb","one_one","1","indirect_first","0","nn05as13","0","19","1","1","2","2","null","","","<img src = 'category4/CS9.png' width = '100%;'>","null","","","","","","","","","",""
"","html-keyboard-response","136","530721","0.0-8.0-2.11","bdo9qujmkb","one_one","1","indirect_first","0","nn05as13","0","19","1","1","2","2","null","","","<img src = 'targets/47.png' width = '100%;'>","null","","","","","","","","","",""
"","html-keyboard-response","137","532014","0.0-8.0-3.11","bdo9qujmkb","one_one","1","indirect_first","0","nn05as13","0","19","1","1","2","2","1292","","","<img src = 'targets/mask.png' width = '100%;'>","68","neg","GS","GSold","4","category4/CS9.png","targets/47.png","0","indirect","11",""
"","html-keyboard-response","138","533541","0.0-8.0-0.12","bdo9qujmkb","one_one","1","indirect_first","0","nn05as13","0","19","1","1","2","2","null","","","<div style=""font-size:60px;"">+</div>","null","","","","","","","","","",""
"","html-keyboard-response","139","533641","0.0-8.0-1.12","bdo9qujmkb","one_one","1","indirect_first","0","nn05as13","0","19","1","1","2","2","null","","","<img src = 'category2/CS6.png' width = '100%;'>","null","","","","","","","","","",""
"","html-keyboard-response","140","533921","0.0-8.0-2.12","bdo9qujmkb","one_one","1","indirect_first","0","nn05as13","0","19","1","1","2","2","null","","","<img src = 'targets/13.png' width = '100%;'>","null","","","","","","","","","",""
"","html-keyboard-response","141","534366","0.0-8.0-3.12","bdo9qujmkb","one_one","1","indirect_first","0","nn05as13","0","19","1","1","2","2","444","","","<img src = 'targets/mask.png' width = '100%;'>","75","pos","GS","GSold","2","category2/CS6.png","targets/13.png","1","indirect","12",""
"","html-keyboard-response","142","535901","0.0-8.0-0.13","bdo9qujmkb","one_one","1","indirect_first","0","nn05as13","0","19","1","1","2","2","null","","","<div style=""font-size:60px;"">+</div>","null","","","","","","","","","",""
"","html-keyboard-response","143","536001","0.0-8.0-1.13","bdo9qujmkb","one_one","1","indirect_first","0","nn05as13","0","19","1","1","2","2","null","","","<img src = 'category3/CS4.png' width = '100%;'>","null","","","","","","","","","",""
"","html-keyboard-response","144","536281","0.0-8.0-2.13","bdo9qujmkb","one_one","1","indirect_first","0","nn05as13","0","19","1","1","2","2","null","","","<img src = 'targets/8.png' width = '100%;'>","null","","","","","","","","","",""
"","html-keyboard-response","145","537678","0.0-8.0-3.13","bdo9qujmkb","one_one","1","indirect_first","0","nn05as13","0","19","1","1","2","2","1396","","","<img src = 'targets/mask.png' width = '100%;'>","75","pos","GS","GSold","3","category3/CS4.png","targets/8.png","1","indirect","13",""
"","html-keyboard-response","146","539182","0.0-8.0-0.14","bdo9qujmkb","one_one","1","indirect_first","0","nn05as13","0","19","1","1","2","2","null","","","<div style=""font-size:60px;"">+</div>","null","","","","","","","","","",""
"","html-keyboard-response","147","539273","0.0-8.0-1.14","bdo9qujmkb","one_one","1","indirect_first","0","nn05as13","0","19","1","1","2","2","null","","","<img src = 'category1/CS10.png' width = '100%;'>","null","","","","","","","","","",""
"","html-keyboard-response","148","539525","0.0-8.0-2.14","bdo9qujmkb","one_one","1","indirect_first","0","nn05as13","0","19","1","1","2","2","null","","","<img src = 'targets/14.png' width = '100%;'>","null","","","","","","","","","",""
"","html-keyboard-response","149","540342","0.0-8.0-3.14","bdo9qujmkb","one_one","1","indirect_first","0","nn05as13","0","19","1","1","2","2","816","","","<img src = 'targets/mask.png' width = '100%;'>","75","neg","CS","CS","1","category1/CS10.png","targets/14.png","1","indirect","14",""
"","html-keyboard-response","150","541861","0.0-8.0-0.15","bdo9qujmkb","one_one","1","indirect_first","0","nn05as13","0","19","1","1","2","2","null","","","<div style=""font-size:60px;"">+</div>","null","","","","","","","","","",""
"","html-keyboard-response","151","541961","0.0-8.0-1.15","bdo9qujmkb","one_one","1","indirect_first","0","nn05as13","0","19","1","1","2","2","null","","","<img src = 'category2/CS10.png' width = '100%;'>","null","","","","","","","","","",""
"","html-keyboard-response","152","542241","0.0-8.0-2.15","bdo9qujmkb","one_one","1","indirect_first","0","nn05as13","0","19","1","1","2","2","null","","","<img src = 'targets/34.png' width = '100%;'>","null","","","","","","","","","",""
"","html-keyboard-response","153","543126","0.0-8.0-3.15","bdo9qujmkb","one_one","1","indirect_first","0","nn05as13","0","19","1","1","2","2","883","","","<img src = 'targets/mask.png' width = '100%;'>","75","pos","CS","CS","2","category2/CS10.png","targets/34.png","1","indirect","15",""
"","survey-html-form","154","551549","0.0-9.0","bdo9qujmkb","one_one","1","indirect_first","0","nn05as13","0","19","1","1","2","2","7918","","{}","","","","","","","","","","","",""
"","html-keyboard-response","155","554571","0.0-10.0-0.0","bdo9qujmkb","one_one","1","indirect_first","0","nn05as13","0","19","1","1","2","2","null","","","<div style=""font-size:60px;"">+</div>","null","","","","","","","","","",""
"","html-keyboard-response","156","554671","0.0-10.0-1.0","bdo9qujmkb","one_one","1","indirect_first","0","nn05as13","0","19","1","1","2","2","null","","","<img src = 'category2/GS1.png' width = '100%;'>","null","","","","","","","","","",""
"","html-keyboard-response","157","554950","0.0-10.0-2.0","bdo9qujmkb","one_one","1","indirect_first","0","nn05as13","0","19","1","1","2","2","null","","","<img src = 'targets/10.png' width = '100%;'>","null","","","","","","","","","",""
"","html-keyboard-response","158","555726","0.0-10.0-3.0","bdo9qujmkb","one_one","1","indirect_first","0","nn05as13","0","19","1","1","2","2","775","","","<img src = 'targets/mask.png' width = '100%;'>","75","pos","GS","GSnew","2","category2/GS1.png","targets/10.png","1","indirect","16",""
"","html-keyboard-response","159","557251","0.0-10.0-0.1","bdo9qujmkb","one_one","1","indirect_first","0","nn05as13","0","19","1","1","2","2","null","","","<div style=""font-size:60px;"">+</div>","null","","","","","","","","","",""
"","html-keyboard-response","160","557350","0.0-10.0-1.1","bdo9qujmkb","one_one","1","indirect_first","0","nn05as13","0","19","1","1","2","2","null","","","<img src = 'category4/GS1.png' width = '100%;'>","null","","","","","","","","","",""
"","html-keyboard-response","161","557631","0.0-10.0-2.1","bdo9qujmkb","one_one","1","indirect_first","0","nn05as13","0","19","1","1","2","2","null","","","<img src = 'targets/2.png' width = '100%;'>","null","","","","","","","","","",""
"","html-keyboard-response","162","558110","0.0-10.0-3.1","bdo9qujmkb","one_one","1","indirect_first","0","nn05as13","0","19","1","1","2","2","479","","","<img src = 'targets/mask.png' width = '100%;'>","68","neg","GS","GSnew","4","category4/GS1.png","targets/2.png","0","indirect","17",""
"","html-keyboard-response","163","559611","0.0-10.0-0.2","bdo9qujmkb","one_one","1","indirect_first","0","nn05as13","0","19","1","1","2","2","null","","","<div style=""font-size:60px;"">+</div>","null","","","","","","","","","",""
"","html-keyboard-response","164","559711","0.0-10.0-1.2","bdo9qujmkb","one_one","1","indirect_first","0","nn05as13","0","19","1","1","2","2","null","","","<img src = 'category3/GS1.png' width = '100%;'>","null","","","","","","","","","",""
"","html-keyboard-response","165","559991","0.0-10.0-2.2","bdo9qujmkb","one_one","1","indirect_first","0","nn05as13","0","19","1","1","2","2","null","","","<img src = 'targets/29.png' width = '100%;'>","null","","","","","","","","","",""
"","html-keyboard-response","166","561166","0.0-10.0-3.2","bdo9qujmkb","one_one","1","indirect_first","0","nn05as13","0","19","1","1","2","2","1174","","","<img src = 'targets/mask.png' width = '100%;'>","68","pos","GS","GSnew","3","category3/GS1.png","targets/29.png","0","indirect","18",""
"","html-keyboard-response","167","562690","0.0-10.0-0.3","bdo9qujmkb","one_one","1","indirect_first","0","nn05as13","0","19","1","1","2","2","null","","","<div style=""font-size:60px;"">+</div>","null","","","","","","","","","",""
"","html-keyboard-response","168","562790","0.0-10.0-1.3","bdo9qujmkb","one_one","1","indirect_first","0","nn05as13","0","19","1","1","2","2","null","","","<img src = 'category1/GS1.png' width = '100%;'>","null","","","","","","","","","",""
"","html-keyboard-response","169","563071","0.0-10.0-2.3","bdo9qujmkb","one_one","1","indirect_first","0","nn05as13","0","19","1","1","2","2","null","","","<img src = 'targets/25.png' width = '100%;'>","null","","","","","","","","","",""
"","html-keyboard-response","170","563876","0.0-10.0-3.3","bdo9qujmkb","one_one","1","indirect_first","0","nn05as13","0","19","1","1","2","2","805","","","<img src = 'targets/mask.png' width = '100%;'>","75","neg","GS","GSnew","1","category1/GS1.png","targets/25.png","1","indirect","19",""
"","html-keyboard-response","171","565390","0.0-10.0-0.4","bdo9qujmkb","one_one","1","indirect_first","0","nn05as13","0","19","1","1","2","2","null","","","<div style=""font-size:60px;"">+</div>","null","","","","","","","","","",""
"","html-keyboard-response","172","565491","0.0-10.0-1.4","bdo9qujmkb","one_one","1","indirect_first","0","nn05as13","0","19","1","1","2","2","null","","","<img src = 'category4/GS3.png' width = '100%;'>","null","","","","","","","","","",""
"","html-keyboard-response","173","565771","0.0-10.0-2.4","bdo9qujmkb","one_one","1","indirect_first","0","nn05as13","0","19","1","1","2","2","null","","","<img src = 'targets/41.png' width = '100%;'>","null","","","","","","","","","",""
"","html-keyboard-response","174","566693","0.0-10.0-3.4","bdo9qujmkb","one_one","1","indirect_first","0","nn05as13","0","19","1","1","2","2","922","","","<img src = 'targets/mask.png' width = '100%;'>","68","neg","GS","GSnew","4","category4/GS3.png","targets/41.png","0","indirect","20",""
"","html-keyboard-response","175","568230","0.0-10.0-0.5","bdo9qujmkb","one_one","1","indirect_first","0","nn05as13","0","19","1","1","2","2","null","","","<div style=""font-size:60px;"">+</div>","null","","","","","","","","","",""
"","html-keyboard-response","176","568330","0.0-10.0-1.5","bdo9qujmkb","one_one","1","indirect_first","0","nn05as13","0","19","1","1","2","2","null","","","<img src = 'category2/men.png' width = '100%;'>","null","","","","","","","","","",""
"","html-keyboard-response","177","568610","0.0-10.0-2.5","bdo9qujmkb","one_one","1","indirect_first","0","nn05as13","0","19","1","1","2","2","null","","","<img src = 'targets/20.png' width = '100%;'>","null","","","","","","","","","",""
"","html-keyboard-response","178","569990","0.0-10.0-3.5","bdo9qujmkb","one_one","1","indirect_first","0","nn05as13","0","19","1","1","2","2","1377","","","<img src = 'targets/mask.png' width = '100%;'>","75","pos","GS","abstract","2","category2/men.png","targets/20.png","1","indirect","21",""
"","html-keyboard-response","179","571530","0.0-10.0-0.6","bdo9qujmkb","one_one","1","indirect_first","0","nn05as13","0","19","1","1","2","2","null","","","<div style=""font-size:60px;"">+</div>","null","","","","","","","","","",""
"","html-keyboard-response","180","571631","0.0-10.0-1.6","bdo9qujmkb","one_one","1","indirect_first","0","nn05as13","0","19","1","1","2","2","null","","","<img src = 'category2/GS2.png' width = '100%;'>","null","","","","","","","","","",""
"","html-keyboard-response","181","571910","0.0-10.0-2.6","bdo9qujmkb","one_one","1","indirect_first","0","nn05as13","0","19","1","1","2","2","null","","","<img src = 'targets/18.png' width = '100%;'>","null","","","","","","","","","",""
"","html-keyboard-response","182","573422","0.0-10.0-3.6","bdo9qujmkb","one_one","1","indirect_first","0","nn05as13","0","19","1","1","2","2","1512","","","<img src = 'targets/mask.png' width = '100%;'>","75","pos","GS","GSnew","2","category2/GS2.png","targets/18.png","1","indirect","22",""
"","html-keyboard-response","183","574930","0.0-10.0-0.7","bdo9qujmkb","one_one","1","indirect_first","0","nn05as13","0","19","1","1","2","2","null","","","<div style=""font-size:60px;"">+</div>","null","","","","","","","","","",""
"","html-keyboard-response","184","575030","0.0-10.0-1.7","bdo9qujmkb","one_one","1","indirect_first","0","nn05as13","0","19","1","1","2","2","null","","","<img src = 'category3/wang.png' width = '100%;'>","null","","","","","","","","","",""
"","html-keyboard-response","185","575307","0.0-10.0-2.7","bdo9qujmkb","one_one","1","indirect_first","0","nn05as13","0","19","1","1","2","2","null","","","<img src = 'targets/48.png' width = '100%;'>","null","","","","","","","","","",""
"","html-keyboard-response","186","575926","0.0-10.0-3.7","bdo9qujmkb","one_one","1","indirect_first","0","nn05as13","0","19","1","1","2","2","618","","","<img src = 'targets/mask.png' width = '100%;'>","68","pos","GS","abstract","3","category3/wang.png","targets/48.png","0","indirect","23",""
"","html-keyboard-response","187","577430","0.0-10.0-0.8","bdo9qujmkb","one_one","1","indirect_first","0","nn05as13","0","19","1","1","2","2","null","","","<div style=""font-size:60px;"">+</div>","null","","","","","","","","","",""
"","html-keyboard-response","188","577531","0.0-10.0-1.8","bdo9qujmkb","one_one","1","indirect_first","0","nn05as13","0","19","1","1","2","2","null","","","<img src = 'category2/GS3.png' width = '100%;'>","null","","","","","","","","","",""
"","html-keyboard-response","189","577810","0.0-10.0-2.8","bdo9qujmkb","one_one","1","indirect_first","0","nn05as13","0","19","1","1","2","2","null","","","<img src = 'targets/45.png' width = '100%;'>","null","","","","","","","","","",""
"","html-keyboard-response","190","578453","0.0-10.0-3.8","bdo9qujmkb","one_one","1","indirect_first","0","nn05as13","0","19","1","1","2","2","643","","","<img src = 'targets/mask.png' width = '100%;'>","75","pos","GS","GSnew","2","category2/GS3.png","targets/45.png","1","indirect","24",""
"","html-keyboard-response","191","579970","0.0-10.0-0.9","bdo9qujmkb","one_one","1","indirect_first","0","nn05as13","0","19","1","1","2","2","null","","","<div style=""font-size:60px;"">+</div>","null","","","","","","","","","",""
"","html-keyboard-response","192","580070","0.0-10.0-1.9","bdo9qujmkb","one_one","1","indirect_first","0","nn05as13","0","19","1","1","2","2","null","","","<img src = 'category4/GS2.png' width = '100%;'>","null","","","","","","","","","",""
"","html-keyboard-response","193","580350","0.0-10.0-2.9","bdo9qujmkb","one_one","1","indirect_first","0","nn05as13","0","19","1","1","2","2","null","","","<img src = 'targets/3.png' width = '100%;'>","null","","","","","","","","","",""
"","html-keyboard-response","194","581061","0.0-10.0-3.9","bdo9qujmkb","one_one","1","indirect_first","0","nn05as13","0","19","1","1","2","2","711","","","<img src = 'targets/mask.png' width = '100%;'>","75","neg","GS","GSnew","4","category4/GS2.png","targets/3.png","1","indirect","25",""
"","html-keyboard-response","195","582590","0.0-10.0-0.10","bdo9qujmkb","one_one","1","indirect_first","0","nn05as13","0","19","1","1","2","2","null","","","<div style=""font-size:60px;"">+</div>","null","","","","","","","","","",""
"","html-keyboard-response","196","582690","0.0-10.0-1.10","bdo9qujmkb","one_one","1","indirect_first","0","nn05as13","0","19","1","1","2","2","null","","","<img src = 'category3/GS2.png' width = '100%;'>","null","","","","","","","","","",""
"","html-keyboard-response","197","582970","0.0-10.0-2.10","bdo9qujmkb","one_one","1","indirect_first","0","nn05as13","0","19","1","1","2","2","null","","","<img src = 'targets/44.png' width = '100%;'>","null","","","","","","","","","",""
"","html-keyboard-response","198","583598","0.0-10.0-3.10","bdo9qujmkb","one_one","1","indirect_first","0","nn05as13","0","19","1","1","2","2","627","","","<img src = 'targets/mask.png' width = '100%;'>","75","pos","GS","GSnew","3","category3/GS2.png","targets/44.png","1","indirect","26",""
"","html-keyboard-response","199","585110","0.0-10.0-0.11","bdo9qujmkb","one_one","1","indirect_first","0","nn05as13","0","19","1","1","2","2","null","","","<div style=""font-size:60px;"">+</div>","null","","","","","","","","","",""
"","html-keyboard-response","200","585211","0.0-10.0-1.11","bdo9qujmkb","one_one","1","indirect_first","0","nn05as13","0","19","1","1","2","2","null","","","<img src = 'category1/GS2.png' width = '100%;'>","null","","","","","","","","","",""
"","html-keyboard-response","201","585490","0.0-10.0-2.11","bdo9qujmkb","one_one","1","indirect_first","0","nn05as13","0","19","1","1","2","2","null","","","<img src = 'targets/26.png' width = '100%;'>","null","","","","","","","","","",""
"","html-keyboard-response","202","586869","0.0-10.0-3.11","bdo9qujmkb","one_one","1","indirect_first","0","nn05as13","0","19","1","1","2","2","1379","","","<img src = 'targets/mask.png' width = '100%;'>","75","neg","GS","GSnew","1","category1/GS2.png","targets/26.png","1","indirect","27",""
"","html-keyboard-response","203","588410","0.0-10.0-0.12","bdo9qujmkb","one_one","1","indirect_first","0","nn05as13","0","19","1","1","2","2","null","","","<div style=""font-size:60px;"">+</div>","null","","","","","","","","","",""
"","html-keyboard-response","204","588510","0.0-10.0-1.12","bdo9qujmkb","one_one","1","indirect_first","0","nn05as13","0","19","1","1","2","2","null","","","<img src = 'category4/lin.png' width = '100%;'>","null","","","","","","","","","",""
"","html-keyboard-response","205","588790","0.0-10.0-2.12","bdo9qujmkb","one_one","1","indirect_first","0","nn05as13","0","19","1","1","2","2","null","","","<img src = 'targets/9.png' width = '100%;'>","null","","","","","","","","","",""
"","html-keyboard-response","206","589853","0.0-10.0-3.12","bdo9qujmkb","one_one","1","indirect_first","0","nn05as13","0","19","1","1","2","2","1062","","","<img src = 'targets/mask.png' width = '100%;'>","75","neg","GS","abstract","4","category4/lin.png","targets/9.png","1","indirect","28",""
"","html-keyboard-response","207","591390","0.0-10.0-0.13","bdo9qujmkb","one_one","1","indirect_first","0","nn05as13","0","19","1","1","2","2","null","","","<div style=""font-size:60px;"">+</div>","null","","","","","","","","","",""
"","html-keyboard-response","208","591490","0.0-10.0-1.13","bdo9qujmkb","one_one","1","indirect_first","0","nn05as13","0","19","1","1","2","2","null","","","<img src = 'category3/GS3.png' width = '100%;'>","null","","","","","","","","","",""
"","html-keyboard-response","209","591771","0.0-10.0-2.13","bdo9qujmkb","one_one","1","indirect_first","0","nn05as13","0","19","1","1","2","2","null","","","<img src = 'targets/24.png' width = '100%;'>","null","","","","","","","","","",""
"","html-keyboard-response","210","592853","0.0-10.0-3.13","bdo9qujmkb","one_one","1","indirect_first","0","nn05as13","0","19","1","1","2","2","1083","","","<img src = 'targets/mask.png' width = '100%;'>","68","pos","GS","GSnew","3","category3/GS3.png","targets/24.png","0","indirect","29",""
"","html-keyboard-response","211","594370","0.0-10.0-0.14","bdo9qujmkb","one_one","1","indirect_first","0","nn05as13","0","19","1","1","2","2","null","","","<div style=""font-size:60px;"">+</div>","null","","","","","","","","","",""
"","html-keyboard-response","212","594471","0.0-10.0-1.14","bdo9qujmkb","one_one","1","indirect_first","0","nn05as13","0","19","1","1","2","2","null","","","<img src = 'category1/ma.png' width = '100%;'>","null","","","","","","","","","",""
"","html-keyboard-response","213","594751","0.0-10.0-2.14","bdo9qujmkb","one_one","1","indirect_first","0","nn05as13","0","19","1","1","2","2","null","","","<img src = 'targets/17.png' width = '100%;'>","null","","","","","","","","","",""
"","html-keyboard-response","214","595613","0.0-10.0-3.14","bdo9qujmkb","one_one","1","indirect_first","0","nn05as13","0","19","1","1","2","2","861","","","<img src = 'targets/mask.png' width = '100%;'>","68","neg","GS","abstract","1","category1/ma.png","targets/17.png","0","indirect","30",""
"","html-keyboard-response","215","597150","0.0-10.0-0.15","bdo9qujmkb","one_one","1","indirect_first","0","nn05as13","0","19","1","1","2","2","null","","","<div style=""font-size:60px;"">+</div>","null","","","","","","","","","",""
"","html-keyboard-response","216","597250","0.0-10.0-1.15","bdo9qujmkb","one_one","1","indirect_first","0","nn05as13","0","19","1","1","2","2","null","","","<img src = 'category1/GS3.png' width = '100%;'>","null","","","","","","","","","",""
"","html-keyboard-response","217","597530","0.0-10.0-2.15","bdo9qujmkb","one_one","1","indirect_first","0","nn05as13","0","19","1","1","2","2","null","","","<img src = 'targets/4.png' width = '100%;'>","null","","","","","","","","","",""
"","html-keyboard-response","218","602190","0.0-10.0-3.15","bdo9qujmkb","one_one","1","indirect_first","0","nn05as13","0","19","1","1","2","2","4659","","","<img src = 'targets/mask.png' width = '100%;'>","75","neg","GS","GSnew","1","category1/GS3.png","targets/4.png","1","indirect","31",""
"","survey-html-form","219","610205","0.0-11.0","bdo9qujmkb","one_one","1","indirect_first","0","nn05as13","0","19","1","1","2","2","7494","","{}","","","","","","","","","","","",""
"","image-slider-response","220","621045","0.0-12.0-0.0","bdo9qujmkb","one_one","1","indirect_first","0","nn05as13","0","19","1","1","2","2","8827","","","","","neg","GS","abstract","1","category1/ma.png","targets/17.png","","direct","","-74"
"","image-slider-response","221","630901","0.0-12.0-0.1","bdo9qujmkb","one_one","1","indirect_first","0","nn05as13","0","19","1","1","2","2","9855","","","","","pos","GS","GSold","2","category2/CS6.png","targets/13.png","","direct","","-42"
"","image-slider-response","222","638717","0.0-12.0-0.2","bdo9qujmkb","one_one","1","indirect_first","0","nn05as13","0","19","1","1","2","2","7815","","","","","pos","CS","CS","3","category3/CS3.png","targets/38.png","","direct","","47"
"","image-slider-response","223","648181","0.0-12.0-0.3","bdo9qujmkb","one_one","1","indirect_first","0","nn05as13","0","19","1","1","2","2","9464","","","","","pos","GS","GSnew","3","category3/GS2.png","targets/44.png","","direct","","42"
"","image-slider-response","224","651828","0.0-12.0-0.4","bdo9qujmkb","one_one","1","indirect_first","0","nn05as13","0","19","1","1","2","2","3646","","","","","neg","GS","GSold","1","category1/CS2.png","targets/11.png","","direct","","-50"
"","image-slider-response","225","657364","0.0-12.0-0.5","bdo9qujmkb","one_one","1","indirect_first","0","nn05as13","0","19","1","1","2","2","5535","","","","","neg","GS","GSold","4","category4/CS8.png","targets/19.png","","direct","","-53"
"","image-slider-response","226","661444","0.0-12.0-0.6","bdo9qujmkb","one_one","1","indirect_first","0","nn05as13","0","19","1","1","2","2","4079","","","","","neg","GS","GSnew","4","category4/GS2.png","targets/3.png","","direct","","49"
"","image-slider-response","227","664716","0.0-12.0-0.7","bdo9qujmkb","one_one","1","indirect_first","0","nn05as13","0","19","1","1","2","2","3272","","","","","neg","GS","GSnew","1","category1/GS2.png","targets/26.png","","direct","","-51"
"","image-slider-response","228","670340","0.0-12.0-0.8","bdo9qujmkb","one_one","1","indirect_first","0","nn05as13","0","19","1","1","2","2","5623","","","","","neg","CS","CS","4","category4/CS3.png","targets/36.png","","direct","","22"
"","image-slider-response","229","673805","0.0-12.0-0.9","bdo9qujmkb","one_one","1","indirect_first","0","nn05as13","0","19","1","1","2","2","3463","","","","","neg","GS","GSnew","4","category4/GS1.png","targets/2.png","","direct","","16"
"","image-slider-response","230","677412","0.0-12.0-0.10","bdo9qujmkb","one_one","1","indirect_first","0","nn05as13","0","19","1","1","2","2","3606","","","","","pos","CS","CS","2","category2/CS10.png","targets/34.png","","direct","","-40"
"","image-slider-response","231","683516","0.0-12.0-0.11","bdo9qujmkb","one_one","1","indirect_first","0","nn05as13","0","19","1","1","2","2","6103","","","","","neg","GS","GSold","1","category1/CS9.png","targets/28.png","","direct","","-58"
"","image-slider-response","232","688468","0.0-12.0-0.12","bdo9qujmkb","one_one","1","indirect_first","0","nn05as13","0","19","1","1","2","2","4950","","","","","pos","GS","GSnew","3","category3/GS3.png","targets/24.png","","direct","","4"
"","image-slider-response","233","695692","0.0-12.0-0.13","bdo9qujmkb","one_one","1","indirect_first","0","nn05as13","0","19","1","1","2","2","7222","","","","","pos","GS","GSnew","2","category2/GS1.png","targets/10.png","","direct","","-32"
"","image-slider-response","234","699132","0.0-12.0-0.14","bdo9qujmkb","one_one","1","indirect_first","0","nn05as13","0","19","1","1","2","2","3439","","","","","neg","GS","GSnew","4","category4/GS3.png","targets/41.png","","direct","","18"
"","image-slider-response","235","703668","0.0-12.0-0.15","bdo9qujmkb","one_one","1","indirect_first","0","nn05as13","0","19","1","1","2","2","4534","","","","","neg","GS","GSold","4","category4/CS10.png","targets/5.png","","direct","","22"
"","image-slider-response","236","705908","0.0-12.0-0.16","bdo9qujmkb","one_one","1","indirect_first","0","nn05as13","0","19","1","1","2","2","2240","","","","","pos","GS","GSnew","2","category2/GS2.png","targets/18.png","","direct","","-40"
"","image-slider-response","237","707652","0.0-12.0-0.17","bdo9qujmkb","one_one","1","indirect_first","0","nn05as13","0","19","1","1","2","2","1742","","","","","neg","GS","GSold","4","category4/CS9.png","targets/47.png","","direct","","23"
"","image-slider-response","238","709380","0.0-12.0-0.18","bdo9qujmkb","one_one","1","indirect_first","0","nn05as13","0","19","1","1","2","2","1727","","","","","neg","GS","GSnew","1","category1/GS1.png","targets/25.png","","direct","","-49"
"","image-slider-response","239","713221","0.0-12.0-0.19","bdo9qujmkb","one_one","1","indirect_first","0","nn05as13","0","19","1","1","2","2","3840","","","","","pos","GS","GSold","2","category2/CS9.png","targets/6.png","","direct","","-43"
"","image-slider-response","240","715828","0.0-12.0-0.20","bdo9qujmkb","one_one","1","indirect_first","0","nn05as13","0","19","1","1","2","2","2607","","","","","neg","CS","CS","1","category1/CS10.png","targets/14.png","","direct","","-61"
"","image-slider-response","241","719268","0.0-12.0-0.21","bdo9qujmkb","one_one","1","indirect_first","0","nn05as13","0","19","1","1","2","2","3438","","","","","pos","GS","GSold","3","category3/CS9.png","targets/32.png","","direct","","16"
"","image-slider-response","242","721829","0.0-12.0-0.22","bdo9qujmkb","one_one","1","indirect_first","0","nn05as13","0","19","1","1","2","2","2559","","","","","pos","GS","GSold","2","category2/CS7.png","targets/21.png","","direct","","-21"
"","image-slider-response","243","724580","0.0-12.0-0.23","bdo9qujmkb","one_one","1","indirect_first","0","nn05as13","0","19","1","1","2","2","2751","","","","","pos","GS","GSnew","2","category2/GS3.png","targets/45.png","","direct","","-20"
"","image-slider-response","244","726812","0.0-12.0-0.24","bdo9qujmkb","one_one","1","indirect_first","0","nn05as13","0","19","1","1","2","2","2230","","","","","neg","GS","GSold","1","category1/CS8.png","targets/39.png","","direct","","18"
"","image-slider-response","245","729124","0.0-12.0-0.25","bdo9qujmkb","one_one","1","indirect_first","0","nn05as13","0","19","1","1","2","2","2311","","","","","pos","GS","abstract","3","category3/wang.png","targets/48.png","","direct","","5"
"","image-slider-response","246","733501","0.0-12.0-0.26","bdo9qujmkb","one_one","1","indirect_first","0","nn05as13","0","19","1","1","2","2","4374","","","","","pos","GS","GSold","3","category3/CS2.png","targets/43.png","","direct","","22"
"","image-slider-response","247","736357","0.0-12.0-0.27","bdo9qujmkb","one_one","1","indirect_first","0","nn05as13","0","19","1","1","2","2","2855","","","","","neg","GS","abstract","4","category4/lin.png","targets/9.png","","direct","","15"
"","image-slider-response","248","740364","0.0-12.0-0.28","bdo9qujmkb","one_one","1","indirect_first","0","nn05as13","0","19","1","1","2","2","4007","","","","","pos","GS","GSnew","3","category3/GS1.png","targets/29.png","","direct","","15"
"","image-slider-response","249","742396","0.0-12.0-0.29","bdo9qujmkb","one_one","1","indirect_first","0","nn05as13","0","19","1","1","2","2","2030","","","","","pos","GS","abstract","2","category2/men.png","targets/20.png","","direct","","-35"
"","image-slider-response","250","746196","0.0-12.0-0.30","bdo9qujmkb","one_one","1","indirect_first","0","nn05as13","0","19","1","1","2","2","3799","","","","","pos","GS","GSold","3","category3/CS4.png","targets/8.png","","direct","","19"
"","image-slider-response","251","753740","0.0-12.0-0.31","bdo9qujmkb","one_one","1","indirect_first","0","nn05as13","0","19","1","1","2","2","7543","","","","","neg","GS","GSnew","1","category1/GS3.png","targets/4.png","","direct","","-8"
"","survey-html-form","252","759869","0.0-13.0","bdo9qujmkb","one_one","1","indirect_first","0","nn05as13","0","19","1","1","2","2","6128","","{}","","","","","","","","","","","",""
"","image-slider-response","253","765972","0.0-14.0-0.0","bdo9qujmkb","one_one","1","indirect_first","0","nn05as13","0","19","1","1","2","2","5100","","","","","neg","All","all","4","category4/lin_all.png","","","all","","15"
"","image-slider-response","254","768316","0.0-14.0-0.1","bdo9qujmkb","one_one","1","indirect_first","0","nn05as13","0","19","1","1","2","2","2343","","","","","neg","All","all","1","category1/ma_all.png","","","all","","-27"
"","image-slider-response","255","780348","0.0-14.0-0.2","bdo9qujmkb","one_one","1","indirect_first","0","nn05as13","0","19","1","1","2","2","12030","","","","","pos","All","all","3","category3/wang_all.png","","","all","","-8"
"","image-slider-response","256","784117","0.0-14.0-0.3","bdo9qujmkb","one_one","1","indirect_first","0","nn05as13","0","19","1","1","2","2","3767","","","","","pos","All","all","2","category2/men_all.png","","","all","","-24"
"","survey-text","257","895878","0.0-15.0","bdo9qujmkb","one_one","1","indirect_first","0","nn05as13","0","19","1","1","2","2","111758","","{""Q0"":""Bei der Bewertung der einzelnen Zeichen war klar, dass ich Wiedererkanntes so bewertet habe, wie ich die Bilder dazu bewertet habe. Das war also irgendwie ein ganz bewusster Prozess und weniger intuitiv, aber ich konnte diese Erinnerung nicht ausblenden.""}","","","","","","","","","","","",""
