"success","trial_type","trial_index","time_elapsed","internal_node_id","subject","condition","condition_code","measure","measure_code","codeword","gender","age","education","chinese","fach","handedness","rt","url","responses","stimulus","key_press","val","type","type_specific","category","cs_selected","response","target","task","indirect","nr_pres"
"true","fullscreen","0","3041","0.0-0.0","mz8ckl62hl","one_one","1","direct_first","1","er06as17","0","26","1","1","3","2","","","","","","","","","","","","","","",""
"","external-html","1","43968","0.0-1.0","mz8ckl62hl","one_one","1","direct_first","1","er06as17","0","26","1","1","3","2","40905","text/information.html","","","","","","","","","","","","",""
"","external-html","2","70343","0.0-2.0","mz8ckl62hl","one_one","1","direct_first","1","er06as17","0","26","1","1","3","2","26351","text/consent.html","","","","","","","","","","","","",""
"","survey-html-form","3","103805","0.0-3.0","mz8ckl62hl","one_one","1","direct_first","1","er06as17","0","26","1","1","3","2","33461","","{""codeword_enter"":""er06as17""}","","","","","","","","","","","",""
"","survey-html-form","4","121879","0.0-4.0","mz8ckl62hl","one_one","1","direct_first","1","er06as17","0","26","1","1","3","2","18072","","{""age"":""26"",""education"":""1"",""subject"":""3"",""gender"":""0"",""handedness"":""2"",""chinese"":""1""}","","","","","","","","","","","",""
"","survey-html-form","5","144110","0.0-5.0","mz8ckl62hl","one_one","1","direct_first","1","er06as17","0","26","1","1","3","2","22230","","{}","","","","","","","","","","","",""
"","html-keyboard-response","6","148132","0.0-6.0-0.0-0.0","mz8ckl62hl","one_one","1","direct_first","1","er06as17","0","26","1","1","3","2","null","","","<div class = 'row'><div class = 'column'><img src = 'uspos/5470.bmp' width = '100%;'></div><div class = 'column'><img src = 'category4/CS7.png' width = '70%;'></div></div>","null","pos","CS","CS","4","category4/CS7.png","","","","",""
"","html-keyboard-response","7","150671","0.0-6.0-0.0-0.1","mz8ckl62hl","one_one","1","direct_first","1","er06as17","0","26","1","1","3","2","null","","","<div class = 'row'><div class = 'column'><img src = 'usneg/3300.bmp' width = '100%;'></div><div class = 'column'><img src = 'category3/CS10.png' width = '70%;'></div></div>","null","neg","CS","CS","3","category3/CS10.png","","","","",""
"","html-keyboard-response","8","153211","0.0-6.0-0.0-0.2","mz8ckl62hl","one_one","1","direct_first","1","er06as17","0","26","1","1","3","2","null","","","<div class = 'row'><div class = 'column'><img src = 'category4/CS7.png' width = '70%;'></div><div class = 'column'><img src = 'uspos/5470.bmp' width = '100%;'></div></div>","null","pos","CS","CS","4","category4/CS7.png","","","","",""
"","html-keyboard-response","9","155741","0.0-6.0-0.0-0.3","mz8ckl62hl","one_one","1","direct_first","1","er06as17","0","26","1","1","3","2","null","","","<div class = 'row'><div class = 'column'><img src = 'uspos/2530.bmp' width = '100%;'></div><div class = 'column'><img src = 'category1/CS9.png' width = '70%;'></div></div>","null","pos","CS","CS","1","category1/CS9.png","","","","",""
"","html-keyboard-response","10","158281","0.0-6.0-0.0-0.4","mz8ckl62hl","one_one","1","direct_first","1","er06as17","0","26","1","1","3","2","null","","","<div class = 'row'><div class = 'column'><img src = 'uspos/5470.bmp' width = '100%;'></div><div class = 'column'><img src = 'category4/CS7.png' width = '70%;'></div></div>","null","pos","CS","CS","4","category4/CS7.png","","","","",""
"","html-keyboard-response","11","160811","0.0-6.0-0.0-0.5","mz8ckl62hl","one_one","1","direct_first","1","er06as17","0","26","1","1","3","2","null","","","<div class = 'row'><div class = 'column'><img src = 'usneg/9330.bmp' width = '100%;'></div><div class = 'column'><img src = 'category2/CS8.png' width = '70%;'></div></div>","null","neg","CS","CS","2","category2/CS8.png","","","","",""
"","html-keyboard-response","12","163331","0.0-6.0-0.0-0.6","mz8ckl62hl","one_one","1","direct_first","1","er06as17","0","26","1","1","3","2","null","","","<div class = 'row'><div class = 'column'><img src = 'usneg/3300.bmp' width = '100%;'></div><div class = 'column'><img src = 'category3/CS10.png' width = '70%;'></div></div>","null","neg","CS","CS","3","category3/CS10.png","","","","",""
"","html-keyboard-response","13","165850","0.0-6.0-0.0-0.7","mz8ckl62hl","one_one","1","direct_first","1","er06as17","0","26","1","1","3","2","null","","","<div class = 'row'><div class = 'column'><img src = 'category1/CS9.png' width = '70%;'></div><div class = 'column'><img src = 'uspos/2530.bmp' width = '100%;'></div></div>","null","pos","CS","CS","1","category1/CS9.png","","","","",""
"","html-keyboard-response","14","168387","0.0-6.0-0.0-0.8","mz8ckl62hl","one_one","1","direct_first","1","er06as17","0","26","1","1","3","2","null","","","<div class = 'row'><div class = 'column'><img src = 'category4/CS7.png' width = '70%;'></div><div class = 'column'><img src = 'uspos/5470.bmp' width = '100%;'></div></div>","null","pos","CS","CS","4","category4/CS7.png","","","","",""
"","html-keyboard-response","15","170910","0.0-6.0-0.0-0.9","mz8ckl62hl","one_one","1","direct_first","1","er06as17","0","26","1","1","3","2","null","","","<div class = 'row'><div class = 'column'><img src = 'category1/CS9.png' width = '70%;'></div><div class = 'column'><img src = 'uspos/2530.bmp' width = '100%;'></div></div>","null","pos","CS","CS","1","category1/CS9.png","","","","",""
"","html-keyboard-response","16","173449","0.0-6.0-0.0-0.10","mz8ckl62hl","one_one","1","direct_first","1","er06as17","0","26","1","1","3","2","null","","","<div class = 'row'><div class = 'column'><img src = 'category3/CS10.png' width = '70%;'></div><div class = 'column'><img src = 'usneg/3300.bmp' width = '100%;'></div></div>","null","neg","CS","CS","3","category3/CS10.png","","","","",""
"","html-keyboard-response","17","175969","0.0-6.0-0.0-0.11","mz8ckl62hl","one_one","1","direct_first","1","er06as17","0","26","1","1","3","2","null","","","<div class = 'row'><div class = 'column'><img src = 'uspos/2530.bmp' width = '100%;'></div><div class = 'column'><img src = 'category1/CS9.png' width = '70%;'></div></div>","null","pos","CS","CS","1","category1/CS9.png","","","","",""
"","html-keyboard-response","18","178509","0.0-6.0-0.0-0.12","mz8ckl62hl","one_one","1","direct_first","1","er06as17","0","26","1","1","3","2","null","","","<div class = 'row'><div class = 'column'><img src = 'category2/CS8.png' width = '70%;'></div><div class = 'column'><img src = 'usneg/9330.bmp' width = '100%;'></div></div>","null","neg","CS","CS","2","category2/CS8.png","","","","",""
"","html-keyboard-response","19","181050","0.0-6.0-0.0-0.13","mz8ckl62hl","one_one","1","direct_first","1","er06as17","0","26","1","1","3","2","null","","","<div class = 'row'><div class = 'column'><img src = 'usneg/3300.bmp' width = '100%;'></div><div class = 'column'><img src = 'category3/CS10.png' width = '70%;'></div></div>","null","neg","CS","CS","3","category3/CS10.png","","","","",""
"","html-keyboard-response","20","183586","0.0-6.0-0.0-0.14","mz8ckl62hl","one_one","1","direct_first","1","er06as17","0","26","1","1","3","2","null","","","<div class = 'row'><div class = 'column'><img src = 'usneg/9330.bmp' width = '100%;'></div><div class = 'column'><img src = 'category2/CS8.png' width = '70%;'></div></div>","null","neg","CS","CS","2","category2/CS8.png","","","","",""
"","html-keyboard-response","21","186099","0.0-6.0-0.0-0.15","mz8ckl62hl","one_one","1","direct_first","1","er06as17","0","26","1","1","3","2","null","","","<div class = 'row'><div class = 'column'><img src = 'uspos/2530.bmp' width = '100%;'></div><div class = 'column'><img src = 'category1/CS9.png' width = '70%;'></div></div>","null","pos","CS","CS","1","category1/CS9.png","","","","",""
"","html-keyboard-response","22","188639","0.0-6.0-0.0-0.16","mz8ckl62hl","one_one","1","direct_first","1","er06as17","0","26","1","1","3","2","null","","","<div class = 'row'><div class = 'column'><img src = 'usneg/9330.bmp' width = '100%;'></div><div class = 'column'><img src = 'category2/CS8.png' width = '70%;'></div></div>","null","neg","CS","CS","2","category2/CS8.png","","","","",""
"","html-keyboard-response","23","191168","0.0-6.0-0.0-0.17","mz8ckl62hl","one_one","1","direct_first","1","er06as17","0","26","1","1","3","2","null","","","<div class = 'row'><div class = 'column'><img src = 'category3/CS10.png' width = '70%;'></div><div class = 'column'><img src = 'usneg/3300.bmp' width = '100%;'></div></div>","null","neg","CS","CS","3","category3/CS10.png","","","","",""
"","html-keyboard-response","24","193669","0.0-6.0-0.0-0.18","mz8ckl62hl","one_one","1","direct_first","1","er06as17","0","26","1","1","3","2","null","","","<div class = 'row'><div class = 'column'><img src = 'uspos/5470.bmp' width = '100%;'></div><div class = 'column'><img src = 'category4/CS7.png' width = '70%;'></div></div>","null","pos","CS","CS","4","category4/CS7.png","","","","",""
"","html-keyboard-response","25","196209","0.0-6.0-0.0-0.19","mz8ckl62hl","one_one","1","direct_first","1","er06as17","0","26","1","1","3","2","null","","","<div class = 'row'><div class = 'column'><img src = 'usneg/9330.bmp' width = '100%;'></div><div class = 'column'><img src = 'category2/CS8.png' width = '70%;'></div></div>","null","neg","CS","CS","2","category2/CS8.png","","","","",""
"","survey-html-form","26","199652","0.0-6.0-1.0","mz8ckl62hl","one_one","1","direct_first","1","er06as17","0","26","1","1","3","2","2922","","{}","","","","","","","","","","","",""
"","html-keyboard-response","27","203669","0.0-6.0-2.0-0.0","mz8ckl62hl","one_one","1","direct_first","1","er06as17","0","26","1","1","3","2","null","","","<div class = 'row'><div class = 'column'><img src = 'category3/CS10.png' width = '70%;'></div><div class = 'column'><img src = 'usneg/3300.bmp' width = '100%;'></div></div>","null","neg","CS","CS","3","category3/CS10.png","","","","",""
"","html-keyboard-response","28","206209","0.0-6.0-2.0-0.1","mz8ckl62hl","one_one","1","direct_first","1","er06as17","0","26","1","1","3","2","null","","","<div class = 'row'><div class = 'column'><img src = 'uspos/2530.bmp' width = '100%;'></div><div class = 'column'><img src = 'category1/CS9.png' width = '70%;'></div></div>","null","pos","CS","CS","1","category1/CS9.png","","","","",""
"","html-keyboard-response","29","208749","0.0-6.0-2.0-0.2","mz8ckl62hl","one_one","1","direct_first","1","er06as17","0","26","1","1","3","2","null","","","<div class = 'row'><div class = 'column'><img src = 'usneg/9330.bmp' width = '100%;'></div><div class = 'column'><img src = 'category2/CS8.png' width = '70%;'></div></div>","null","neg","CS","CS","2","category2/CS8.png","","","","",""
"","html-keyboard-response","30","211289","0.0-6.0-2.0-0.3","mz8ckl62hl","one_one","1","direct_first","1","er06as17","0","26","1","1","3","2","null","","","<div class = 'row'><div class = 'column'><img src = 'uspos/2530.bmp' width = '100%;'></div><div class = 'column'><img src = 'category1/CS9.png' width = '70%;'></div></div>","null","pos","CS","CS","1","category1/CS9.png","","","","",""
"","html-keyboard-response","31","213828","0.0-6.0-2.0-0.4","mz8ckl62hl","one_one","1","direct_first","1","er06as17","0","26","1","1","3","2","null","","","<div class = 'row'><div class = 'column'><img src = 'usneg/3300.bmp' width = '100%;'></div><div class = 'column'><img src = 'category3/CS10.png' width = '70%;'></div></div>","null","neg","CS","CS","3","category3/CS10.png","","","","",""
"","html-keyboard-response","32","216348","0.0-6.0-2.0-0.5","mz8ckl62hl","one_one","1","direct_first","1","er06as17","0","26","1","1","3","2","null","","","<div class = 'row'><div class = 'column'><img src = 'uspos/5470.bmp' width = '100%;'></div><div class = 'column'><img src = 'category4/CS7.png' width = '70%;'></div></div>","null","pos","CS","CS","4","category4/CS7.png","","","","",""
"","html-keyboard-response","33","218888","0.0-6.0-2.0-0.6","mz8ckl62hl","one_one","1","direct_first","1","er06as17","0","26","1","1","3","2","null","","","<div class = 'row'><div class = 'column'><img src = 'uspos/2530.bmp' width = '100%;'></div><div class = 'column'><img src = 'category1/CS9.png' width = '70%;'></div></div>","null","pos","CS","CS","1","category1/CS9.png","","","","",""
"","html-keyboard-response","34","221429","0.0-6.0-2.0-0.7","mz8ckl62hl","one_one","1","direct_first","1","er06as17","0","26","1","1","3","2","null","","","<div class = 'row'><div class = 'column'><img src = 'category2/CS8.png' width = '70%;'></div><div class = 'column'><img src = 'usneg/9330.bmp' width = '100%;'></div></div>","null","neg","CS","CS","2","category2/CS8.png","","","","",""
"","html-keyboard-response","35","223968","0.0-6.0-2.0-0.8","mz8ckl62hl","one_one","1","direct_first","1","er06as17","0","26","1","1","3","2","null","","","<div class = 'row'><div class = 'column'><img src = 'uspos/5470.bmp' width = '100%;'></div><div class = 'column'><img src = 'category4/CS7.png' width = '70%;'></div></div>","null","pos","CS","CS","4","category4/CS7.png","","","","",""
"","html-keyboard-response","36","226509","0.0-6.0-2.0-0.9","mz8ckl62hl","one_one","1","direct_first","1","er06as17","0","26","1","1","3","2","null","","","<div class = 'row'><div class = 'column'><img src = 'usneg/3300.bmp' width = '100%;'></div><div class = 'column'><img src = 'category3/CS10.png' width = '70%;'></div></div>","null","neg","CS","CS","3","category3/CS10.png","","","","",""
"","html-keyboard-response","37","229048","0.0-6.0-2.0-0.10","mz8ckl62hl","one_one","1","direct_first","1","er06as17","0","26","1","1","3","2","null","","","<div class = 'row'><div class = 'column'><img src = 'usneg/9330.bmp' width = '100%;'></div><div class = 'column'><img src = 'category2/CS8.png' width = '70%;'></div></div>","null","neg","CS","CS","2","category2/CS8.png","","","","",""
"","html-keyboard-response","38","231588","0.0-6.0-2.0-0.11","mz8ckl62hl","one_one","1","direct_first","1","er06as17","0","26","1","1","3","2","null","","","<div class = 'row'><div class = 'column'><img src = 'uspos/2530.bmp' width = '100%;'></div><div class = 'column'><img src = 'category1/CS9.png' width = '70%;'></div></div>","null","pos","CS","CS","1","category1/CS9.png","","","","",""
"","html-keyboard-response","39","234129","0.0-6.0-2.0-0.12","mz8ckl62hl","one_one","1","direct_first","1","er06as17","0","26","1","1","3","2","null","","","<div class = 'row'><div class = 'column'><img src = 'uspos/5470.bmp' width = '100%;'></div><div class = 'column'><img src = 'category4/CS7.png' width = '70%;'></div></div>","null","pos","CS","CS","4","category4/CS7.png","","","","",""
"","html-keyboard-response","40","236667","0.0-6.0-2.0-0.13","mz8ckl62hl","one_one","1","direct_first","1","er06as17","0","26","1","1","3","2","null","","","<div class = 'row'><div class = 'column'><img src = 'usneg/9330.bmp' width = '100%;'></div><div class = 'column'><img src = 'category2/CS8.png' width = '70%;'></div></div>","null","neg","CS","CS","2","category2/CS8.png","","","","",""
"","html-keyboard-response","41","239188","0.0-6.0-2.0-0.14","mz8ckl62hl","one_one","1","direct_first","1","er06as17","0","26","1","1","3","2","null","","","<div class = 'row'><div class = 'column'><img src = 'uspos/5470.bmp' width = '100%;'></div><div class = 'column'><img src = 'category4/CS7.png' width = '70%;'></div></div>","null","pos","CS","CS","4","category4/CS7.png","","","","",""
"","html-keyboard-response","42","241728","0.0-6.0-2.0-0.15","mz8ckl62hl","one_one","1","direct_first","1","er06as17","0","26","1","1","3","2","null","","","<div class = 'row'><div class = 'column'><img src = 'usneg/9330.bmp' width = '100%;'></div><div class = 'column'><img src = 'category2/CS8.png' width = '70%;'></div></div>","null","neg","CS","CS","2","category2/CS8.png","","","","",""
"","html-keyboard-response","43","244258","0.0-6.0-2.0-0.16","mz8ckl62hl","one_one","1","direct_first","1","er06as17","0","26","1","1","3","2","null","","","<div class = 'row'><div class = 'column'><img src = 'category3/CS10.png' width = '70%;'></div><div class = 'column'><img src = 'usneg/3300.bmp' width = '100%;'></div></div>","null","neg","CS","CS","3","category3/CS10.png","","","","",""
"","html-keyboard-response","44","246797","0.0-6.0-2.0-0.17","mz8ckl62hl","one_one","1","direct_first","1","er06as17","0","26","1","1","3","2","null","","","<div class = 'row'><div class = 'column'><img src = 'category1/CS9.png' width = '70%;'></div><div class = 'column'><img src = 'uspos/2530.bmp' width = '100%;'></div></div>","null","pos","CS","CS","1","category1/CS9.png","","","","",""
"","html-keyboard-response","45","249336","0.0-6.0-2.0-0.18","mz8ckl62hl","one_one","1","direct_first","1","er06as17","0","26","1","1","3","2","null","","","<div class = 'row'><div class = 'column'><img src = 'category4/CS7.png' width = '70%;'></div><div class = 'column'><img src = 'uspos/5470.bmp' width = '100%;'></div></div>","null","pos","CS","CS","4","category4/CS7.png","","","","",""
"","html-keyboard-response","46","251857","0.0-6.0-2.0-0.19","mz8ckl62hl","one_one","1","direct_first","1","er06as17","0","26","1","1","3","2","null","","","<div class = 'row'><div class = 'column'><img src = 'category3/CS10.png' width = '70%;'></div><div class = 'column'><img src = 'usneg/3300.bmp' width = '100%;'></div></div>","null","neg","CS","CS","3","category3/CS10.png","","","","",""
"","survey-html-form","47","277217","0.0-6.0-3.0","mz8ckl62hl","one_one","1","direct_first","1","er06as17","0","26","1","1","3","2","24840","","{}","","","","","","","","","","","",""
"","html-keyboard-response","48","281236","0.0-6.0-4.0-0.0","mz8ckl62hl","one_one","1","direct_first","1","er06as17","0","26","1","1","3","2","null","","","<div class = 'row'><div class = 'column'><img src = 'category4/CS7.png' width = '70%;'></div><div class = 'column'><img src = 'uspos/5470.bmp' width = '100%;'></div></div>","null","pos","CS","CS","4","category4/CS7.png","","","","",""
"","html-keyboard-response","49","283776","0.0-6.0-4.0-0.1","mz8ckl62hl","one_one","1","direct_first","1","er06as17","0","26","1","1","3","2","null","","","<div class = 'row'><div class = 'column'><img src = 'category3/CS10.png' width = '70%;'></div><div class = 'column'><img src = 'usneg/3300.bmp' width = '100%;'></div></div>","null","neg","CS","CS","3","category3/CS10.png","","","","",""
"","html-keyboard-response","50","286316","0.0-6.0-4.0-0.2","mz8ckl62hl","one_one","1","direct_first","1","er06as17","0","26","1","1","3","2","null","","","<div class = 'row'><div class = 'column'><img src = 'category4/CS7.png' width = '70%;'></div><div class = 'column'><img src = 'uspos/5470.bmp' width = '100%;'></div></div>","null","pos","CS","CS","4","category4/CS7.png","","","","",""
"","html-keyboard-response","51","288856","0.0-6.0-4.0-0.3","mz8ckl62hl","one_one","1","direct_first","1","er06as17","0","26","1","1","3","2","null","","","<div class = 'row'><div class = 'column'><img src = 'uspos/2530.bmp' width = '100%;'></div><div class = 'column'><img src = 'category1/CS9.png' width = '70%;'></div></div>","null","pos","CS","CS","1","category1/CS9.png","","","","",""
"","html-keyboard-response","52","291396","0.0-6.0-4.0-0.4","mz8ckl62hl","one_one","1","direct_first","1","er06as17","0","26","1","1","3","2","null","","","<div class = 'row'><div class = 'column'><img src = 'usneg/3300.bmp' width = '100%;'></div><div class = 'column'><img src = 'category3/CS10.png' width = '70%;'></div></div>","null","neg","CS","CS","3","category3/CS10.png","","","","",""
"","html-keyboard-response","53","293926","0.0-6.0-4.0-0.5","mz8ckl62hl","one_one","1","direct_first","1","er06as17","0","26","1","1","3","2","null","","","<div class = 'row'><div class = 'column'><img src = 'uspos/2530.bmp' width = '100%;'></div><div class = 'column'><img src = 'category1/CS9.png' width = '70%;'></div></div>","null","pos","CS","CS","1","category1/CS9.png","","","","",""
"","html-keyboard-response","54","296466","0.0-6.0-4.0-0.6","mz8ckl62hl","one_one","1","direct_first","1","er06as17","0","26","1","1","3","2","null","","","<div class = 'row'><div class = 'column'><img src = 'usneg/9330.bmp' width = '100%;'></div><div class = 'column'><img src = 'category2/CS8.png' width = '70%;'></div></div>","null","neg","CS","CS","2","category2/CS8.png","","","","",""
"","html-keyboard-response","55","298996","0.0-6.0-4.0-0.7","mz8ckl62hl","one_one","1","direct_first","1","er06as17","0","26","1","1","3","2","null","","","<div class = 'row'><div class = 'column'><img src = 'uspos/2530.bmp' width = '100%;'></div><div class = 'column'><img src = 'category1/CS9.png' width = '70%;'></div></div>","null","pos","CS","CS","1","category1/CS9.png","","","","",""
"","html-keyboard-response","56","301536","0.0-6.0-4.0-0.8","mz8ckl62hl","one_one","1","direct_first","1","er06as17","0","26","1","1","3","2","null","","","<div class = 'row'><div class = 'column'><img src = 'category2/CS8.png' width = '70%;'></div><div class = 'column'><img src = 'usneg/9330.bmp' width = '100%;'></div></div>","null","neg","CS","CS","2","category2/CS8.png","","","","",""
"","html-keyboard-response","57","304075","0.0-6.0-4.0-0.9","mz8ckl62hl","one_one","1","direct_first","1","er06as17","0","26","1","1","3","2","null","","","<div class = 'row'><div class = 'column'><img src = 'usneg/3300.bmp' width = '100%;'></div><div class = 'column'><img src = 'category3/CS10.png' width = '70%;'></div></div>","null","neg","CS","CS","3","category3/CS10.png","","","","",""
"","html-keyboard-response","58","306616","0.0-6.0-4.0-0.10","mz8ckl62hl","one_one","1","direct_first","1","er06as17","0","26","1","1","3","2","null","","","<div class = 'row'><div class = 'column'><img src = 'usneg/9330.bmp' width = '100%;'></div><div class = 'column'><img src = 'category2/CS8.png' width = '70%;'></div></div>","null","neg","CS","CS","2","category2/CS8.png","","","","",""
"","html-keyboard-response","59","309145","0.0-6.0-4.0-0.11","mz8ckl62hl","one_one","1","direct_first","1","er06as17","0","26","1","1","3","2","null","","","<div class = 'row'><div class = 'column'><img src = 'category4/CS7.png' width = '70%;'></div><div class = 'column'><img src = 'uspos/5470.bmp' width = '100%;'></div></div>","null","pos","CS","CS","4","category4/CS7.png","","","","",""
"","html-keyboard-response","60","311665","0.0-6.0-4.0-0.12","mz8ckl62hl","one_one","1","direct_first","1","er06as17","0","26","1","1","3","2","null","","","<div class = 'row'><div class = 'column'><img src = 'category3/CS10.png' width = '70%;'></div><div class = 'column'><img src = 'usneg/3300.bmp' width = '100%;'></div></div>","null","neg","CS","CS","3","category3/CS10.png","","","","",""
"","html-keyboard-response","61","314176","0.0-6.0-4.0-0.13","mz8ckl62hl","one_one","1","direct_first","1","er06as17","0","26","1","1","3","2","null","","","<div class = 'row'><div class = 'column'><img src = 'uspos/2530.bmp' width = '100%;'></div><div class = 'column'><img src = 'category1/CS9.png' width = '70%;'></div></div>","null","pos","CS","CS","1","category1/CS9.png","","","","",""
"","html-keyboard-response","62","316715","0.0-6.0-4.0-0.14","mz8ckl62hl","one_one","1","direct_first","1","er06as17","0","26","1","1","3","2","null","","","<div class = 'row'><div class = 'column'><img src = 'usneg/9330.bmp' width = '100%;'></div><div class = 'column'><img src = 'category2/CS8.png' width = '70%;'></div></div>","null","neg","CS","CS","2","category2/CS8.png","","","","",""
"","html-keyboard-response","63","319255","0.0-6.0-4.0-0.15","mz8ckl62hl","one_one","1","direct_first","1","er06as17","0","26","1","1","3","2","null","","","<div class = 'row'><div class = 'column'><img src = 'category4/CS7.png' width = '70%;'></div><div class = 'column'><img src = 'uspos/5470.bmp' width = '100%;'></div></div>","null","pos","CS","CS","4","category4/CS7.png","","","","",""
"","html-keyboard-response","64","321785","0.0-6.0-4.0-0.16","mz8ckl62hl","one_one","1","direct_first","1","er06as17","0","26","1","1","3","2","null","","","<div class = 'row'><div class = 'column'><img src = 'category2/CS8.png' width = '70%;'></div><div class = 'column'><img src = 'usneg/9330.bmp' width = '100%;'></div></div>","null","neg","CS","CS","2","category2/CS8.png","","","","",""
"","html-keyboard-response","65","324325","0.0-6.0-4.0-0.17","mz8ckl62hl","one_one","1","direct_first","1","er06as17","0","26","1","1","3","2","null","","","<div class = 'row'><div class = 'column'><img src = 'uspos/5470.bmp' width = '100%;'></div><div class = 'column'><img src = 'category4/CS7.png' width = '70%;'></div></div>","null","pos","CS","CS","4","category4/CS7.png","","","","",""
"","html-keyboard-response","66","326865","0.0-6.0-4.0-0.18","mz8ckl62hl","one_one","1","direct_first","1","er06as17","0","26","1","1","3","2","null","","","<div class = 'row'><div class = 'column'><img src = 'usneg/3300.bmp' width = '100%;'></div><div class = 'column'><img src = 'category3/CS10.png' width = '70%;'></div></div>","null","neg","CS","CS","3","category3/CS10.png","","","","",""
"","html-keyboard-response","67","329405","0.0-6.0-4.0-0.19","mz8ckl62hl","one_one","1","direct_first","1","er06as17","0","26","1","1","3","2","null","","","<div class = 'row'><div class = 'column'><img src = 'uspos/2530.bmp' width = '100%;'></div><div class = 'column'><img src = 'category1/CS9.png' width = '70%;'></div></div>","null","pos","CS","CS","1","category1/CS9.png","","","","",""
"","survey-html-form","68","340064","0.0-6.0-5.0","mz8ckl62hl","one_one","1","direct_first","1","er06as17","0","26","1","1","3","2","10138","","{}","","","","","","","","","","","",""
"","html-keyboard-response","69","344094","0.0-6.0-6.0-0.0","mz8ckl62hl","one_one","1","direct_first","1","er06as17","0","26","1","1","3","2","null","","","<div class = 'row'><div class = 'column'><img src = 'uspos/5470.bmp' width = '100%;'></div><div class = 'column'><img src = 'category4/CS7.png' width = '70%;'></div></div>","null","pos","CS","CS","4","category4/CS7.png","","","","",""
"","html-keyboard-response","70","346634","0.0-6.0-6.0-0.1","mz8ckl62hl","one_one","1","direct_first","1","er06as17","0","26","1","1","3","2","null","","","<div class = 'row'><div class = 'column'><img src = 'category1/CS9.png' width = '70%;'></div><div class = 'column'><img src = 'uspos/2530.bmp' width = '100%;'></div></div>","null","pos","CS","CS","1","category1/CS9.png","","","","",""
"","html-keyboard-response","71","349174","0.0-6.0-6.0-0.2","mz8ckl62hl","one_one","1","direct_first","1","er06as17","0","26","1","1","3","2","null","","","<div class = 'row'><div class = 'column'><img src = 'uspos/5470.bmp' width = '100%;'></div><div class = 'column'><img src = 'category4/CS7.png' width = '70%;'></div></div>","null","pos","CS","CS","4","category4/CS7.png","","","","",""
"","html-keyboard-response","72","351694","0.0-6.0-6.0-0.3","mz8ckl62hl","one_one","1","direct_first","1","er06as17","0","26","1","1","3","2","null","","","<div class = 'row'><div class = 'column'><img src = 'uspos/2530.bmp' width = '100%;'></div><div class = 'column'><img src = 'category1/CS9.png' width = '70%;'></div></div>","null","pos","CS","CS","1","category1/CS9.png","","","","",""
"","html-keyboard-response","73","354214","0.0-6.0-6.0-0.4","mz8ckl62hl","one_one","1","direct_first","1","er06as17","0","26","1","1","3","2","null","","","<div class = 'row'><div class = 'column'><img src = 'category2/CS8.png' width = '70%;'></div><div class = 'column'><img src = 'usneg/9330.bmp' width = '100%;'></div></div>","null","neg","CS","CS","2","category2/CS8.png","","","","",""
"","html-keyboard-response","74","356753","0.0-6.0-6.0-0.5","mz8ckl62hl","one_one","1","direct_first","1","er06as17","0","26","1","1","3","2","null","","","<div class = 'row'><div class = 'column'><img src = 'category4/CS7.png' width = '70%;'></div><div class = 'column'><img src = 'uspos/5470.bmp' width = '100%;'></div></div>","null","pos","CS","CS","4","category4/CS7.png","","","","",""
"","html-keyboard-response","75","359294","0.0-6.0-6.0-0.6","mz8ckl62hl","one_one","1","direct_first","1","er06as17","0","26","1","1","3","2","null","","","<div class = 'row'><div class = 'column'><img src = 'category2/CS8.png' width = '70%;'></div><div class = 'column'><img src = 'usneg/9330.bmp' width = '100%;'></div></div>","null","neg","CS","CS","2","category2/CS8.png","","","","",""
"","html-keyboard-response","76","361824","0.0-6.0-6.0-0.7","mz8ckl62hl","one_one","1","direct_first","1","er06as17","0","26","1","1","3","2","null","","","<div class = 'row'><div class = 'column'><img src = 'category4/CS7.png' width = '70%;'></div><div class = 'column'><img src = 'uspos/5470.bmp' width = '100%;'></div></div>","null","pos","CS","CS","4","category4/CS7.png","","","","",""
"","html-keyboard-response","77","364363","0.0-6.0-6.0-0.8","mz8ckl62hl","one_one","1","direct_first","1","er06as17","0","26","1","1","3","2","null","","","<div class = 'row'><div class = 'column'><img src = 'usneg/3300.bmp' width = '100%;'></div><div class = 'column'><img src = 'category3/CS10.png' width = '70%;'></div></div>","null","neg","CS","CS","3","category3/CS10.png","","","","",""
"","html-keyboard-response","78","366903","0.0-6.0-6.0-0.9","mz8ckl62hl","one_one","1","direct_first","1","er06as17","0","26","1","1","3","2","null","","","<div class = 'row'><div class = 'column'><img src = 'uspos/5470.bmp' width = '100%;'></div><div class = 'column'><img src = 'category4/CS7.png' width = '70%;'></div></div>","null","pos","CS","CS","4","category4/CS7.png","","","","",""
"","html-keyboard-response","79","369444","0.0-6.0-6.0-0.10","mz8ckl62hl","one_one","1","direct_first","1","er06as17","0","26","1","1","3","2","null","","","<div class = 'row'><div class = 'column'><img src = 'category1/CS9.png' width = '70%;'></div><div class = 'column'><img src = 'uspos/2530.bmp' width = '100%;'></div></div>","null","pos","CS","CS","1","category1/CS9.png","","","","",""
"","html-keyboard-response","80","371984","0.0-6.0-6.0-0.11","mz8ckl62hl","one_one","1","direct_first","1","er06as17","0","26","1","1","3","2","null","","","<div class = 'row'><div class = 'column'><img src = 'category3/CS10.png' width = '70%;'></div><div class = 'column'><img src = 'usneg/3300.bmp' width = '100%;'></div></div>","null","neg","CS","CS","3","category3/CS10.png","","","","",""
"","html-keyboard-response","81","374514","0.0-6.0-6.0-0.12","mz8ckl62hl","one_one","1","direct_first","1","er06as17","0","26","1","1","3","2","null","","","<div class = 'row'><div class = 'column'><img src = 'usneg/9330.bmp' width = '100%;'></div><div class = 'column'><img src = 'category2/CS8.png' width = '70%;'></div></div>","null","neg","CS","CS","2","category2/CS8.png","","","","",""
"","html-keyboard-response","82","377054","0.0-6.0-6.0-0.13","mz8ckl62hl","one_one","1","direct_first","1","er06as17","0","26","1","1","3","2","null","","","<div class = 'row'><div class = 'column'><img src = 'category1/CS9.png' width = '70%;'></div><div class = 'column'><img src = 'uspos/2530.bmp' width = '100%;'></div></div>","null","pos","CS","CS","1","category1/CS9.png","","","","",""
"","html-keyboard-response","83","379583","0.0-6.0-6.0-0.14","mz8ckl62hl","one_one","1","direct_first","1","er06as17","0","26","1","1","3","2","null","","","<div class = 'row'><div class = 'column'><img src = 'usneg/3300.bmp' width = '100%;'></div><div class = 'column'><img src = 'category3/CS10.png' width = '70%;'></div></div>","null","neg","CS","CS","3","category3/CS10.png","","","","",""
"","html-keyboard-response","84","382121","0.0-6.0-6.0-0.15","mz8ckl62hl","one_one","1","direct_first","1","er06as17","0","26","1","1","3","2","null","","","<div class = 'row'><div class = 'column'><img src = 'category1/CS9.png' width = '70%;'></div><div class = 'column'><img src = 'uspos/2530.bmp' width = '100%;'></div></div>","null","pos","CS","CS","1","category1/CS9.png","","","","",""
"","html-keyboard-response","85","384624","0.0-6.0-6.0-0.16","mz8ckl62hl","one_one","1","direct_first","1","er06as17","0","26","1","1","3","2","null","","","<div class = 'row'><div class = 'column'><img src = 'category2/CS8.png' width = '70%;'></div><div class = 'column'><img src = 'usneg/9330.bmp' width = '100%;'></div></div>","null","neg","CS","CS","2","category2/CS8.png","","","","",""
"","html-keyboard-response","86","387143","0.0-6.0-6.0-0.17","mz8ckl62hl","one_one","1","direct_first","1","er06as17","0","26","1","1","3","2","null","","","<div class = 'row'><div class = 'column'><img src = 'usneg/3300.bmp' width = '100%;'></div><div class = 'column'><img src = 'category3/CS10.png' width = '70%;'></div></div>","null","neg","CS","CS","3","category3/CS10.png","","","","",""
"","html-keyboard-response","87","389683","0.0-6.0-6.0-0.18","mz8ckl62hl","one_one","1","direct_first","1","er06as17","0","26","1","1","3","2","null","","","<div class = 'row'><div class = 'column'><img src = 'category2/CS8.png' width = '70%;'></div><div class = 'column'><img src = 'usneg/9330.bmp' width = '100%;'></div></div>","null","neg","CS","CS","2","category2/CS8.png","","","","",""
"","html-keyboard-response","88","392223","0.0-6.0-6.0-0.19","mz8ckl62hl","one_one","1","direct_first","1","er06as17","0","26","1","1","3","2","null","","","<div class = 'row'><div class = 'column'><img src = 'usneg/3300.bmp' width = '100%;'></div><div class = 'column'><img src = 'category3/CS10.png' width = '70%;'></div></div>","null","neg","CS","CS","3","category3/CS10.png","","","","",""
"","survey-html-form","89","399439","0.0-7.0","mz8ckl62hl","one_one","1","direct_first","1","er06as17","0","26","1","1","3","2","6694","","{}","","","","","","","","","","","",""
"","image-slider-response","90","409286","0.0-8.0-0.0","mz8ckl62hl","one_one","1","direct_first","1","er06as17","0","26","1","1","3","2","7835","","","","","neg","GS","GSold","3","category3/CS1.png","-54","targets/23.png","direct","",""
"","image-slider-response","91","413894","0.0-8.0-0.1","mz8ckl62hl","one_one","1","direct_first","1","er06as17","0","26","1","1","3","2","4607","","","","","pos","GS","GSnew","4","category4/GS2.png","-66","targets/10.png","direct","",""
"","image-slider-response","92","417270","0.0-8.0-0.2","mz8ckl62hl","one_one","1","direct_first","1","er06as17","0","26","1","1","3","2","3376","","","","","pos","GS","GSnew","1","category1/GS3.png","22","targets/7.png","direct","",""
"","image-slider-response","93","421045","0.0-8.0-0.3","mz8ckl62hl","one_one","1","direct_first","1","er06as17","0","26","1","1","3","2","3774","","","","","pos","GS","abstract","4","category4/lin.png","-56","targets/45.png","direct","",""
"","image-slider-response","94","424830","0.0-8.0-0.4","mz8ckl62hl","one_one","1","direct_first","1","er06as17","0","26","1","1","3","2","3782","","","","","neg","GS","GSold","3","category3/CS4.png","-82","targets/38.png","direct","",""
"","image-slider-response","95","428462","0.0-8.0-0.5","mz8ckl62hl","one_one","1","direct_first","1","er06as17","0","26","1","1","3","2","3630","","","","","neg","GS","GSnew","3","category3/GS3.png","-31","targets/40.png","direct","",""
"","image-slider-response","96","432469","0.0-8.0-0.6","mz8ckl62hl","one_one","1","direct_first","1","er06as17","0","26","1","1","3","2","4007","","","","","neg","GS","abstract","2","category2/men.png","-36","targets/30.png","direct","",""
"","image-slider-response","97","437037","0.0-8.0-0.7","mz8ckl62hl","one_one","1","direct_first","1","er06as17","0","26","1","1","3","2","4567","","","","","pos","GS","GSold","4","category4/CS5.png","-75","targets/22.png","direct","",""
"","image-slider-response","98","441638","0.0-8.0-0.8","mz8ckl62hl","one_one","1","direct_first","1","er06as17","0","26","1","1","3","2","4599","","","","","neg","GS","GSnew","3","category3/GS1.png","-73","targets/12.png","direct","",""
"","image-slider-response","99","445534","0.0-8.0-0.9","mz8ckl62hl","one_one","1","direct_first","1","er06as17","0","26","1","1","3","2","3894","","","","","pos","GS","GSnew","4","category4/GS3.png","-80","targets/31.png","direct","",""
"","image-slider-response","100","449614","0.0-8.0-0.10","mz8ckl62hl","one_one","1","direct_first","1","er06as17","0","26","1","1","3","2","4078","","","","","neg","CS","CS","2","category2/CS8.png","-74","targets/16.png","direct","",""
"","image-slider-response","101","453934","0.0-8.0-0.11","mz8ckl62hl","one_one","1","direct_first","1","er06as17","0","26","1","1","3","2","4319","","","","","neg","GS","GSnew","2","category2/GS1.png","24","targets/5.png","direct","",""
"","image-slider-response","102","457462","0.0-8.0-0.12","mz8ckl62hl","one_one","1","direct_first","1","er06as17","0","26","1","1","3","2","3527","","","","","neg","GS","GSold","3","category3/CS8.png","-69","targets/48.png","direct","",""
"","image-slider-response","103","460614","0.0-8.0-0.13","mz8ckl62hl","one_one","1","direct_first","1","er06as17","0","26","1","1","3","2","3150","","","","","neg","GS","GSnew","2","category2/GS2.png","-60","targets/6.png","direct","",""
"","image-slider-response","104","464541","0.0-8.0-0.14","mz8ckl62hl","one_one","1","direct_first","1","er06as17","0","26","1","1","3","2","3927","","","","","neg","GS","GSold","2","category2/CS3.png","14","targets/24.png","direct","",""
"","image-slider-response","105","468270","0.0-8.0-0.15","mz8ckl62hl","one_one","1","direct_first","1","er06as17","0","26","1","1","3","2","3727","","","","","pos","GS","GSnew","4","category4/GS1.png","-71","targets/20.png","direct","",""
"","image-slider-response","106","474317","0.0-8.0-0.16","mz8ckl62hl","one_one","1","direct_first","1","er06as17","0","26","1","1","3","2","6047","","","","","pos","GS","GSnew","1","category1/GS2.png","-37","targets/17.png","direct","",""
"","image-slider-response","107","477622","0.0-8.0-0.17","mz8ckl62hl","one_one","1","direct_first","1","er06as17","0","26","1","1","3","2","3302","","","","","pos","GS","abstract","1","category1/ma.png","-82","targets/26.png","direct","",""
"","image-slider-response","108","480198","0.0-8.0-0.18","mz8ckl62hl","one_one","1","direct_first","1","er06as17","0","26","1","1","3","2","2575","","","","","neg","GS","GSnew","2","category2/GS3.png","-80","targets/1.png","direct","",""
"","image-slider-response","109","485310","0.0-8.0-0.19","mz8ckl62hl","one_one","1","direct_first","1","er06as17","0","26","1","1","3","2","5111","","","","","pos","CS","CS","4","category4/CS7.png","-84","targets/25.png","direct","",""
"","image-slider-response","110","489118","0.0-8.0-0.20","mz8ckl62hl","one_one","1","direct_first","1","er06as17","0","26","1","1","3","2","3808","","","","","neg","GS","GSold","2","category2/CS7.png","-89","targets/47.png","direct","",""
"","image-slider-response","111","492398","0.0-8.0-0.21","mz8ckl62hl","one_one","1","direct_first","1","er06as17","0","26","1","1","3","2","3280","","","","","pos","GS","GSold","1","category1/CS6.png","32","targets/43.png","direct","",""
"","image-slider-response","112","495405","0.0-8.0-0.22","mz8ckl62hl","one_one","1","direct_first","1","er06as17","0","26","1","1","3","2","3007","","","","","pos","GS","GSold","1","category1/CS8.png","33","targets/27.png","direct","",""
"","image-slider-response","113","498637","0.0-8.0-0.23","mz8ckl62hl","one_one","1","direct_first","1","er06as17","0","26","1","1","3","2","3232","","","","","pos","GS","GSold","4","category4/CS1.png","-76","targets/34.png","direct","",""
"","image-slider-response","114","502198","0.0-8.0-0.24","mz8ckl62hl","one_one","1","direct_first","1","er06as17","0","26","1","1","3","2","3558","","","","","neg","GS","abstract","3","category3/wang.png","-5","targets/39.png","direct","",""
"","image-slider-response","115","507061","0.0-8.0-0.25","mz8ckl62hl","one_one","1","direct_first","1","er06as17","0","26","1","1","3","2","4863","","","","","pos","GS","GSold","1","category1/CS4.png","10","targets/29.png","direct","",""
"","image-slider-response","116","512318","0.0-8.0-0.26","mz8ckl62hl","one_one","1","direct_first","1","er06as17","0","26","1","1","3","2","5255","","","","","neg","GS","GSnew","3","category3/GS2.png","-84","targets/37.png","direct","",""
"","image-slider-response","117","515822","0.0-8.0-0.27","mz8ckl62hl","one_one","1","direct_first","1","er06as17","0","26","1","1","3","2","3503","","","","","pos","CS","CS","1","category1/CS9.png","25","targets/4.png","direct","",""
"","image-slider-response","118","518918","0.0-8.0-0.28","mz8ckl62hl","one_one","1","direct_first","1","er06as17","0","26","1","1","3","2","3095","","","","","pos","GS","GSold","4","category4/CS10.png","-68","targets/8.png","direct","",""
"","image-slider-response","119","522550","0.0-8.0-0.29","mz8ckl62hl","one_one","1","direct_first","1","er06as17","0","26","1","1","3","2","3631","","","","","pos","GS","GSnew","1","category1/GS1.png","-25","targets/35.png","direct","",""
"","image-slider-response","120","525933","0.0-8.0-0.30","mz8ckl62hl","one_one","1","direct_first","1","er06as17","0","26","1","1","3","2","3383","","","","","neg","GS","GSold","2","category2/CS6.png","-46","targets/33.png","direct","",""
"","image-slider-response","121","530925","0.0-8.0-0.31","mz8ckl62hl","one_one","1","direct_first","1","er06as17","0","26","1","1","3","2","4990","","","","","neg","CS","CS","3","category3/CS10.png","-84","targets/2.png","direct","",""
"","html-keyboard-response","122","563184","0.0-9.0","mz8ckl62hl","one_one","1","direct_first","1","er06as17","0","26","1","1","3","2","32256","","","<p>Sie sehen nun die chinesischen Zeichen nur ganz kurz. Danach sehen Sie die jeweilige Aussprache der Zeichen als Silbe auf dem Bildschrim. Ihre Aufgabe ist es, für jede Silbe anzugeben, ob diese etwas angenehmes, oder unangenehmes bedeuten könnte. Verlassen Sie sich hier vor allem auf Ihre Intuition.<br><br>Die Zeichen werden nur zur Orientierung dargestellt, beachten Sie sie deshalb nicht. Konzentrieren Sie sich vor allem auf die Silben. <br>Reagieren Sie mit folgenden zwei Tasten: <br><br><b>'D' </b> wenn die Silbe etwas <b>unangenehmes</b> bedeuten könnte. <br><b>'K'</b> wenn die Silbe etwas <b>angenehmes</b> bedeuten könnte. <br><br>Bitte legen Sie nun den Zeigefinger der linken Hand auf die Taste 'D' und den Zeigefinger der rechten Hand auf die Taste 'K'. <br>Reagieren Sie auf jede Silbe so schnell wie möglich. Uns interessiert Ihre spontane Reaktion. <br> <br> <br>Drücken Sie 'D' oder 'K', um die nächste Aufgabe zu starten. </p>","68","","","","","","","","","",""
"","html-keyboard-response","123","566224","0.0-10.0-0.0","mz8ckl62hl","one_one","1","direct_first","1","er06as17","0","26","1","1","3","2","null","","","<div style=""font-size:60px;"">+</div>","null","","","","","","","","","",""
"","html-keyboard-response","124","566324","0.0-10.0-1.0","mz8ckl62hl","one_one","1","direct_first","1","er06as17","0","26","1","1","3","2","null","","","<img src = 'category3/CS10.png' width = '100%;'>","null","","","","","","","","","",""
"","html-keyboard-response","125","566604","0.0-10.0-2.0","mz8ckl62hl","one_one","1","direct_first","1","er06as17","0","26","1","1","3","2","null","","","<img src = 'targets/2.png' width = '100%;'>","null","","","","","","","","","",""
"","html-keyboard-response","126","568480","0.0-10.0-3.0","mz8ckl62hl","one_one","1","direct_first","1","er06as17","0","26","1","1","3","2","1874","","","<img src = 'targets/mask.png' width = '100%;'>","75","neg","CS","CS","3","category3/CS10.png","","targets/2.png","indirect","1","0"
"","html-keyboard-response","127","570003","0.0-10.0-0.1","mz8ckl62hl","one_one","1","direct_first","1","er06as17","0","26","1","1","3","2","null","","","<div style=""font-size:60px;"">+</div>","null","","","","","","","","","",""
"","html-keyboard-response","128","570104","0.0-10.0-1.1","mz8ckl62hl","one_one","1","direct_first","1","er06as17","0","26","1","1","3","2","null","","","<img src = 'category3/CS1.png' width = '100%;'>","null","","","","","","","","","",""
"","html-keyboard-response","129","570384","0.0-10.0-2.1","mz8ckl62hl","one_one","1","direct_first","1","er06as17","0","26","1","1","3","2","null","","","<img src = 'targets/23.png' width = '100%;'>","null","","","","","","","","","",""
"","html-keyboard-response","130","571512","0.0-10.0-3.1","mz8ckl62hl","one_one","1","direct_first","1","er06as17","0","26","1","1","3","2","1126","","","<img src = 'targets/mask.png' width = '100%;'>","68","neg","GS","GSold","3","category3/CS1.png","","targets/23.png","indirect","0","1"
"","html-keyboard-response","131","573044","0.0-10.0-0.2","mz8ckl62hl","one_one","1","direct_first","1","er06as17","0","26","1","1","3","2","null","","","<div style=""font-size:60px;"">+</div>","null","","","","","","","","","",""
"","html-keyboard-response","132","573144","0.0-10.0-1.2","mz8ckl62hl","one_one","1","direct_first","1","er06as17","0","26","1","1","3","2","null","","","<img src = 'category3/CS4.png' width = '100%;'>","null","","","","","","","","","",""
"","html-keyboard-response","133","573424","0.0-10.0-2.2","mz8ckl62hl","one_one","1","direct_first","1","er06as17","0","26","1","1","3","2","null","","","<img src = 'targets/38.png' width = '100%;'>","null","","","","","","","","","",""
"","html-keyboard-response","134","575423","0.0-10.0-3.2","mz8ckl62hl","one_one","1","direct_first","1","er06as17","0","26","1","1","3","2","1997","","","<img src = 'targets/mask.png' width = '100%;'>","68","neg","GS","GSold","3","category3/CS4.png","","targets/38.png","indirect","0","2"
"","html-keyboard-response","135","576963","0.0-10.0-0.3","mz8ckl62hl","one_one","1","direct_first","1","er06as17","0","26","1","1","3","2","null","","","<div style=""font-size:60px;"">+</div>","null","","","","","","","","","",""
"","html-keyboard-response","136","577063","0.0-10.0-1.3","mz8ckl62hl","one_one","1","direct_first","1","er06as17","0","26","1","1","3","2","null","","","<img src = 'category4/CS7.png' width = '100%;'>","null","","","","","","","","","",""
"","html-keyboard-response","137","577344","0.0-10.0-2.3","mz8ckl62hl","one_one","1","direct_first","1","er06as17","0","26","1","1","3","2","null","","","<img src = 'targets/25.png' width = '100%;'>","null","","","","","","","","","",""
"","html-keyboard-response","138","578039","0.0-10.0-3.3","mz8ckl62hl","one_one","1","direct_first","1","er06as17","0","26","1","1","3","2","693","","","<img src = 'targets/mask.png' width = '100%;'>","68","pos","CS","CS","4","category4/CS7.png","","targets/25.png","indirect","0","3"
"","html-keyboard-response","139","579564","0.0-10.0-0.4","mz8ckl62hl","one_one","1","direct_first","1","er06as17","0","26","1","1","3","2","null","","","<div style=""font-size:60px;"">+</div>","null","","","","","","","","","",""
"","html-keyboard-response","140","579664","0.0-10.0-1.4","mz8ckl62hl","one_one","1","direct_first","1","er06as17","0","26","1","1","3","2","null","","","<img src = 'category1/CS4.png' width = '100%;'>","null","","","","","","","","","",""
"","html-keyboard-response","141","579944","0.0-10.0-2.4","mz8ckl62hl","one_one","1","direct_first","1","er06as17","0","26","1","1","3","2","null","","","<img src = 'targets/29.png' width = '100%;'>","null","","","","","","","","","",""
"","html-keyboard-response","142","580199","0.0-10.0-3.4","mz8ckl62hl","one_one","1","direct_first","1","er06as17","0","26","1","1","3","2","253","","","<img src = 'targets/mask.png' width = '100%;'>","75","pos","GS","GSold","1","category1/CS4.png","","targets/29.png","indirect","1","4"
"","html-keyboard-response","143","581721","0.0-10.0-0.5","mz8ckl62hl","one_one","1","direct_first","1","er06as17","0","26","1","1","3","2","null","","","<div style=""font-size:60px;"">+</div>","null","","","","","","","","","",""
"","html-keyboard-response","144","581822","0.0-10.0-1.5","mz8ckl62hl","one_one","1","direct_first","1","er06as17","0","26","1","1","3","2","null","","","<img src = 'category2/CS3.png' width = '100%;'>","null","","","","","","","","","",""
"","html-keyboard-response","145","582104","0.0-10.0-2.5","mz8ckl62hl","one_one","1","direct_first","1","er06as17","0","26","1","1","3","2","null","","","<img src = 'targets/24.png' width = '100%;'>","null","","","","","","","","","",""
"","html-keyboard-response","146","582535","0.0-10.0-3.5","mz8ckl62hl","one_one","1","direct_first","1","er06as17","0","26","1","1","3","2","429","","","<img src = 'targets/mask.png' width = '100%;'>","75","neg","GS","GSold","2","category2/CS3.png","","targets/24.png","indirect","1","5"
"","html-keyboard-response","147","584064","0.0-10.0-0.6","mz8ckl62hl","one_one","1","direct_first","1","er06as17","0","26","1","1","3","2","null","","","<div style=""font-size:60px;"">+</div>","null","","","","","","","","","",""
"","html-keyboard-response","148","584164","0.0-10.0-1.6","mz8ckl62hl","one_one","1","direct_first","1","er06as17","0","26","1","1","3","2","null","","","<img src = 'category4/CS5.png' width = '100%;'>","null","","","","","","","","","",""
"","html-keyboard-response","149","584444","0.0-10.0-2.6","mz8ckl62hl","one_one","1","direct_first","1","er06as17","0","26","1","1","3","2","null","","","<img src = 'targets/22.png' width = '100%;'>","null","","","","","","","","","",""
"","html-keyboard-response","150","585063","0.0-10.0-3.6","mz8ckl62hl","one_one","1","direct_first","1","er06as17","0","26","1","1","3","2","618","","","<img src = 'targets/mask.png' width = '100%;'>","75","pos","GS","GSold","4","category4/CS5.png","","targets/22.png","indirect","1","6"
"","html-keyboard-response","151","586584","0.0-10.0-0.7","mz8ckl62hl","one_one","1","direct_first","1","er06as17","0","26","1","1","3","2","null","","","<div style=""font-size:60px;"">+</div>","null","","","","","","","","","",""
"","html-keyboard-response","152","586684","0.0-10.0-1.7","mz8ckl62hl","one_one","1","direct_first","1","er06as17","0","26","1","1","3","2","null","","","<img src = 'category2/CS6.png' width = '100%;'>","null","","","","","","","","","",""
"","html-keyboard-response","153","586964","0.0-10.0-2.7","mz8ckl62hl","one_one","1","direct_first","1","er06as17","0","26","1","1","3","2","null","","","<img src = 'targets/33.png' width = '100%;'>","null","","","","","","","","","",""
"","html-keyboard-response","154","588262","0.0-10.0-3.7","mz8ckl62hl","one_one","1","direct_first","1","er06as17","0","26","1","1","3","2","1299","","","<img src = 'targets/mask.png' width = '100%;'>","68","neg","GS","GSold","2","category2/CS6.png","","targets/33.png","indirect","0","7"
"","html-keyboard-response","155","589774","0.0-10.0-0.8","mz8ckl62hl","one_one","1","direct_first","1","er06as17","0","26","1","1","3","2","null","","","<div style=""font-size:60px;"">+</div>","null","","","","","","","","","",""
"","html-keyboard-response","156","589874","0.0-10.0-1.8","mz8ckl62hl","one_one","1","direct_first","1","er06as17","0","26","1","1","3","2","null","","","<img src = 'category1/CS8.png' width = '100%;'>","null","","","","","","","","","",""
"","html-keyboard-response","157","590154","0.0-10.0-2.8","mz8ckl62hl","one_one","1","direct_first","1","er06as17","0","26","1","1","3","2","null","","","<img src = 'targets/27.png' width = '100%;'>","null","","","","","","","","","",""
"","html-keyboard-response","158","590647","0.0-10.0-3.8","mz8ckl62hl","one_one","1","direct_first","1","er06as17","0","26","1","1","3","2","491","","","<img src = 'targets/mask.png' width = '100%;'>","75","pos","GS","GSold","1","category1/CS8.png","","targets/27.png","indirect","1","8"
"","html-keyboard-response","159","592164","0.0-10.0-0.9","mz8ckl62hl","one_one","1","direct_first","1","er06as17","0","26","1","1","3","2","null","","","<div style=""font-size:60px;"">+</div>","null","","","","","","","","","",""
"","html-keyboard-response","160","592264","0.0-10.0-1.9","mz8ckl62hl","one_one","1","direct_first","1","er06as17","0","26","1","1","3","2","null","","","<img src = 'category4/CS10.png' width = '100%;'>","null","","","","","","","","","",""
"","html-keyboard-response","161","592543","0.0-10.0-2.9","mz8ckl62hl","one_one","1","direct_first","1","er06as17","0","26","1","1","3","2","null","","","<img src = 'targets/8.png' width = '100%;'>","null","","","","","","","","","",""
"","html-keyboard-response","162","594679","0.0-10.0-3.9","mz8ckl62hl","one_one","1","direct_first","1","er06as17","0","26","1","1","3","2","2135","","","<img src = 'targets/mask.png' width = '100%;'>","75","pos","GS","GSold","4","category4/CS10.png","","targets/8.png","indirect","1","9"
"","html-keyboard-response","163","596204","0.0-10.0-0.10","mz8ckl62hl","one_one","1","direct_first","1","er06as17","0","26","1","1","3","2","null","","","<div style=""font-size:60px;"">+</div>","null","","","","","","","","","",""
"","html-keyboard-response","164","596304","0.0-10.0-1.10","mz8ckl62hl","one_one","1","direct_first","1","er06as17","0","26","1","1","3","2","null","","","<img src = 'category2/CS7.png' width = '100%;'>","null","","","","","","","","","",""
"","html-keyboard-response","165","596584","0.0-10.0-2.10","mz8ckl62hl","one_one","1","direct_first","1","er06as17","0","26","1","1","3","2","null","","","<img src = 'targets/47.png' width = '100%;'>","null","","","","","","","","","",""
"","html-keyboard-response","166","597199","0.0-10.0-3.10","mz8ckl62hl","one_one","1","direct_first","1","er06as17","0","26","1","1","3","2","613","","","<img src = 'targets/mask.png' width = '100%;'>","75","neg","GS","GSold","2","category2/CS7.png","","targets/47.png","indirect","1","10"
"","html-keyboard-response","167","598723","0.0-10.0-0.11","mz8ckl62hl","one_one","1","direct_first","1","er06as17","0","26","1","1","3","2","null","","","<div style=""font-size:60px;"">+</div>","null","","","","","","","","","",""
"","html-keyboard-response","168","598824","0.0-10.0-1.11","mz8ckl62hl","one_one","1","direct_first","1","er06as17","0","26","1","1","3","2","null","","","<img src = 'category1/CS9.png' width = '100%;'>","null","","","","","","","","","",""
"","html-keyboard-response","169","599104","0.0-10.0-2.11","mz8ckl62hl","one_one","1","direct_first","1","er06as17","0","26","1","1","3","2","null","","","<img src = 'targets/4.png' width = '100%;'>","null","","","","","","","","","",""
"","html-keyboard-response","170","599646","0.0-10.0-3.11","mz8ckl62hl","one_one","1","direct_first","1","er06as17","0","26","1","1","3","2","541","","","<img src = 'targets/mask.png' width = '100%;'>","75","pos","CS","CS","1","category1/CS9.png","","targets/4.png","indirect","1","11"
"","html-keyboard-response","171","601184","0.0-10.0-0.12","mz8ckl62hl","one_one","1","direct_first","1","er06as17","0","26","1","1","3","2","null","","","<div style=""font-size:60px;"">+</div>","null","","","","","","","","","",""
"","html-keyboard-response","172","601284","0.0-10.0-1.12","mz8ckl62hl","one_one","1","direct_first","1","er06as17","0","26","1","1","3","2","null","","","<img src = 'category2/CS8.png' width = '100%;'>","null","","","","","","","","","",""
"","html-keyboard-response","173","601563","0.0-10.0-2.12","mz8ckl62hl","one_one","1","direct_first","1","er06as17","0","26","1","1","3","2","null","","","<img src = 'targets/16.png' width = '100%;'>","null","","","","","","","","","",""
"","html-keyboard-response","174","602327","0.0-10.0-3.12","mz8ckl62hl","one_one","1","direct_first","1","er06as17","0","26","1","1","3","2","761","","","<img src = 'targets/mask.png' width = '100%;'>","68","neg","CS","CS","2","category2/CS8.png","","targets/16.png","indirect","0","12"
"","html-keyboard-response","175","603854","0.0-10.0-0.13","mz8ckl62hl","one_one","1","direct_first","1","er06as17","0","26","1","1","3","2","null","","","<div style=""font-size:60px;"">+</div>","null","","","","","","","","","",""
"","html-keyboard-response","176","603954","0.0-10.0-1.13","mz8ckl62hl","one_one","1","direct_first","1","er06as17","0","26","1","1","3","2","null","","","<img src = 'category1/CS6.png' width = '100%;'>","null","","","","","","","","","",""
"","html-keyboard-response","177","604233","0.0-10.0-2.13","mz8ckl62hl","one_one","1","direct_first","1","er06as17","0","26","1","1","3","2","null","","","<img src = 'targets/43.png' width = '100%;'>","null","","","","","","","","","",""
"","html-keyboard-response","178","604615","0.0-10.0-3.13","mz8ckl62hl","one_one","1","direct_first","1","er06as17","0","26","1","1","3","2","379","","","<img src = 'targets/mask.png' width = '100%;'>","68","pos","GS","GSold","1","category1/CS6.png","","targets/43.png","indirect","0","13"
"","html-keyboard-response","179","606153","0.0-10.0-0.14","mz8ckl62hl","one_one","1","direct_first","1","er06as17","0","26","1","1","3","2","null","","","<div style=""font-size:60px;"">+</div>","null","","","","","","","","","",""
"","html-keyboard-response","180","606254","0.0-10.0-1.14","mz8ckl62hl","one_one","1","direct_first","1","er06as17","0","26","1","1","3","2","null","","","<img src = 'category3/CS8.png' width = '100%;'>","null","","","","","","","","","",""
"","html-keyboard-response","181","606534","0.0-10.0-2.14","mz8ckl62hl","one_one","1","direct_first","1","er06as17","0","26","1","1","3","2","null","","","<img src = 'targets/48.png' width = '100%;'>","null","","","","","","","","","",""
"","html-keyboard-response","182","606991","0.0-10.0-3.14","mz8ckl62hl","one_one","1","direct_first","1","er06as17","0","26","1","1","3","2","455","","","<img src = 'targets/mask.png' width = '100%;'>","68","neg","GS","GSold","3","category3/CS8.png","","targets/48.png","indirect","0","14"
"","html-keyboard-response","183","608514","0.0-10.0-0.15","mz8ckl62hl","one_one","1","direct_first","1","er06as17","0","26","1","1","3","2","null","","","<div style=""font-size:60px;"">+</div>","null","","","","","","","","","",""
"","html-keyboard-response","184","608613","0.0-10.0-1.15","mz8ckl62hl","one_one","1","direct_first","1","er06as17","0","26","1","1","3","2","null","","","<img src = 'category4/CS1.png' width = '100%;'>","null","","","","","","","","","",""
"","html-keyboard-response","185","608892","0.0-10.0-2.15","mz8ckl62hl","one_one","1","direct_first","1","er06as17","0","26","1","1","3","2","null","","","<img src = 'targets/34.png' width = '100%;'>","null","","","","","","","","","",""
"","html-keyboard-response","186","609391","0.0-10.0-3.15","mz8ckl62hl","one_one","1","direct_first","1","er06as17","0","26","1","1","3","2","498","","","<img src = 'targets/mask.png' width = '100%;'>","75","pos","GS","GSold","4","category4/CS1.png","","targets/34.png","indirect","1","15"
"","survey-html-form","187","619135","0.0-11.0","mz8ckl62hl","one_one","1","direct_first","1","er06as17","0","26","1","1","3","2","9241","","{}","","","","","","","","","","","",""
"","html-keyboard-response","188","622173","0.0-12.0-0.0","mz8ckl62hl","one_one","1","direct_first","1","er06as17","0","26","1","1","3","2","null","","","<div style=""font-size:60px;"">+</div>","null","","","","","","","","","",""
"","html-keyboard-response","189","622274","0.0-12.0-1.0","mz8ckl62hl","one_one","1","direct_first","1","er06as17","0","26","1","1","3","2","null","","","<img src = 'category4/GS3.png' width = '100%;'>","null","","","","","","","","","",""
"","html-keyboard-response","190","622554","0.0-12.0-2.0","mz8ckl62hl","one_one","1","direct_first","1","er06as17","0","26","1","1","3","2","null","","","<img src = 'targets/31.png' width = '100%;'>","null","","","","","","","","","",""
"","html-keyboard-response","191","623479","0.0-12.0-3.0","mz8ckl62hl","one_one","1","direct_first","1","er06as17","0","26","1","1","3","2","923","","","<img src = 'targets/mask.png' width = '100%;'>","75","pos","GS","GSnew","4","category4/GS3.png","","targets/31.png","indirect","1","16"
"","html-keyboard-response","192","625014","0.0-12.0-0.1","mz8ckl62hl","one_one","1","direct_first","1","er06as17","0","26","1","1","3","2","null","","","<div style=""font-size:60px;"">+</div>","null","","","","","","","","","",""
"","html-keyboard-response","193","625114","0.0-12.0-1.1","mz8ckl62hl","one_one","1","direct_first","1","er06as17","0","26","1","1","3","2","null","","","<img src = 'category3/wang.png' width = '100%;'>","null","","","","","","","","","",""
"","html-keyboard-response","194","625394","0.0-12.0-2.1","mz8ckl62hl","one_one","1","direct_first","1","er06as17","0","26","1","1","3","2","null","","","<img src = 'targets/39.png' width = '100%;'>","null","","","","","","","","","",""
"","html-keyboard-response","195","625919","0.0-12.0-3.1","mz8ckl62hl","one_one","1","direct_first","1","er06as17","0","26","1","1","3","2","525","","","<img src = 'targets/mask.png' width = '100%;'>","68","neg","GS","abstract","3","category3/wang.png","","targets/39.png","indirect","0","17"
"","html-keyboard-response","196","627444","0.0-12.0-0.2","mz8ckl62hl","one_one","1","direct_first","1","er06as17","0","26","1","1","3","2","null","","","<div style=""font-size:60px;"">+</div>","null","","","","","","","","","",""
"","html-keyboard-response","197","627544","0.0-12.0-1.2","mz8ckl62hl","one_one","1","direct_first","1","er06as17","0","26","1","1","3","2","null","","","<img src = 'category2/men.png' width = '100%;'>","null","","","","","","","","","",""
"","html-keyboard-response","198","627824","0.0-12.0-2.2","mz8ckl62hl","one_one","1","direct_first","1","er06as17","0","26","1","1","3","2","null","","","<img src = 'targets/30.png' width = '100%;'>","null","","","","","","","","","",""
"","html-keyboard-response","199","628166","0.0-12.0-3.2","mz8ckl62hl","one_one","1","direct_first","1","er06as17","0","26","1","1","3","2","341","","","<img src = 'targets/mask.png' width = '100%;'>","68","neg","GS","abstract","2","category2/men.png","","targets/30.png","indirect","0","18"
"","html-keyboard-response","200","629684","0.0-12.0-0.3","mz8ckl62hl","one_one","1","direct_first","1","er06as17","0","26","1","1","3","2","null","","","<div style=""font-size:60px;"">+</div>","null","","","","","","","","","",""
"","html-keyboard-response","201","629784","0.0-12.0-1.3","mz8ckl62hl","one_one","1","direct_first","1","er06as17","0","26","1","1","3","2","null","","","<img src = 'category3/GS3.png' width = '100%;'>","null","","","","","","","","","",""
"","html-keyboard-response","202","630064","0.0-12.0-2.3","mz8ckl62hl","one_one","1","direct_first","1","er06as17","0","26","1","1","3","2","null","","","<img src = 'targets/40.png' width = '100%;'>","null","","","","","","","","","",""
"","html-keyboard-response","203","630663","0.0-12.0-3.3","mz8ckl62hl","one_one","1","direct_first","1","er06as17","0","26","1","1","3","2","597","","","<img src = 'targets/mask.png' width = '100%;'>","68","neg","GS","GSnew","3","category3/GS3.png","","targets/40.png","indirect","0","19"
"","html-keyboard-response","204","632184","0.0-12.0-0.4","mz8ckl62hl","one_one","1","direct_first","1","er06as17","0","26","1","1","3","2","null","","","<div style=""font-size:60px;"">+</div>","null","","","","","","","","","",""
"","html-keyboard-response","205","632283","0.0-12.0-1.4","mz8ckl62hl","one_one","1","direct_first","1","er06as17","0","26","1","1","3","2","null","","","<img src = 'category1/GS1.png' width = '100%;'>","null","","","","","","","","","",""
"","html-keyboard-response","206","632563","0.0-12.0-2.4","mz8ckl62hl","one_one","1","direct_first","1","er06as17","0","26","1","1","3","2","null","","","<img src = 'targets/35.png' width = '100%;'>","null","","","","","","","","","",""
"","html-keyboard-response","207","632983","0.0-12.0-3.4","mz8ckl62hl","one_one","1","direct_first","1","er06as17","0","26","1","1","3","2","416","","","<img src = 'targets/mask.png' width = '100%;'>","75","pos","GS","GSnew","1","category1/GS1.png","","targets/35.png","indirect","1","20"
"","html-keyboard-response","208","634504","0.0-12.0-0.5","mz8ckl62hl","one_one","1","direct_first","1","er06as17","0","26","1","1","3","2","null","","","<div style=""font-size:60px;"">+</div>","null","","","","","","","","","",""
"","html-keyboard-response","209","634604","0.0-12.0-1.5","mz8ckl62hl","one_one","1","direct_first","1","er06as17","0","26","1","1","3","2","null","","","<img src = 'category4/GS1.png' width = '100%;'>","null","","","","","","","","","",""
"","html-keyboard-response","210","634884","0.0-12.0-2.5","mz8ckl62hl","one_one","1","direct_first","1","er06as17","0","26","1","1","3","2","null","","","<img src = 'targets/20.png' width = '100%;'>","null","","","","","","","","","",""
"","html-keyboard-response","211","635247","0.0-12.0-3.5","mz8ckl62hl","one_one","1","direct_first","1","er06as17","0","26","1","1","3","2","362","","","<img src = 'targets/mask.png' width = '100%;'>","68","pos","GS","GSnew","4","category4/GS1.png","","targets/20.png","indirect","0","21"
"","html-keyboard-response","212","636764","0.0-12.0-0.6","mz8ckl62hl","one_one","1","direct_first","1","er06as17","0","26","1","1","3","2","null","","","<div style=""font-size:60px;"">+</div>","null","","","","","","","","","",""
"","html-keyboard-response","213","636864","0.0-12.0-1.6","mz8ckl62hl","one_one","1","direct_first","1","er06as17","0","26","1","1","3","2","null","","","<img src = 'category1/GS3.png' width = '100%;'>","null","","","","","","","","","",""
"","html-keyboard-response","214","637145","0.0-12.0-2.6","mz8ckl62hl","one_one","1","direct_first","1","er06as17","0","26","1","1","3","2","null","","","<img src = 'targets/7.png' width = '100%;'>","null","","","","","","","","","",""
"","html-keyboard-response","215","637583","0.0-12.0-3.6","mz8ckl62hl","one_one","1","direct_first","1","er06as17","0","26","1","1","3","2","437","","","<img src = 'targets/mask.png' width = '100%;'>","75","pos","GS","GSnew","1","category1/GS3.png","","targets/7.png","indirect","1","22"
"","html-keyboard-response","216","639124","0.0-12.0-0.7","mz8ckl62hl","one_one","1","direct_first","1","er06as17","0","26","1","1","3","2","null","","","<div style=""font-size:60px;"">+</div>","null","","","","","","","","","",""
"","html-keyboard-response","217","639223","0.0-12.0-1.7","mz8ckl62hl","one_one","1","direct_first","1","er06as17","0","26","1","1","3","2","null","","","<img src = 'category4/lin.png' width = '100%;'>","null","","","","","","","","","",""
"","html-keyboard-response","218","639503","0.0-12.0-2.7","mz8ckl62hl","one_one","1","direct_first","1","er06as17","0","26","1","1","3","2","null","","","<img src = 'targets/45.png' width = '100%;'>","null","","","","","","","","","",""
"","html-keyboard-response","219","639951","0.0-12.0-3.7","mz8ckl62hl","one_one","1","direct_first","1","er06as17","0","26","1","1","3","2","447","","","<img src = 'targets/mask.png' width = '100%;'>","68","pos","GS","abstract","4","category4/lin.png","","targets/45.png","indirect","0","23"
"","html-keyboard-response","220","641464","0.0-12.0-0.8","mz8ckl62hl","one_one","1","direct_first","1","er06as17","0","26","1","1","3","2","null","","","<div style=""font-size:60px;"">+</div>","null","","","","","","","","","",""
"","html-keyboard-response","221","641563","0.0-12.0-1.8","mz8ckl62hl","one_one","1","direct_first","1","er06as17","0","26","1","1","3","2","null","","","<img src = 'category1/GS2.png' width = '100%;'>","null","","","","","","","","","",""
"","html-keyboard-response","222","641844","0.0-12.0-2.8","mz8ckl62hl","one_one","1","direct_first","1","er06as17","0","26","1","1","3","2","null","","","<img src = 'targets/17.png' width = '100%;'>","null","","","","","","","","","",""
"","html-keyboard-response","223","642527","0.0-12.0-3.8","mz8ckl62hl","one_one","1","direct_first","1","er06as17","0","26","1","1","3","2","681","","","<img src = 'targets/mask.png' width = '100%;'>","75","pos","GS","GSnew","1","category1/GS2.png","","targets/17.png","indirect","1","24"
"","html-keyboard-response","224","644053","0.0-12.0-0.9","mz8ckl62hl","one_one","1","direct_first","1","er06as17","0","26","1","1","3","2","null","","","<div style=""font-size:60px;"">+</div>","null","","","","","","","","","",""
"","html-keyboard-response","225","644154","0.0-12.0-1.9","mz8ckl62hl","one_one","1","direct_first","1","er06as17","0","26","1","1","3","2","null","","","<img src = 'category3/GS2.png' width = '100%;'>","null","","","","","","","","","",""
"","html-keyboard-response","226","644434","0.0-12.0-2.9","mz8ckl62hl","one_one","1","direct_first","1","er06as17","0","26","1","1","3","2","null","","","<img src = 'targets/37.png' width = '100%;'>","null","","","","","","","","","",""
"","html-keyboard-response","227","645535","0.0-12.0-3.9","mz8ckl62hl","one_one","1","direct_first","1","er06as17","0","26","1","1","3","2","1099","","","<img src = 'targets/mask.png' width = '100%;'>","68","neg","GS","GSnew","3","category3/GS2.png","","targets/37.png","indirect","0","25"
"","html-keyboard-response","228","647073","0.0-12.0-0.10","mz8ckl62hl","one_one","1","direct_first","1","er06as17","0","26","1","1","3","2","null","","","<div style=""font-size:60px;"">+</div>","null","","","","","","","","","",""
"","html-keyboard-response","229","647174","0.0-12.0-1.10","mz8ckl62hl","one_one","1","direct_first","1","er06as17","0","26","1","1","3","2","null","","","<img src = 'category2/GS1.png' width = '100%;'>","null","","","","","","","","","",""
"","html-keyboard-response","230","647434","0.0-12.0-2.10","mz8ckl62hl","one_one","1","direct_first","1","er06as17","0","26","1","1","3","2","null","","","<img src = 'targets/5.png' width = '100%;'>","null","","","","","","","","","",""
"","html-keyboard-response","231","648119","0.0-12.0-3.10","mz8ckl62hl","one_one","1","direct_first","1","er06as17","0","26","1","1","3","2","683","","","<img src = 'targets/mask.png' width = '100%;'>","68","neg","GS","GSnew","2","category2/GS1.png","","targets/5.png","indirect","0","26"
"","html-keyboard-response","232","649654","0.0-12.0-0.11","mz8ckl62hl","one_one","1","direct_first","1","er06as17","0","26","1","1","3","2","null","","","<div style=""font-size:60px;"">+</div>","null","","","","","","","","","",""
"","html-keyboard-response","233","649754","0.0-12.0-1.11","mz8ckl62hl","one_one","1","direct_first","1","er06as17","0","26","1","1","3","2","null","","","<img src = 'category4/GS2.png' width = '100%;'>","null","","","","","","","","","",""
"","html-keyboard-response","234","650034","0.0-12.0-2.11","mz8ckl62hl","one_one","1","direct_first","1","er06as17","0","26","1","1","3","2","null","","","<img src = 'targets/10.png' width = '100%;'>","null","","","","","","","","","",""
"","html-keyboard-response","235","650511","0.0-12.0-3.11","mz8ckl62hl","one_one","1","direct_first","1","er06as17","0","26","1","1","3","2","476","","","<img src = 'targets/mask.png' width = '100%;'>","75","pos","GS","GSnew","4","category4/GS2.png","","targets/10.png","indirect","1","27"
"","html-keyboard-response","236","652034","0.0-12.0-0.12","mz8ckl62hl","one_one","1","direct_first","1","er06as17","0","26","1","1","3","2","null","","","<div style=""font-size:60px;"">+</div>","null","","","","","","","","","",""
"","html-keyboard-response","237","652134","0.0-12.0-1.12","mz8ckl62hl","one_one","1","direct_first","1","er06as17","0","26","1","1","3","2","null","","","<img src = 'category3/GS1.png' width = '100%;'>","null","","","","","","","","","",""
"","html-keyboard-response","238","652414","0.0-12.0-2.12","mz8ckl62hl","one_one","1","direct_first","1","er06as17","0","26","1","1","3","2","null","","","<img src = 'targets/12.png' width = '100%;'>","null","","","","","","","","","",""
"","html-keyboard-response","239","652887","0.0-12.0-3.12","mz8ckl62hl","one_one","1","direct_first","1","er06as17","0","26","1","1","3","2","472","","","<img src = 'targets/mask.png' width = '100%;'>","68","neg","GS","GSnew","3","category3/GS1.png","","targets/12.png","indirect","0","28"
"","html-keyboard-response","240","654424","0.0-12.0-0.13","mz8ckl62hl","one_one","1","direct_first","1","er06as17","0","26","1","1","3","2","null","","","<div style=""font-size:60px;"">+</div>","null","","","","","","","","","",""
"","html-keyboard-response","241","654524","0.0-12.0-1.13","mz8ckl62hl","one_one","1","direct_first","1","er06as17","0","26","1","1","3","2","null","","","<img src = 'category1/ma.png' width = '100%;'>","null","","","","","","","","","",""
"","html-keyboard-response","242","654804","0.0-12.0-2.13","mz8ckl62hl","one_one","1","direct_first","1","er06as17","0","26","1","1","3","2","null","","","<img src = 'targets/26.png' width = '100%;'>","null","","","","","","","","","",""
"","html-keyboard-response","243","655471","0.0-12.0-3.13","mz8ckl62hl","one_one","1","direct_first","1","er06as17","0","26","1","1","3","2","665","","","<img src = 'targets/mask.png' width = '100%;'>","68","pos","GS","abstract","1","category1/ma.png","","targets/26.png","indirect","0","29"
"","html-keyboard-response","244","657004","0.0-12.0-0.14","mz8ckl62hl","one_one","1","direct_first","1","er06as17","0","26","1","1","3","2","null","","","<div style=""font-size:60px;"">+</div>","null","","","","","","","","","",""
"","html-keyboard-response","245","657104","0.0-12.0-1.14","mz8ckl62hl","one_one","1","direct_first","1","er06as17","0","26","1","1","3","2","null","","","<img src = 'category2/GS2.png' width = '100%;'>","null","","","","","","","","","",""
"","html-keyboard-response","246","657384","0.0-12.0-2.14","mz8ckl62hl","one_one","1","direct_first","1","er06as17","0","26","1","1","3","2","null","","","<img src = 'targets/6.png' width = '100%;'>","null","","","","","","","","","",""
"","html-keyboard-response","247","657791","0.0-12.0-3.14","mz8ckl62hl","one_one","1","direct_first","1","er06as17","0","26","1","1","3","2","407","","","<img src = 'targets/mask.png' width = '100%;'>","68","neg","GS","GSnew","2","category2/GS2.png","","targets/6.png","indirect","0","30"
"","html-keyboard-response","248","659304","0.0-12.0-0.15","mz8ckl62hl","one_one","1","direct_first","1","er06as17","0","26","1","1","3","2","null","","","<div style=""font-size:60px;"">+</div>","null","","","","","","","","","",""
"","html-keyboard-response","249","659404","0.0-12.0-1.15","mz8ckl62hl","one_one","1","direct_first","1","er06as17","0","26","1","1","3","2","null","","","<img src = 'category2/GS3.png' width = '100%;'>","null","","","","","","","","","",""
"","html-keyboard-response","250","659684","0.0-12.0-2.15","mz8ckl62hl","one_one","1","direct_first","1","er06as17","0","26","1","1","3","2","null","","","<img src = 'targets/1.png' width = '100%;'>","null","","","","","","","","","",""
"","html-keyboard-response","251","660047","0.0-12.0-3.15","mz8ckl62hl","one_one","1","direct_first","1","er06as17","0","26","1","1","3","2","362","","","<img src = 'targets/mask.png' width = '100%;'>","68","neg","GS","GSnew","2","category2/GS3.png","","targets/1.png","indirect","0","31"
"","survey-html-form","252","668550","0.0-13.0","mz8ckl62hl","one_one","1","direct_first","1","er06as17","0","26","1","1","3","2","7986","","{}","","","","","","","","","","","",""
"","image-slider-response","253","676406","0.0-14.0-0.0","mz8ckl62hl","one_one","1","direct_first","1","er06as17","0","26","1","1","3","2","6840","","","","","pos","All","all","4","category4/lin_all.png","44","","all","",""
"","image-slider-response","254","686590","0.0-14.0-0.1","mz8ckl62hl","one_one","1","direct_first","1","er06as17","0","26","1","1","3","2","10183","","","","","neg","All","all","3","category3/wang_all.png","-89","","all","",""
"","image-slider-response","255","692365","0.0-14.0-0.2","mz8ckl62hl","one_one","1","direct_first","1","er06as17","0","26","1","1","3","2","5775","","","","","neg","All","all","2","category2/men_all.png","-44","","all","",""
"","image-slider-response","256","698302","0.0-14.0-0.3","mz8ckl62hl","one_one","1","direct_first","1","er06as17","0","26","1","1","3","2","5934","","","","","pos","All","all","1","category1/ma_all.png","24","","all","",""
"","survey-text","257","747831","0.0-15.0","mz8ckl62hl","one_one","1","direct_first","1","er06as17","0","26","1","1","3","2","49526","","{""Q0"":""""}","","","","","","","","","","","",""
