"success","trial_type","trial_index","time_elapsed","internal_node_id","subject","condition","condition_code","measure","measure_code","codeword","gender","age","education","chinese","fach","handedness","rt","url","responses","stimulus","key_press","val","type","type_specific","category","cs_selected","response","target","task","indirect","nr_pres"
"true","fullscreen","0","4721","0.0-0.0","230ypa8vhf","one_one","1","direct_first","1","er08ut19","0","24","1","1","3","2","","","","","","","","","","","","","","",""
"","external-html","1","27671","0.0-1.0","230ypa8vhf","one_one","1","direct_first","1","er08ut19","0","24","1","1","3","2","22917","text/information.html","","","","","","","","","","","","",""
"","external-html","2","36934","0.0-2.0","230ypa8vhf","one_one","1","direct_first","1","er08ut19","0","24","1","1","3","2","9258","text/consent.html","","","","","","","","","","","","",""
"","survey-html-form","3","77509","0.0-3.0","230ypa8vhf","one_one","1","direct_first","1","er08ut19","0","24","1","1","3","2","40572","","{""codeword_enter"":""er08ut19""}","","","","","","","","","","","",""
"","survey-html-form","4","95591","0.0-4.0","230ypa8vhf","one_one","1","direct_first","1","er08ut19","0","24","1","1","3","2","18080","","{""age"":""24"",""education"":""1"",""subject"":""3"",""gender"":""0"",""handedness"":""2"",""chinese"":""1""}","","","","","","","","","","","",""
"","survey-html-form","5","107942","0.0-5.0","230ypa8vhf","one_one","1","direct_first","1","er08ut19","0","24","1","1","3","2","12350","","{}","","","","","","","","","","","",""
"","html-keyboard-response","6","111981","0.0-6.0-0.0-0.0","230ypa8vhf","one_one","1","direct_first","1","er08ut19","0","24","1","1","3","2","null","","","<div class = 'row'><div class = 'column'><img src = 'category3/CS1.png' width = '70%;'></div><div class = 'column'><img src = 'uspos/1460.bmp' width = '100%;'></div></div>","null","pos","CS","CS","3","category3/CS1.png","","","","",""
"","html-keyboard-response","7","114504","0.0-6.0-0.0-0.1","230ypa8vhf","one_one","1","direct_first","1","er08ut19","0","24","1","1","3","2","null","","","<div class = 'row'><div class = 'column'><img src = 'category1/CS3.png' width = '70%;'></div><div class = 'column'><img src = 'usneg/9182.bmp' width = '100%;'></div></div>","null","neg","CS","CS","1","category1/CS3.png","","","","",""
"","html-keyboard-response","8","117040","0.0-6.0-0.0-0.2","230ypa8vhf","one_one","1","direct_first","1","er08ut19","0","24","1","1","3","2","null","","","<div class = 'row'><div class = 'column'><img src = 'uspos/7325.bmp' width = '100%;'></div><div class = 'column'><img src = 'category4/CS8.png' width = '70%;'></div></div>","null","pos","CS","CS","4","category4/CS8.png","","","","",""
"","html-keyboard-response","9","119580","0.0-6.0-0.0-0.3","230ypa8vhf","one_one","1","direct_first","1","er08ut19","0","24","1","1","3","2","null","","","<div class = 'row'><div class = 'column'><img src = 'category1/CS3.png' width = '70%;'></div><div class = 'column'><img src = 'usneg/9182.bmp' width = '100%;'></div></div>","null","neg","CS","CS","1","category1/CS3.png","","","","",""
"","html-keyboard-response","10","122101","0.0-6.0-0.0-0.4","230ypa8vhf","one_one","1","direct_first","1","er08ut19","0","24","1","1","3","2","null","","","<div class = 'row'><div class = 'column'><img src = 'category2/CS2.png' width = '70%;'></div><div class = 'column'><img src = 'usneg/1280.bmp' width = '100%;'></div></div>","null","neg","CS","CS","2","category2/CS2.png","","","","",""
"","html-keyboard-response","11","124640","0.0-6.0-0.0-0.5","230ypa8vhf","one_one","1","direct_first","1","er08ut19","0","24","1","1","3","2","null","","","<div class = 'row'><div class = 'column'><img src = 'category3/CS1.png' width = '70%;'></div><div class = 'column'><img src = 'uspos/1460.bmp' width = '100%;'></div></div>","null","pos","CS","CS","3","category3/CS1.png","","","","",""
"","html-keyboard-response","12","127170","0.0-6.0-0.0-0.6","230ypa8vhf","one_one","1","direct_first","1","er08ut19","0","24","1","1","3","2","null","","","<div class = 'row'><div class = 'column'><img src = 'category2/CS2.png' width = '70%;'></div><div class = 'column'><img src = 'usneg/1280.bmp' width = '100%;'></div></div>","null","neg","CS","CS","2","category2/CS2.png","","","","",""
"","html-keyboard-response","13","129699","0.0-6.0-0.0-0.7","230ypa8vhf","one_one","1","direct_first","1","er08ut19","0","24","1","1","3","2","null","","","<div class = 'row'><div class = 'column'><img src = 'category1/CS3.png' width = '70%;'></div><div class = 'column'><img src = 'usneg/9182.bmp' width = '100%;'></div></div>","null","neg","CS","CS","1","category1/CS3.png","","","","",""
"","html-keyboard-response","14","132219","0.0-6.0-0.0-0.8","230ypa8vhf","one_one","1","direct_first","1","er08ut19","0","24","1","1","3","2","null","","","<div class = 'row'><div class = 'column'><img src = 'uspos/7325.bmp' width = '100%;'></div><div class = 'column'><img src = 'category4/CS8.png' width = '70%;'></div></div>","null","pos","CS","CS","4","category4/CS8.png","","","","",""
"","html-keyboard-response","15","134740","0.0-6.0-0.0-0.9","230ypa8vhf","one_one","1","direct_first","1","er08ut19","0","24","1","1","3","2","null","","","<div class = 'row'><div class = 'column'><img src = 'category3/CS1.png' width = '70%;'></div><div class = 'column'><img src = 'uspos/1460.bmp' width = '100%;'></div></div>","null","pos","CS","CS","3","category3/CS1.png","","","","",""
"","html-keyboard-response","16","137259","0.0-6.0-0.0-0.10","230ypa8vhf","one_one","1","direct_first","1","er08ut19","0","24","1","1","3","2","null","","","<div class = 'row'><div class = 'column'><img src = 'category2/CS2.png' width = '70%;'></div><div class = 'column'><img src = 'usneg/1280.bmp' width = '100%;'></div></div>","null","neg","CS","CS","2","category2/CS2.png","","","","",""
"","html-keyboard-response","17","139800","0.0-6.0-0.0-0.11","230ypa8vhf","one_one","1","direct_first","1","er08ut19","0","24","1","1","3","2","null","","","<div class = 'row'><div class = 'column'><img src = 'category4/CS8.png' width = '70%;'></div><div class = 'column'><img src = 'uspos/7325.bmp' width = '100%;'></div></div>","null","pos","CS","CS","4","category4/CS8.png","","","","",""
"","html-keyboard-response","18","142340","0.0-6.0-0.0-0.12","230ypa8vhf","one_one","1","direct_first","1","er08ut19","0","24","1","1","3","2","null","","","<div class = 'row'><div class = 'column'><img src = 'category1/CS3.png' width = '70%;'></div><div class = 'column'><img src = 'usneg/9182.bmp' width = '100%;'></div></div>","null","neg","CS","CS","1","category1/CS3.png","","","","",""
"","html-keyboard-response","19","144880","0.0-6.0-0.0-0.13","230ypa8vhf","one_one","1","direct_first","1","er08ut19","0","24","1","1","3","2","null","","","<div class = 'row'><div class = 'column'><img src = 'category3/CS1.png' width = '70%;'></div><div class = 'column'><img src = 'uspos/1460.bmp' width = '100%;'></div></div>","null","pos","CS","CS","3","category3/CS1.png","","","","",""
"","html-keyboard-response","20","147410","0.0-6.0-0.0-0.14","230ypa8vhf","one_one","1","direct_first","1","er08ut19","0","24","1","1","3","2","null","","","<div class = 'row'><div class = 'column'><img src = 'usneg/1280.bmp' width = '100%;'></div><div class = 'column'><img src = 'category2/CS2.png' width = '70%;'></div></div>","null","neg","CS","CS","2","category2/CS2.png","","","","",""
"","html-keyboard-response","21","149939","0.0-6.0-0.0-0.15","230ypa8vhf","one_one","1","direct_first","1","er08ut19","0","24","1","1","3","2","null","","","<div class = 'row'><div class = 'column'><img src = 'category4/CS8.png' width = '70%;'></div><div class = 'column'><img src = 'uspos/7325.bmp' width = '100%;'></div></div>","null","pos","CS","CS","4","category4/CS8.png","","","","",""
"","html-keyboard-response","22","152480","0.0-6.0-0.0-0.16","230ypa8vhf","one_one","1","direct_first","1","er08ut19","0","24","1","1","3","2","null","","","<div class = 'row'><div class = 'column'><img src = 'category2/CS2.png' width = '70%;'></div><div class = 'column'><img src = 'usneg/1280.bmp' width = '100%;'></div></div>","null","neg","CS","CS","2","category2/CS2.png","","","","",""
"","html-keyboard-response","23","155000","0.0-6.0-0.0-0.17","230ypa8vhf","one_one","1","direct_first","1","er08ut19","0","24","1","1","3","2","null","","","<div class = 'row'><div class = 'column'><img src = 'category4/CS8.png' width = '70%;'></div><div class = 'column'><img src = 'uspos/7325.bmp' width = '100%;'></div></div>","null","pos","CS","CS","4","category4/CS8.png","","","","",""
"","html-keyboard-response","24","157540","0.0-6.0-0.0-0.18","230ypa8vhf","one_one","1","direct_first","1","er08ut19","0","24","1","1","3","2","null","","","<div class = 'row'><div class = 'column'><img src = 'category1/CS3.png' width = '70%;'></div><div class = 'column'><img src = 'usneg/9182.bmp' width = '100%;'></div></div>","null","neg","CS","CS","1","category1/CS3.png","","","","",""
"","html-keyboard-response","25","160079","0.0-6.0-0.0-0.19","230ypa8vhf","one_one","1","direct_first","1","er08ut19","0","24","1","1","3","2","null","","","<div class = 'row'><div class = 'column'><img src = 'uspos/1460.bmp' width = '100%;'></div><div class = 'column'><img src = 'category3/CS1.png' width = '70%;'></div></div>","null","pos","CS","CS","3","category3/CS1.png","","","","",""
"","survey-html-form","26","164134","0.0-6.0-1.0","230ypa8vhf","one_one","1","direct_first","1","er08ut19","0","24","1","1","3","2","3534","","{}","","","","","","","","","","","",""
"","html-keyboard-response","27","168149","0.0-6.0-2.0-0.0","230ypa8vhf","one_one","1","direct_first","1","er08ut19","0","24","1","1","3","2","null","","","<div class = 'row'><div class = 'column'><img src = 'category4/CS8.png' width = '70%;'></div><div class = 'column'><img src = 'uspos/7325.bmp' width = '100%;'></div></div>","null","pos","CS","CS","4","category4/CS8.png","","","","",""
"","html-keyboard-response","28","170690","0.0-6.0-2.0-0.1","230ypa8vhf","one_one","1","direct_first","1","er08ut19","0","24","1","1","3","2","null","","","<div class = 'row'><div class = 'column'><img src = 'usneg/9182.bmp' width = '100%;'></div><div class = 'column'><img src = 'category1/CS3.png' width = '70%;'></div></div>","null","neg","CS","CS","1","category1/CS3.png","","","","",""
"","html-keyboard-response","29","173229","0.0-6.0-2.0-0.2","230ypa8vhf","one_one","1","direct_first","1","er08ut19","0","24","1","1","3","2","null","","","<div class = 'row'><div class = 'column'><img src = 'category2/CS2.png' width = '70%;'></div><div class = 'column'><img src = 'usneg/1280.bmp' width = '100%;'></div></div>","null","neg","CS","CS","2","category2/CS2.png","","","","",""
"","html-keyboard-response","30","175769","0.0-6.0-2.0-0.3","230ypa8vhf","one_one","1","direct_first","1","er08ut19","0","24","1","1","3","2","null","","","<div class = 'row'><div class = 'column'><img src = 'usneg/9182.bmp' width = '100%;'></div><div class = 'column'><img src = 'category1/CS3.png' width = '70%;'></div></div>","null","neg","CS","CS","1","category1/CS3.png","","","","",""
"","html-keyboard-response","31","178310","0.0-6.0-2.0-0.4","230ypa8vhf","one_one","1","direct_first","1","er08ut19","0","24","1","1","3","2","null","","","<div class = 'row'><div class = 'column'><img src = 'category4/CS8.png' width = '70%;'></div><div class = 'column'><img src = 'uspos/7325.bmp' width = '100%;'></div></div>","null","pos","CS","CS","4","category4/CS8.png","","","","",""
"","html-keyboard-response","32","180847","0.0-6.0-2.0-0.5","230ypa8vhf","one_one","1","direct_first","1","er08ut19","0","24","1","1","3","2","null","","","<div class = 'row'><div class = 'column'><img src = 'category3/CS1.png' width = '70%;'></div><div class = 'column'><img src = 'uspos/1460.bmp' width = '100%;'></div></div>","null","pos","CS","CS","3","category3/CS1.png","","","","",""
"","html-keyboard-response","33","183349","0.0-6.0-2.0-0.6","230ypa8vhf","one_one","1","direct_first","1","er08ut19","0","24","1","1","3","2","null","","","<div class = 'row'><div class = 'column'><img src = 'uspos/7325.bmp' width = '100%;'></div><div class = 'column'><img src = 'category4/CS8.png' width = '70%;'></div></div>","null","pos","CS","CS","4","category4/CS8.png","","","","",""
"","html-keyboard-response","34","185889","0.0-6.0-2.0-0.7","230ypa8vhf","one_one","1","direct_first","1","er08ut19","0","24","1","1","3","2","null","","","<div class = 'row'><div class = 'column'><img src = 'category1/CS3.png' width = '70%;'></div><div class = 'column'><img src = 'usneg/9182.bmp' width = '100%;'></div></div>","null","neg","CS","CS","1","category1/CS3.png","","","","",""
"","html-keyboard-response","35","188419","0.0-6.0-2.0-0.8","230ypa8vhf","one_one","1","direct_first","1","er08ut19","0","24","1","1","3","2","null","","","<div class = 'row'><div class = 'column'><img src = 'usneg/1280.bmp' width = '100%;'></div><div class = 'column'><img src = 'category2/CS2.png' width = '70%;'></div></div>","null","neg","CS","CS","2","category2/CS2.png","","","","",""
"","html-keyboard-response","36","190959","0.0-6.0-2.0-0.9","230ypa8vhf","one_one","1","direct_first","1","er08ut19","0","24","1","1","3","2","null","","","<div class = 'row'><div class = 'column'><img src = 'category3/CS1.png' width = '70%;'></div><div class = 'column'><img src = 'uspos/1460.bmp' width = '100%;'></div></div>","null","pos","CS","CS","3","category3/CS1.png","","","","",""
"","html-keyboard-response","37","193489","0.0-6.0-2.0-0.10","230ypa8vhf","one_one","1","direct_first","1","er08ut19","0","24","1","1","3","2","null","","","<div class = 'row'><div class = 'column'><img src = 'usneg/1280.bmp' width = '100%;'></div><div class = 'column'><img src = 'category2/CS2.png' width = '70%;'></div></div>","null","neg","CS","CS","2","category2/CS2.png","","","","",""
"","html-keyboard-response","38","196029","0.0-6.0-2.0-0.11","230ypa8vhf","one_one","1","direct_first","1","er08ut19","0","24","1","1","3","2","null","","","<div class = 'row'><div class = 'column'><img src = 'uspos/7325.bmp' width = '100%;'></div><div class = 'column'><img src = 'category4/CS8.png' width = '70%;'></div></div>","null","pos","CS","CS","4","category4/CS8.png","","","","",""
"","html-keyboard-response","39","198549","0.0-6.0-2.0-0.12","230ypa8vhf","one_one","1","direct_first","1","er08ut19","0","24","1","1","3","2","null","","","<div class = 'row'><div class = 'column'><img src = 'category3/CS1.png' width = '70%;'></div><div class = 'column'><img src = 'uspos/1460.bmp' width = '100%;'></div></div>","null","pos","CS","CS","3","category3/CS1.png","","","","",""
"","html-keyboard-response","40","201079","0.0-6.0-2.0-0.13","230ypa8vhf","one_one","1","direct_first","1","er08ut19","0","24","1","1","3","2","null","","","<div class = 'row'><div class = 'column'><img src = 'usneg/1280.bmp' width = '100%;'></div><div class = 'column'><img src = 'category2/CS2.png' width = '70%;'></div></div>","null","neg","CS","CS","2","category2/CS2.png","","","","",""
"","html-keyboard-response","41","203618","0.0-6.0-2.0-0.14","230ypa8vhf","one_one","1","direct_first","1","er08ut19","0","24","1","1","3","2","null","","","<div class = 'row'><div class = 'column'><img src = 'usneg/9182.bmp' width = '100%;'></div><div class = 'column'><img src = 'category1/CS3.png' width = '70%;'></div></div>","null","neg","CS","CS","1","category1/CS3.png","","","","",""
"","html-keyboard-response","42","206139","0.0-6.0-2.0-0.15","230ypa8vhf","one_one","1","direct_first","1","er08ut19","0","24","1","1","3","2","null","","","<div class = 'row'><div class = 'column'><img src = 'usneg/1280.bmp' width = '100%;'></div><div class = 'column'><img src = 'category2/CS2.png' width = '70%;'></div></div>","null","neg","CS","CS","2","category2/CS2.png","","","","",""
"","html-keyboard-response","43","208679","0.0-6.0-2.0-0.16","230ypa8vhf","one_one","1","direct_first","1","er08ut19","0","24","1","1","3","2","null","","","<div class = 'row'><div class = 'column'><img src = 'uspos/1460.bmp' width = '100%;'></div><div class = 'column'><img src = 'category3/CS1.png' width = '70%;'></div></div>","null","pos","CS","CS","3","category3/CS1.png","","","","",""
"","html-keyboard-response","44","211218","0.0-6.0-2.0-0.17","230ypa8vhf","one_one","1","direct_first","1","er08ut19","0","24","1","1","3","2","null","","","<div class = 'row'><div class = 'column'><img src = 'usneg/9182.bmp' width = '100%;'></div><div class = 'column'><img src = 'category1/CS3.png' width = '70%;'></div></div>","null","neg","CS","CS","1","category1/CS3.png","","","","",""
"","html-keyboard-response","45","213758","0.0-6.0-2.0-0.18","230ypa8vhf","one_one","1","direct_first","1","er08ut19","0","24","1","1","3","2","null","","","<div class = 'row'><div class = 'column'><img src = 'category4/CS8.png' width = '70%;'></div><div class = 'column'><img src = 'uspos/7325.bmp' width = '100%;'></div></div>","null","pos","CS","CS","4","category4/CS8.png","","","","",""
"","html-keyboard-response","46","216269","0.0-6.0-2.0-0.19","230ypa8vhf","one_one","1","direct_first","1","er08ut19","0","24","1","1","3","2","null","","","<div class = 'row'><div class = 'column'><img src = 'uspos/1460.bmp' width = '100%;'></div><div class = 'column'><img src = 'category3/CS1.png' width = '70%;'></div></div>","null","pos","CS","CS","3","category3/CS1.png","","","","",""
"","survey-html-form","47","220366","0.0-6.0-3.0","230ypa8vhf","one_one","1","direct_first","1","er08ut19","0","24","1","1","3","2","3577","","{}","","","","","","","","","","","",""
"","html-keyboard-response","48","224388","0.0-6.0-4.0-0.0","230ypa8vhf","one_one","1","direct_first","1","er08ut19","0","24","1","1","3","2","null","","","<div class = 'row'><div class = 'column'><img src = 'category4/CS8.png' width = '70%;'></div><div class = 'column'><img src = 'uspos/7325.bmp' width = '100%;'></div></div>","null","pos","CS","CS","4","category4/CS8.png","","","","",""
"","html-keyboard-response","49","226930","0.0-6.0-4.0-0.1","230ypa8vhf","one_one","1","direct_first","1","er08ut19","0","24","1","1","3","2","null","","","<div class = 'row'><div class = 'column'><img src = 'category2/CS2.png' width = '70%;'></div><div class = 'column'><img src = 'usneg/1280.bmp' width = '100%;'></div></div>","null","neg","CS","CS","2","category2/CS2.png","","","","",""
"","html-keyboard-response","50","229469","0.0-6.0-4.0-0.2","230ypa8vhf","one_one","1","direct_first","1","er08ut19","0","24","1","1","3","2","null","","","<div class = 'row'><div class = 'column'><img src = 'uspos/1460.bmp' width = '100%;'></div><div class = 'column'><img src = 'category3/CS1.png' width = '70%;'></div></div>","null","pos","CS","CS","3","category3/CS1.png","","","","",""
"","html-keyboard-response","51","232009","0.0-6.0-4.0-0.3","230ypa8vhf","one_one","1","direct_first","1","er08ut19","0","24","1","1","3","2","null","","","<div class = 'row'><div class = 'column'><img src = 'category4/CS8.png' width = '70%;'></div><div class = 'column'><img src = 'uspos/7325.bmp' width = '100%;'></div></div>","null","pos","CS","CS","4","category4/CS8.png","","","","",""
"","html-keyboard-response","52","234549","0.0-6.0-4.0-0.4","230ypa8vhf","one_one","1","direct_first","1","er08ut19","0","24","1","1","3","2","null","","","<div class = 'row'><div class = 'column'><img src = 'uspos/1460.bmp' width = '100%;'></div><div class = 'column'><img src = 'category3/CS1.png' width = '70%;'></div></div>","null","pos","CS","CS","3","category3/CS1.png","","","","",""
"","html-keyboard-response","53","237089","0.0-6.0-4.0-0.5","230ypa8vhf","one_one","1","direct_first","1","er08ut19","0","24","1","1","3","2","null","","","<div class = 'row'><div class = 'column'><img src = 'usneg/9182.bmp' width = '100%;'></div><div class = 'column'><img src = 'category1/CS3.png' width = '70%;'></div></div>","null","neg","CS","CS","1","category1/CS3.png","","","","",""
"","html-keyboard-response","54","239629","0.0-6.0-4.0-0.6","230ypa8vhf","one_one","1","direct_first","1","er08ut19","0","24","1","1","3","2","null","","","<div class = 'row'><div class = 'column'><img src = 'uspos/7325.bmp' width = '100%;'></div><div class = 'column'><img src = 'category4/CS8.png' width = '70%;'></div></div>","null","pos","CS","CS","4","category4/CS8.png","","","","",""
"","html-keyboard-response","55","242159","0.0-6.0-4.0-0.7","230ypa8vhf","one_one","1","direct_first","1","er08ut19","0","24","1","1","3","2","null","","","<div class = 'row'><div class = 'column'><img src = 'category2/CS2.png' width = '70%;'></div><div class = 'column'><img src = 'usneg/1280.bmp' width = '100%;'></div></div>","null","neg","CS","CS","2","category2/CS2.png","","","","",""
"","html-keyboard-response","56","244699","0.0-6.0-4.0-0.8","230ypa8vhf","one_one","1","direct_first","1","er08ut19","0","24","1","1","3","2","null","","","<div class = 'row'><div class = 'column'><img src = 'uspos/1460.bmp' width = '100%;'></div><div class = 'column'><img src = 'category3/CS1.png' width = '70%;'></div></div>","null","pos","CS","CS","3","category3/CS1.png","","","","",""
"","html-keyboard-response","57","247219","0.0-6.0-4.0-0.9","230ypa8vhf","one_one","1","direct_first","1","er08ut19","0","24","1","1","3","2","null","","","<div class = 'row'><div class = 'column'><img src = 'category2/CS2.png' width = '70%;'></div><div class = 'column'><img src = 'usneg/1280.bmp' width = '100%;'></div></div>","null","neg","CS","CS","2","category2/CS2.png","","","","",""
"","html-keyboard-response","58","249758","0.0-6.0-4.0-0.10","230ypa8vhf","one_one","1","direct_first","1","er08ut19","0","24","1","1","3","2","null","","","<div class = 'row'><div class = 'column'><img src = 'category4/CS8.png' width = '70%;'></div><div class = 'column'><img src = 'uspos/7325.bmp' width = '100%;'></div></div>","null","pos","CS","CS","4","category4/CS8.png","","","","",""
"","html-keyboard-response","59","252279","0.0-6.0-4.0-0.11","230ypa8vhf","one_one","1","direct_first","1","er08ut19","0","24","1","1","3","2","null","","","<div class = 'row'><div class = 'column'><img src = 'usneg/9182.bmp' width = '100%;'></div><div class = 'column'><img src = 'category1/CS3.png' width = '70%;'></div></div>","null","neg","CS","CS","1","category1/CS3.png","","","","",""
"","html-keyboard-response","60","254818","0.0-6.0-4.0-0.12","230ypa8vhf","one_one","1","direct_first","1","er08ut19","0","24","1","1","3","2","null","","","<div class = 'row'><div class = 'column'><img src = 'category2/CS2.png' width = '70%;'></div><div class = 'column'><img src = 'usneg/1280.bmp' width = '100%;'></div></div>","null","neg","CS","CS","2","category2/CS2.png","","","","",""
"","html-keyboard-response","61","257339","0.0-6.0-4.0-0.13","230ypa8vhf","one_one","1","direct_first","1","er08ut19","0","24","1","1","3","2","null","","","<div class = 'row'><div class = 'column'><img src = 'usneg/9182.bmp' width = '100%;'></div><div class = 'column'><img src = 'category1/CS3.png' width = '70%;'></div></div>","null","neg","CS","CS","1","category1/CS3.png","","","","",""
"","html-keyboard-response","62","259878","0.0-6.0-4.0-0.14","230ypa8vhf","one_one","1","direct_first","1","er08ut19","0","24","1","1","3","2","null","","","<div class = 'row'><div class = 'column'><img src = 'uspos/1460.bmp' width = '100%;'></div><div class = 'column'><img src = 'category3/CS1.png' width = '70%;'></div></div>","null","pos","CS","CS","3","category3/CS1.png","","","","",""
"","html-keyboard-response","63","262419","0.0-6.0-4.0-0.15","230ypa8vhf","one_one","1","direct_first","1","er08ut19","0","24","1","1","3","2","null","","","<div class = 'row'><div class = 'column'><img src = 'usneg/9182.bmp' width = '100%;'></div><div class = 'column'><img src = 'category1/CS3.png' width = '70%;'></div></div>","null","neg","CS","CS","1","category1/CS3.png","","","","",""
"","html-keyboard-response","64","264959","0.0-6.0-4.0-0.16","230ypa8vhf","one_one","1","direct_first","1","er08ut19","0","24","1","1","3","2","null","","","<div class = 'row'><div class = 'column'><img src = 'category3/CS1.png' width = '70%;'></div><div class = 'column'><img src = 'uspos/1460.bmp' width = '100%;'></div></div>","null","pos","CS","CS","3","category3/CS1.png","","","","",""
"","html-keyboard-response","65","267498","0.0-6.0-4.0-0.17","230ypa8vhf","one_one","1","direct_first","1","er08ut19","0","24","1","1","3","2","null","","","<div class = 'row'><div class = 'column'><img src = 'uspos/7325.bmp' width = '100%;'></div><div class = 'column'><img src = 'category4/CS8.png' width = '70%;'></div></div>","null","pos","CS","CS","4","category4/CS8.png","","","","",""
"","html-keyboard-response","66","270038","0.0-6.0-4.0-0.18","230ypa8vhf","one_one","1","direct_first","1","er08ut19","0","24","1","1","3","2","null","","","<div class = 'row'><div class = 'column'><img src = 'category1/CS3.png' width = '70%;'></div><div class = 'column'><img src = 'usneg/9182.bmp' width = '100%;'></div></div>","null","neg","CS","CS","1","category1/CS3.png","","","","",""
"","html-keyboard-response","67","272579","0.0-6.0-4.0-0.19","230ypa8vhf","one_one","1","direct_first","1","er08ut19","0","24","1","1","3","2","null","","","<div class = 'row'><div class = 'column'><img src = 'category2/CS2.png' width = '70%;'></div><div class = 'column'><img src = 'usneg/1280.bmp' width = '100%;'></div></div>","null","neg","CS","CS","2","category2/CS2.png","","","","",""
"","survey-html-form","68","275469","0.0-6.0-5.0","230ypa8vhf","one_one","1","direct_first","1","er08ut19","0","24","1","1","3","2","2371","","{}","","","","","","","","","","","",""
"","html-keyboard-response","69","279509","0.0-6.0-6.0-0.0","230ypa8vhf","one_one","1","direct_first","1","er08ut19","0","24","1","1","3","2","null","","","<div class = 'row'><div class = 'column'><img src = 'uspos/7325.bmp' width = '100%;'></div><div class = 'column'><img src = 'category4/CS8.png' width = '70%;'></div></div>","null","pos","CS","CS","4","category4/CS8.png","","","","",""
"","html-keyboard-response","70","282049","0.0-6.0-6.0-0.1","230ypa8vhf","one_one","1","direct_first","1","er08ut19","0","24","1","1","3","2","null","","","<div class = 'row'><div class = 'column'><img src = 'uspos/1460.bmp' width = '100%;'></div><div class = 'column'><img src = 'category3/CS1.png' width = '70%;'></div></div>","null","pos","CS","CS","3","category3/CS1.png","","","","",""
"","html-keyboard-response","71","284588","0.0-6.0-6.0-0.2","230ypa8vhf","one_one","1","direct_first","1","er08ut19","0","24","1","1","3","2","null","","","<div class = 'row'><div class = 'column'><img src = 'usneg/9182.bmp' width = '100%;'></div><div class = 'column'><img src = 'category1/CS3.png' width = '70%;'></div></div>","null","neg","CS","CS","1","category1/CS3.png","","","","",""
"","html-keyboard-response","72","287128","0.0-6.0-6.0-0.3","230ypa8vhf","one_one","1","direct_first","1","er08ut19","0","24","1","1","3","2","null","","","<div class = 'row'><div class = 'column'><img src = 'usneg/1280.bmp' width = '100%;'></div><div class = 'column'><img src = 'category2/CS2.png' width = '70%;'></div></div>","null","neg","CS","CS","2","category2/CS2.png","","","","",""
"","html-keyboard-response","73","289658","0.0-6.0-6.0-0.4","230ypa8vhf","one_one","1","direct_first","1","er08ut19","0","24","1","1","3","2","null","","","<div class = 'row'><div class = 'column'><img src = 'uspos/1460.bmp' width = '100%;'></div><div class = 'column'><img src = 'category3/CS1.png' width = '70%;'></div></div>","null","pos","CS","CS","3","category3/CS1.png","","","","",""
"","html-keyboard-response","74","292199","0.0-6.0-6.0-0.5","230ypa8vhf","one_one","1","direct_first","1","er08ut19","0","24","1","1","3","2","null","","","<div class = 'row'><div class = 'column'><img src = 'category2/CS2.png' width = '70%;'></div><div class = 'column'><img src = 'usneg/1280.bmp' width = '100%;'></div></div>","null","neg","CS","CS","2","category2/CS2.png","","","","",""
"","html-keyboard-response","75","294736","0.0-6.0-6.0-0.6","230ypa8vhf","one_one","1","direct_first","1","er08ut19","0","24","1","1","3","2","null","","","<div class = 'row'><div class = 'column'><img src = 'category4/CS8.png' width = '70%;'></div><div class = 'column'><img src = 'uspos/7325.bmp' width = '100%;'></div></div>","null","pos","CS","CS","4","category4/CS8.png","","","","",""
"","html-keyboard-response","76","297238","0.0-6.0-6.0-0.7","230ypa8vhf","one_one","1","direct_first","1","er08ut19","0","24","1","1","3","2","null","","","<div class = 'row'><div class = 'column'><img src = 'category2/CS2.png' width = '70%;'></div><div class = 'column'><img src = 'usneg/1280.bmp' width = '100%;'></div></div>","null","neg","CS","CS","2","category2/CS2.png","","","","",""
"","html-keyboard-response","77","299758","0.0-6.0-6.0-0.8","230ypa8vhf","one_one","1","direct_first","1","er08ut19","0","24","1","1","3","2","null","","","<div class = 'row'><div class = 'column'><img src = 'category3/CS1.png' width = '70%;'></div><div class = 'column'><img src = 'uspos/1460.bmp' width = '100%;'></div></div>","null","pos","CS","CS","3","category3/CS1.png","","","","",""
"","html-keyboard-response","78","302299","0.0-6.0-6.0-0.9","230ypa8vhf","one_one","1","direct_first","1","er08ut19","0","24","1","1","3","2","null","","","<div class = 'row'><div class = 'column'><img src = 'usneg/9182.bmp' width = '100%;'></div><div class = 'column'><img src = 'category1/CS3.png' width = '70%;'></div></div>","null","neg","CS","CS","1","category1/CS3.png","","","","",""
"","html-keyboard-response","79","304838","0.0-6.0-6.0-0.10","230ypa8vhf","one_one","1","direct_first","1","er08ut19","0","24","1","1","3","2","null","","","<div class = 'row'><div class = 'column'><img src = 'uspos/1460.bmp' width = '100%;'></div><div class = 'column'><img src = 'category3/CS1.png' width = '70%;'></div></div>","null","pos","CS","CS","3","category3/CS1.png","","","","",""
"","html-keyboard-response","80","307359","0.0-6.0-6.0-0.11","230ypa8vhf","one_one","1","direct_first","1","er08ut19","0","24","1","1","3","2","null","","","<div class = 'row'><div class = 'column'><img src = 'usneg/9182.bmp' width = '100%;'></div><div class = 'column'><img src = 'category1/CS3.png' width = '70%;'></div></div>","null","neg","CS","CS","1","category1/CS3.png","","","","",""
"","html-keyboard-response","81","309898","0.0-6.0-6.0-0.12","230ypa8vhf","one_one","1","direct_first","1","er08ut19","0","24","1","1","3","2","null","","","<div class = 'row'><div class = 'column'><img src = 'category4/CS8.png' width = '70%;'></div><div class = 'column'><img src = 'uspos/7325.bmp' width = '100%;'></div></div>","null","pos","CS","CS","4","category4/CS8.png","","","","",""
"","html-keyboard-response","82","312438","0.0-6.0-6.0-0.13","230ypa8vhf","one_one","1","direct_first","1","er08ut19","0","24","1","1","3","2","null","","","<div class = 'row'><div class = 'column'><img src = 'usneg/1280.bmp' width = '100%;'></div><div class = 'column'><img src = 'category2/CS2.png' width = '70%;'></div></div>","null","neg","CS","CS","2","category2/CS2.png","","","","",""
"","html-keyboard-response","83","314978","0.0-6.0-6.0-0.14","230ypa8vhf","one_one","1","direct_first","1","er08ut19","0","24","1","1","3","2","null","","","<div class = 'row'><div class = 'column'><img src = 'uspos/7325.bmp' width = '100%;'></div><div class = 'column'><img src = 'category4/CS8.png' width = '70%;'></div></div>","null","pos","CS","CS","4","category4/CS8.png","","","","",""
"","html-keyboard-response","84","317519","0.0-6.0-6.0-0.15","230ypa8vhf","one_one","1","direct_first","1","er08ut19","0","24","1","1","3","2","null","","","<div class = 'row'><div class = 'column'><img src = 'uspos/1460.bmp' width = '100%;'></div><div class = 'column'><img src = 'category3/CS1.png' width = '70%;'></div></div>","null","pos","CS","CS","3","category3/CS1.png","","","","",""
"","html-keyboard-response","85","320058","0.0-6.0-6.0-0.16","230ypa8vhf","one_one","1","direct_first","1","er08ut19","0","24","1","1","3","2","null","","","<div class = 'row'><div class = 'column'><img src = 'category2/CS2.png' width = '70%;'></div><div class = 'column'><img src = 'usneg/1280.bmp' width = '100%;'></div></div>","null","neg","CS","CS","2","category2/CS2.png","","","","",""
"","html-keyboard-response","86","322598","0.0-6.0-6.0-0.17","230ypa8vhf","one_one","1","direct_first","1","er08ut19","0","24","1","1","3","2","null","","","<div class = 'row'><div class = 'column'><img src = 'usneg/9182.bmp' width = '100%;'></div><div class = 'column'><img src = 'category1/CS3.png' width = '70%;'></div></div>","null","neg","CS","CS","1","category1/CS3.png","","","","",""
"","html-keyboard-response","87","325128","0.0-6.0-6.0-0.18","230ypa8vhf","one_one","1","direct_first","1","er08ut19","0","24","1","1","3","2","null","","","<div class = 'row'><div class = 'column'><img src = 'category4/CS8.png' width = '70%;'></div><div class = 'column'><img src = 'uspos/7325.bmp' width = '100%;'></div></div>","null","pos","CS","CS","4","category4/CS8.png","","","","",""
"","html-keyboard-response","88","327668","0.0-6.0-6.0-0.19","230ypa8vhf","one_one","1","direct_first","1","er08ut19","0","24","1","1","3","2","null","","","<div class = 'row'><div class = 'column'><img src = 'category1/CS3.png' width = '70%;'></div><div class = 'column'><img src = 'usneg/9182.bmp' width = '100%;'></div></div>","null","neg","CS","CS","1","category1/CS3.png","","","","",""
"","survey-html-form","89","336125","0.0-7.0","230ypa8vhf","one_one","1","direct_first","1","er08ut19","0","24","1","1","3","2","7937","","{}","","","","","","","","","","","",""
"","image-slider-response","90","342844","0.0-8.0-0.0","230ypa8vhf","one_one","1","direct_first","1","er08ut19","0","24","1","1","3","2","4709","","","","","neg","GS","GSold","2","category2/CS9.png","-53","targets/25.png","direct","",""
"","image-slider-response","91","349140","0.0-8.0-0.1","230ypa8vhf","one_one","1","direct_first","1","er08ut19","0","24","1","1","3","2","6295","","","","","neg","GS","GSold","1","category1/CS10.png","-64","targets/7.png","direct","",""
"","image-slider-response","92","353035","0.0-8.0-0.2","230ypa8vhf","one_one","1","direct_first","1","er08ut19","0","24","1","1","3","2","3895","","","","","pos","CS","CS","4","category4/CS8.png","75","targets/41.png","direct","",""
"","image-slider-response","93","358363","0.0-8.0-0.3","230ypa8vhf","one_one","1","direct_first","1","er08ut19","0","24","1","1","3","2","5326","","","","","neg","GS","abstract","2","category2/men.png","-68","targets/21.png","direct","",""
"","image-slider-response","94","361252","0.0-8.0-0.4","230ypa8vhf","one_one","1","direct_first","1","er08ut19","0","24","1","1","3","2","2887","","","","","pos","GS","abstract","4","category4/lin.png","95","targets/42.png","direct","",""
"","image-slider-response","95","365652","0.0-8.0-0.5","230ypa8vhf","one_one","1","direct_first","1","er08ut19","0","24","1","1","3","2","4398","","","","","neg","GS","GSnew","2","category2/GS3.png","-100","targets/34.png","direct","",""
"","image-slider-response","96","368468","0.0-8.0-0.6","230ypa8vhf","one_one","1","direct_first","1","er08ut19","0","24","1","1","3","2","2814","","","","","neg","CS","CS","2","category2/CS2.png","-100","targets/22.png","direct","",""
"","image-slider-response","97","371844","0.0-8.0-0.7","230ypa8vhf","one_one","1","direct_first","1","er08ut19","0","24","1","1","3","2","3374","","","","","neg","GS","GSnew","1","category1/GS3.png","-18","targets/26.png","direct","",""
"","image-slider-response","98","376252","0.0-8.0-0.8","230ypa8vhf","one_one","1","direct_first","1","er08ut19","0","24","1","1","3","2","4407","","","","","neg","GS","GSnew","1","category1/GS1.png","45","targets/33.png","direct","",""
"","image-slider-response","99","378867","0.0-8.0-0.9","230ypa8vhf","one_one","1","direct_first","1","er08ut19","0","24","1","1","3","2","2614","","","","","pos","CS","CS","3","category3/CS1.png","100","targets/48.png","direct","",""
"","image-slider-response","100","382275","0.0-8.0-0.10","230ypa8vhf","one_one","1","direct_first","1","er08ut19","0","24","1","1","3","2","3407","","","","","pos","GS","GSnew","4","category4/GS3.png","-35","targets/43.png","direct","",""
"","image-slider-response","101","385219","0.0-8.0-0.11","230ypa8vhf","one_one","1","direct_first","1","er08ut19","0","24","1","1","3","2","2943","","","","","pos","GS","GSold","3","category3/CS9.png","69","targets/10.png","direct","",""
"","image-slider-response","102","388619","0.0-8.0-0.12","230ypa8vhf","one_one","1","direct_first","1","er08ut19","0","24","1","1","3","2","3399","","","","","neg","GS","GSnew","2","category2/GS1.png","-22","targets/13.png","direct","",""
"","image-slider-response","103","392252","0.0-8.0-0.13","230ypa8vhf","one_one","1","direct_first","1","er08ut19","0","24","1","1","3","2","3631","","","","","neg","GS","GSold","2","category2/CS1.png","-77","targets/20.png","direct","",""
"","image-slider-response","104","396764","0.0-8.0-0.14","230ypa8vhf","one_one","1","direct_first","1","er08ut19","0","24","1","1","3","2","4511","","","","","pos","GS","GSnew","3","category3/GS2.png","76","targets/14.png","direct","",""
"","image-slider-response","105","399036","0.0-8.0-0.15","230ypa8vhf","one_one","1","direct_first","1","er08ut19","0","24","1","1","3","2","2271","","","","","pos","GS","GSnew","3","category3/GS1.png","45","targets/40.png","direct","",""
"","image-slider-response","106","401140","0.0-8.0-0.16","230ypa8vhf","one_one","1","direct_first","1","er08ut19","0","24","1","1","3","2","2103","","","","","pos","GS","GSnew","3","category3/GS3.png","54","targets/45.png","direct","",""
"","image-slider-response","107","403171","0.0-8.0-0.17","230ypa8vhf","one_one","1","direct_first","1","er08ut19","0","24","1","1","3","2","2031","","","","","pos","GS","GSnew","4","category4/GS2.png","-70","targets/15.png","direct","",""
"","image-slider-response","108","406139","0.0-8.0-0.18","230ypa8vhf","one_one","1","direct_first","1","er08ut19","0","24","1","1","3","2","2966","","","","","pos","GS","GSold","4","category4/CS10.png","57","targets/32.png","direct","",""
"","image-slider-response","109","410964","0.0-8.0-0.19","230ypa8vhf","one_one","1","direct_first","1","er08ut19","0","24","1","1","3","2","4823","","","","","neg","GS","GSnew","1","category1/GS2.png","2","targets/39.png","direct","",""
"","image-slider-response","110","414235","0.0-8.0-0.20","230ypa8vhf","one_one","1","direct_first","1","er08ut19","0","24","1","1","3","2","3271","","","","","neg","CS","CS","1","category1/CS3.png","-67","targets/4.png","direct","",""
"","image-slider-response","111","417196","0.0-8.0-0.21","230ypa8vhf","one_one","1","direct_first","1","er08ut19","0","24","1","1","3","2","2959","","","","","pos","GS","GSold","4","category4/CS9.png","32","targets/47.png","direct","",""
"","image-slider-response","112","419795","0.0-8.0-0.22","230ypa8vhf","one_one","1","direct_first","1","er08ut19","0","24","1","1","3","2","2599","","","","","pos","GS","GSnew","4","category4/GS1.png","-65","targets/19.png","direct","",""
"","image-slider-response","113","423268","0.0-8.0-0.23","230ypa8vhf","one_one","1","direct_first","1","er08ut19","0","24","1","1","3","2","3471","","","","","neg","GS","GSold","1","category1/CS2.png","-69","targets/30.png","direct","",""
"","image-slider-response","114","426452","0.0-8.0-0.24","230ypa8vhf","one_one","1","direct_first","1","er08ut19","0","24","1","1","3","2","3182","","","","","pos","GS","abstract","3","category3/wang.png","100","targets/31.png","direct","",""
"","image-slider-response","115","429484","0.0-8.0-0.25","230ypa8vhf","one_one","1","direct_first","1","er08ut19","0","24","1","1","3","2","3031","","","","","neg","GS","GSnew","2","category2/GS2.png","-41","targets/28.png","direct","",""
"","image-slider-response","116","431699","0.0-8.0-0.26","230ypa8vhf","one_one","1","direct_first","1","er08ut19","0","24","1","1","3","2","2215","","","","","pos","GS","GSold","3","category3/CS6.png","79","targets/35.png","direct","",""
"","image-slider-response","117","435436","0.0-8.0-0.27","230ypa8vhf","one_one","1","direct_first","1","er08ut19","0","24","1","1","3","2","3734","","","","","pos","GS","GSold","4","category4/CS7.png","68","targets/6.png","direct","",""
"","image-slider-response","118","438003","0.0-8.0-0.28","230ypa8vhf","one_one","1","direct_first","1","er08ut19","0","24","1","1","3","2","2566","","","","","neg","GS","abstract","1","category1/ma.png","-78","targets/8.png","direct","",""
"","image-slider-response","119","440211","0.0-8.0-0.29","230ypa8vhf","one_one","1","direct_first","1","er08ut19","0","24","1","1","3","2","2207","","","","","neg","GS","GSold","1","category1/CS7.png","-71","targets/9.png","direct","",""
"","image-slider-response","120","442731","0.0-8.0-0.30","230ypa8vhf","one_one","1","direct_first","1","er08ut19","0","24","1","1","3","2","2519","","","","","pos","GS","GSold","3","category3/CS3.png","68","targets/17.png","direct","",""
"","image-slider-response","121","446859","0.0-8.0-0.31","230ypa8vhf","one_one","1","direct_first","1","er08ut19","0","24","1","1","3","2","4127","","","","","neg","GS","GSold","2","category2/CS6.png","-59","targets/2.png","direct","",""
"","html-keyboard-response","122","464814","0.0-9.0","230ypa8vhf","one_one","1","direct_first","1","er08ut19","0","24","1","1","3","2","17954","","","<p>Sie sehen nun die chinesischen Zeichen nur ganz kurz, und danach die jeweilige Aussprache der Zeichen. Ihre Aufgabe ist es, für jede Silbe anzugeben, ob diese etwas angenehmes, oder unangenehmes bedeuten könnte. Verlassen Sie sich hier vor allem auf Ihre Intuition.<br><br>Die Zeichen werden nur zur Orientierung dargestellt, beachten Sie sie deshalb nicht. Konzentrieren Sie sich vor allem auf die Silben. <br>Reagieren Sie mit folgenden zwei Tasten: <br><br><b>'D' </b> wenn die Silbe etwas <b>unangenehmes</b> bedeuten könnte. <br><b>'K'</b> wenn die Silbe etwas <b>angenehmes</b> bedeuten könnte. <br><br>Bitte legen Sie nun den Zeigefinger der linken Hand auf die Taste 'D' und den Zeigefinger der rechten Hand auf die Taste 'K'. <br>Reagieren Sie auf jede Silbe so schnell wie möglich. Uns interessiert Ihre spontane Reaktion. <br> <br> <br>Drücken Sie 'D' oder 'K', um die nächste Aufgabe zu starten. </p>","68","","","","","","","","","",""
"","html-keyboard-response","123","467848","0.0-10.0-0.0","230ypa8vhf","one_one","1","direct_first","1","er08ut19","0","24","1","1","3","2","null","","","<div style=""font-size:60px;"">+</div>","null","","","","","","","","","",""
"","html-keyboard-response","124","467947","0.0-10.0-1.0","230ypa8vhf","one_one","1","direct_first","1","er08ut19","0","24","1","1","3","2","null","","","<img src = 'category3/CS6.png' width = '100%;'>","null","","","","","","","","","",""
"","html-keyboard-response","125","468228","0.0-10.0-2.0","230ypa8vhf","one_one","1","direct_first","1","er08ut19","0","24","1","1","3","2","null","","","<img src = 'targets/35.png' width = '100%;'>","null","","","","","","","","","",""
"","html-keyboard-response","126","473180","0.0-10.0-3.0","230ypa8vhf","one_one","1","direct_first","1","er08ut19","0","24","1","1","3","2","4951","","","<img src = 'targets/mask.png' width = '100%;'>","75","pos","GS","GSold","3","category3/CS6.png","","targets/35.png","indirect","1","0"
"","html-keyboard-response","127","474717","0.0-10.0-0.1","230ypa8vhf","one_one","1","direct_first","1","er08ut19","0","24","1","1","3","2","null","","","<div style=""font-size:60px;"">+</div>","null","","","","","","","","","",""
"","html-keyboard-response","128","474817","0.0-10.0-1.1","230ypa8vhf","one_one","1","direct_first","1","er08ut19","0","24","1","1","3","2","null","","","<img src = 'category3/CS9.png' width = '100%;'>","null","","","","","","","","","",""
"","html-keyboard-response","129","475098","0.0-10.0-2.1","230ypa8vhf","one_one","1","direct_first","1","er08ut19","0","24","1","1","3","2","null","","","<img src = 'targets/10.png' width = '100%;'>","null","","","","","","","","","",""
"","html-keyboard-response","130","477173","0.0-10.0-3.1","230ypa8vhf","one_one","1","direct_first","1","er08ut19","0","24","1","1","3","2","2074","","","<img src = 'targets/mask.png' width = '100%;'>","75","pos","GS","GSold","3","category3/CS9.png","","targets/10.png","indirect","1","1"
"","html-keyboard-response","131","478696","0.0-10.0-0.2","230ypa8vhf","one_one","1","direct_first","1","er08ut19","0","24","1","1","3","2","null","","","<div style=""font-size:60px;"">+</div>","null","","","","","","","","","",""
"","html-keyboard-response","132","478796","0.0-10.0-1.2","230ypa8vhf","one_one","1","direct_first","1","er08ut19","0","24","1","1","3","2","null","","","<img src = 'category1/CS3.png' width = '100%;'>","null","","","","","","","","","",""
"","html-keyboard-response","133","479077","0.0-10.0-2.2","230ypa8vhf","one_one","1","direct_first","1","er08ut19","0","24","1","1","3","2","null","","","<img src = 'targets/4.png' width = '100%;'>","null","","","","","","","","","",""
"","html-keyboard-response","134","480876","0.0-10.0-3.2","230ypa8vhf","one_one","1","direct_first","1","er08ut19","0","24","1","1","3","2","1799","","","<img src = 'targets/mask.png' width = '100%;'>","68","neg","CS","CS","1","category1/CS3.png","","targets/4.png","indirect","0","2"
"","html-keyboard-response","135","482397","0.0-10.0-0.3","230ypa8vhf","one_one","1","direct_first","1","er08ut19","0","24","1","1","3","2","null","","","<div style=""font-size:60px;"">+</div>","null","","","","","","","","","",""
"","html-keyboard-response","136","482498","0.0-10.0-1.3","230ypa8vhf","one_one","1","direct_first","1","er08ut19","0","24","1","1","3","2","null","","","<img src = 'category2/CS6.png' width = '100%;'>","null","","","","","","","","","",""
"","html-keyboard-response","137","482777","0.0-10.0-2.3","230ypa8vhf","one_one","1","direct_first","1","er08ut19","0","24","1","1","3","2","null","","","<img src = 'targets/2.png' width = '100%;'>","null","","","","","","","","","",""
"","html-keyboard-response","138","483980","0.0-10.0-3.3","230ypa8vhf","one_one","1","direct_first","1","er08ut19","0","24","1","1","3","2","1201","","","<img src = 'targets/mask.png' width = '100%;'>","75","neg","GS","GSold","2","category2/CS6.png","","targets/2.png","indirect","1","3"
"","html-keyboard-response","139","485512","0.0-10.0-0.4","230ypa8vhf","one_one","1","direct_first","1","er08ut19","0","24","1","1","3","2","null","","","<div style=""font-size:60px;"">+</div>","null","","","","","","","","","",""
"","html-keyboard-response","140","485612","0.0-10.0-1.4","230ypa8vhf","one_one","1","direct_first","1","er08ut19","0","24","1","1","3","2","null","","","<img src = 'category1/CS2.png' width = '100%;'>","null","","","","","","","","","",""
"","html-keyboard-response","141","485897","0.0-10.0-2.4","230ypa8vhf","one_one","1","direct_first","1","er08ut19","0","24","1","1","3","2","null","","","<img src = 'targets/30.png' width = '100%;'>","null","","","","","","","","","",""
"","html-keyboard-response","142","487004","0.0-10.0-3.4","230ypa8vhf","one_one","1","direct_first","1","er08ut19","0","24","1","1","3","2","1105","","","<img src = 'targets/mask.png' width = '100%;'>","68","neg","GS","GSold","1","category1/CS2.png","","targets/30.png","indirect","0","4"
"","html-keyboard-response","143","488528","0.0-10.0-0.5","230ypa8vhf","one_one","1","direct_first","1","er08ut19","0","24","1","1","3","2","null","","","<div style=""font-size:60px;"">+</div>","null","","","","","","","","","",""
"","html-keyboard-response","144","488627","0.0-10.0-1.5","230ypa8vhf","one_one","1","direct_first","1","er08ut19","0","24","1","1","3","2","null","","","<img src = 'category4/CS7.png' width = '100%;'>","null","","","","","","","","","",""
"","html-keyboard-response","145","488907","0.0-10.0-2.5","230ypa8vhf","one_one","1","direct_first","1","er08ut19","0","24","1","1","3","2","null","","","<img src = 'targets/6.png' width = '100%;'>","null","","","","","","","","","",""
"","html-keyboard-response","146","490340","0.0-10.0-3.5","230ypa8vhf","one_one","1","direct_first","1","er08ut19","0","24","1","1","3","2","1432","","","<img src = 'targets/mask.png' width = '100%;'>","68","pos","GS","GSold","4","category4/CS7.png","","targets/6.png","indirect","0","5"
"","html-keyboard-response","147","491867","0.0-10.0-0.6","230ypa8vhf","one_one","1","direct_first","1","er08ut19","0","24","1","1","3","2","null","","","<div style=""font-size:60px;"">+</div>","null","","","","","","","","","",""
"","html-keyboard-response","148","491967","0.0-10.0-1.6","230ypa8vhf","one_one","1","direct_first","1","er08ut19","0","24","1","1","3","2","null","","","<img src = 'category4/CS8.png' width = '100%;'>","null","","","","","","","","","",""
"","html-keyboard-response","149","492247","0.0-10.0-2.6","230ypa8vhf","one_one","1","direct_first","1","er08ut19","0","24","1","1","3","2","null","","","<img src = 'targets/41.png' width = '100%;'>","null","","","","","","","","","",""
"","html-keyboard-response","150","492884","0.0-10.0-3.6","230ypa8vhf","one_one","1","direct_first","1","er08ut19","0","24","1","1","3","2","636","","","<img src = 'targets/mask.png' width = '100%;'>","75","pos","CS","CS","4","category4/CS8.png","","targets/41.png","indirect","1","6"
"","html-keyboard-response","151","494407","0.0-10.0-0.7","230ypa8vhf","one_one","1","direct_first","1","er08ut19","0","24","1","1","3","2","null","","","<div style=""font-size:60px;"">+</div>","null","","","","","","","","","",""
"","html-keyboard-response","152","494508","0.0-10.0-1.7","230ypa8vhf","one_one","1","direct_first","1","er08ut19","0","24","1","1","3","2","null","","","<img src = 'category3/CS3.png' width = '100%;'>","null","","","","","","","","","",""
"","html-keyboard-response","153","494787","0.0-10.0-2.7","230ypa8vhf","one_one","1","direct_first","1","er08ut19","0","24","1","1","3","2","null","","","<img src = 'targets/17.png' width = '100%;'>","null","","","","","","","","","",""
"","html-keyboard-response","154","495956","0.0-10.0-3.7","230ypa8vhf","one_one","1","direct_first","1","er08ut19","0","24","1","1","3","2","1168","","","<img src = 'targets/mask.png' width = '100%;'>","75","pos","GS","GSold","3","category3/CS3.png","","targets/17.png","indirect","1","7"
"","html-keyboard-response","155","497487","0.0-10.0-0.8","230ypa8vhf","one_one","1","direct_first","1","er08ut19","0","24","1","1","3","2","null","","","<div style=""font-size:60px;"">+</div>","null","","","","","","","","","",""
"","html-keyboard-response","156","497588","0.0-10.0-1.8","230ypa8vhf","one_one","1","direct_first","1","er08ut19","0","24","1","1","3","2","null","","","<img src = 'category4/CS10.png' width = '100%;'>","null","","","","","","","","","",""
"","html-keyboard-response","157","497867","0.0-10.0-2.8","230ypa8vhf","one_one","1","direct_first","1","er08ut19","0","24","1","1","3","2","null","","","<img src = 'targets/32.png' width = '100%;'>","null","","","","","","","","","",""
"","html-keyboard-response","158","498828","0.0-10.0-3.8","230ypa8vhf","one_one","1","direct_first","1","er08ut19","0","24","1","1","3","2","959","","","<img src = 'targets/mask.png' width = '100%;'>","75","pos","GS","GSold","4","category4/CS10.png","","targets/32.png","indirect","1","8"
"","html-keyboard-response","159","500357","0.0-10.0-0.9","230ypa8vhf","one_one","1","direct_first","1","er08ut19","0","24","1","1","3","2","null","","","<div style=""font-size:60px;"">+</div>","null","","","","","","","","","",""
"","html-keyboard-response","160","500457","0.0-10.0-1.9","230ypa8vhf","one_one","1","direct_first","1","er08ut19","0","24","1","1","3","2","null","","","<img src = 'category3/CS1.png' width = '100%;'>","null","","","","","","","","","",""
"","html-keyboard-response","161","500738","0.0-10.0-2.9","230ypa8vhf","one_one","1","direct_first","1","er08ut19","0","24","1","1","3","2","null","","","<img src = 'targets/48.png' width = '100%;'>","null","","","","","","","","","",""
"","html-keyboard-response","162","501373","0.0-10.0-3.9","230ypa8vhf","one_one","1","direct_first","1","er08ut19","0","24","1","1","3","2","633","","","<img src = 'targets/mask.png' width = '100%;'>","68","pos","CS","CS","3","category3/CS1.png","","targets/48.png","indirect","0","9"
"","html-keyboard-response","163","502888","0.0-10.0-0.10","230ypa8vhf","one_one","1","direct_first","1","er08ut19","0","24","1","1","3","2","null","","","<div style=""font-size:60px;"">+</div>","null","","","","","","","","","",""
"","html-keyboard-response","164","502987","0.0-10.0-1.10","230ypa8vhf","one_one","1","direct_first","1","er08ut19","0","24","1","1","3","2","null","","","<img src = 'category2/CS1.png' width = '100%;'>","null","","","","","","","","","",""
"","html-keyboard-response","165","503267","0.0-10.0-2.10","230ypa8vhf","one_one","1","direct_first","1","er08ut19","0","24","1","1","3","2","null","","","<img src = 'targets/20.png' width = '100%;'>","null","","","","","","","","","",""
"","html-keyboard-response","166","504197","0.0-10.0-3.10","230ypa8vhf","one_one","1","direct_first","1","er08ut19","0","24","1","1","3","2","928","","","<img src = 'targets/mask.png' width = '100%;'>","75","neg","GS","GSold","2","category2/CS1.png","","targets/20.png","indirect","1","10"
"","html-keyboard-response","167","505728","0.0-10.0-0.11","230ypa8vhf","one_one","1","direct_first","1","er08ut19","0","24","1","1","3","2","null","","","<div style=""font-size:60px;"">+</div>","null","","","","","","","","","",""
"","html-keyboard-response","168","505827","0.0-10.0-1.11","230ypa8vhf","one_one","1","direct_first","1","er08ut19","0","24","1","1","3","2","null","","","<img src = 'category4/CS9.png' width = '100%;'>","null","","","","","","","","","",""
"","html-keyboard-response","169","506107","0.0-10.0-2.11","230ypa8vhf","one_one","1","direct_first","1","er08ut19","0","24","1","1","3","2","null","","","<img src = 'targets/47.png' width = '100%;'>","null","","","","","","","","","",""
"","html-keyboard-response","170","506660","0.0-10.0-3.11","230ypa8vhf","one_one","1","direct_first","1","er08ut19","0","24","1","1","3","2","551","","","<img src = 'targets/mask.png' width = '100%;'>","75","pos","GS","GSold","4","category4/CS9.png","","targets/47.png","indirect","1","11"
"","html-keyboard-response","171","508167","0.0-10.0-0.12","230ypa8vhf","one_one","1","direct_first","1","er08ut19","0","24","1","1","3","2","null","","","<div style=""font-size:60px;"">+</div>","null","","","","","","","","","",""
"","html-keyboard-response","172","508268","0.0-10.0-1.12","230ypa8vhf","one_one","1","direct_first","1","er08ut19","0","24","1","1","3","2","null","","","<img src = 'category1/CS10.png' width = '100%;'>","null","","","","","","","","","",""
"","html-keyboard-response","173","508547","0.0-10.0-2.12","230ypa8vhf","one_one","1","direct_first","1","er08ut19","0","24","1","1","3","2","null","","","<img src = 'targets/7.png' width = '100%;'>","null","","","","","","","","","",""
"","html-keyboard-response","174","509116","0.0-10.0-3.12","230ypa8vhf","one_one","1","direct_first","1","er08ut19","0","24","1","1","3","2","568","","","<img src = 'targets/mask.png' width = '100%;'>","68","neg","GS","GSold","1","category1/CS10.png","","targets/7.png","indirect","0","12"
"","html-keyboard-response","175","510647","0.0-10.0-0.13","230ypa8vhf","one_one","1","direct_first","1","er08ut19","0","24","1","1","3","2","null","","","<div style=""font-size:60px;"">+</div>","null","","","","","","","","","",""
"","html-keyboard-response","176","510747","0.0-10.0-1.13","230ypa8vhf","one_one","1","direct_first","1","er08ut19","0","24","1","1","3","2","null","","","<img src = 'category2/CS2.png' width = '100%;'>","null","","","","","","","","","",""
"","html-keyboard-response","177","511027","0.0-10.0-2.13","230ypa8vhf","one_one","1","direct_first","1","er08ut19","0","24","1","1","3","2","null","","","<img src = 'targets/22.png' width = '100%;'>","null","","","","","","","","","",""
"","html-keyboard-response","178","511916","0.0-10.0-3.13","230ypa8vhf","one_one","1","direct_first","1","er08ut19","0","24","1","1","3","2","888","","","<img src = 'targets/mask.png' width = '100%;'>","75","neg","CS","CS","2","category2/CS2.png","","targets/22.png","indirect","1","13"
"","html-keyboard-response","179","513448","0.0-10.0-0.14","230ypa8vhf","one_one","1","direct_first","1","er08ut19","0","24","1","1","3","2","null","","","<div style=""font-size:60px;"">+</div>","null","","","","","","","","","",""
"","html-keyboard-response","180","513547","0.0-10.0-1.14","230ypa8vhf","one_one","1","direct_first","1","er08ut19","0","24","1","1","3","2","null","","","<img src = 'category2/CS9.png' width = '100%;'>","null","","","","","","","","","",""
"","html-keyboard-response","181","513828","0.0-10.0-2.14","230ypa8vhf","one_one","1","direct_first","1","er08ut19","0","24","1","1","3","2","null","","","<img src = 'targets/25.png' width = '100%;'>","null","","","","","","","","","",""
"","html-keyboard-response","182","515812","0.0-10.0-3.14","230ypa8vhf","one_one","1","direct_first","1","er08ut19","0","24","1","1","3","2","1983","","","<img src = 'targets/mask.png' width = '100%;'>","68","neg","GS","GSold","2","category2/CS9.png","","targets/25.png","indirect","0","14"
"","html-keyboard-response","183","517347","0.0-10.0-0.15","230ypa8vhf","one_one","1","direct_first","1","er08ut19","0","24","1","1","3","2","null","","","<div style=""font-size:60px;"">+</div>","null","","","","","","","","","",""
"","html-keyboard-response","184","517447","0.0-10.0-1.15","230ypa8vhf","one_one","1","direct_first","1","er08ut19","0","24","1","1","3","2","null","","","<img src = 'category1/CS7.png' width = '100%;'>","null","","","","","","","","","",""
"","html-keyboard-response","185","517727","0.0-10.0-2.15","230ypa8vhf","one_one","1","direct_first","1","er08ut19","0","24","1","1","3","2","null","","","<img src = 'targets/9.png' width = '100%;'>","null","","","","","","","","","",""
"","html-keyboard-response","186","519852","0.0-10.0-3.15","230ypa8vhf","one_one","1","direct_first","1","er08ut19","0","24","1","1","3","2","2123","","","<img src = 'targets/mask.png' width = '100%;'>","68","neg","GS","GSold","1","category1/CS7.png","","targets/9.png","indirect","0","15"
"","survey-html-form","187","522476","0.0-11.0","230ypa8vhf","one_one","1","direct_first","1","er08ut19","0","24","1","1","3","2","2108","","{}","","","","","","","","","","","",""
"","html-keyboard-response","188","525498","0.0-12.0-0.0","230ypa8vhf","one_one","1","direct_first","1","er08ut19","0","24","1","1","3","2","null","","","<div style=""font-size:60px;"">+</div>","null","","","","","","","","","",""
"","html-keyboard-response","189","525597","0.0-12.0-1.0","230ypa8vhf","one_one","1","direct_first","1","er08ut19","0","24","1","1","3","2","null","","","<img src = 'category2/GS3.png' width = '100%;'>","null","","","","","","","","","",""
"","html-keyboard-response","190","525877","0.0-12.0-2.0","230ypa8vhf","one_one","1","direct_first","1","er08ut19","0","24","1","1","3","2","null","","","<img src = 'targets/34.png' width = '100%;'>","null","","","","","","","","","",""
"","html-keyboard-response","191","526708","0.0-12.0-3.0","230ypa8vhf","one_one","1","direct_first","1","er08ut19","0","24","1","1","3","2","830","","","<img src = 'targets/mask.png' width = '100%;'>","75","neg","GS","GSnew","2","category2/GS3.png","","targets/34.png","indirect","1","16"
"","html-keyboard-response","192","528237","0.0-12.0-0.1","230ypa8vhf","one_one","1","direct_first","1","er08ut19","0","24","1","1","3","2","null","","","<div style=""font-size:60px;"">+</div>","null","","","","","","","","","",""
"","html-keyboard-response","193","528337","0.0-12.0-1.1","230ypa8vhf","one_one","1","direct_first","1","er08ut19","0","24","1","1","3","2","null","","","<img src = 'category3/GS2.png' width = '100%;'>","null","","","","","","","","","",""
"","html-keyboard-response","194","528617","0.0-12.0-2.1","230ypa8vhf","one_one","1","direct_first","1","er08ut19","0","24","1","1","3","2","null","","","<img src = 'targets/14.png' width = '100%;'>","null","","","","","","","","","",""
"","html-keyboard-response","195","531692","0.0-12.0-3.1","230ypa8vhf","one_one","1","direct_first","1","er08ut19","0","24","1","1","3","2","3073","","","<img src = 'targets/mask.png' width = '100%;'>","68","pos","GS","GSnew","3","category3/GS2.png","","targets/14.png","indirect","0","17"
"","html-keyboard-response","196","533217","0.0-12.0-0.2","230ypa8vhf","one_one","1","direct_first","1","er08ut19","0","24","1","1","3","2","null","","","<div style=""font-size:60px;"">+</div>","null","","","","","","","","","",""
"","html-keyboard-response","197","533317","0.0-12.0-1.2","230ypa8vhf","one_one","1","direct_first","1","er08ut19","0","24","1","1","3","2","null","","","<img src = 'category1/GS3.png' width = '100%;'>","null","","","","","","","","","",""
"","html-keyboard-response","198","533597","0.0-12.0-2.2","230ypa8vhf","one_one","1","direct_first","1","er08ut19","0","24","1","1","3","2","null","","","<img src = 'targets/26.png' width = '100%;'>","null","","","","","","","","","",""
"","html-keyboard-response","199","534324","0.0-12.0-3.2","230ypa8vhf","one_one","1","direct_first","1","er08ut19","0","24","1","1","3","2","726","","","<img src = 'targets/mask.png' width = '100%;'>","68","neg","GS","GSnew","1","category1/GS3.png","","targets/26.png","indirect","0","18"
"","html-keyboard-response","200","535857","0.0-12.0-0.3","230ypa8vhf","one_one","1","direct_first","1","er08ut19","0","24","1","1","3","2","null","","","<div style=""font-size:60px;"">+</div>","null","","","","","","","","","",""
"","html-keyboard-response","201","535958","0.0-12.0-1.3","230ypa8vhf","one_one","1","direct_first","1","er08ut19","0","24","1","1","3","2","null","","","<img src = 'category4/GS2.png' width = '100%;'>","null","","","","","","","","","",""
"","html-keyboard-response","202","536237","0.0-12.0-2.3","230ypa8vhf","one_one","1","direct_first","1","er08ut19","0","24","1","1","3","2","null","","","<img src = 'targets/15.png' width = '100%;'>","null","","","","","","","","","",""
"","html-keyboard-response","203","536956","0.0-12.0-3.3","230ypa8vhf","one_one","1","direct_first","1","er08ut19","0","24","1","1","3","2","717","","","<img src = 'targets/mask.png' width = '100%;'>","68","pos","GS","GSnew","4","category4/GS2.png","","targets/15.png","indirect","0","19"
"","html-keyboard-response","204","538467","0.0-12.0-0.4","230ypa8vhf","one_one","1","direct_first","1","er08ut19","0","24","1","1","3","2","null","","","<div style=""font-size:60px;"">+</div>","null","","","","","","","","","",""
"","html-keyboard-response","205","538567","0.0-12.0-1.4","230ypa8vhf","one_one","1","direct_first","1","er08ut19","0","24","1","1","3","2","null","","","<img src = 'category4/lin.png' width = '100%;'>","null","","","","","","","","","",""
"","html-keyboard-response","206","538847","0.0-12.0-2.4","230ypa8vhf","one_one","1","direct_first","1","er08ut19","0","24","1","1","3","2","null","","","<img src = 'targets/42.png' width = '100%;'>","null","","","","","","","","","",""
"","html-keyboard-response","207","539492","0.0-12.0-3.4","230ypa8vhf","one_one","1","direct_first","1","er08ut19","0","24","1","1","3","2","642","","","<img src = 'targets/mask.png' width = '100%;'>","75","pos","GS","abstract","4","category4/lin.png","","targets/42.png","indirect","1","20"
"","html-keyboard-response","208","541008","0.0-12.0-0.5","230ypa8vhf","one_one","1","direct_first","1","er08ut19","0","24","1","1","3","2","null","","","<div style=""font-size:60px;"">+</div>","null","","","","","","","","","",""
"","html-keyboard-response","209","541099","0.0-12.0-1.5","230ypa8vhf","one_one","1","direct_first","1","er08ut19","0","24","1","1","3","2","null","","","<img src = 'category2/GS1.png' width = '100%;'>","null","","","","","","","","","",""
"","html-keyboard-response","210","541353","0.0-12.0-2.5","230ypa8vhf","one_one","1","direct_first","1","er08ut19","0","24","1","1","3","2","null","","","<img src = 'targets/13.png' width = '100%;'>","null","","","","","","","","","",""
"","html-keyboard-response","211","542779","0.0-12.0-3.5","230ypa8vhf","one_one","1","direct_first","1","er08ut19","0","24","1","1","3","2","1426","","","<img src = 'targets/mask.png' width = '100%;'>","75","neg","GS","GSnew","2","category2/GS1.png","","targets/13.png","indirect","1","21"
"","html-keyboard-response","212","544307","0.0-12.0-0.6","230ypa8vhf","one_one","1","direct_first","1","er08ut19","0","24","1","1","3","2","null","","","<div style=""font-size:60px;"">+</div>","null","","","","","","","","","",""
"","html-keyboard-response","213","544407","0.0-12.0-1.6","230ypa8vhf","one_one","1","direct_first","1","er08ut19","0","24","1","1","3","2","null","","","<img src = 'category4/GS3.png' width = '100%;'>","null","","","","","","","","","",""
"","html-keyboard-response","214","544687","0.0-12.0-2.6","230ypa8vhf","one_one","1","direct_first","1","er08ut19","0","24","1","1","3","2","null","","","<img src = 'targets/43.png' width = '100%;'>","null","","","","","","","","","",""
"","html-keyboard-response","215","545308","0.0-12.0-3.6","230ypa8vhf","one_one","1","direct_first","1","er08ut19","0","24","1","1","3","2","619","","","<img src = 'targets/mask.png' width = '100%;'>","68","pos","GS","GSnew","4","category4/GS3.png","","targets/43.png","indirect","0","22"
"","html-keyboard-response","216","546837","0.0-12.0-0.7","230ypa8vhf","one_one","1","direct_first","1","er08ut19","0","24","1","1","3","2","null","","","<div style=""font-size:60px;"">+</div>","null","","","","","","","","","",""
"","html-keyboard-response","217","546937","0.0-12.0-1.7","230ypa8vhf","one_one","1","direct_first","1","er08ut19","0","24","1","1","3","2","null","","","<img src = 'category2/men.png' width = '100%;'>","null","","","","","","","","","",""
"","html-keyboard-response","218","547217","0.0-12.0-2.7","230ypa8vhf","one_one","1","direct_first","1","er08ut19","0","24","1","1","3","2","null","","","<img src = 'targets/21.png' width = '100%;'>","null","","","","","","","","","",""
"","html-keyboard-response","219","548180","0.0-12.0-3.7","230ypa8vhf","one_one","1","direct_first","1","er08ut19","0","24","1","1","3","2","960","","","<img src = 'targets/mask.png' width = '100%;'>","68","neg","GS","abstract","2","category2/men.png","","targets/21.png","indirect","0","23"
"","html-keyboard-response","220","549717","0.0-12.0-0.8","230ypa8vhf","one_one","1","direct_first","1","er08ut19","0","24","1","1","3","2","null","","","<div style=""font-size:60px;"">+</div>","null","","","","","","","","","",""
"","html-keyboard-response","221","549818","0.0-12.0-1.8","230ypa8vhf","one_one","1","direct_first","1","er08ut19","0","24","1","1","3","2","null","","","<img src = 'category3/GS1.png' width = '100%;'>","null","","","","","","","","","",""
"","html-keyboard-response","222","550098","0.0-12.0-2.8","230ypa8vhf","one_one","1","direct_first","1","er08ut19","0","24","1","1","3","2","null","","","<img src = 'targets/40.png' width = '100%;'>","null","","","","","","","","","",""
"","html-keyboard-response","223","550732","0.0-12.0-3.8","230ypa8vhf","one_one","1","direct_first","1","er08ut19","0","24","1","1","3","2","633","","","<img src = 'targets/mask.png' width = '100%;'>","68","pos","GS","GSnew","3","category3/GS1.png","","targets/40.png","indirect","0","24"
"","html-keyboard-response","224","552258","0.0-12.0-0.9","230ypa8vhf","one_one","1","direct_first","1","er08ut19","0","24","1","1","3","2","null","","","<div style=""font-size:60px;"">+</div>","null","","","","","","","","","",""
"","html-keyboard-response","225","552357","0.0-12.0-1.9","230ypa8vhf","one_one","1","direct_first","1","er08ut19","0","24","1","1","3","2","null","","","<img src = 'category1/ma.png' width = '100%;'>","null","","","","","","","","","",""
"","html-keyboard-response","226","552637","0.0-12.0-2.9","230ypa8vhf","one_one","1","direct_first","1","er08ut19","0","24","1","1","3","2","null","","","<img src = 'targets/8.png' width = '100%;'>","null","","","","","","","","","",""
"","html-keyboard-response","227","553116","0.0-12.0-3.9","230ypa8vhf","one_one","1","direct_first","1","er08ut19","0","24","1","1","3","2","477","","","<img src = 'targets/mask.png' width = '100%;'>","75","neg","GS","abstract","1","category1/ma.png","","targets/8.png","indirect","1","25"
"","html-keyboard-response","228","554637","0.0-12.0-0.10","230ypa8vhf","one_one","1","direct_first","1","er08ut19","0","24","1","1","3","2","null","","","<div style=""font-size:60px;"">+</div>","null","","","","","","","","","",""
"","html-keyboard-response","229","554737","0.0-12.0-1.10","230ypa8vhf","one_one","1","direct_first","1","er08ut19","0","24","1","1","3","2","null","","","<img src = 'category1/GS2.png' width = '100%;'>","null","","","","","","","","","",""
"","html-keyboard-response","230","555017","0.0-12.0-2.10","230ypa8vhf","one_one","1","direct_first","1","er08ut19","0","24","1","1","3","2","null","","","<img src = 'targets/39.png' width = '100%;'>","null","","","","","","","","","",""
"","html-keyboard-response","231","557075","0.0-12.0-3.10","230ypa8vhf","one_one","1","direct_first","1","er08ut19","0","24","1","1","3","2","2057","","","<img src = 'targets/mask.png' width = '100%;'>","75","neg","GS","GSnew","1","category1/GS2.png","","targets/39.png","indirect","1","26"
"","html-keyboard-response","232","558577","0.0-12.0-0.11","230ypa8vhf","one_one","1","direct_first","1","er08ut19","0","24","1","1","3","2","null","","","<div style=""font-size:60px;"">+</div>","null","","","","","","","","","",""
"","html-keyboard-response","233","558677","0.0-12.0-1.11","230ypa8vhf","one_one","1","direct_first","1","er08ut19","0","24","1","1","3","2","null","","","<img src = 'category2/GS2.png' width = '100%;'>","null","","","","","","","","","",""
"","html-keyboard-response","234","558957","0.0-12.0-2.11","230ypa8vhf","one_one","1","direct_first","1","er08ut19","0","24","1","1","3","2","null","","","<img src = 'targets/28.png' width = '100%;'>","null","","","","","","","","","",""
"","html-keyboard-response","235","559819","0.0-12.0-3.11","230ypa8vhf","one_one","1","direct_first","1","er08ut19","0","24","1","1","3","2","862","","","<img src = 'targets/mask.png' width = '100%;'>","68","neg","GS","GSnew","2","category2/GS2.png","","targets/28.png","indirect","0","27"
"","html-keyboard-response","236","561357","0.0-12.0-0.12","230ypa8vhf","one_one","1","direct_first","1","er08ut19","0","24","1","1","3","2","null","","","<div style=""font-size:60px;"">+</div>","null","","","","","","","","","",""
"","html-keyboard-response","237","561457","0.0-12.0-1.12","230ypa8vhf","one_one","1","direct_first","1","er08ut19","0","24","1","1","3","2","null","","","<img src = 'category1/GS1.png' width = '100%;'>","null","","","","","","","","","",""
"","html-keyboard-response","238","561737","0.0-12.0-2.12","230ypa8vhf","one_one","1","direct_first","1","er08ut19","0","24","1","1","3","2","null","","","<img src = 'targets/33.png' width = '100%;'>","null","","","","","","","","","",""
"","html-keyboard-response","239","562332","0.0-12.0-3.12","230ypa8vhf","one_one","1","direct_first","1","er08ut19","0","24","1","1","3","2","594","","","<img src = 'targets/mask.png' width = '100%;'>","75","neg","GS","GSnew","1","category1/GS1.png","","targets/33.png","indirect","1","28"
"","html-keyboard-response","240","563857","0.0-12.0-0.13","230ypa8vhf","one_one","1","direct_first","1","er08ut19","0","24","1","1","3","2","null","","","<div style=""font-size:60px;"">+</div>","null","","","","","","","","","",""
"","html-keyboard-response","241","563957","0.0-12.0-1.13","230ypa8vhf","one_one","1","direct_first","1","er08ut19","0","24","1","1","3","2","null","","","<img src = 'category4/GS1.png' width = '100%;'>","null","","","","","","","","","",""
"","html-keyboard-response","242","564217","0.0-12.0-2.13","230ypa8vhf","one_one","1","direct_first","1","er08ut19","0","24","1","1","3","2","null","","","<img src = 'targets/19.png' width = '100%;'>","null","","","","","","","","","",""
"","html-keyboard-response","243","564772","0.0-12.0-3.13","230ypa8vhf","one_one","1","direct_first","1","er08ut19","0","24","1","1","3","2","554","","","<img src = 'targets/mask.png' width = '100%;'>","68","pos","GS","GSnew","4","category4/GS1.png","","targets/19.png","indirect","0","29"
"","html-keyboard-response","244","566287","0.0-12.0-0.14","230ypa8vhf","one_one","1","direct_first","1","er08ut19","0","24","1","1","3","2","null","","","<div style=""font-size:60px;"">+</div>","null","","","","","","","","","",""
"","html-keyboard-response","245","566386","0.0-12.0-1.14","230ypa8vhf","one_one","1","direct_first","1","er08ut19","0","24","1","1","3","2","null","","","<img src = 'category3/wang.png' width = '100%;'>","null","","","","","","","","","",""
"","html-keyboard-response","246","566667","0.0-12.0-2.14","230ypa8vhf","one_one","1","direct_first","1","er08ut19","0","24","1","1","3","2","null","","","<img src = 'targets/31.png' width = '100%;'>","null","","","","","","","","","",""
"","html-keyboard-response","247","567564","0.0-12.0-3.14","230ypa8vhf","one_one","1","direct_first","1","er08ut19","0","24","1","1","3","2","896","","","<img src = 'targets/mask.png' width = '100%;'>","75","pos","GS","abstract","3","category3/wang.png","","targets/31.png","indirect","1","30"
"","html-keyboard-response","248","569087","0.0-12.0-0.15","230ypa8vhf","one_one","1","direct_first","1","er08ut19","0","24","1","1","3","2","null","","","<div style=""font-size:60px;"">+</div>","null","","","","","","","","","",""
"","html-keyboard-response","249","569187","0.0-12.0-1.15","230ypa8vhf","one_one","1","direct_first","1","er08ut19","0","24","1","1","3","2","null","","","<img src = 'category3/GS3.png' width = '100%;'>","null","","","","","","","","","",""
"","html-keyboard-response","250","569467","0.0-12.0-2.15","230ypa8vhf","one_one","1","direct_first","1","er08ut19","0","24","1","1","3","2","null","","","<img src = 'targets/45.png' width = '100%;'>","null","","","","","","","","","",""
"","html-keyboard-response","251","570748","0.0-12.0-3.15","230ypa8vhf","one_one","1","direct_first","1","er08ut19","0","24","1","1","3","2","1280","","","<img src = 'targets/mask.png' width = '100%;'>","75","pos","GS","GSnew","3","category3/GS3.png","","targets/45.png","indirect","1","31"
"","survey-html-form","252","576684","0.0-13.0","230ypa8vhf","one_one","1","direct_first","1","er08ut19","0","24","1","1","3","2","5426","","{}","","","","","","","","","","","",""
"","image-slider-response","253","581739","0.0-14.0-0.0","230ypa8vhf","one_one","1","direct_first","1","er08ut19","0","24","1","1","3","2","4036","","","","","pos","All","all","3","category3/wang_all.png","70","","all","",""
"","image-slider-response","254","584867","0.0-14.0-0.1","230ypa8vhf","one_one","1","direct_first","1","er08ut19","0","24","1","1","3","2","3127","","","","","pos","All","all","4","category4/lin_all.png","91","","all","",""
"","image-slider-response","255","587571","0.0-14.0-0.2","230ypa8vhf","one_one","1","direct_first","1","er08ut19","0","24","1","1","3","2","2703","","","","","neg","All","all","1","category1/ma_all.png","-59","","all","",""
"","image-slider-response","256","589538","0.0-14.0-0.3","230ypa8vhf","one_one","1","direct_first","1","er08ut19","0","24","1","1","3","2","1967","","","","","neg","All","all","2","category2/men_all.png","-73","","all","",""
"","survey-text","257","597395","0.0-15.0","230ypa8vhf","one_one","1","direct_first","1","er08ut19","0","24","1","1","3","2","7854","","{""Q0"":""""}","","","","","","","","","","","",""
