"success","trial_type","trial_index","time_elapsed","internal_node_id","subject","condition","condition_code","measure","measure_code","codeword","gender","age","education","chinese","fach","handedness","rt","url","responses","stimulus","key_press","val","type","type_specific","category","cs_selected","target","indirect","task","nr_pres","response"
"true","fullscreen","0","4601","0.0-0.0","4fw5ps7kpp","many_one","0","indirect_first","0","at07rt13","0","23","1","0","2","1","","","","","","","","","","","","","","",""
"","external-html","1","64808","0.0-1.0","4fw5ps7kpp","many_one","0","indirect_first","0","at07rt13","0","23","1","0","2","1","60192","text/information.html","","","","","","","","","","","","",""
"","external-html","2","78064","0.0-2.0","4fw5ps7kpp","many_one","0","indirect_first","0","at07rt13","0","23","1","0","2","1","13240","text/consent.html","","","","","","","","","","","","",""
"","survey-html-form","3","117519","0.0-3.0","4fw5ps7kpp","many_one","0","indirect_first","0","at07rt13","0","23","1","0","2","1","39453","","{""codeword_enter"":""at07rt13""}","","","","","","","","","","","",""
"","survey-html-form","4","132200","0.0-4.0","4fw5ps7kpp","many_one","0","indirect_first","0","at07rt13","0","23","1","0","2","1","14681","","{""age"":""23"",""education"":""1"",""subject"":""2"",""gender"":""0"",""handedness"":""1"",""chinese"":""0""}","","","","","","","","","","","",""
"","survey-html-form","5","137432","0.0-5.0","4fw5ps7kpp","many_one","0","indirect_first","0","at07rt13","0","23","1","0","2","1","5231","","{}","","","","","","","","","","","",""
"","html-keyboard-response","6","141461","0.0-6.0-0.0-0.0","4fw5ps7kpp","many_one","0","indirect_first","0","at07rt13","0","23","1","0","2","1","null","","","<div class = 'row'><div class = 'column'><img src = 'usneg/6570.1.bmp' width = '100%;'></div><div class = 'column'><img src = 'category2/CS3.png' width = '70%;'></div></div>","null","neg","CS","CS","2","category2/CS3.png","","","","",""
"","html-keyboard-response","7","144000","0.0-6.0-0.0-0.1","4fw5ps7kpp","many_one","0","indirect_first","0","at07rt13","0","23","1","0","2","1","null","","","<div class = 'row'><div class = 'column'><img src = 'usneg/8485.bmp' width = '100%;'></div><div class = 'column'><img src = 'category2/CS6.png' width = '70%;'></div></div>","null","neg","CS","CS","2","category2/CS6.png","","","","",""
"","html-keyboard-response","8","146530","0.0-6.0-0.0-0.2","4fw5ps7kpp","many_one","0","indirect_first","0","at07rt13","0","23","1","0","2","1","null","","","<div class = 'row'><div class = 'column'><img src = 'usneg/9435.bmp' width = '100%;'></div><div class = 'column'><img src = 'category4/CS2.png' width = '70%;'></div></div>","null","neg","CS","CS","4","category4/CS2.png","","","","",""
"","html-keyboard-response","9","149069","0.0-6.0-0.0-0.3","4fw5ps7kpp","many_one","0","indirect_first","0","at07rt13","0","23","1","0","2","1","null","","","<div class = 'row'><div class = 'column'><img src = 'category2/CS8.png' width = '70%;'></div><div class = 'column'><img src = 'usneg/9561.bmp' width = '100%;'></div></div>","null","neg","CS","CS","2","category2/CS8.png","","","","",""
"","html-keyboard-response","10","151609","0.0-6.0-0.0-0.4","4fw5ps7kpp","many_one","0","indirect_first","0","at07rt13","0","23","1","0","2","1","null","","","<div class = 'row'><div class = 'column'><img src = 'usneg/3300.bmp' width = '100%;'></div><div class = 'column'><img src = 'category4/CS9.png' width = '70%;'></div></div>","null","neg","CS","CS","4","category4/CS9.png","","","","",""
"","html-keyboard-response","11","154150","0.0-6.0-0.0-0.5","4fw5ps7kpp","many_one","0","indirect_first","0","at07rt13","0","23","1","0","2","1","null","","","<div class = 'row'><div class = 'column'><img src = 'uspos/8080.bmp' width = '100%;'></div><div class = 'column'><img src = 'category1/CS6.png' width = '70%;'></div></div>","null","pos","CS","CS","1","category1/CS6.png","","","","",""
"","html-keyboard-response","12","156689","0.0-6.0-0.0-0.6","4fw5ps7kpp","many_one","0","indirect_first","0","at07rt13","0","23","1","0","2","1","null","","","<div class = 'row'><div class = 'column'><img src = 'category2/CS10.png' width = '70%;'></div><div class = 'column'><img src = 'usneg/9920.bmp' width = '100%;'></div></div>","null","neg","CS","CS","2","category2/CS10.png","","","","",""
"","html-keyboard-response","13","159229","0.0-6.0-0.0-0.7","4fw5ps7kpp","many_one","0","indirect_first","0","at07rt13","0","23","1","0","2","1","null","","","<div class = 'row'><div class = 'column'><img src = 'category1/CS3.png' width = '70%;'></div><div class = 'column'><img src = 'uspos/2530.bmp' width = '100%;'></div></div>","null","pos","CS","CS","1","category1/CS3.png","","","","",""
"","html-keyboard-response","14","161748","0.0-6.0-0.0-0.8","4fw5ps7kpp","many_one","0","indirect_first","0","at07rt13","0","23","1","0","2","1","null","","","<div class = 'row'><div class = 'column'><img src = 'category3/CS8.png' width = '70%;'></div><div class = 'column'><img src = 'uspos/2360.bmp' width = '100%;'></div></div>","null","pos","CS","CS","3","category3/CS8.png","","","","",""
"","html-keyboard-response","15","164289","0.0-6.0-0.0-0.9","4fw5ps7kpp","many_one","0","indirect_first","0","at07rt13","0","23","1","0","2","1","null","","","<div class = 'row'><div class = 'column'><img src = 'usneg/3160.bmp' width = '100%;'></div><div class = 'column'><img src = 'category4/CS8.png' width = '70%;'></div></div>","null","neg","CS","CS","4","category4/CS8.png","","","","",""
"","html-keyboard-response","16","166828","0.0-6.0-0.0-0.10","4fw5ps7kpp","many_one","0","indirect_first","0","at07rt13","0","23","1","0","2","1","null","","","<div class = 'row'><div class = 'column'><img src = 'usneg/2205.bmp' width = '100%;'></div><div class = 'column'><img src = 'category2/CS2.png' width = '70%;'></div></div>","null","neg","CS","CS","2","category2/CS2.png","","","","",""
"","html-keyboard-response","17","169366","0.0-6.0-0.0-0.11","4fw5ps7kpp","many_one","0","indirect_first","0","at07rt13","0","23","1","0","2","1","null","","","<div class = 'row'><div class = 'column'><img src = 'category1/CS2.png' width = '70%;'></div><div class = 'column'><img src = 'uspos/8190.bmp' width = '100%;'></div></div>","null","pos","CS","CS","1","category1/CS2.png","","","","",""
"","html-keyboard-response","18","171869","0.0-6.0-0.0-0.12","4fw5ps7kpp","many_one","0","indirect_first","0","at07rt13","0","23","1","0","2","1","null","","","<div class = 'row'><div class = 'column'><img src = 'category3/CS1.png' width = '70%;'></div><div class = 'column'><img src = 'uspos/5600.bmp' width = '100%;'></div></div>","null","pos","CS","CS","3","category3/CS1.png","","","","",""
"","html-keyboard-response","19","174408","0.0-6.0-0.0-0.13","4fw5ps7kpp","many_one","0","indirect_first","0","at07rt13","0","23","1","0","2","1","null","","","<div class = 'row'><div class = 'column'><img src = 'uspos/7325.bmp' width = '100%;'></div><div class = 'column'><img src = 'category3/CS7.png' width = '70%;'></div></div>","null","pos","CS","CS","3","category3/CS7.png","","","","",""
"","html-keyboard-response","20","176948","0.0-6.0-0.0-0.14","4fw5ps7kpp","many_one","0","indirect_first","0","at07rt13","0","23","1","0","2","1","null","","","<div class = 'row'><div class = 'column'><img src = 'usneg/2900.bmp' width = '100%;'></div><div class = 'column'><img src = 'category4/CS1.png' width = '70%;'></div></div>","null","neg","CS","CS","4","category4/CS1.png","","","","",""
"","html-keyboard-response","21","179488","0.0-6.0-0.0-0.15","4fw5ps7kpp","many_one","0","indirect_first","0","at07rt13","0","23","1","0","2","1","null","","","<div class = 'row'><div class = 'column'><img src = 'category1/CS8.png' width = '70%;'></div><div class = 'column'><img src = 'uspos/8350.bmp' width = '100%;'></div></div>","null","pos","CS","CS","1","category1/CS8.png","","","","",""
"","html-keyboard-response","22","182029","0.0-6.0-0.0-0.16","4fw5ps7kpp","many_one","0","indirect_first","0","at07rt13","0","23","1","0","2","1","null","","","<div class = 'row'><div class = 'column'><img src = 'uspos/1460.bmp' width = '100%;'></div><div class = 'column'><img src = 'category1/CS9.png' width = '70%;'></div></div>","null","pos","CS","CS","1","category1/CS9.png","","","","",""
"","html-keyboard-response","23","184558","0.0-6.0-0.0-0.17","4fw5ps7kpp","many_one","0","indirect_first","0","at07rt13","0","23","1","0","2","1","null","","","<div class = 'row'><div class = 'column'><img src = 'uspos/1440.bmp' width = '100%;'></div><div class = 'column'><img src = 'category3/CS2.png' width = '70%;'></div></div>","null","pos","CS","CS","3","category3/CS2.png","","","","",""
"","html-keyboard-response","24","187099","0.0-6.0-0.0-0.18","4fw5ps7kpp","many_one","0","indirect_first","0","at07rt13","0","23","1","0","2","1","null","","","<div class = 'row'><div class = 'column'><img src = 'category3/CS6.png' width = '70%;'></div><div class = 'column'><img src = 'uspos/5831.bmp' width = '100%;'></div></div>","null","pos","CS","CS","3","category3/CS6.png","","","","",""
"","html-keyboard-response","25","189617","0.0-6.0-0.0-0.19","4fw5ps7kpp","many_one","0","indirect_first","0","at07rt13","0","23","1","0","2","1","null","","","<div class = 'row'><div class = 'column'><img src = 'usneg/6838.bmp' width = '100%;'></div><div class = 'column'><img src = 'category4/CS7.png' width = '70%;'></div></div>","null","neg","CS","CS","4","category4/CS7.png","","","","",""
"","survey-html-form","26","191598","0.0-6.0-1.0","4fw5ps7kpp","many_one","0","indirect_first","0","at07rt13","0","23","1","0","2","1","1481","","{}","","","","","","","","","","","",""
"","html-keyboard-response","27","195638","0.0-6.0-2.0-0.0","4fw5ps7kpp","many_one","0","indirect_first","0","at07rt13","0","23","1","0","2","1","null","","","<div class = 'row'><div class = 'column'><img src = 'category1/CS2.png' width = '70%;'></div><div class = 'column'><img src = 'uspos/8190.bmp' width = '100%;'></div></div>","null","pos","CS","CS","1","category1/CS2.png","","","","",""
"","html-keyboard-response","28","198168","0.0-6.0-2.0-0.1","4fw5ps7kpp","many_one","0","indirect_first","0","at07rt13","0","23","1","0","2","1","null","","","<div class = 'row'><div class = 'column'><img src = 'category1/CS9.png' width = '70%;'></div><div class = 'column'><img src = 'uspos/1460.bmp' width = '100%;'></div></div>","null","pos","CS","CS","1","category1/CS9.png","","","","",""
"","html-keyboard-response","29","200708","0.0-6.0-2.0-0.2","4fw5ps7kpp","many_one","0","indirect_first","0","at07rt13","0","23","1","0","2","1","null","","","<div class = 'row'><div class = 'column'><img src = 'category4/CS1.png' width = '70%;'></div><div class = 'column'><img src = 'usneg/2900.bmp' width = '100%;'></div></div>","null","neg","CS","CS","4","category4/CS1.png","","","","",""
"","html-keyboard-response","30","203247","0.0-6.0-2.0-0.3","4fw5ps7kpp","many_one","0","indirect_first","0","at07rt13","0","23","1","0","2","1","null","","","<div class = 'row'><div class = 'column'><img src = 'category3/CS2.png' width = '70%;'></div><div class = 'column'><img src = 'uspos/1440.bmp' width = '100%;'></div></div>","null","pos","CS","CS","3","category3/CS2.png","","","","",""
"","html-keyboard-response","31","205768","0.0-6.0-2.0-0.4","4fw5ps7kpp","many_one","0","indirect_first","0","at07rt13","0","23","1","0","2","1","null","","","<div class = 'row'><div class = 'column'><img src = 'uspos/2530.bmp' width = '100%;'></div><div class = 'column'><img src = 'category1/CS3.png' width = '70%;'></div></div>","null","pos","CS","CS","1","category1/CS3.png","","","","",""
"","html-keyboard-response","32","208297","0.0-6.0-2.0-0.5","4fw5ps7kpp","many_one","0","indirect_first","0","at07rt13","0","23","1","0","2","1","null","","","<div class = 'row'><div class = 'column'><img src = 'category2/CS6.png' width = '70%;'></div><div class = 'column'><img src = 'usneg/8485.bmp' width = '100%;'></div></div>","null","neg","CS","CS","2","category2/CS6.png","","","","",""
"","html-keyboard-response","33","210837","0.0-6.0-2.0-0.6","4fw5ps7kpp","many_one","0","indirect_first","0","at07rt13","0","23","1","0","2","1","null","","","<div class = 'row'><div class = 'column'><img src = 'usneg/9561.bmp' width = '100%;'></div><div class = 'column'><img src = 'category2/CS8.png' width = '70%;'></div></div>","null","neg","CS","CS","2","category2/CS8.png","","","","",""
"","html-keyboard-response","34","213377","0.0-6.0-2.0-0.7","4fw5ps7kpp","many_one","0","indirect_first","0","at07rt13","0","23","1","0","2","1","null","","","<div class = 'row'><div class = 'column'><img src = 'category3/CS7.png' width = '70%;'></div><div class = 'column'><img src = 'uspos/7325.bmp' width = '100%;'></div></div>","null","pos","CS","CS","3","category3/CS7.png","","","","",""
"","html-keyboard-response","35","215917","0.0-6.0-2.0-0.8","4fw5ps7kpp","many_one","0","indirect_first","0","at07rt13","0","23","1","0","2","1","null","","","<div class = 'row'><div class = 'column'><img src = 'usneg/6570.1.bmp' width = '100%;'></div><div class = 'column'><img src = 'category2/CS3.png' width = '70%;'></div></div>","null","neg","CS","CS","2","category2/CS3.png","","","","",""
"","html-keyboard-response","36","218437","0.0-6.0-2.0-0.9","4fw5ps7kpp","many_one","0","indirect_first","0","at07rt13","0","23","1","0","2","1","null","","","<div class = 'row'><div class = 'column'><img src = 'category1/CS8.png' width = '70%;'></div><div class = 'column'><img src = 'uspos/8350.bmp' width = '100%;'></div></div>","null","pos","CS","CS","1","category1/CS8.png","","","","",""
"","html-keyboard-response","37","220957","0.0-6.0-2.0-0.10","4fw5ps7kpp","many_one","0","indirect_first","0","at07rt13","0","23","1","0","2","1","null","","","<div class = 'row'><div class = 'column'><img src = 'category3/CS6.png' width = '70%;'></div><div class = 'column'><img src = 'uspos/5831.bmp' width = '100%;'></div></div>","null","pos","CS","CS","3","category3/CS6.png","","","","",""
"","html-keyboard-response","38","223497","0.0-6.0-2.0-0.11","4fw5ps7kpp","many_one","0","indirect_first","0","at07rt13","0","23","1","0","2","1","null","","","<div class = 'row'><div class = 'column'><img src = 'uspos/8080.bmp' width = '100%;'></div><div class = 'column'><img src = 'category1/CS6.png' width = '70%;'></div></div>","null","pos","CS","CS","1","category1/CS6.png","","","","",""
"","html-keyboard-response","39","226037","0.0-6.0-2.0-0.12","4fw5ps7kpp","many_one","0","indirect_first","0","at07rt13","0","23","1","0","2","1","null","","","<div class = 'row'><div class = 'column'><img src = 'uspos/5600.bmp' width = '100%;'></div><div class = 'column'><img src = 'category3/CS1.png' width = '70%;'></div></div>","null","pos","CS","CS","3","category3/CS1.png","","","","",""
"","html-keyboard-response","40","228567","0.0-6.0-2.0-0.13","4fw5ps7kpp","many_one","0","indirect_first","0","at07rt13","0","23","1","0","2","1","null","","","<div class = 'row'><div class = 'column'><img src = 'category4/CS9.png' width = '70%;'></div><div class = 'column'><img src = 'usneg/3300.bmp' width = '100%;'></div></div>","null","neg","CS","CS","4","category4/CS9.png","","","","",""
"","html-keyboard-response","41","231097","0.0-6.0-2.0-0.14","4fw5ps7kpp","many_one","0","indirect_first","0","at07rt13","0","23","1","0","2","1","null","","","<div class = 'row'><div class = 'column'><img src = 'category4/CS2.png' width = '70%;'></div><div class = 'column'><img src = 'usneg/9435.bmp' width = '100%;'></div></div>","null","neg","CS","CS","4","category4/CS2.png","","","","",""
"","html-keyboard-response","42","233637","0.0-6.0-2.0-0.15","4fw5ps7kpp","many_one","0","indirect_first","0","at07rt13","0","23","1","0","2","1","null","","","<div class = 'row'><div class = 'column'><img src = 'uspos/2360.bmp' width = '100%;'></div><div class = 'column'><img src = 'category3/CS8.png' width = '70%;'></div></div>","null","pos","CS","CS","3","category3/CS8.png","","","","",""
"","html-keyboard-response","43","236166","0.0-6.0-2.0-0.16","4fw5ps7kpp","many_one","0","indirect_first","0","at07rt13","0","23","1","0","2","1","null","","","<div class = 'row'><div class = 'column'><img src = 'category2/CS10.png' width = '70%;'></div><div class = 'column'><img src = 'usneg/9920.bmp' width = '100%;'></div></div>","null","neg","CS","CS","2","category2/CS10.png","","","","",""
"","html-keyboard-response","44","238707","0.0-6.0-2.0-0.17","4fw5ps7kpp","many_one","0","indirect_first","0","at07rt13","0","23","1","0","2","1","null","","","<div class = 'row'><div class = 'column'><img src = 'category4/CS8.png' width = '70%;'></div><div class = 'column'><img src = 'usneg/3160.bmp' width = '100%;'></div></div>","null","neg","CS","CS","4","category4/CS8.png","","","","",""
"","html-keyboard-response","45","241237","0.0-6.0-2.0-0.18","4fw5ps7kpp","many_one","0","indirect_first","0","at07rt13","0","23","1","0","2","1","null","","","<div class = 'row'><div class = 'column'><img src = 'category2/CS2.png' width = '70%;'></div><div class = 'column'><img src = 'usneg/2205.bmp' width = '100%;'></div></div>","null","neg","CS","CS","2","category2/CS2.png","","","","",""
"","html-keyboard-response","46","243777","0.0-6.0-2.0-0.19","4fw5ps7kpp","many_one","0","indirect_first","0","at07rt13","0","23","1","0","2","1","null","","","<div class = 'row'><div class = 'column'><img src = 'category4/CS7.png' width = '70%;'></div><div class = 'column'><img src = 'usneg/6838.bmp' width = '100%;'></div></div>","null","neg","CS","CS","4","category4/CS7.png","","","","",""
"","survey-html-form","47","248869","0.0-6.0-3.0","4fw5ps7kpp","many_one","0","indirect_first","0","at07rt13","0","23","1","0","2","1","4572","","{}","","","","","","","","","","","",""
"","html-keyboard-response","48","252887","0.0-6.0-4.0-0.0","4fw5ps7kpp","many_one","0","indirect_first","0","at07rt13","0","23","1","0","2","1","null","","","<div class = 'row'><div class = 'column'><img src = 'usneg/3160.bmp' width = '100%;'></div><div class = 'column'><img src = 'category4/CS8.png' width = '70%;'></div></div>","null","neg","CS","CS","4","category4/CS8.png","","","","",""
"","html-keyboard-response","49","255427","0.0-6.0-4.0-0.1","4fw5ps7kpp","many_one","0","indirect_first","0","at07rt13","0","23","1","0","2","1","null","","","<div class = 'row'><div class = 'column'><img src = 'category4/CS7.png' width = '70%;'></div><div class = 'column'><img src = 'usneg/6838.bmp' width = '100%;'></div></div>","null","neg","CS","CS","4","category4/CS7.png","","","","",""
"","html-keyboard-response","50","257947","0.0-6.0-4.0-0.2","4fw5ps7kpp","many_one","0","indirect_first","0","at07rt13","0","23","1","0","2","1","null","","","<div class = 'row'><div class = 'column'><img src = 'category3/CS7.png' width = '70%;'></div><div class = 'column'><img src = 'uspos/7325.bmp' width = '100%;'></div></div>","null","pos","CS","CS","3","category3/CS7.png","","","","",""
"","html-keyboard-response","51","260486","0.0-6.0-4.0-0.3","4fw5ps7kpp","many_one","0","indirect_first","0","at07rt13","0","23","1","0","2","1","null","","","<div class = 'row'><div class = 'column'><img src = 'uspos/2360.bmp' width = '100%;'></div><div class = 'column'><img src = 'category3/CS8.png' width = '70%;'></div></div>","null","pos","CS","CS","3","category3/CS8.png","","","","",""
"","html-keyboard-response","52","263003","0.0-6.0-4.0-0.4","4fw5ps7kpp","many_one","0","indirect_first","0","at07rt13","0","23","1","0","2","1","null","","","<div class = 'row'><div class = 'column'><img src = 'category1/CS2.png' width = '70%;'></div><div class = 'column'><img src = 'uspos/8190.bmp' width = '100%;'></div></div>","null","pos","CS","CS","1","category1/CS2.png","","","","",""
"","html-keyboard-response","53","265505","0.0-6.0-4.0-0.5","4fw5ps7kpp","many_one","0","indirect_first","0","at07rt13","0","23","1","0","2","1","null","","","<div class = 'row'><div class = 'column'><img src = 'category1/CS3.png' width = '70%;'></div><div class = 'column'><img src = 'uspos/2530.bmp' width = '100%;'></div></div>","null","pos","CS","CS","1","category1/CS3.png","","","","",""
"","html-keyboard-response","54","268026","0.0-6.0-4.0-0.6","4fw5ps7kpp","many_one","0","indirect_first","0","at07rt13","0","23","1","0","2","1","null","","","<div class = 'row'><div class = 'column'><img src = 'category1/CS6.png' width = '70%;'></div><div class = 'column'><img src = 'uspos/8080.bmp' width = '100%;'></div></div>","null","pos","CS","CS","1","category1/CS6.png","","","","",""
"","html-keyboard-response","55","270567","0.0-6.0-4.0-0.7","4fw5ps7kpp","many_one","0","indirect_first","0","at07rt13","0","23","1","0","2","1","null","","","<div class = 'row'><div class = 'column'><img src = 'usneg/3300.bmp' width = '100%;'></div><div class = 'column'><img src = 'category4/CS9.png' width = '70%;'></div></div>","null","neg","CS","CS","4","category4/CS9.png","","","","",""
"","html-keyboard-response","56","273107","0.0-6.0-4.0-0.8","4fw5ps7kpp","many_one","0","indirect_first","0","at07rt13","0","23","1","0","2","1","null","","","<div class = 'row'><div class = 'column'><img src = 'category3/CS2.png' width = '70%;'></div><div class = 'column'><img src = 'uspos/1440.bmp' width = '100%;'></div></div>","null","pos","CS","CS","3","category3/CS2.png","","","","",""
"","html-keyboard-response","57","275647","0.0-6.0-4.0-0.9","4fw5ps7kpp","many_one","0","indirect_first","0","at07rt13","0","23","1","0","2","1","null","","","<div class = 'row'><div class = 'column'><img src = 'category3/CS6.png' width = '70%;'></div><div class = 'column'><img src = 'uspos/5831.bmp' width = '100%;'></div></div>","null","pos","CS","CS","3","category3/CS6.png","","","","",""
"","html-keyboard-response","58","278187","0.0-6.0-4.0-0.10","4fw5ps7kpp","many_one","0","indirect_first","0","at07rt13","0","23","1","0","2","1","null","","","<div class = 'row'><div class = 'column'><img src = 'usneg/6570.1.bmp' width = '100%;'></div><div class = 'column'><img src = 'category2/CS3.png' width = '70%;'></div></div>","null","neg","CS","CS","2","category2/CS3.png","","","","",""
"","html-keyboard-response","59","280727","0.0-6.0-4.0-0.11","4fw5ps7kpp","many_one","0","indirect_first","0","at07rt13","0","23","1","0","2","1","null","","","<div class = 'row'><div class = 'column'><img src = 'category2/CS6.png' width = '70%;'></div><div class = 'column'><img src = 'usneg/8485.bmp' width = '100%;'></div></div>","null","neg","CS","CS","2","category2/CS6.png","","","","",""
"","html-keyboard-response","60","283266","0.0-6.0-4.0-0.12","4fw5ps7kpp","many_one","0","indirect_first","0","at07rt13","0","23","1","0","2","1","null","","","<div class = 'row'><div class = 'column'><img src = 'category4/CS2.png' width = '70%;'></div><div class = 'column'><img src = 'usneg/9435.bmp' width = '100%;'></div></div>","null","neg","CS","CS","4","category4/CS2.png","","","","",""
"","html-keyboard-response","61","285787","0.0-6.0-4.0-0.13","4fw5ps7kpp","many_one","0","indirect_first","0","at07rt13","0","23","1","0","2","1","null","","","<div class = 'row'><div class = 'column'><img src = 'uspos/5600.bmp' width = '100%;'></div><div class = 'column'><img src = 'category3/CS1.png' width = '70%;'></div></div>","null","pos","CS","CS","3","category3/CS1.png","","","","",""
"","html-keyboard-response","62","288326","0.0-6.0-4.0-0.14","4fw5ps7kpp","many_one","0","indirect_first","0","at07rt13","0","23","1","0","2","1","null","","","<div class = 'row'><div class = 'column'><img src = 'category4/CS1.png' width = '70%;'></div><div class = 'column'><img src = 'usneg/2900.bmp' width = '100%;'></div></div>","null","neg","CS","CS","4","category4/CS1.png","","","","",""
"","html-keyboard-response","63","290856","0.0-6.0-4.0-0.15","4fw5ps7kpp","many_one","0","indirect_first","0","at07rt13","0","23","1","0","2","1","null","","","<div class = 'row'><div class = 'column'><img src = 'usneg/2205.bmp' width = '100%;'></div><div class = 'column'><img src = 'category2/CS2.png' width = '70%;'></div></div>","null","neg","CS","CS","2","category2/CS2.png","","","","",""
"","html-keyboard-response","64","293396","0.0-6.0-4.0-0.16","4fw5ps7kpp","many_one","0","indirect_first","0","at07rt13","0","23","1","0","2","1","null","","","<div class = 'row'><div class = 'column'><img src = 'usneg/9561.bmp' width = '100%;'></div><div class = 'column'><img src = 'category2/CS8.png' width = '70%;'></div></div>","null","neg","CS","CS","2","category2/CS8.png","","","","",""
"","html-keyboard-response","65","295927","0.0-6.0-4.0-0.17","4fw5ps7kpp","many_one","0","indirect_first","0","at07rt13","0","23","1","0","2","1","null","","","<div class = 'row'><div class = 'column'><img src = 'category2/CS10.png' width = '70%;'></div><div class = 'column'><img src = 'usneg/9920.bmp' width = '100%;'></div></div>","null","neg","CS","CS","2","category2/CS10.png","","","","",""
"","html-keyboard-response","66","298467","0.0-6.0-4.0-0.18","4fw5ps7kpp","many_one","0","indirect_first","0","at07rt13","0","23","1","0","2","1","null","","","<div class = 'row'><div class = 'column'><img src = 'category1/CS9.png' width = '70%;'></div><div class = 'column'><img src = 'uspos/1460.bmp' width = '100%;'></div></div>","null","pos","CS","CS","1","category1/CS9.png","","","","",""
"","html-keyboard-response","67","301007","0.0-6.0-4.0-0.19","4fw5ps7kpp","many_one","0","indirect_first","0","at07rt13","0","23","1","0","2","1","null","","","<div class = 'row'><div class = 'column'><img src = 'uspos/8350.bmp' width = '100%;'></div><div class = 'column'><img src = 'category1/CS8.png' width = '70%;'></div></div>","null","pos","CS","CS","1","category1/CS8.png","","","","",""
"","survey-html-form","68","304677","0.0-6.0-5.0","4fw5ps7kpp","many_one","0","indirect_first","0","at07rt13","0","23","1","0","2","1","3150","","{}","","","","","","","","","","","",""
"","html-keyboard-response","69","308707","0.0-6.0-6.0-0.0","4fw5ps7kpp","many_one","0","indirect_first","0","at07rt13","0","23","1","0","2","1","null","","","<div class = 'row'><div class = 'column'><img src = 'category1/CS3.png' width = '70%;'></div><div class = 'column'><img src = 'uspos/2530.bmp' width = '100%;'></div></div>","null","pos","CS","CS","1","category1/CS3.png","","","","",""
"","html-keyboard-response","70","311246","0.0-6.0-6.0-0.1","4fw5ps7kpp","many_one","0","indirect_first","0","at07rt13","0","23","1","0","2","1","null","","","<div class = 'row'><div class = 'column'><img src = 'uspos/5831.bmp' width = '100%;'></div><div class = 'column'><img src = 'category3/CS6.png' width = '70%;'></div></div>","null","pos","CS","CS","3","category3/CS6.png","","","","",""
"","html-keyboard-response","71","313777","0.0-6.0-6.0-0.2","4fw5ps7kpp","many_one","0","indirect_first","0","at07rt13","0","23","1","0","2","1","null","","","<div class = 'row'><div class = 'column'><img src = 'category2/CS10.png' width = '70%;'></div><div class = 'column'><img src = 'usneg/9920.bmp' width = '100%;'></div></div>","null","neg","CS","CS","2","category2/CS10.png","","","","",""
"","html-keyboard-response","72","316316","0.0-6.0-6.0-0.3","4fw5ps7kpp","many_one","0","indirect_first","0","at07rt13","0","23","1","0","2","1","null","","","<div class = 'row'><div class = 'column'><img src = 'category2/CS2.png' width = '70%;'></div><div class = 'column'><img src = 'usneg/2205.bmp' width = '100%;'></div></div>","null","neg","CS","CS","2","category2/CS2.png","","","","",""
"","html-keyboard-response","73","318837","0.0-6.0-6.0-0.4","4fw5ps7kpp","many_one","0","indirect_first","0","at07rt13","0","23","1","0","2","1","null","","","<div class = 'row'><div class = 'column'><img src = 'uspos/5600.bmp' width = '100%;'></div><div class = 'column'><img src = 'category3/CS1.png' width = '70%;'></div></div>","null","pos","CS","CS","3","category3/CS1.png","","","","",""
"","html-keyboard-response","74","321376","0.0-6.0-6.0-0.5","4fw5ps7kpp","many_one","0","indirect_first","0","at07rt13","0","23","1","0","2","1","null","","","<div class = 'row'><div class = 'column'><img src = 'usneg/3300.bmp' width = '100%;'></div><div class = 'column'><img src = 'category4/CS9.png' width = '70%;'></div></div>","null","neg","CS","CS","4","category4/CS9.png","","","","",""
"","html-keyboard-response","75","323916","0.0-6.0-6.0-0.6","4fw5ps7kpp","many_one","0","indirect_first","0","at07rt13","0","23","1","0","2","1","null","","","<div class = 'row'><div class = 'column'><img src = 'category2/CS3.png' width = '70%;'></div><div class = 'column'><img src = 'usneg/6570.1.bmp' width = '100%;'></div></div>","null","neg","CS","CS","2","category2/CS3.png","","","","",""
"","html-keyboard-response","76","326437","0.0-6.0-6.0-0.7","4fw5ps7kpp","many_one","0","indirect_first","0","at07rt13","0","23","1","0","2","1","null","","","<div class = 'row'><div class = 'column'><img src = 'category2/CS6.png' width = '70%;'></div><div class = 'column'><img src = 'usneg/8485.bmp' width = '100%;'></div></div>","null","neg","CS","CS","2","category2/CS6.png","","","","",""
"","html-keyboard-response","77","328956","0.0-6.0-6.0-0.8","4fw5ps7kpp","many_one","0","indirect_first","0","at07rt13","0","23","1","0","2","1","null","","","<div class = 'row'><div class = 'column'><img src = 'uspos/8190.bmp' width = '100%;'></div><div class = 'column'><img src = 'category1/CS2.png' width = '70%;'></div></div>","null","pos","CS","CS","1","category1/CS2.png","","","","",""
"","html-keyboard-response","78","331496","0.0-6.0-6.0-0.9","4fw5ps7kpp","many_one","0","indirect_first","0","at07rt13","0","23","1","0","2","1","null","","","<div class = 'row'><div class = 'column'><img src = 'category3/CS2.png' width = '70%;'></div><div class = 'column'><img src = 'uspos/1440.bmp' width = '100%;'></div></div>","null","pos","CS","CS","3","category3/CS2.png","","","","",""
"","html-keyboard-response","79","334026","0.0-6.0-6.0-0.10","4fw5ps7kpp","many_one","0","indirect_first","0","at07rt13","0","23","1","0","2","1","null","","","<div class = 'row'><div class = 'column'><img src = 'usneg/9561.bmp' width = '100%;'></div><div class = 'column'><img src = 'category2/CS8.png' width = '70%;'></div></div>","null","neg","CS","CS","2","category2/CS8.png","","","","",""
"","html-keyboard-response","80","336566","0.0-6.0-6.0-0.11","4fw5ps7kpp","many_one","0","indirect_first","0","at07rt13","0","23","1","0","2","1","null","","","<div class = 'row'><div class = 'column'><img src = 'category3/CS7.png' width = '70%;'></div><div class = 'column'><img src = 'uspos/7325.bmp' width = '100%;'></div></div>","null","pos","CS","CS","3","category3/CS7.png","","","","",""
"","html-keyboard-response","81","339107","0.0-6.0-6.0-0.12","4fw5ps7kpp","many_one","0","indirect_first","0","at07rt13","0","23","1","0","2","1","null","","","<div class = 'row'><div class = 'column'><img src = 'category4/CS8.png' width = '70%;'></div><div class = 'column'><img src = 'usneg/3160.bmp' width = '100%;'></div></div>","null","neg","CS","CS","4","category4/CS8.png","","","","",""
"","html-keyboard-response","82","341646","0.0-6.0-6.0-0.13","4fw5ps7kpp","many_one","0","indirect_first","0","at07rt13","0","23","1","0","2","1","null","","","<div class = 'row'><div class = 'column'><img src = 'usneg/2900.bmp' width = '100%;'></div><div class = 'column'><img src = 'category4/CS1.png' width = '70%;'></div></div>","null","neg","CS","CS","4","category4/CS1.png","","","","",""
"","html-keyboard-response","83","344187","0.0-6.0-6.0-0.14","4fw5ps7kpp","many_one","0","indirect_first","0","at07rt13","0","23","1","0","2","1","null","","","<div class = 'row'><div class = 'column'><img src = 'uspos/2360.bmp' width = '100%;'></div><div class = 'column'><img src = 'category3/CS8.png' width = '70%;'></div></div>","null","pos","CS","CS","3","category3/CS8.png","","","","",""
"","html-keyboard-response","84","346726","0.0-6.0-6.0-0.15","4fw5ps7kpp","many_one","0","indirect_first","0","at07rt13","0","23","1","0","2","1","null","","","<div class = 'row'><div class = 'column'><img src = 'category1/CS6.png' width = '70%;'></div><div class = 'column'><img src = 'uspos/8080.bmp' width = '100%;'></div></div>","null","pos","CS","CS","1","category1/CS6.png","","","","",""
"","html-keyboard-response","85","349246","0.0-6.0-6.0-0.16","4fw5ps7kpp","many_one","0","indirect_first","0","at07rt13","0","23","1","0","2","1","null","","","<div class = 'row'><div class = 'column'><img src = 'category4/CS2.png' width = '70%;'></div><div class = 'column'><img src = 'usneg/9435.bmp' width = '100%;'></div></div>","null","neg","CS","CS","4","category4/CS2.png","","","","",""
"","html-keyboard-response","86","351786","0.0-6.0-6.0-0.17","4fw5ps7kpp","many_one","0","indirect_first","0","at07rt13","0","23","1","0","2","1","null","","","<div class = 'row'><div class = 'column'><img src = 'category1/CS8.png' width = '70%;'></div><div class = 'column'><img src = 'uspos/8350.bmp' width = '100%;'></div></div>","null","pos","CS","CS","1","category1/CS8.png","","","","",""
"","html-keyboard-response","87","354326","0.0-6.0-6.0-0.18","4fw5ps7kpp","many_one","0","indirect_first","0","at07rt13","0","23","1","0","2","1","null","","","<div class = 'row'><div class = 'column'><img src = 'usneg/6838.bmp' width = '100%;'></div><div class = 'column'><img src = 'category4/CS7.png' width = '70%;'></div></div>","null","neg","CS","CS","4","category4/CS7.png","","","","",""
"","html-keyboard-response","88","356866","0.0-6.0-6.0-0.19","4fw5ps7kpp","many_one","0","indirect_first","0","at07rt13","0","23","1","0","2","1","null","","","<div class = 'row'><div class = 'column'><img src = 'category1/CS9.png' width = '70%;'></div><div class = 'column'><img src = 'uspos/1460.bmp' width = '100%;'></div></div>","null","pos","CS","CS","1","category1/CS9.png","","","","",""
"","html-keyboard-response","89","387781","0.0-7.0","4fw5ps7kpp","many_one","0","indirect_first","0","at07rt13","0","23","1","0","2","1","30414","","","<p>Sie sehen nun die chinesischen Zeichen nur ganz kurz, und danach die jeweilige Aussprache der Zeichen. Ihre Aufgabe ist es, für jede Silbe anzugeben, ob diese etwas angenehmes, oder unangenehmes bedeuten könnte. Verlassen Sie sich hier vor allem auf Ihre Intuition.<br><br>Die Zeichen werden nur zur Orientierung dargestellt, beachten Sie sie deshalb nicht. Konzentrieren Sie sich vor allem auf die Silben. <br>Reagieren Sie mit folgenden zwei Tasten: <br><br><b>'D' </b> wenn die Silbe etwas <b>unangenehmes</b> bedeuten könnte. <br><b>'K'</b> wenn die Silbe etwas <b>angenehmes</b> bedeuten könnte. <br><br>Bitte legen Sie nun den Zeigefinger der linken Hand auf die Taste 'D' und den Zeigefinger der rechten Hand auf die Taste 'K'. <br>Reagieren Sie auf jede Silbe so schnell wie möglich. Uns interessiert Ihre spontane Reaktion. <br> <br> <br>Drücken Sie 'D' oder 'K', um die nächste Aufgabe zu starten. </p>","75","","","","","","","","","",""
"","html-keyboard-response","90","390816","0.0-8.0-0.0","4fw5ps7kpp","many_one","0","indirect_first","0","at07rt13","0","23","1","0","2","1","null","","","<div style=""font-size:60px;"">+</div>","null","","","","","","","","","",""
"","html-keyboard-response","91","390916","0.0-8.0-1.0","4fw5ps7kpp","many_one","0","indirect_first","0","at07rt13","0","23","1","0","2","1","null","","","<img src = 'category2/CS2.png' width = '100%;'>","null","","","","","","","","","",""
"","html-keyboard-response","92","391196","0.0-8.0-2.0","4fw5ps7kpp","many_one","0","indirect_first","0","at07rt13","0","23","1","0","2","1","null","","","<img src = 'targets/4.png' width = '100%;'>","null","","","","","","","","","",""
"","html-keyboard-response","93","396421","0.0-8.0-3.0","4fw5ps7kpp","many_one","0","indirect_first","0","at07rt13","0","23","1","0","2","1","5222","","","<img src = 'targets/mask.png' width = '100%;'>","68","neg","CS","CS","2","category2/CS2.png","targets/4.png","0","indirect","0",""
"","html-keyboard-response","94","397945","0.0-8.0-0.1","4fw5ps7kpp","many_one","0","indirect_first","0","at07rt13","0","23","1","0","2","1","null","","","<div style=""font-size:60px;"">+</div>","null","","","","","","","","","",""
"","html-keyboard-response","95","398045","0.0-8.0-1.1","4fw5ps7kpp","many_one","0","indirect_first","0","at07rt13","0","23","1","0","2","1","null","","","<img src = 'category3/CS7.png' width = '100%;'>","null","","","","","","","","","",""
"","html-keyboard-response","96","398326","0.0-8.0-2.1","4fw5ps7kpp","many_one","0","indirect_first","0","at07rt13","0","23","1","0","2","1","null","","","<img src = 'targets/46.png' width = '100%;'>","null","","","","","","","","","",""
"","html-keyboard-response","97","402317","0.0-8.0-3.1","4fw5ps7kpp","many_one","0","indirect_first","0","at07rt13","0","23","1","0","2","1","3990","","","<img src = 'targets/mask.png' width = '100%;'>","75","pos","CS","CS","3","category3/CS7.png","targets/46.png","1","indirect","1",""
"","html-keyboard-response","98","403836","0.0-8.0-0.2","4fw5ps7kpp","many_one","0","indirect_first","0","at07rt13","0","23","1","0","2","1","null","","","<div style=""font-size:60px;"">+</div>","null","","","","","","","","","",""
"","html-keyboard-response","99","403936","0.0-8.0-1.2","4fw5ps7kpp","many_one","0","indirect_first","0","at07rt13","0","23","1","0","2","1","null","","","<img src = 'category3/CS6.png' width = '100%;'>","null","","","","","","","","","",""
"","html-keyboard-response","100","404215","0.0-8.0-2.2","4fw5ps7kpp","many_one","0","indirect_first","0","at07rt13","0","23","1","0","2","1","null","","","<img src = 'targets/17.png' width = '100%;'>","null","","","","","","","","","",""
"","html-keyboard-response","101","405277","0.0-8.0-3.2","4fw5ps7kpp","many_one","0","indirect_first","0","at07rt13","0","23","1","0","2","1","1059","","","<img src = 'targets/mask.png' width = '100%;'>","75","pos","CS","CS","3","category3/CS6.png","targets/17.png","1","indirect","2",""
"","html-keyboard-response","102","406815","0.0-8.0-0.3","4fw5ps7kpp","many_one","0","indirect_first","0","at07rt13","0","23","1","0","2","1","null","","","<div style=""font-size:60px;"">+</div>","null","","","","","","","","","",""
"","html-keyboard-response","103","406916","0.0-8.0-1.3","4fw5ps7kpp","many_one","0","indirect_first","0","at07rt13","0","23","1","0","2","1","null","","","<img src = 'category1/CS4.png' width = '100%;'>","null","","","","","","","","","",""
"","html-keyboard-response","104","407196","0.0-8.0-2.3","4fw5ps7kpp","many_one","0","indirect_first","0","at07rt13","0","23","1","0","2","1","null","","","<img src = 'targets/18.png' width = '100%;'>","null","","","","","","","","","",""
"","html-keyboard-response","105","409589","0.0-8.0-3.3","4fw5ps7kpp","many_one","0","indirect_first","0","at07rt13","0","23","1","0","2","1","2391","","","<img src = 'targets/mask.png' width = '100%;'>","75","pos","GS","GSold","1","category1/CS4.png","targets/18.png","1","indirect","3",""
"","html-keyboard-response","106","411126","0.0-8.0-0.4","4fw5ps7kpp","many_one","0","indirect_first","0","at07rt13","0","23","1","0","2","1","null","","","<div style=""font-size:60px;"">+</div>","null","","","","","","","","","",""
"","html-keyboard-response","107","411226","0.0-8.0-1.4","4fw5ps7kpp","many_one","0","indirect_first","0","at07rt13","0","23","1","0","2","1","null","","","<img src = 'category4/CS9.png' width = '100%;'>","null","","","","","","","","","",""
"","html-keyboard-response","108","411505","0.0-8.0-2.4","4fw5ps7kpp","many_one","0","indirect_first","0","at07rt13","0","23","1","0","2","1","null","","","<img src = 'targets/2.png' width = '100%;'>","null","","","","","","","","","",""
"","html-keyboard-response","109","412428","0.0-8.0-3.4","4fw5ps7kpp","many_one","0","indirect_first","0","at07rt13","0","23","1","0","2","1","921","","","<img src = 'targets/mask.png' width = '100%;'>","68","neg","CS","CS","4","category4/CS9.png","targets/2.png","0","indirect","4",""
"","html-keyboard-response","110","413955","0.0-8.0-0.5","4fw5ps7kpp","many_one","0","indirect_first","0","at07rt13","0","23","1","0","2","1","null","","","<div style=""font-size:60px;"">+</div>","null","","","","","","","","","",""
"","html-keyboard-response","111","414056","0.0-8.0-1.5","4fw5ps7kpp","many_one","0","indirect_first","0","at07rt13","0","23","1","0","2","1","null","","","<img src = 'category2/CS8.png' width = '100%;'>","null","","","","","","","","","",""
"","html-keyboard-response","112","414335","0.0-8.0-2.5","4fw5ps7kpp","many_one","0","indirect_first","0","at07rt13","0","23","1","0","2","1","null","","","<img src = 'targets/47.png' width = '100%;'>","null","","","","","","","","","",""
"","html-keyboard-response","113","415148","0.0-8.0-3.5","4fw5ps7kpp","many_one","0","indirect_first","0","at07rt13","0","23","1","0","2","1","810","","","<img src = 'targets/mask.png' width = '100%;'>","68","neg","CS","CS","2","category2/CS8.png","targets/47.png","0","indirect","5",""
"","html-keyboard-response","114","416666","0.0-8.0-0.6","4fw5ps7kpp","many_one","0","indirect_first","0","at07rt13","0","23","1","0","2","1","null","","","<div style=""font-size:60px;"">+</div>","null","","","","","","","","","",""
"","html-keyboard-response","115","416765","0.0-8.0-1.6","4fw5ps7kpp","many_one","0","indirect_first","0","at07rt13","0","23","1","0","2","1","null","","","<img src = 'category4/CS2.png' width = '100%;'>","null","","","","","","","","","",""
"","html-keyboard-response","116","417046","0.0-8.0-2.6","4fw5ps7kpp","many_one","0","indirect_first","0","at07rt13","0","23","1","0","2","1","null","","","<img src = 'targets/45.png' width = '100%;'>","null","","","","","","","","","",""
"","html-keyboard-response","117","417804","0.0-8.0-3.6","4fw5ps7kpp","many_one","0","indirect_first","0","at07rt13","0","23","1","0","2","1","758","","","<img src = 'targets/mask.png' width = '100%;'>","68","neg","CS","CS","4","category4/CS2.png","targets/45.png","0","indirect","6",""
"","html-keyboard-response","118","419306","0.0-8.0-0.7","4fw5ps7kpp","many_one","0","indirect_first","0","at07rt13","0","23","1","0","2","1","null","","","<div style=""font-size:60px;"">+</div>","null","","","","","","","","","",""
"","html-keyboard-response","119","419406","0.0-8.0-1.7","4fw5ps7kpp","many_one","0","indirect_first","0","at07rt13","0","23","1","0","2","1","null","","","<img src = 'category2/CS10.png' width = '100%;'>","null","","","","","","","","","",""
"","html-keyboard-response","120","419685","0.0-8.0-2.7","4fw5ps7kpp","many_one","0","indirect_first","0","at07rt13","0","23","1","0","2","1","null","","","<img src = 'targets/32.png' width = '100%;'>","null","","","","","","","","","",""
"","html-keyboard-response","121","420420","0.0-8.0-3.7","4fw5ps7kpp","many_one","0","indirect_first","0","at07rt13","0","23","1","0","2","1","734","","","<img src = 'targets/mask.png' width = '100%;'>","68","neg","CS","CS","2","category2/CS10.png","targets/32.png","0","indirect","7",""
"","html-keyboard-response","122","421945","0.0-8.0-0.8","4fw5ps7kpp","many_one","0","indirect_first","0","at07rt13","0","23","1","0","2","1","null","","","<div style=""font-size:60px;"">+</div>","null","","","","","","","","","",""
"","html-keyboard-response","123","422046","0.0-8.0-1.8","4fw5ps7kpp","many_one","0","indirect_first","0","at07rt13","0","23","1","0","2","1","null","","","<img src = 'category2/CS3.png' width = '100%;'>","null","","","","","","","","","",""
"","html-keyboard-response","124","422325","0.0-8.0-2.8","4fw5ps7kpp","many_one","0","indirect_first","0","at07rt13","0","23","1","0","2","1","null","","","<img src = 'targets/9.png' width = '100%;'>","null","","","","","","","","","",""
"","html-keyboard-response","125","422964","0.0-8.0-3.8","4fw5ps7kpp","many_one","0","indirect_first","0","at07rt13","0","23","1","0","2","1","638","","","<img src = 'targets/mask.png' width = '100%;'>","68","neg","CS","CS","2","category2/CS3.png","targets/9.png","0","indirect","8",""
"","html-keyboard-response","126","424505","0.0-8.0-0.9","4fw5ps7kpp","many_one","0","indirect_first","0","at07rt13","0","23","1","0","2","1","null","","","<div style=""font-size:60px;"">+</div>","null","","","","","","","","","",""
"","html-keyboard-response","127","424606","0.0-8.0-1.9","4fw5ps7kpp","many_one","0","indirect_first","0","at07rt13","0","23","1","0","2","1","null","","","<img src = 'category4/CS10.png' width = '100%;'>","null","","","","","","","","","",""
"","html-keyboard-response","128","424886","0.0-8.0-2.9","4fw5ps7kpp","many_one","0","indirect_first","0","at07rt13","0","23","1","0","2","1","null","","","<img src = 'targets/29.png' width = '100%;'>","null","","","","","","","","","",""
"","html-keyboard-response","129","425437","0.0-8.0-3.9","4fw5ps7kpp","many_one","0","indirect_first","0","at07rt13","0","23","1","0","2","1","548","","","<img src = 'targets/mask.png' width = '100%;'>","68","neg","GS","GSold","4","category4/CS10.png","targets/29.png","0","indirect","9",""
"","html-keyboard-response","130","426965","0.0-8.0-0.10","4fw5ps7kpp","many_one","0","indirect_first","0","at07rt13","0","23","1","0","2","1","null","","","<div style=""font-size:60px;"">+</div>","null","","","","","","","","","",""
"","html-keyboard-response","131","427066","0.0-8.0-1.10","4fw5ps7kpp","many_one","0","indirect_first","0","at07rt13","0","23","1","0","2","1","null","","","<img src = 'category4/CS5.png' width = '100%;'>","null","","","","","","","","","",""
"","html-keyboard-response","132","427346","0.0-8.0-2.10","4fw5ps7kpp","many_one","0","indirect_first","0","at07rt13","0","23","1","0","2","1","null","","","<img src = 'targets/7.png' width = '100%;'>","null","","","","","","","","","",""
"","html-keyboard-response","133","427900","0.0-8.0-3.10","4fw5ps7kpp","many_one","0","indirect_first","0","at07rt13","0","23","1","0","2","1","554","","","<img src = 'targets/mask.png' width = '100%;'>","68","neg","GS","GSold","4","category4/CS5.png","targets/7.png","0","indirect","10",""
"","html-keyboard-response","134","429406","0.0-8.0-0.11","4fw5ps7kpp","many_one","0","indirect_first","0","at07rt13","0","23","1","0","2","1","null","","","<div style=""font-size:60px;"">+</div>","null","","","","","","","","","",""
"","html-keyboard-response","135","429506","0.0-8.0-1.11","4fw5ps7kpp","many_one","0","indirect_first","0","at07rt13","0","23","1","0","2","1","null","","","<img src = 'category3/CS8.png' width = '100%;'>","null","","","","","","","","","",""
"","html-keyboard-response","136","429783","0.0-8.0-2.11","4fw5ps7kpp","many_one","0","indirect_first","0","at07rt13","0","23","1","0","2","1","null","","","<img src = 'targets/26.png' width = '100%;'>","null","","","","","","","","","",""
"","html-keyboard-response","137","430356","0.0-8.0-3.11","4fw5ps7kpp","many_one","0","indirect_first","0","at07rt13","0","23","1","0","2","1","573","","","<img src = 'targets/mask.png' width = '100%;'>","75","pos","CS","CS","3","category3/CS8.png","targets/26.png","1","indirect","11",""
"","html-keyboard-response","138","431885","0.0-8.0-0.12","4fw5ps7kpp","many_one","0","indirect_first","0","at07rt13","0","23","1","0","2","1","null","","","<div style=""font-size:60px;"">+</div>","null","","","","","","","","","",""
"","html-keyboard-response","139","431986","0.0-8.0-1.12","4fw5ps7kpp","many_one","0","indirect_first","0","at07rt13","0","23","1","0","2","1","null","","","<img src = 'category4/CS4.png' width = '100%;'>","null","","","","","","","","","",""
"","html-keyboard-response","140","432266","0.0-8.0-2.12","4fw5ps7kpp","many_one","0","indirect_first","0","at07rt13","0","23","1","0","2","1","null","","","<img src = 'targets/22.png' width = '100%;'>","null","","","","","","","","","",""
"","html-keyboard-response","141","432844","0.0-8.0-3.12","4fw5ps7kpp","many_one","0","indirect_first","0","at07rt13","0","23","1","0","2","1","577","","","<img src = 'targets/mask.png' width = '100%;'>","68","neg","GS","GSold","4","category4/CS4.png","targets/22.png","0","indirect","12",""
"","html-keyboard-response","142","434365","0.0-8.0-0.13","4fw5ps7kpp","many_one","0","indirect_first","0","at07rt13","0","23","1","0","2","1","null","","","<div style=""font-size:60px;"">+</div>","null","","","","","","","","","",""
"","html-keyboard-response","143","434465","0.0-8.0-1.13","4fw5ps7kpp","many_one","0","indirect_first","0","at07rt13","0","23","1","0","2","1","null","","","<img src = 'category1/CS6.png' width = '100%;'>","null","","","","","","","","","",""
"","html-keyboard-response","144","434746","0.0-8.0-2.13","4fw5ps7kpp","many_one","0","indirect_first","0","at07rt13","0","23","1","0","2","1","null","","","<img src = 'targets/12.png' width = '100%;'>","null","","","","","","","","","",""
"","html-keyboard-response","145","435420","0.0-8.0-3.13","4fw5ps7kpp","many_one","0","indirect_first","0","at07rt13","0","23","1","0","2","1","673","","","<img src = 'targets/mask.png' width = '100%;'>","75","pos","CS","CS","1","category1/CS6.png","targets/12.png","1","indirect","13",""
"","html-keyboard-response","146","436945","0.0-8.0-0.14","4fw5ps7kpp","many_one","0","indirect_first","0","at07rt13","0","23","1","0","2","1","null","","","<div style=""font-size:60px;"">+</div>","null","","","","","","","","","",""
"","html-keyboard-response","147","437045","0.0-8.0-1.14","4fw5ps7kpp","many_one","0","indirect_first","0","at07rt13","0","23","1","0","2","1","null","","","<img src = 'category3/CS1.png' width = '100%;'>","null","","","","","","","","","",""
"","html-keyboard-response","148","437326","0.0-8.0-2.14","4fw5ps7kpp","many_one","0","indirect_first","0","at07rt13","0","23","1","0","2","1","null","","","<img src = 'targets/48.png' width = '100%;'>","null","","","","","","","","","",""
"","html-keyboard-response","149","437964","0.0-8.0-3.14","4fw5ps7kpp","many_one","0","indirect_first","0","at07rt13","0","23","1","0","2","1","638","","","<img src = 'targets/mask.png' width = '100%;'>","75","pos","CS","CS","3","category3/CS1.png","targets/48.png","1","indirect","14",""
"","html-keyboard-response","150","439486","0.0-8.0-0.15","4fw5ps7kpp","many_one","0","indirect_first","0","at07rt13","0","23","1","0","2","1","null","","","<div style=""font-size:60px;"">+</div>","null","","","","","","","","","",""
"","html-keyboard-response","151","439585","0.0-8.0-1.15","4fw5ps7kpp","many_one","0","indirect_first","0","at07rt13","0","23","1","0","2","1","null","","","<img src = 'category1/CS2.png' width = '100%;'>","null","","","","","","","","","",""
"","html-keyboard-response","152","439865","0.0-8.0-2.15","4fw5ps7kpp","many_one","0","indirect_first","0","at07rt13","0","23","1","0","2","1","null","","","<img src = 'targets/1.png' width = '100%;'>","null","","","","","","","","","",""
"","html-keyboard-response","153","442220","0.0-8.0-3.15","4fw5ps7kpp","many_one","0","indirect_first","0","at07rt13","0","23","1","0","2","1","2353","","","<img src = 'targets/mask.png' width = '100%;'>","75","pos","CS","CS","1","category1/CS2.png","targets/1.png","1","indirect","15",""
"","html-keyboard-response","154","443726","0.0-8.0-0.16","4fw5ps7kpp","many_one","0","indirect_first","0","at07rt13","0","23","1","0","2","1","null","","","<div style=""font-size:60px;"">+</div>","null","","","","","","","","","",""
"","html-keyboard-response","155","443825","0.0-8.0-1.16","4fw5ps7kpp","many_one","0","indirect_first","0","at07rt13","0","23","1","0","2","1","null","","","<img src = 'category1/CS9.png' width = '100%;'>","null","","","","","","","","","",""
"","html-keyboard-response","156","444105","0.0-8.0-2.16","4fw5ps7kpp","many_one","0","indirect_first","0","at07rt13","0","23","1","0","2","1","null","","","<img src = 'targets/40.png' width = '100%;'>","null","","","","","","","","","",""
"","html-keyboard-response","157","444804","0.0-8.0-3.16","4fw5ps7kpp","many_one","0","indirect_first","0","at07rt13","0","23","1","0","2","1","698","","","<img src = 'targets/mask.png' width = '100%;'>","75","pos","CS","CS","1","category1/CS9.png","targets/40.png","1","indirect","16",""
"","html-keyboard-response","158","446335","0.0-8.0-0.17","4fw5ps7kpp","many_one","0","indirect_first","0","at07rt13","0","23","1","0","2","1","null","","","<div style=""font-size:60px;"">+</div>","null","","","","","","","","","",""
"","html-keyboard-response","159","446435","0.0-8.0-1.17","4fw5ps7kpp","many_one","0","indirect_first","0","at07rt13","0","23","1","0","2","1","null","","","<img src = 'category2/CS6.png' width = '100%;'>","null","","","","","","","","","",""
"","html-keyboard-response","160","446716","0.0-8.0-2.17","4fw5ps7kpp","many_one","0","indirect_first","0","at07rt13","0","23","1","0","2","1","null","","","<img src = 'targets/25.png' width = '100%;'>","null","","","","","","","","","",""
"","html-keyboard-response","161","447300","0.0-8.0-3.17","4fw5ps7kpp","many_one","0","indirect_first","0","at07rt13","0","23","1","0","2","1","584","","","<img src = 'targets/mask.png' width = '100%;'>","68","neg","CS","CS","2","category2/CS6.png","targets/25.png","0","indirect","17",""
"","html-keyboard-response","162","448816","0.0-8.0-0.18","4fw5ps7kpp","many_one","0","indirect_first","0","at07rt13","0","23","1","0","2","1","null","","","<div style=""font-size:60px;"">+</div>","null","","","","","","","","","",""
"","html-keyboard-response","163","448907","0.0-8.0-1.18","4fw5ps7kpp","many_one","0","indirect_first","0","at07rt13","0","23","1","0","2","1","null","","","<img src = 'category4/CS1.png' width = '100%;'>","null","","","","","","","","","",""
"","html-keyboard-response","164","449161","0.0-8.0-2.18","4fw5ps7kpp","many_one","0","indirect_first","0","at07rt13","0","23","1","0","2","1","null","","","<img src = 'targets/16.png' width = '100%;'>","null","","","","","","","","","",""
"","html-keyboard-response","165","450603","0.0-8.0-3.18","4fw5ps7kpp","many_one","0","indirect_first","0","at07rt13","0","23","1","0","2","1","1443","","","<img src = 'targets/mask.png' width = '100%;'>","68","neg","CS","CS","4","category4/CS1.png","targets/16.png","0","indirect","18",""
"","html-keyboard-response","166","452136","0.0-8.0-0.19","4fw5ps7kpp","many_one","0","indirect_first","0","at07rt13","0","23","1","0","2","1","null","","","<div style=""font-size:60px;"">+</div>","null","","","","","","","","","",""
"","html-keyboard-response","167","452236","0.0-8.0-1.19","4fw5ps7kpp","many_one","0","indirect_first","0","at07rt13","0","23","1","0","2","1","null","","","<img src = 'category4/CS8.png' width = '100%;'>","null","","","","","","","","","",""
"","html-keyboard-response","168","452516","0.0-8.0-2.19","4fw5ps7kpp","many_one","0","indirect_first","0","at07rt13","0","23","1","0","2","1","null","","","<img src = 'targets/3.png' width = '100%;'>","null","","","","","","","","","",""
"","html-keyboard-response","169","453236","0.0-8.0-3.19","4fw5ps7kpp","many_one","0","indirect_first","0","at07rt13","0","23","1","0","2","1","719","","","<img src = 'targets/mask.png' width = '100%;'>","68","neg","CS","CS","4","category4/CS8.png","targets/3.png","0","indirect","19",""
"","html-keyboard-response","170","454776","0.0-8.0-0.20","4fw5ps7kpp","many_one","0","indirect_first","0","at07rt13","0","23","1","0","2","1","null","","","<div style=""font-size:60px;"">+</div>","null","","","","","","","","","",""
"","html-keyboard-response","171","454875","0.0-8.0-1.20","4fw5ps7kpp","many_one","0","indirect_first","0","at07rt13","0","23","1","0","2","1","null","","","<img src = 'category1/CS8.png' width = '100%;'>","null","","","","","","","","","",""
"","html-keyboard-response","172","455153","0.0-8.0-2.20","4fw5ps7kpp","many_one","0","indirect_first","0","at07rt13","0","23","1","0","2","1","null","","","<img src = 'targets/8.png' width = '100%;'>","null","","","","","","","","","",""
"","html-keyboard-response","173","455667","0.0-8.0-3.20","4fw5ps7kpp","many_one","0","indirect_first","0","at07rt13","0","23","1","0","2","1","514","","","<img src = 'targets/mask.png' width = '100%;'>","75","pos","CS","CS","1","category1/CS8.png","targets/8.png","1","indirect","20",""
"","html-keyboard-response","174","457195","0.0-8.0-0.21","4fw5ps7kpp","many_one","0","indirect_first","0","at07rt13","0","23","1","0","2","1","null","","","<div style=""font-size:60px;"">+</div>","null","","","","","","","","","",""
"","html-keyboard-response","175","457296","0.0-8.0-1.21","4fw5ps7kpp","many_one","0","indirect_first","0","at07rt13","0","23","1","0","2","1","null","","","<img src = 'category4/CS7.png' width = '100%;'>","null","","","","","","","","","",""
"","html-keyboard-response","176","457575","0.0-8.0-2.21","4fw5ps7kpp","many_one","0","indirect_first","0","at07rt13","0","23","1","0","2","1","null","","","<img src = 'targets/14.png' width = '100%;'>","null","","","","","","","","","",""
"","html-keyboard-response","177","457972","0.0-8.0-3.21","4fw5ps7kpp","many_one","0","indirect_first","0","at07rt13","0","23","1","0","2","1","396","","","<img src = 'targets/mask.png' width = '100%;'>","68","neg","CS","CS","4","category4/CS7.png","targets/14.png","0","indirect","21",""
"","html-keyboard-response","178","459495","0.0-8.0-0.22","4fw5ps7kpp","many_one","0","indirect_first","0","at07rt13","0","23","1","0","2","1","null","","","<div style=""font-size:60px;"">+</div>","null","","","","","","","","","",""
"","html-keyboard-response","179","459595","0.0-8.0-1.22","4fw5ps7kpp","many_one","0","indirect_first","0","at07rt13","0","23","1","0","2","1","null","","","<img src = 'category1/CS3.png' width = '100%;'>","null","","","","","","","","","",""
"","html-keyboard-response","180","459875","0.0-8.0-2.22","4fw5ps7kpp","many_one","0","indirect_first","0","at07rt13","0","23","1","0","2","1","null","","","<img src = 'targets/35.png' width = '100%;'>","null","","","","","","","","","",""
"","html-keyboard-response","181","460940","0.0-8.0-3.22","4fw5ps7kpp","many_one","0","indirect_first","0","at07rt13","0","23","1","0","2","1","1063","","","<img src = 'targets/mask.png' width = '100%;'>","75","pos","CS","CS","1","category1/CS3.png","targets/35.png","1","indirect","22",""
"","html-keyboard-response","182","462455","0.0-8.0-0.23","4fw5ps7kpp","many_one","0","indirect_first","0","at07rt13","0","23","1","0","2","1","null","","","<div style=""font-size:60px;"">+</div>","null","","","","","","","","","",""
"","html-keyboard-response","183","462555","0.0-8.0-1.23","4fw5ps7kpp","many_one","0","indirect_first","0","at07rt13","0","23","1","0","2","1","null","","","<img src = 'category3/CS2.png' width = '100%;'>","null","","","","","","","","","",""
"","html-keyboard-response","184","462815","0.0-8.0-2.23","4fw5ps7kpp","many_one","0","indirect_first","0","at07rt13","0","23","1","0","2","1","null","","","<img src = 'targets/36.png' width = '100%;'>","null","","","","","","","","","",""
"","html-keyboard-response","185","463380","0.0-8.0-3.23","4fw5ps7kpp","many_one","0","indirect_first","0","at07rt13","0","23","1","0","2","1","564","","","<img src = 'targets/mask.png' width = '100%;'>","75","pos","CS","CS","3","category3/CS2.png","targets/36.png","1","indirect","23",""
"","survey-html-form","186","468771","0.0-9.0","4fw5ps7kpp","many_one","0","indirect_first","0","at07rt13","0","23","1","0","2","1","4875","","{}","","","","","","","","","","","",""
"","html-keyboard-response","187","471794","0.0-10.0-0.0","4fw5ps7kpp","many_one","0","indirect_first","0","at07rt13","0","23","1","0","2","1","null","","","<div style=""font-size:60px;"">+</div>","null","","","","","","","","","",""
"","html-keyboard-response","188","471895","0.0-10.0-1.0","4fw5ps7kpp","many_one","0","indirect_first","0","at07rt13","0","23","1","0","2","1","null","","","<img src = 'category2/GS2.png' width = '100%;'>","null","","","","","","","","","",""
"","html-keyboard-response","189","472175","0.0-10.0-2.0","4fw5ps7kpp","many_one","0","indirect_first","0","at07rt13","0","23","1","0","2","1","null","","","<img src = 'targets/19.png' width = '100%;'>","null","","","","","","","","","",""
"","html-keyboard-response","190","473756","0.0-10.0-3.0","4fw5ps7kpp","many_one","0","indirect_first","0","at07rt13","0","23","1","0","2","1","1580","","","<img src = 'targets/mask.png' width = '100%;'>","68","neg","GS","GSnew","2","category2/GS2.png","targets/19.png","0","indirect","24",""
"","html-keyboard-response","191","475275","0.0-10.0-0.1","4fw5ps7kpp","many_one","0","indirect_first","0","at07rt13","0","23","1","0","2","1","null","","","<div style=""font-size:60px;"">+</div>","null","","","","","","","","","",""
"","html-keyboard-response","192","475375","0.0-10.0-1.1","4fw5ps7kpp","many_one","0","indirect_first","0","at07rt13","0","23","1","0","2","1","null","","","<img src = 'category2/men.png' width = '100%;'>","null","","","","","","","","","",""
"","html-keyboard-response","193","475655","0.0-10.0-2.1","4fw5ps7kpp","many_one","0","indirect_first","0","at07rt13","0","23","1","0","2","1","null","","","<img src = 'targets/21.png' width = '100%;'>","null","","","","","","","","","",""
"","html-keyboard-response","194","476108","0.0-10.0-3.1","4fw5ps7kpp","many_one","0","indirect_first","0","at07rt13","0","23","1","0","2","1","451","","","<img src = 'targets/mask.png' width = '100%;'>","68","neg","GS","abstract","2","category2/men.png","targets/21.png","0","indirect","25",""
"","html-keyboard-response","195","477634","0.0-10.0-0.2","4fw5ps7kpp","many_one","0","indirect_first","0","at07rt13","0","23","1","0","2","1","null","","","<div style=""font-size:60px;"">+</div>","null","","","","","","","","","",""
"","html-keyboard-response","196","477735","0.0-10.0-1.2","4fw5ps7kpp","many_one","0","indirect_first","0","at07rt13","0","23","1","0","2","1","null","","","<img src = 'category2/GS1.png' width = '100%;'>","null","","","","","","","","","",""
"","html-keyboard-response","197","478012","0.0-10.0-2.2","4fw5ps7kpp","many_one","0","indirect_first","0","at07rt13","0","23","1","0","2","1","null","","","<img src = 'targets/39.png' width = '100%;'>","null","","","","","","","","","",""
"","html-keyboard-response","198","478524","0.0-10.0-3.2","4fw5ps7kpp","many_one","0","indirect_first","0","at07rt13","0","23","1","0","2","1","510","","","<img src = 'targets/mask.png' width = '100%;'>","75","neg","GS","GSnew","2","category2/GS1.png","targets/39.png","1","indirect","26",""
"","html-keyboard-response","199","480055","0.0-10.0-0.3","4fw5ps7kpp","many_one","0","indirect_first","0","at07rt13","0","23","1","0","2","1","null","","","<div style=""font-size:60px;"">+</div>","null","","","","","","","","","",""
"","html-keyboard-response","200","480155","0.0-10.0-1.3","4fw5ps7kpp","many_one","0","indirect_first","0","at07rt13","0","23","1","0","2","1","null","","","<img src = 'category3/GS3.png' width = '100%;'>","null","","","","","","","","","",""
"","html-keyboard-response","201","480435","0.0-10.0-2.3","4fw5ps7kpp","many_one","0","indirect_first","0","at07rt13","0","23","1","0","2","1","null","","","<img src = 'targets/43.png' width = '100%;'>","null","","","","","","","","","",""
"","html-keyboard-response","202","480907","0.0-10.0-3.3","4fw5ps7kpp","many_one","0","indirect_first","0","at07rt13","0","23","1","0","2","1","471","","","<img src = 'targets/mask.png' width = '100%;'>","75","pos","GS","GSnew","3","category3/GS3.png","targets/43.png","1","indirect","27",""
"","html-keyboard-response","203","482415","0.0-10.0-0.4","4fw5ps7kpp","many_one","0","indirect_first","0","at07rt13","0","23","1","0","2","1","null","","","<div style=""font-size:60px;"">+</div>","null","","","","","","","","","",""
"","html-keyboard-response","204","482515","0.0-10.0-1.4","4fw5ps7kpp","many_one","0","indirect_first","0","at07rt13","0","23","1","0","2","1","null","","","<img src = 'category3/wang.png' width = '100%;'>","null","","","","","","","","","",""
"","html-keyboard-response","205","482795","0.0-10.0-2.4","4fw5ps7kpp","many_one","0","indirect_first","0","at07rt13","0","23","1","0","2","1","null","","","<img src = 'targets/41.png' width = '100%;'>","null","","","","","","","","","",""
"","html-keyboard-response","206","483251","0.0-10.0-3.4","4fw5ps7kpp","many_one","0","indirect_first","0","at07rt13","0","23","1","0","2","1","456","","","<img src = 'targets/mask.png' width = '100%;'>","75","pos","GS","abstract","3","category3/wang.png","targets/41.png","1","indirect","28",""
"","html-keyboard-response","207","484775","0.0-10.0-0.5","4fw5ps7kpp","many_one","0","indirect_first","0","at07rt13","0","23","1","0","2","1","null","","","<div style=""font-size:60px;"">+</div>","null","","","","","","","","","",""
"","html-keyboard-response","208","484875","0.0-10.0-1.5","4fw5ps7kpp","many_one","0","indirect_first","0","at07rt13","0","23","1","0","2","1","null","","","<img src = 'category3/CS3.png' width = '100%;'>","null","","","","","","","","","",""
"","html-keyboard-response","209","485155","0.0-10.0-2.5","4fw5ps7kpp","many_one","0","indirect_first","0","at07rt13","0","23","1","0","2","1","null","","","<img src = 'targets/37.png' width = '100%;'>","null","","","","","","","","","",""
"","html-keyboard-response","210","485571","0.0-10.0-3.5","4fw5ps7kpp","many_one","0","indirect_first","0","at07rt13","0","23","1","0","2","1","415","","","<img src = 'targets/mask.png' width = '100%;'>","75","pos","GS","GSold","3","category3/CS3.png","targets/37.png","1","indirect","29",""
"","html-keyboard-response","211","487084","0.0-10.0-0.6","4fw5ps7kpp","many_one","0","indirect_first","0","at07rt13","0","23","1","0","2","1","null","","","<div style=""font-size:60px;"">+</div>","null","","","","","","","","","",""
"","html-keyboard-response","212","487185","0.0-10.0-1.6","4fw5ps7kpp","many_one","0","indirect_first","0","at07rt13","0","23","1","0","2","1","null","","","<img src = 'category3/CS9.png' width = '100%;'>","null","","","","","","","","","",""
"","html-keyboard-response","213","487465","0.0-10.0-2.6","4fw5ps7kpp","many_one","0","indirect_first","0","at07rt13","0","23","1","0","2","1","null","","","<img src = 'targets/13.png' width = '100%;'>","null","","","","","","","","","",""
"","html-keyboard-response","214","487852","0.0-10.0-3.6","4fw5ps7kpp","many_one","0","indirect_first","0","at07rt13","0","23","1","0","2","1","385","","","<img src = 'targets/mask.png' width = '100%;'>","75","pos","GS","GSold","3","category3/CS9.png","targets/13.png","1","indirect","30",""
"","html-keyboard-response","215","489384","0.0-10.0-0.7","4fw5ps7kpp","many_one","0","indirect_first","0","at07rt13","0","23","1","0","2","1","null","","","<div style=""font-size:60px;"">+</div>","null","","","","","","","","","",""
"","html-keyboard-response","216","489485","0.0-10.0-1.7","4fw5ps7kpp","many_one","0","indirect_first","0","at07rt13","0","23","1","0","2","1","null","","","<img src = 'category2/CS7.png' width = '100%;'>","null","","","","","","","","","",""
"","html-keyboard-response","217","489765","0.0-10.0-2.7","4fw5ps7kpp","many_one","0","indirect_first","0","at07rt13","0","23","1","0","2","1","null","","","<img src = 'targets/42.png' width = '100%;'>","null","","","","","","","","","",""
"","html-keyboard-response","218","490180","0.0-10.0-3.7","4fw5ps7kpp","many_one","0","indirect_first","0","at07rt13","0","23","1","0","2","1","413","","","<img src = 'targets/mask.png' width = '100%;'>","68","neg","GS","GSold","2","category2/CS7.png","targets/42.png","0","indirect","31",""
"","html-keyboard-response","219","491695","0.0-10.0-0.8","4fw5ps7kpp","many_one","0","indirect_first","0","at07rt13","0","23","1","0","2","1","null","","","<div style=""font-size:60px;"">+</div>","null","","","","","","","","","",""
"","html-keyboard-response","220","491805","0.0-10.0-1.8","4fw5ps7kpp","many_one","0","indirect_first","0","at07rt13","0","23","1","0","2","1","null","","","<img src = 'category3/GS2.png' width = '100%;'>","null","","","","","","","","","",""
"","html-keyboard-response","221","492084","0.0-10.0-2.8","4fw5ps7kpp","many_one","0","indirect_first","0","at07rt13","0","23","1","0","2","1","null","","","<img src = 'targets/20.png' width = '100%;'>","null","","","","","","","","","",""
"","html-keyboard-response","222","492516","0.0-10.0-3.8","4fw5ps7kpp","many_one","0","indirect_first","0","at07rt13","0","23","1","0","2","1","429","","","<img src = 'targets/mask.png' width = '100%;'>","75","pos","GS","GSnew","3","category3/GS2.png","targets/20.png","1","indirect","32",""
"","html-keyboard-response","223","494035","0.0-10.0-0.9","4fw5ps7kpp","many_one","0","indirect_first","0","at07rt13","0","23","1","0","2","1","null","","","<div style=""font-size:60px;"">+</div>","null","","","","","","","","","",""
"","html-keyboard-response","224","494134","0.0-10.0-1.9","4fw5ps7kpp","many_one","0","indirect_first","0","at07rt13","0","23","1","0","2","1","null","","","<img src = 'category3/GS1.png' width = '100%;'>","null","","","","","","","","","",""
"","html-keyboard-response","225","494415","0.0-10.0-2.9","4fw5ps7kpp","many_one","0","indirect_first","0","at07rt13","0","23","1","0","2","1","null","","","<img src = 'targets/23.png' width = '100%;'>","null","","","","","","","","","",""
"","html-keyboard-response","226","494899","0.0-10.0-3.9","4fw5ps7kpp","many_one","0","indirect_first","0","at07rt13","0","23","1","0","2","1","484","","","<img src = 'targets/mask.png' width = '100%;'>","75","pos","GS","GSnew","3","category3/GS1.png","targets/23.png","1","indirect","33",""
"","html-keyboard-response","227","496435","0.0-10.0-0.10","4fw5ps7kpp","many_one","0","indirect_first","0","at07rt13","0","23","1","0","2","1","null","","","<div style=""font-size:60px;"">+</div>","null","","","","","","","","","",""
"","html-keyboard-response","228","496535","0.0-10.0-1.10","4fw5ps7kpp","many_one","0","indirect_first","0","at07rt13","0","23","1","0","2","1","null","","","<img src = 'category1/GS3.png' width = '100%;'>","null","","","","","","","","","",""
"","html-keyboard-response","229","496815","0.0-10.0-2.10","4fw5ps7kpp","many_one","0","indirect_first","0","at07rt13","0","23","1","0","2","1","null","","","<img src = 'targets/24.png' width = '100%;'>","null","","","","","","","","","",""
"","html-keyboard-response","230","497299","0.0-10.0-3.10","4fw5ps7kpp","many_one","0","indirect_first","0","at07rt13","0","23","1","0","2","1","484","","","<img src = 'targets/mask.png' width = '100%;'>","75","pos","GS","GSnew","1","category1/GS3.png","targets/24.png","1","indirect","34",""
"","html-keyboard-response","231","498834","0.0-10.0-0.11","4fw5ps7kpp","many_one","0","indirect_first","0","at07rt13","0","23","1","0","2","1","null","","","<div style=""font-size:60px;"">+</div>","null","","","","","","","","","",""
"","html-keyboard-response","232","498935","0.0-10.0-1.11","4fw5ps7kpp","many_one","0","indirect_first","0","at07rt13","0","23","1","0","2","1","null","","","<img src = 'category2/CS1.png' width = '100%;'>","null","","","","","","","","","",""
"","html-keyboard-response","233","499215","0.0-10.0-2.11","4fw5ps7kpp","many_one","0","indirect_first","0","at07rt13","0","23","1","0","2","1","null","","","<img src = 'targets/33.png' width = '100%;'>","null","","","","","","","","","",""
"","html-keyboard-response","234","499748","0.0-10.0-3.11","4fw5ps7kpp","many_one","0","indirect_first","0","at07rt13","0","23","1","0","2","1","532","","","<img src = 'targets/mask.png' width = '100%;'>","68","neg","GS","GSold","2","category2/CS1.png","targets/33.png","0","indirect","35",""
"","html-keyboard-response","235","501254","0.0-10.0-0.12","4fw5ps7kpp","many_one","0","indirect_first","0","at07rt13","0","23","1","0","2","1","null","","","<div style=""font-size:60px;"">+</div>","null","","","","","","","","","",""
"","html-keyboard-response","236","501365","0.0-10.0-1.12","4fw5ps7kpp","many_one","0","indirect_first","0","at07rt13","0","23","1","0","2","1","null","","","<img src = 'category4/lin.png' width = '100%;'>","null","","","","","","","","","",""
"","html-keyboard-response","237","501645","0.0-10.0-2.12","4fw5ps7kpp","many_one","0","indirect_first","0","at07rt13","0","23","1","0","2","1","null","","","<img src = 'targets/38.png' width = '100%;'>","null","","","","","","","","","",""
"","html-keyboard-response","238","502076","0.0-10.0-3.12","4fw5ps7kpp","many_one","0","indirect_first","0","at07rt13","0","23","1","0","2","1","429","","","<img src = 'targets/mask.png' width = '100%;'>","68","neg","GS","abstract","4","category4/lin.png","targets/38.png","0","indirect","36",""
"","html-keyboard-response","239","503605","0.0-10.0-0.13","4fw5ps7kpp","many_one","0","indirect_first","0","at07rt13","0","23","1","0","2","1","null","","","<div style=""font-size:60px;"">+</div>","null","","","","","","","","","",""
"","html-keyboard-response","240","503705","0.0-10.0-1.13","4fw5ps7kpp","many_one","0","indirect_first","0","at07rt13","0","23","1","0","2","1","null","","","<img src = 'category1/ma.png' width = '100%;'>","null","","","","","","","","","",""
"","html-keyboard-response","241","503984","0.0-10.0-2.13","4fw5ps7kpp","many_one","0","indirect_first","0","at07rt13","0","23","1","0","2","1","null","","","<img src = 'targets/11.png' width = '100%;'>","null","","","","","","","","","",""
"","html-keyboard-response","242","504563","0.0-10.0-3.13","4fw5ps7kpp","many_one","0","indirect_first","0","at07rt13","0","23","1","0","2","1","578","","","<img src = 'targets/mask.png' width = '100%;'>","75","pos","GS","abstract","1","category1/ma.png","targets/11.png","1","indirect","37",""
"","html-keyboard-response","243","506085","0.0-10.0-0.14","4fw5ps7kpp","many_one","0","indirect_first","0","at07rt13","0","23","1","0","2","1","null","","","<div style=""font-size:60px;"">+</div>","null","","","","","","","","","",""
"","html-keyboard-response","244","506184","0.0-10.0-1.14","4fw5ps7kpp","many_one","0","indirect_first","0","at07rt13","0","23","1","0","2","1","null","","","<img src = 'category2/GS3.png' width = '100%;'>","null","","","","","","","","","",""
"","html-keyboard-response","245","506464","0.0-10.0-2.14","4fw5ps7kpp","many_one","0","indirect_first","0","at07rt13","0","23","1","0","2","1","null","","","<img src = 'targets/10.png' width = '100%;'>","null","","","","","","","","","",""
"","html-keyboard-response","246","507363","0.0-10.0-3.14","4fw5ps7kpp","many_one","0","indirect_first","0","at07rt13","0","23","1","0","2","1","898","","","<img src = 'targets/mask.png' width = '100%;'>","75","neg","GS","GSnew","2","category2/GS3.png","targets/10.png","1","indirect","38",""
"","html-keyboard-response","247","508885","0.0-10.0-0.15","4fw5ps7kpp","many_one","0","indirect_first","0","at07rt13","0","23","1","0","2","1","null","","","<div style=""font-size:60px;"">+</div>","null","","","","","","","","","",""
"","html-keyboard-response","248","508977","0.0-10.0-1.15","4fw5ps7kpp","many_one","0","indirect_first","0","at07rt13","0","23","1","0","2","1","null","","","<img src = 'category1/GS1.png' width = '100%;'>","null","","","","","","","","","",""
"","html-keyboard-response","249","509229","0.0-10.0-2.15","4fw5ps7kpp","many_one","0","indirect_first","0","at07rt13","0","23","1","0","2","1","null","","","<img src = 'targets/5.png' width = '100%;'>","null","","","","","","","","","",""
"","html-keyboard-response","250","509699","0.0-10.0-3.15","4fw5ps7kpp","many_one","0","indirect_first","0","at07rt13","0","23","1","0","2","1","469","","","<img src = 'targets/mask.png' width = '100%;'>","75","pos","GS","GSnew","1","category1/GS1.png","targets/5.png","1","indirect","39",""
"","html-keyboard-response","251","511225","0.0-10.0-0.16","4fw5ps7kpp","many_one","0","indirect_first","0","at07rt13","0","23","1","0","2","1","null","","","<div style=""font-size:60px;"">+</div>","null","","","","","","","","","",""
"","html-keyboard-response","252","511325","0.0-10.0-1.16","4fw5ps7kpp","many_one","0","indirect_first","0","at07rt13","0","23","1","0","2","1","null","","","<img src = 'category3/CS10.png' width = '100%;'>","null","","","","","","","","","",""
"","html-keyboard-response","253","511605","0.0-10.0-2.16","4fw5ps7kpp","many_one","0","indirect_first","0","at07rt13","0","23","1","0","2","1","null","","","<img src = 'targets/28.png' width = '100%;'>","null","","","","","","","","","",""
"","html-keyboard-response","254","512019","0.0-10.0-3.16","4fw5ps7kpp","many_one","0","indirect_first","0","at07rt13","0","23","1","0","2","1","414","","","<img src = 'targets/mask.png' width = '100%;'>","75","pos","GS","GSold","3","category3/CS10.png","targets/28.png","1","indirect","40",""
"","html-keyboard-response","255","513545","0.0-10.0-0.17","4fw5ps7kpp","many_one","0","indirect_first","0","at07rt13","0","23","1","0","2","1","null","","","<div style=""font-size:60px;"">+</div>","null","","","","","","","","","",""
"","html-keyboard-response","256","513645","0.0-10.0-1.17","4fw5ps7kpp","many_one","0","indirect_first","0","at07rt13","0","23","1","0","2","1","null","","","<img src = 'category1/GS2.png' width = '100%;'>","null","","","","","","","","","",""
"","html-keyboard-response","257","513925","0.0-10.0-2.17","4fw5ps7kpp","many_one","0","indirect_first","0","at07rt13","0","23","1","0","2","1","null","","","<img src = 'targets/30.png' width = '100%;'>","null","","","","","","","","","",""
"","html-keyboard-response","258","514339","0.0-10.0-3.17","4fw5ps7kpp","many_one","0","indirect_first","0","at07rt13","0","23","1","0","2","1","414","","","<img src = 'targets/mask.png' width = '100%;'>","75","pos","GS","GSnew","1","category1/GS2.png","targets/30.png","1","indirect","41",""
"","html-keyboard-response","259","515854","0.0-10.0-0.18","4fw5ps7kpp","many_one","0","indirect_first","0","at07rt13","0","23","1","0","2","1","null","","","<div style=""font-size:60px;"">+</div>","null","","","","","","","","","",""
"","html-keyboard-response","260","515954","0.0-10.0-1.18","4fw5ps7kpp","many_one","0","indirect_first","0","at07rt13","0","23","1","0","2","1","null","","","<img src = 'category1/CS10.png' width = '100%;'>","null","","","","","","","","","",""
"","html-keyboard-response","261","516234","0.0-10.0-2.18","4fw5ps7kpp","many_one","0","indirect_first","0","at07rt13","0","23","1","0","2","1","null","","","<img src = 'targets/34.png' width = '100%;'>","null","","","","","","","","","",""
"","html-keyboard-response","262","516651","0.0-10.0-3.18","4fw5ps7kpp","many_one","0","indirect_first","0","at07rt13","0","23","1","0","2","1","416","","","<img src = 'targets/mask.png' width = '100%;'>","75","pos","GS","GSold","1","category1/CS10.png","targets/34.png","1","indirect","42",""
"","html-keyboard-response","263","518174","0.0-10.0-0.19","4fw5ps7kpp","many_one","0","indirect_first","0","at07rt13","0","23","1","0","2","1","null","","","<div style=""font-size:60px;"">+</div>","null","","","","","","","","","",""
"","html-keyboard-response","264","518275","0.0-10.0-1.19","4fw5ps7kpp","many_one","0","indirect_first","0","at07rt13","0","23","1","0","2","1","null","","","<img src = 'category2/CS5.png' width = '100%;'>","null","","","","","","","","","",""
"","html-keyboard-response","265","518554","0.0-10.0-2.19","4fw5ps7kpp","many_one","0","indirect_first","0","at07rt13","0","23","1","0","2","1","null","","","<img src = 'targets/27.png' width = '100%;'>","null","","","","","","","","","",""
"","html-keyboard-response","266","519059","0.0-10.0-3.19","4fw5ps7kpp","many_one","0","indirect_first","0","at07rt13","0","23","1","0","2","1","504","","","<img src = 'targets/mask.png' width = '100%;'>","68","neg","GS","GSold","2","category2/CS5.png","targets/27.png","0","indirect","43",""
"","html-keyboard-response","267","520594","0.0-10.0-0.20","4fw5ps7kpp","many_one","0","indirect_first","0","at07rt13","0","23","1","0","2","1","null","","","<div style=""font-size:60px;"">+</div>","null","","","","","","","","","",""
"","html-keyboard-response","268","520695","0.0-10.0-1.20","4fw5ps7kpp","many_one","0","indirect_first","0","at07rt13","0","23","1","0","2","1","null","","","<img src = 'category4/GS1.png' width = '100%;'>","null","","","","","","","","","",""
"","html-keyboard-response","269","520975","0.0-10.0-2.20","4fw5ps7kpp","many_one","0","indirect_first","0","at07rt13","0","23","1","0","2","1","null","","","<img src = 'targets/44.png' width = '100%;'>","null","","","","","","","","","",""
"","html-keyboard-response","270","522307","0.0-10.0-3.20","4fw5ps7kpp","many_one","0","indirect_first","0","at07rt13","0","23","1","0","2","1","1330","","","<img src = 'targets/mask.png' width = '100%;'>","75","neg","GS","GSnew","4","category4/GS1.png","targets/44.png","1","indirect","44",""
"","html-keyboard-response","271","523814","0.0-10.0-0.21","4fw5ps7kpp","many_one","0","indirect_first","0","at07rt13","0","23","1","0","2","1","null","","","<div style=""font-size:60px;"">+</div>","null","","","","","","","","","",""
"","html-keyboard-response","272","523914","0.0-10.0-1.21","4fw5ps7kpp","many_one","0","indirect_first","0","at07rt13","0","23","1","0","2","1","null","","","<img src = 'category4/GS3.png' width = '100%;'>","null","","","","","","","","","",""
"","html-keyboard-response","273","524195","0.0-10.0-2.21","4fw5ps7kpp","many_one","0","indirect_first","0","at07rt13","0","23","1","0","2","1","null","","","<img src = 'targets/6.png' width = '100%;'>","null","","","","","","","","","",""
"","html-keyboard-response","274","524531","0.0-10.0-3.21","4fw5ps7kpp","many_one","0","indirect_first","0","at07rt13","0","23","1","0","2","1","334","","","<img src = 'targets/mask.png' width = '100%;'>","75","neg","GS","GSnew","4","category4/GS3.png","targets/6.png","1","indirect","45",""
"","html-keyboard-response","275","526035","0.0-10.0-0.22","4fw5ps7kpp","many_one","0","indirect_first","0","at07rt13","0","23","1","0","2","1","null","","","<div style=""font-size:60px;"">+</div>","null","","","","","","","","","",""
"","html-keyboard-response","276","526135","0.0-10.0-1.22","4fw5ps7kpp","many_one","0","indirect_first","0","at07rt13","0","23","1","0","2","1","null","","","<img src = 'category1/CS5.png' width = '100%;'>","null","","","","","","","","","",""
"","html-keyboard-response","277","526415","0.0-10.0-2.22","4fw5ps7kpp","many_one","0","indirect_first","0","at07rt13","0","23","1","0","2","1","null","","","<img src = 'targets/31.png' width = '100%;'>","null","","","","","","","","","",""
"","html-keyboard-response","278","526739","0.0-10.0-3.22","4fw5ps7kpp","many_one","0","indirect_first","0","at07rt13","0","23","1","0","2","1","323","","","<img src = 'targets/mask.png' width = '100%;'>","75","pos","GS","GSold","1","category1/CS5.png","targets/31.png","1","indirect","46",""
"","html-keyboard-response","279","528265","0.0-10.0-0.23","4fw5ps7kpp","many_one","0","indirect_first","0","at07rt13","0","23","1","0","2","1","null","","","<div style=""font-size:60px;"">+</div>","null","","","","","","","","","",""
"","html-keyboard-response","280","528365","0.0-10.0-1.23","4fw5ps7kpp","many_one","0","indirect_first","0","at07rt13","0","23","1","0","2","1","null","","","<img src = 'category4/GS2.png' width = '100%;'>","null","","","","","","","","","",""
"","html-keyboard-response","281","528644","0.0-10.0-2.23","4fw5ps7kpp","many_one","0","indirect_first","0","at07rt13","0","23","1","0","2","1","null","","","<img src = 'targets/15.png' width = '100%;'>","null","","","","","","","","","",""
"","html-keyboard-response","282","529019","0.0-10.0-3.23","4fw5ps7kpp","many_one","0","indirect_first","0","at07rt13","0","23","1","0","2","1","374","","","<img src = 'targets/mask.png' width = '100%;'>","75","neg","GS","GSnew","4","category4/GS2.png","targets/15.png","1","indirect","47",""
"","survey-html-form","283","537851","0.0-11.0","4fw5ps7kpp","many_one","0","indirect_first","0","at07rt13","0","23","1","0","2","1","8325","","{}","","","","","","","","","","","",""
"","image-slider-response","284","552610","0.0-12.0-0.0","4fw5ps7kpp","many_one","0","indirect_first","0","at07rt13","0","23","1","0","2","1","12748","","","","","pos","GS","GSnew","3","category3/GS3.png","targets/43.png","","direct","","88"
"","image-slider-response","285","557306","0.0-12.0-0.1","4fw5ps7kpp","many_one","0","indirect_first","0","at07rt13","0","23","1","0","2","1","4695","","","","","pos","GS","GSold","1","category1/CS4.png","targets/18.png","","direct","","80"
"","image-slider-response","286","560162","0.0-12.0-0.2","4fw5ps7kpp","many_one","0","indirect_first","0","at07rt13","0","23","1","0","2","1","2855","","","","","pos","GS","GSold","3","category3/CS3.png","targets/37.png","","direct","","82"
"","image-slider-response","287","563122","0.0-12.0-0.3","4fw5ps7kpp","many_one","0","indirect_first","0","at07rt13","0","23","1","0","2","1","2958","","","","","pos","CS","CS","1","category1/CS6.png","targets/12.png","","direct","","88"
"","image-slider-response","288","565498","0.0-12.0-0.4","4fw5ps7kpp","many_one","0","indirect_first","0","at07rt13","0","23","1","0","2","1","2376","","","","","pos","GS","GSold","1","category1/CS5.png","targets/31.png","","direct","","88"
"","image-slider-response","289","568594","0.0-12.0-0.5","4fw5ps7kpp","many_one","0","indirect_first","0","at07rt13","0","23","1","0","2","1","3095","","","","","neg","CS","CS","4","category4/CS7.png","targets/14.png","","direct","","-77"
"","image-slider-response","290","571361","0.0-12.0-0.6","4fw5ps7kpp","many_one","0","indirect_first","0","at07rt13","0","23","1","0","2","1","2767","","","","","neg","CS","CS","2","category2/CS8.png","targets/47.png","","direct","","-81"
"","image-slider-response","291","574234","0.0-12.0-0.7","4fw5ps7kpp","many_one","0","indirect_first","0","at07rt13","0","23","1","0","2","1","2870","","","","","pos","CS","CS","3","category3/CS8.png","targets/26.png","","direct","","100"
"","image-slider-response","292","576586","0.0-12.0-0.8","4fw5ps7kpp","many_one","0","indirect_first","0","at07rt13","0","23","1","0","2","1","2351","","","","","neg","CS","CS","4","category4/CS1.png","targets/16.png","","direct","","-100"
"","image-slider-response","293","579001","0.0-12.0-0.9","4fw5ps7kpp","many_one","0","indirect_first","0","at07rt13","0","23","1","0","2","1","2415","","","","","neg","CS","CS","4","category4/CS9.png","targets/2.png","","direct","","-100"
"","image-slider-response","294","581610","0.0-12.0-0.10","4fw5ps7kpp","many_one","0","indirect_first","0","at07rt13","0","23","1","0","2","1","2608","","","","","pos","GS","GSold","1","category1/CS10.png","targets/34.png","","direct","","84"
"","image-slider-response","295","586129","0.0-12.0-0.11","4fw5ps7kpp","many_one","0","indirect_first","0","at07rt13","0","23","1","0","2","1","4518","","","","","neg","GS","abstract","2","category2/men.png","targets/21.png","","direct","","-94"
"","image-slider-response","296","589649","0.0-12.0-0.12","4fw5ps7kpp","many_one","0","indirect_first","0","at07rt13","0","23","1","0","2","1","3518","","","","","pos","CS","CS","3","category3/CS7.png","targets/46.png","","direct","","95"
"","image-slider-response","297","593058","0.0-12.0-0.13","4fw5ps7kpp","many_one","0","indirect_first","0","at07rt13","0","23","1","0","2","1","3408","","","","","pos","GS","GSnew","1","category1/GS2.png","targets/30.png","","direct","","82"
"","image-slider-response","298","595714","0.0-12.0-0.14","4fw5ps7kpp","many_one","0","indirect_first","0","at07rt13","0","23","1","0","2","1","2654","","","","","neg","CS","CS","4","category4/CS2.png","targets/45.png","","direct","","-85"
"","image-slider-response","299","597954","0.0-12.0-0.15","4fw5ps7kpp","many_one","0","indirect_first","0","at07rt13","0","23","1","0","2","1","2238","","","","","neg","CS","CS","2","category2/CS3.png","targets/9.png","","direct","","-88"
"","image-slider-response","300","600666","0.0-12.0-0.16","4fw5ps7kpp","many_one","0","indirect_first","0","at07rt13","0","23","1","0","2","1","2710","","","","","pos","GS","GSold","3","category3/CS9.png","targets/13.png","","direct","","82"
"","image-slider-response","301","603802","0.0-12.0-0.17","4fw5ps7kpp","many_one","0","indirect_first","0","at07rt13","0","23","1","0","2","1","3135","","","","","neg","GS","GSold","4","category4/CS5.png","targets/7.png","","direct","","-85"
"","image-slider-response","302","609409","0.0-12.0-0.18","4fw5ps7kpp","many_one","0","indirect_first","0","at07rt13","0","23","1","0","2","1","5606","","","","","neg","GS","GSnew","4","category4/GS2.png","targets/15.png","","direct","","-36"
"","image-slider-response","303","612561","0.0-12.0-0.19","4fw5ps7kpp","many_one","0","indirect_first","0","at07rt13","0","23","1","0","2","1","3151","","","","","neg","GS","GSold","2","category2/CS1.png","targets/33.png","","direct","","-84"
"","image-slider-response","304","614906","0.0-12.0-0.20","4fw5ps7kpp","many_one","0","indirect_first","0","at07rt13","0","23","1","0","2","1","2344","","","","","pos","GS","GSold","3","category3/CS10.png","targets/28.png","","direct","","80"
"","image-slider-response","305","619361","0.0-12.0-0.21","4fw5ps7kpp","many_one","0","indirect_first","0","at07rt13","0","23","1","0","2","1","4454","","","","","neg","GS","GSnew","2","category2/GS1.png","targets/39.png","","direct","","-2"
"","image-slider-response","306","622713","0.0-12.0-0.22","4fw5ps7kpp","many_one","0","indirect_first","0","at07rt13","0","23","1","0","2","1","3351","","","","","neg","CS","CS","2","category2/CS10.png","targets/32.png","","direct","","-86"
"","image-slider-response","307","625498","0.0-12.0-0.23","4fw5ps7kpp","many_one","0","indirect_first","0","at07rt13","0","23","1","0","2","1","2783","","","","","neg","GS","GSnew","2","category2/GS2.png","targets/19.png","","direct","","-44"
"","image-slider-response","308","627969","0.0-12.0-0.24","4fw5ps7kpp","many_one","0","indirect_first","0","at07rt13","0","23","1","0","2","1","2470","","","","","neg","GS","GSold","2","category2/CS5.png","targets/27.png","","direct","","-87"
"","image-slider-response","309","632130","0.0-12.0-0.25","4fw5ps7kpp","many_one","0","indirect_first","0","at07rt13","0","23","1","0","2","1","4158","","","","","pos","GS","abstract","1","category1/ma.png","targets/11.png","","direct","","55"
"","image-slider-response","310","634914","0.0-12.0-0.26","4fw5ps7kpp","many_one","0","indirect_first","0","at07rt13","0","23","1","0","2","1","2783","","","","","pos","GS","GSnew","1","category1/GS3.png","targets/24.png","","direct","","85"
"","image-slider-response","311","637833","0.0-12.0-0.27","4fw5ps7kpp","many_one","0","indirect_first","0","at07rt13","0","23","1","0","2","1","2919","","","","","neg","CS","CS","4","category4/CS8.png","targets/3.png","","direct","","-79"
"","image-slider-response","312","640362","0.0-12.0-0.28","4fw5ps7kpp","many_one","0","indirect_first","0","at07rt13","0","23","1","0","2","1","2528","","","","","pos","CS","CS","1","category1/CS3.png","targets/35.png","","direct","","64"
"","image-slider-response","313","643898","0.0-12.0-0.29","4fw5ps7kpp","many_one","0","indirect_first","0","at07rt13","0","23","1","0","2","1","3534","","","","","pos","GS","GSnew","3","category3/GS2.png","targets/20.png","","direct","","85"
"","image-slider-response","314","646233","0.0-12.0-0.30","4fw5ps7kpp","many_one","0","indirect_first","0","at07rt13","0","23","1","0","2","1","2335","","","","","neg","GS","GSold","4","category4/CS4.png","targets/22.png","","direct","","-91"
"","image-slider-response","315","649802","0.0-12.0-0.31","4fw5ps7kpp","many_one","0","indirect_first","0","at07rt13","0","23","1","0","2","1","3567","","","","","neg","GS","GSnew","2","category2/GS3.png","targets/10.png","","direct","","3"
"","image-slider-response","316","652345","0.0-12.0-0.32","4fw5ps7kpp","many_one","0","indirect_first","0","at07rt13","0","23","1","0","2","1","2542","","","","","pos","GS","GSnew","3","category3/GS1.png","targets/23.png","","direct","","60"
"","image-slider-response","317","654601","0.0-12.0-0.33","4fw5ps7kpp","many_one","0","indirect_first","0","at07rt13","0","23","1","0","2","1","2254","","","","","pos","GS","abstract","3","category3/wang.png","targets/41.png","","direct","","68"
"","image-slider-response","318","656777","0.0-12.0-0.34","4fw5ps7kpp","many_one","0","indirect_first","0","at07rt13","0","23","1","0","2","1","2176","","","","","neg","CS","CS","2","category2/CS2.png","targets/4.png","","direct","","-85"
"","image-slider-response","319","658809","0.0-12.0-0.35","4fw5ps7kpp","many_one","0","indirect_first","0","at07rt13","0","23","1","0","2","1","2030","","","","","neg","GS","GSold","2","category2/CS7.png","targets/42.png","","direct","","-90"
"","image-slider-response","320","662914","0.0-12.0-0.36","4fw5ps7kpp","many_one","0","indirect_first","0","at07rt13","0","23","1","0","2","1","4103","","","","","neg","GS","GSnew","4","category4/GS3.png","targets/6.png","","direct","","-24"
"","image-slider-response","321","666625","0.0-12.0-0.37","4fw5ps7kpp","many_one","0","indirect_first","0","at07rt13","0","23","1","0","2","1","3710","","","","","neg","GS","abstract","4","category4/lin.png","targets/38.png","","direct","","-100"
"","image-slider-response","322","669161","0.0-12.0-0.38","4fw5ps7kpp","many_one","0","indirect_first","0","at07rt13","0","23","1","0","2","1","2535","","","","","pos","CS","CS","1","category1/CS9.png","targets/40.png","","direct","","92"
"","image-slider-response","323","672098","0.0-12.0-0.39","4fw5ps7kpp","many_one","0","indirect_first","0","at07rt13","0","23","1","0","2","1","2935","","","","","pos","CS","CS","3","category3/CS1.png","targets/48.png","","direct","","100"
"","image-slider-response","324","675073","0.0-12.0-0.40","4fw5ps7kpp","many_one","0","indirect_first","0","at07rt13","0","23","1","0","2","1","2975","","","","","pos","CS","CS","3","category3/CS6.png","targets/17.png","","direct","","83"
"","image-slider-response","325","677545","0.0-12.0-0.41","4fw5ps7kpp","many_one","0","indirect_first","0","at07rt13","0","23","1","0","2","1","2471","","","","","neg","GS","GSold","4","category4/CS10.png","targets/29.png","","direct","","-91"
"","image-slider-response","326","680681","0.0-12.0-0.42","4fw5ps7kpp","many_one","0","indirect_first","0","at07rt13","0","23","1","0","2","1","3135","","","","","pos","CS","CS","3","category3/CS2.png","targets/36.png","","direct","","92"
"","image-slider-response","327","682593","0.0-12.0-0.43","4fw5ps7kpp","many_one","0","indirect_first","0","at07rt13","0","23","1","0","2","1","1912","","","","","neg","CS","CS","2","category2/CS6.png","targets/25.png","","direct","","-100"
"","image-slider-response","328","684697","0.0-12.0-0.44","4fw5ps7kpp","many_one","0","indirect_first","0","at07rt13","0","23","1","0","2","1","2103","","","","","pos","CS","CS","1","category1/CS2.png","targets/1.png","","direct","","100"
"","image-slider-response","329","687425","0.0-12.0-0.45","4fw5ps7kpp","many_one","0","indirect_first","0","at07rt13","0","23","1","0","2","1","2727","","","","","pos","GS","GSnew","1","category1/GS1.png","targets/5.png","","direct","","37"
"","image-slider-response","330","689657","0.0-12.0-0.46","4fw5ps7kpp","many_one","0","indirect_first","0","at07rt13","0","23","1","0","2","1","2232","","","","","neg","GS","GSnew","4","category4/GS1.png","targets/44.png","","direct","","-55"
"","image-slider-response","331","691738","0.0-12.0-0.47","4fw5ps7kpp","many_one","0","indirect_first","0","at07rt13","0","23","1","0","2","1","2079","","","","","pos","CS","CS","1","category1/CS8.png","targets/8.png","","direct","","72"
"","survey-html-form","332","698058","0.0-13.0","4fw5ps7kpp","many_one","0","indirect_first","0","at07rt13","0","23","1","0","2","1","6320","","{}","","","","","","","","","","","",""
"","image-slider-response","333","702289","0.0-14.0-0.0","4fw5ps7kpp","many_one","0","indirect_first","0","at07rt13","0","23","1","0","2","1","3212","","","","","pos","All","all","3","category3/wang_all.png","","","all","","98"
"","image-slider-response","334","705322","0.0-14.0-0.1","4fw5ps7kpp","many_one","0","indirect_first","0","at07rt13","0","23","1","0","2","1","3031","","","","","pos","All","all","1","category1/ma_all.png","","","all","","83"
"","image-slider-response","335","708001","0.0-14.0-0.2","4fw5ps7kpp","many_one","0","indirect_first","0","at07rt13","0","23","1","0","2","1","2678","","","","","neg","All","all","2","category2/men_all.png","","","all","","-88"
"","image-slider-response","336","710625","0.0-14.0-0.3","4fw5ps7kpp","many_one","0","indirect_first","0","at07rt13","0","23","1","0","2","1","2622","","","","","neg","All","all","4","category4/lin_all.png","","","all","","-97"
"","survey-text","337","719122","0.0-15.0","4fw5ps7kpp","many_one","0","indirect_first","0","at07rt13","0","23","1","0","2","1","8494","","{""Q0"":""""}","","","","","","","","","","","",""
