"success","trial_type","trial_index","time_elapsed","internal_node_id","subject","condition","condition_code","measure","measure_code","codeword","gender","age","education","chinese","fach","handedness","comment","hinschauen","ablenkung","gewissenhaft","rt","url","responses","stimulus","key_press","val","type","type_specific","category","cs_selected","response","target","task","indirect","nr_pres"
"true","fullscreen","0","16203","0.0-0.0","nbt2h46sx2","one_one","1","direct_first","1","er09en28","0","21","1","1","3","1","","0","1","0","","","","","","","","","","","","","","",""
"","external-html","1","65851","0.0-1.0","nbt2h46sx2","one_one","1","direct_first","1","er09en28","0","21","1","1","3","1","","0","1","0","49322.57000007667","text/information.html","","","","","","","","","","","","",""
"","external-html","2","89496","0.0-2.0","nbt2h46sx2","one_one","1","direct_first","1","er09en28","0","21","1","1","3","1","","0","1","0","23470.354999997653","text/consent.html","","","","","","","","","","","","",""
"","survey-html-form","3","183150","0.0-3.0","nbt2h46sx2","one_one","1","direct_first","1","er09en28","0","21","1","1","3","1","","0","1","0","93599.31499999948","","{""codeword_enter"":""er09en28""}","","","","","","","","","","","",""
"","survey-html-form","4","214092","0.0-4.0","nbt2h46sx2","one_one","1","direct_first","1","er09en28","0","21","1","1","3","1","","0","1","0","30865.559999947436","","{""age"":""21"",""education"":""1"",""subject"":""3"",""gender"":""0"",""handedness"":""1"",""chinese"":""1""}","","","","","","","","","","","",""
"","survey-html-form","5","230376","0.0-5.0","nbt2h46sx2","one_one","1","direct_first","1","er09en28","0","21","1","1","3","1","","0","1","0","16271.655000047758","","{}","","","","","","","","","","","",""
"","html-keyboard-response","6","234392","0.0-6.0-0.0-0.0","nbt2h46sx2","one_one","1","direct_first","1","er09en28","0","21","1","1","3","1","","0","1","0","null","","","<div class = 'row'><div class = 'column'><img src = 'usneg/9041.bmp' width = '100%;'></div><div class = 'column'><img src = 'category4/CS10.png' width = '70%;'></div></div>","null","neg","CS","CS","4","category4/CS10.png","","","","",""
"","html-keyboard-response","7","236904","0.0-6.0-0.0-0.1","nbt2h46sx2","one_one","1","direct_first","1","er09en28","0","21","1","1","3","1","","0","1","0","null","","","<div class = 'row'><div class = 'column'><img src = 'usneg/9560.bmp' width = '100%;'></div><div class = 'column'><img src = 'category1/CS9.png' width = '70%;'></div></div>","null","neg","CS","CS","1","category1/CS9.png","","","","",""
"","html-keyboard-response","8","239419","0.0-6.0-0.0-0.2","nbt2h46sx2","one_one","1","direct_first","1","er09en28","0","21","1","1","3","1","","0","1","0","null","","","<div class = 'row'><div class = 'column'><img src = 'uspos/2208.bmp' width = '100%;'></div><div class = 'column'><img src = 'category2/CS7.png' width = '70%;'></div></div>","null","pos","CS","CS","2","category2/CS7.png","","","","",""
"","html-keyboard-response","9","241933","0.0-6.0-0.0-0.3","nbt2h46sx2","one_one","1","direct_first","1","er09en28","0","21","1","1","3","1","","0","1","0","null","","","<div class = 'row'><div class = 'column'><img src = 'category1/CS9.png' width = '70%;'></div><div class = 'column'><img src = 'usneg/9560.bmp' width = '100%;'></div></div>","null","neg","CS","CS","1","category1/CS9.png","","","","",""
"","html-keyboard-response","10","244456","0.0-6.0-0.0-0.4","nbt2h46sx2","one_one","1","direct_first","1","er09en28","0","21","1","1","3","1","","0","1","0","null","","","<div class = 'row'><div class = 'column'><img src = 'uspos/2550.bmp' width = '100%;'></div><div class = 'column'><img src = 'category3/CS6.png' width = '70%;'></div></div>","null","pos","CS","CS","3","category3/CS6.png","","","","",""
"","html-keyboard-response","11","246963","0.0-6.0-0.0-0.5","nbt2h46sx2","one_one","1","direct_first","1","er09en28","0","21","1","1","3","1","","0","1","0","null","","","<div class = 'row'><div class = 'column'><img src = 'usneg/9041.bmp' width = '100%;'></div><div class = 'column'><img src = 'category4/CS10.png' width = '70%;'></div></div>","null","neg","CS","CS","4","category4/CS10.png","","","","",""
"","html-keyboard-response","12","249470","0.0-6.0-0.0-0.6","nbt2h46sx2","one_one","1","direct_first","1","er09en28","0","21","1","1","3","1","","0","1","0","null","","","<div class = 'row'><div class = 'column'><img src = 'uspos/2550.bmp' width = '100%;'></div><div class = 'column'><img src = 'category3/CS6.png' width = '70%;'></div></div>","null","pos","CS","CS","3","category3/CS6.png","","","","",""
"","html-keyboard-response","13","251981","0.0-6.0-0.0-0.7","nbt2h46sx2","one_one","1","direct_first","1","er09en28","0","21","1","1","3","1","","0","1","0","null","","","<div class = 'row'><div class = 'column'><img src = 'category4/CS10.png' width = '70%;'></div><div class = 'column'><img src = 'usneg/9041.bmp' width = '100%;'></div></div>","null","neg","CS","CS","4","category4/CS10.png","","","","",""
"","html-keyboard-response","14","254498","0.0-6.0-0.0-0.8","nbt2h46sx2","one_one","1","direct_first","1","er09en28","0","21","1","1","3","1","","0","1","0","null","","","<div class = 'row'><div class = 'column'><img src = 'category3/CS6.png' width = '70%;'></div><div class = 'column'><img src = 'uspos/2550.bmp' width = '100%;'></div></div>","null","pos","CS","CS","3","category3/CS6.png","","","","",""
"","html-keyboard-response","15","257010","0.0-6.0-0.0-0.9","nbt2h46sx2","one_one","1","direct_first","1","er09en28","0","21","1","1","3","1","","0","1","0","null","","","<div class = 'row'><div class = 'column'><img src = 'uspos/2208.bmp' width = '100%;'></div><div class = 'column'><img src = 'category2/CS7.png' width = '70%;'></div></div>","null","pos","CS","CS","2","category2/CS7.png","","","","",""
"","html-keyboard-response","16","259525","0.0-6.0-0.0-0.10","nbt2h46sx2","one_one","1","direct_first","1","er09en28","0","21","1","1","3","1","","0","1","0","null","","","<div class = 'row'><div class = 'column'><img src = 'category3/CS6.png' width = '70%;'></div><div class = 'column'><img src = 'uspos/2550.bmp' width = '100%;'></div></div>","null","pos","CS","CS","3","category3/CS6.png","","","","",""
"","html-keyboard-response","17","262037","0.0-6.0-0.0-0.11","nbt2h46sx2","one_one","1","direct_first","1","er09en28","0","21","1","1","3","1","","0","1","0","null","","","<div class = 'row'><div class = 'column'><img src = 'category4/CS10.png' width = '70%;'></div><div class = 'column'><img src = 'usneg/9041.bmp' width = '100%;'></div></div>","null","neg","CS","CS","4","category4/CS10.png","","","","",""
"","html-keyboard-response","18","264549","0.0-6.0-0.0-0.12","nbt2h46sx2","one_one","1","direct_first","1","er09en28","0","21","1","1","3","1","","0","1","0","null","","","<div class = 'row'><div class = 'column'><img src = 'category3/CS6.png' width = '70%;'></div><div class = 'column'><img src = 'uspos/2550.bmp' width = '100%;'></div></div>","null","pos","CS","CS","3","category3/CS6.png","","","","",""
"","html-keyboard-response","19","267063","0.0-6.0-0.0-0.13","nbt2h46sx2","one_one","1","direct_first","1","er09en28","0","21","1","1","3","1","","0","1","0","null","","","<div class = 'row'><div class = 'column'><img src = 'uspos/2208.bmp' width = '100%;'></div><div class = 'column'><img src = 'category2/CS7.png' width = '70%;'></div></div>","null","pos","CS","CS","2","category2/CS7.png","","","","",""
"","html-keyboard-response","20","269572","0.0-6.0-0.0-0.14","nbt2h46sx2","one_one","1","direct_first","1","er09en28","0","21","1","1","3","1","","0","1","0","null","","","<div class = 'row'><div class = 'column'><img src = 'usneg/9560.bmp' width = '100%;'></div><div class = 'column'><img src = 'category1/CS9.png' width = '70%;'></div></div>","null","neg","CS","CS","1","category1/CS9.png","","","","",""
"","html-keyboard-response","21","272089","0.0-6.0-0.0-0.15","nbt2h46sx2","one_one","1","direct_first","1","er09en28","0","21","1","1","3","1","","0","1","0","null","","","<div class = 'row'><div class = 'column'><img src = 'uspos/2208.bmp' width = '100%;'></div><div class = 'column'><img src = 'category2/CS7.png' width = '70%;'></div></div>","null","pos","CS","CS","2","category2/CS7.png","","","","",""
"","html-keyboard-response","22","274597","0.0-6.0-0.0-0.16","nbt2h46sx2","one_one","1","direct_first","1","er09en28","0","21","1","1","3","1","","0","1","0","null","","","<div class = 'row'><div class = 'column'><img src = 'usneg/9560.bmp' width = '100%;'></div><div class = 'column'><img src = 'category1/CS9.png' width = '70%;'></div></div>","null","neg","CS","CS","1","category1/CS9.png","","","","",""
"","html-keyboard-response","23","277109","0.0-6.0-0.0-0.17","nbt2h46sx2","one_one","1","direct_first","1","er09en28","0","21","1","1","3","1","","0","1","0","null","","","<div class = 'row'><div class = 'column'><img src = 'category4/CS10.png' width = '70%;'></div><div class = 'column'><img src = 'usneg/9041.bmp' width = '100%;'></div></div>","null","neg","CS","CS","4","category4/CS10.png","","","","",""
"","html-keyboard-response","24","279620","0.0-6.0-0.0-0.18","nbt2h46sx2","one_one","1","direct_first","1","er09en28","0","21","1","1","3","1","","0","1","0","null","","","<div class = 'row'><div class = 'column'><img src = 'usneg/9560.bmp' width = '100%;'></div><div class = 'column'><img src = 'category1/CS9.png' width = '70%;'></div></div>","null","neg","CS","CS","1","category1/CS9.png","","","","",""
"","html-keyboard-response","25","282131","0.0-6.0-0.0-0.19","nbt2h46sx2","one_one","1","direct_first","1","er09en28","0","21","1","1","3","1","","0","1","0","null","","","<div class = 'row'><div class = 'column'><img src = 'uspos/2208.bmp' width = '100%;'></div><div class = 'column'><img src = 'category2/CS7.png' width = '70%;'></div></div>","null","pos","CS","CS","2","category2/CS7.png","","","","",""
"","survey-html-form","26","285318","0.0-6.0-1.0","nbt2h46sx2","one_one","1","direct_first","1","er09en28","0","21","1","1","3","1","","0","1","0","2677.1500000031665","","{}","","","","","","","","","","","",""
"","html-keyboard-response","27","289337","0.0-6.0-2.0-0.0","nbt2h46sx2","one_one","1","direct_first","1","er09en28","0","21","1","1","3","1","","0","1","0","null","","","<div class = 'row'><div class = 'column'><img src = 'uspos/2550.bmp' width = '100%;'></div><div class = 'column'><img src = 'category3/CS6.png' width = '70%;'></div></div>","null","pos","CS","CS","3","category3/CS6.png","","","","",""
"","html-keyboard-response","28","291844","0.0-6.0-2.0-0.1","nbt2h46sx2","one_one","1","direct_first","1","er09en28","0","21","1","1","3","1","","0","1","0","null","","","<div class = 'row'><div class = 'column'><img src = 'usneg/9041.bmp' width = '100%;'></div><div class = 'column'><img src = 'category4/CS10.png' width = '70%;'></div></div>","null","neg","CS","CS","4","category4/CS10.png","","","","",""
"","html-keyboard-response","29","294351","0.0-6.0-2.0-0.2","nbt2h46sx2","one_one","1","direct_first","1","er09en28","0","21","1","1","3","1","","0","1","0","null","","","<div class = 'row'><div class = 'column'><img src = 'uspos/2550.bmp' width = '100%;'></div><div class = 'column'><img src = 'category3/CS6.png' width = '70%;'></div></div>","null","pos","CS","CS","3","category3/CS6.png","","","","",""
"","html-keyboard-response","30","296873","0.0-6.0-2.0-0.3","nbt2h46sx2","one_one","1","direct_first","1","er09en28","0","21","1","1","3","1","","0","1","0","null","","","<div class = 'row'><div class = 'column'><img src = 'usneg/9560.bmp' width = '100%;'></div><div class = 'column'><img src = 'category1/CS9.png' width = '70%;'></div></div>","null","neg","CS","CS","1","category1/CS9.png","","","","",""
"","html-keyboard-response","31","299386","0.0-6.0-2.0-0.4","nbt2h46sx2","one_one","1","direct_first","1","er09en28","0","21","1","1","3","1","","0","1","0","null","","","<div class = 'row'><div class = 'column'><img src = 'category4/CS10.png' width = '70%;'></div><div class = 'column'><img src = 'usneg/9041.bmp' width = '100%;'></div></div>","null","neg","CS","CS","4","category4/CS10.png","","","","",""
"","html-keyboard-response","32","301895","0.0-6.0-2.0-0.5","nbt2h46sx2","one_one","1","direct_first","1","er09en28","0","21","1","1","3","1","","0","1","0","null","","","<div class = 'row'><div class = 'column'><img src = 'uspos/2208.bmp' width = '100%;'></div><div class = 'column'><img src = 'category2/CS7.png' width = '70%;'></div></div>","null","pos","CS","CS","2","category2/CS7.png","","","","",""
"","html-keyboard-response","33","304410","0.0-6.0-2.0-0.6","nbt2h46sx2","one_one","1","direct_first","1","er09en28","0","21","1","1","3","1","","0","1","0","null","","","<div class = 'row'><div class = 'column'><img src = 'category4/CS10.png' width = '70%;'></div><div class = 'column'><img src = 'usneg/9041.bmp' width = '100%;'></div></div>","null","neg","CS","CS","4","category4/CS10.png","","","","",""
"","html-keyboard-response","34","306917","0.0-6.0-2.0-0.7","nbt2h46sx2","one_one","1","direct_first","1","er09en28","0","21","1","1","3","1","","0","1","0","null","","","<div class = 'row'><div class = 'column'><img src = 'uspos/2208.bmp' width = '100%;'></div><div class = 'column'><img src = 'category2/CS7.png' width = '70%;'></div></div>","null","pos","CS","CS","2","category2/CS7.png","","","","",""
"","html-keyboard-response","35","309421","0.0-6.0-2.0-0.8","nbt2h46sx2","one_one","1","direct_first","1","er09en28","0","21","1","1","3","1","","0","1","0","null","","","<div class = 'row'><div class = 'column'><img src = 'category1/CS9.png' width = '70%;'></div><div class = 'column'><img src = 'usneg/9560.bmp' width = '100%;'></div></div>","null","neg","CS","CS","1","category1/CS9.png","","","","",""
"","html-keyboard-response","36","311932","0.0-6.0-2.0-0.9","nbt2h46sx2","one_one","1","direct_first","1","er09en28","0","21","1","1","3","1","","0","1","0","null","","","<div class = 'row'><div class = 'column'><img src = 'usneg/9041.bmp' width = '100%;'></div><div class = 'column'><img src = 'category4/CS10.png' width = '70%;'></div></div>","null","neg","CS","CS","4","category4/CS10.png","","","","",""
"","html-keyboard-response","37","314441","0.0-6.0-2.0-0.10","nbt2h46sx2","one_one","1","direct_first","1","er09en28","0","21","1","1","3","1","","0","1","0","null","","","<div class = 'row'><div class = 'column'><img src = 'usneg/9560.bmp' width = '100%;'></div><div class = 'column'><img src = 'category1/CS9.png' width = '70%;'></div></div>","null","neg","CS","CS","1","category1/CS9.png","","","","",""
"","html-keyboard-response","38","316956","0.0-6.0-2.0-0.11","nbt2h46sx2","one_one","1","direct_first","1","er09en28","0","21","1","1","3","1","","0","1","0","null","","","<div class = 'row'><div class = 'column'><img src = 'category2/CS7.png' width = '70%;'></div><div class = 'column'><img src = 'uspos/2208.bmp' width = '100%;'></div></div>","null","pos","CS","CS","2","category2/CS7.png","","","","",""
"","html-keyboard-response","39","319463","0.0-6.0-2.0-0.12","nbt2h46sx2","one_one","1","direct_first","1","er09en28","0","21","1","1","3","1","","0","1","0","null","","","<div class = 'row'><div class = 'column'><img src = 'category1/CS9.png' width = '70%;'></div><div class = 'column'><img src = 'usneg/9560.bmp' width = '100%;'></div></div>","null","neg","CS","CS","1","category1/CS9.png","","","","",""
"","html-keyboard-response","40","321974","0.0-6.0-2.0-0.13","nbt2h46sx2","one_one","1","direct_first","1","er09en28","0","21","1","1","3","1","","0","1","0","null","","","<div class = 'row'><div class = 'column'><img src = 'category3/CS6.png' width = '70%;'></div><div class = 'column'><img src = 'uspos/2550.bmp' width = '100%;'></div></div>","null","pos","CS","CS","3","category3/CS6.png","","","","",""
"","html-keyboard-response","41","324483","0.0-6.0-2.0-0.14","nbt2h46sx2","one_one","1","direct_first","1","er09en28","0","21","1","1","3","1","","0","1","0","null","","","<div class = 'row'><div class = 'column'><img src = 'category1/CS9.png' width = '70%;'></div><div class = 'column'><img src = 'usneg/9560.bmp' width = '100%;'></div></div>","null","neg","CS","CS","1","category1/CS9.png","","","","",""
"","html-keyboard-response","42","326994","0.0-6.0-2.0-0.15","nbt2h46sx2","one_one","1","direct_first","1","er09en28","0","21","1","1","3","1","","0","1","0","null","","","<div class = 'row'><div class = 'column'><img src = 'uspos/2208.bmp' width = '100%;'></div><div class = 'column'><img src = 'category2/CS7.png' width = '70%;'></div></div>","null","pos","CS","CS","2","category2/CS7.png","","","","",""
"","html-keyboard-response","43","329504","0.0-6.0-2.0-0.16","nbt2h46sx2","one_one","1","direct_first","1","er09en28","0","21","1","1","3","1","","0","1","0","null","","","<div class = 'row'><div class = 'column'><img src = 'category3/CS6.png' width = '70%;'></div><div class = 'column'><img src = 'uspos/2550.bmp' width = '100%;'></div></div>","null","pos","CS","CS","3","category3/CS6.png","","","","",""
"","html-keyboard-response","44","332020","0.0-6.0-2.0-0.17","nbt2h46sx2","one_one","1","direct_first","1","er09en28","0","21","1","1","3","1","","0","1","0","null","","","<div class = 'row'><div class = 'column'><img src = 'category2/CS7.png' width = '70%;'></div><div class = 'column'><img src = 'uspos/2208.bmp' width = '100%;'></div></div>","null","pos","CS","CS","2","category2/CS7.png","","","","",""
"","html-keyboard-response","45","334531","0.0-6.0-2.0-0.18","nbt2h46sx2","one_one","1","direct_first","1","er09en28","0","21","1","1","3","1","","0","1","0","null","","","<div class = 'row'><div class = 'column'><img src = 'category4/CS10.png' width = '70%;'></div><div class = 'column'><img src = 'usneg/9041.bmp' width = '100%;'></div></div>","null","neg","CS","CS","4","category4/CS10.png","","","","",""
"","html-keyboard-response","46","337039","0.0-6.0-2.0-0.19","nbt2h46sx2","one_one","1","direct_first","1","er09en28","0","21","1","1","3","1","","0","1","0","null","","","<div class = 'row'><div class = 'column'><img src = 'category3/CS6.png' width = '70%;'></div><div class = 'column'><img src = 'uspos/2550.bmp' width = '100%;'></div></div>","null","pos","CS","CS","3","category3/CS6.png","","","","",""
"","survey-html-form","47","338726","0.0-6.0-3.0","nbt2h46sx2","one_one","1","direct_first","1","er09en28","0","21","1","1","3","1","","0","1","0","1183.2850000355393","","{}","","","","","","","","","","","",""
"","html-keyboard-response","48","342743","0.0-6.0-4.0-0.0","nbt2h46sx2","one_one","1","direct_first","1","er09en28","0","21","1","1","3","1","","0","1","0","null","","","<div class = 'row'><div class = 'column'><img src = 'category2/CS7.png' width = '70%;'></div><div class = 'column'><img src = 'uspos/2208.bmp' width = '100%;'></div></div>","null","pos","CS","CS","2","category2/CS7.png","","","","",""
"","html-keyboard-response","49","345255","0.0-6.0-4.0-0.1","nbt2h46sx2","one_one","1","direct_first","1","er09en28","0","21","1","1","3","1","","0","1","0","null","","","<div class = 'row'><div class = 'column'><img src = 'category1/CS9.png' width = '70%;'></div><div class = 'column'><img src = 'usneg/9560.bmp' width = '100%;'></div></div>","null","neg","CS","CS","1","category1/CS9.png","","","","",""
"","html-keyboard-response","50","347763","0.0-6.0-4.0-0.2","nbt2h46sx2","one_one","1","direct_first","1","er09en28","0","21","1","1","3","1","","0","1","0","null","","","<div class = 'row'><div class = 'column'><img src = 'category3/CS6.png' width = '70%;'></div><div class = 'column'><img src = 'uspos/2550.bmp' width = '100%;'></div></div>","null","pos","CS","CS","3","category3/CS6.png","","","","",""
"","html-keyboard-response","51","350273","0.0-6.0-4.0-0.3","nbt2h46sx2","one_one","1","direct_first","1","er09en28","0","21","1","1","3","1","","0","1","0","null","","","<div class = 'row'><div class = 'column'><img src = 'category2/CS7.png' width = '70%;'></div><div class = 'column'><img src = 'uspos/2208.bmp' width = '100%;'></div></div>","null","pos","CS","CS","2","category2/CS7.png","","","","",""
"","html-keyboard-response","52","352783","0.0-6.0-4.0-0.4","nbt2h46sx2","one_one","1","direct_first","1","er09en28","0","21","1","1","3","1","","0","1","0","null","","","<div class = 'row'><div class = 'column'><img src = 'usneg/9041.bmp' width = '100%;'></div><div class = 'column'><img src = 'category4/CS10.png' width = '70%;'></div></div>","null","neg","CS","CS","4","category4/CS10.png","","","","",""
"","html-keyboard-response","53","355296","0.0-6.0-4.0-0.5","nbt2h46sx2","one_one","1","direct_first","1","er09en28","0","21","1","1","3","1","","0","1","0","null","","","<div class = 'row'><div class = 'column'><img src = 'category2/CS7.png' width = '70%;'></div><div class = 'column'><img src = 'uspos/2208.bmp' width = '100%;'></div></div>","null","pos","CS","CS","2","category2/CS7.png","","","","",""
"","html-keyboard-response","54","357813","0.0-6.0-4.0-0.6","nbt2h46sx2","one_one","1","direct_first","1","er09en28","0","21","1","1","3","1","","0","1","0","null","","","<div class = 'row'><div class = 'column'><img src = 'category3/CS6.png' width = '70%;'></div><div class = 'column'><img src = 'uspos/2550.bmp' width = '100%;'></div></div>","null","pos","CS","CS","3","category3/CS6.png","","","","",""
"","html-keyboard-response","55","360324","0.0-6.0-4.0-0.7","nbt2h46sx2","one_one","1","direct_first","1","er09en28","0","21","1","1","3","1","","0","1","0","null","","","<div class = 'row'><div class = 'column'><img src = 'category4/CS10.png' width = '70%;'></div><div class = 'column'><img src = 'usneg/9041.bmp' width = '100%;'></div></div>","null","neg","CS","CS","4","category4/CS10.png","","","","",""
"","html-keyboard-response","56","362841","0.0-6.0-4.0-0.8","nbt2h46sx2","one_one","1","direct_first","1","er09en28","0","21","1","1","3","1","","0","1","0","null","","","<div class = 'row'><div class = 'column'><img src = 'category1/CS9.png' width = '70%;'></div><div class = 'column'><img src = 'usneg/9560.bmp' width = '100%;'></div></div>","null","neg","CS","CS","1","category1/CS9.png","","","","",""
"","html-keyboard-response","57","365362","0.0-6.0-4.0-0.9","nbt2h46sx2","one_one","1","direct_first","1","er09en28","0","21","1","1","3","1","","0","1","0","null","","","<div class = 'row'><div class = 'column'><img src = 'usneg/9041.bmp' width = '100%;'></div><div class = 'column'><img src = 'category4/CS10.png' width = '70%;'></div></div>","null","neg","CS","CS","4","category4/CS10.png","","","","",""
"","html-keyboard-response","58","367872","0.0-6.0-4.0-0.10","nbt2h46sx2","one_one","1","direct_first","1","er09en28","0","21","1","1","3","1","","0","1","0","null","","","<div class = 'row'><div class = 'column'><img src = 'category3/CS6.png' width = '70%;'></div><div class = 'column'><img src = 'uspos/2550.bmp' width = '100%;'></div></div>","null","pos","CS","CS","3","category3/CS6.png","","","","",""
"","html-keyboard-response","59","370393","0.0-6.0-4.0-0.11","nbt2h46sx2","one_one","1","direct_first","1","er09en28","0","21","1","1","3","1","","0","1","0","null","","","<div class = 'row'><div class = 'column'><img src = 'uspos/2208.bmp' width = '100%;'></div><div class = 'column'><img src = 'category2/CS7.png' width = '70%;'></div></div>","null","pos","CS","CS","2","category2/CS7.png","","","","",""
"","html-keyboard-response","60","372899","0.0-6.0-4.0-0.12","nbt2h46sx2","one_one","1","direct_first","1","er09en28","0","21","1","1","3","1","","0","1","0","null","","","<div class = 'row'><div class = 'column'><img src = 'usneg/9560.bmp' width = '100%;'></div><div class = 'column'><img src = 'category1/CS9.png' width = '70%;'></div></div>","null","neg","CS","CS","1","category1/CS9.png","","","","",""
"","html-keyboard-response","61","375410","0.0-6.0-4.0-0.13","nbt2h46sx2","one_one","1","direct_first","1","er09en28","0","21","1","1","3","1","","0","1","0","null","","","<div class = 'row'><div class = 'column'><img src = 'category3/CS6.png' width = '70%;'></div><div class = 'column'><img src = 'uspos/2550.bmp' width = '100%;'></div></div>","null","pos","CS","CS","3","category3/CS6.png","","","","",""
"","html-keyboard-response","62","377922","0.0-6.0-4.0-0.14","nbt2h46sx2","one_one","1","direct_first","1","er09en28","0","21","1","1","3","1","","0","1","0","null","","","<div class = 'row'><div class = 'column'><img src = 'usneg/9041.bmp' width = '100%;'></div><div class = 'column'><img src = 'category4/CS10.png' width = '70%;'></div></div>","null","neg","CS","CS","4","category4/CS10.png","","","","",""
"","html-keyboard-response","63","380437","0.0-6.0-4.0-0.15","nbt2h46sx2","one_one","1","direct_first","1","er09en28","0","21","1","1","3","1","","0","1","0","null","","","<div class = 'row'><div class = 'column'><img src = 'uspos/2550.bmp' width = '100%;'></div><div class = 'column'><img src = 'category3/CS6.png' width = '70%;'></div></div>","null","pos","CS","CS","3","category3/CS6.png","","","","",""
"","html-keyboard-response","64","382947","0.0-6.0-4.0-0.16","nbt2h46sx2","one_one","1","direct_first","1","er09en28","0","21","1","1","3","1","","0","1","0","null","","","<div class = 'row'><div class = 'column'><img src = 'category1/CS9.png' width = '70%;'></div><div class = 'column'><img src = 'usneg/9560.bmp' width = '100%;'></div></div>","null","neg","CS","CS","1","category1/CS9.png","","","","",""
"","html-keyboard-response","65","385450","0.0-6.0-4.0-0.17","nbt2h46sx2","one_one","1","direct_first","1","er09en28","0","21","1","1","3","1","","0","1","0","null","","","<div class = 'row'><div class = 'column'><img src = 'usneg/9041.bmp' width = '100%;'></div><div class = 'column'><img src = 'category4/CS10.png' width = '70%;'></div></div>","null","neg","CS","CS","4","category4/CS10.png","","","","",""
"","html-keyboard-response","66","387960","0.0-6.0-4.0-0.18","nbt2h46sx2","one_one","1","direct_first","1","er09en28","0","21","1","1","3","1","","0","1","0","null","","","<div class = 'row'><div class = 'column'><img src = 'uspos/2208.bmp' width = '100%;'></div><div class = 'column'><img src = 'category2/CS7.png' width = '70%;'></div></div>","null","pos","CS","CS","2","category2/CS7.png","","","","",""
"","html-keyboard-response","67","390466","0.0-6.0-4.0-0.19","nbt2h46sx2","one_one","1","direct_first","1","er09en28","0","21","1","1","3","1","","0","1","0","null","","","<div class = 'row'><div class = 'column'><img src = 'category1/CS9.png' width = '70%;'></div><div class = 'column'><img src = 'usneg/9560.bmp' width = '100%;'></div></div>","null","neg","CS","CS","1","category1/CS9.png","","","","",""
"","survey-html-form","68","392899","0.0-6.0-5.0","nbt2h46sx2","one_one","1","direct_first","1","er09en28","0","21","1","1","3","1","","0","1","0","1925.2100000157952","","{}","","","","","","","","","","","",""
"","html-keyboard-response","69","396933","0.0-6.0-6.0-0.0","nbt2h46sx2","one_one","1","direct_first","1","er09en28","0","21","1","1","3","1","","0","1","0","null","","","<div class = 'row'><div class = 'column'><img src = 'category4/CS10.png' width = '70%;'></div><div class = 'column'><img src = 'usneg/9041.bmp' width = '100%;'></div></div>","null","neg","CS","CS","4","category4/CS10.png","","","","",""
"","html-keyboard-response","70","399437","0.0-6.0-6.0-0.1","nbt2h46sx2","one_one","1","direct_first","1","er09en28","0","21","1","1","3","1","","0","1","0","null","","","<div class = 'row'><div class = 'column'><img src = 'usneg/9560.bmp' width = '100%;'></div><div class = 'column'><img src = 'category1/CS9.png' width = '70%;'></div></div>","null","neg","CS","CS","1","category1/CS9.png","","","","",""
"","html-keyboard-response","71","401953","0.0-6.0-6.0-0.2","nbt2h46sx2","one_one","1","direct_first","1","er09en28","0","21","1","1","3","1","","0","1","0","null","","","<div class = 'row'><div class = 'column'><img src = 'category3/CS6.png' width = '70%;'></div><div class = 'column'><img src = 'uspos/2550.bmp' width = '100%;'></div></div>","null","pos","CS","CS","3","category3/CS6.png","","","","",""
"","html-keyboard-response","72","404466","0.0-6.0-6.0-0.3","nbt2h46sx2","one_one","1","direct_first","1","er09en28","0","21","1","1","3","1","","0","1","0","null","","","<div class = 'row'><div class = 'column'><img src = 'uspos/2208.bmp' width = '100%;'></div><div class = 'column'><img src = 'category2/CS7.png' width = '70%;'></div></div>","null","pos","CS","CS","2","category2/CS7.png","","","","",""
"","html-keyboard-response","73","406978","0.0-6.0-6.0-0.4","nbt2h46sx2","one_one","1","direct_first","1","er09en28","0","21","1","1","3","1","","0","1","0","null","","","<div class = 'row'><div class = 'column'><img src = 'uspos/2550.bmp' width = '100%;'></div><div class = 'column'><img src = 'category3/CS6.png' width = '70%;'></div></div>","null","pos","CS","CS","3","category3/CS6.png","","","","",""
"","html-keyboard-response","74","409490","0.0-6.0-6.0-0.5","nbt2h46sx2","one_one","1","direct_first","1","er09en28","0","21","1","1","3","1","","0","1","0","null","","","<div class = 'row'><div class = 'column'><img src = 'category4/CS10.png' width = '70%;'></div><div class = 'column'><img src = 'usneg/9041.bmp' width = '100%;'></div></div>","null","neg","CS","CS","4","category4/CS10.png","","","","",""
"","html-keyboard-response","75","411999","0.0-6.0-6.0-0.6","nbt2h46sx2","one_one","1","direct_first","1","er09en28","0","21","1","1","3","1","","0","1","0","null","","","<div class = 'row'><div class = 'column'><img src = 'category2/CS7.png' width = '70%;'></div><div class = 'column'><img src = 'uspos/2208.bmp' width = '100%;'></div></div>","null","pos","CS","CS","2","category2/CS7.png","","","","",""
"","html-keyboard-response","76","414516","0.0-6.0-6.0-0.7","nbt2h46sx2","one_one","1","direct_first","1","er09en28","0","21","1","1","3","1","","0","1","0","null","","","<div class = 'row'><div class = 'column'><img src = 'uspos/2550.bmp' width = '100%;'></div><div class = 'column'><img src = 'category3/CS6.png' width = '70%;'></div></div>","null","pos","CS","CS","3","category3/CS6.png","","","","",""
"","html-keyboard-response","77","417033","0.0-6.0-6.0-0.8","nbt2h46sx2","one_one","1","direct_first","1","er09en28","0","21","1","1","3","1","","0","1","0","null","","","<div class = 'row'><div class = 'column'><img src = 'category4/CS10.png' width = '70%;'></div><div class = 'column'><img src = 'usneg/9041.bmp' width = '100%;'></div></div>","null","neg","CS","CS","4","category4/CS10.png","","","","",""
"","html-keyboard-response","78","419540","0.0-6.0-6.0-0.9","nbt2h46sx2","one_one","1","direct_first","1","er09en28","0","21","1","1","3","1","","0","1","0","null","","","<div class = 'row'><div class = 'column'><img src = 'usneg/9560.bmp' width = '100%;'></div><div class = 'column'><img src = 'category1/CS9.png' width = '70%;'></div></div>","null","neg","CS","CS","1","category1/CS9.png","","","","",""
"","html-keyboard-response","79","422046","0.0-6.0-6.0-0.10","nbt2h46sx2","one_one","1","direct_first","1","er09en28","0","21","1","1","3","1","","0","1","0","null","","","<div class = 'row'><div class = 'column'><img src = 'uspos/2550.bmp' width = '100%;'></div><div class = 'column'><img src = 'category3/CS6.png' width = '70%;'></div></div>","null","pos","CS","CS","3","category3/CS6.png","","","","",""
"","html-keyboard-response","80","424559","0.0-6.0-6.0-0.11","nbt2h46sx2","one_one","1","direct_first","1","er09en28","0","21","1","1","3","1","","0","1","0","null","","","<div class = 'row'><div class = 'column'><img src = 'usneg/9560.bmp' width = '100%;'></div><div class = 'column'><img src = 'category1/CS9.png' width = '70%;'></div></div>","null","neg","CS","CS","1","category1/CS9.png","","","","",""
"","html-keyboard-response","81","427076","0.0-6.0-6.0-0.12","nbt2h46sx2","one_one","1","direct_first","1","er09en28","0","21","1","1","3","1","","0","1","0","null","","","<div class = 'row'><div class = 'column'><img src = 'uspos/2208.bmp' width = '100%;'></div><div class = 'column'><img src = 'category2/CS7.png' width = '70%;'></div></div>","null","pos","CS","CS","2","category2/CS7.png","","","","",""
"","html-keyboard-response","82","429592","0.0-6.0-6.0-0.13","nbt2h46sx2","one_one","1","direct_first","1","er09en28","0","21","1","1","3","1","","0","1","0","null","","","<div class = 'row'><div class = 'column'><img src = 'category1/CS9.png' width = '70%;'></div><div class = 'column'><img src = 'usneg/9560.bmp' width = '100%;'></div></div>","null","neg","CS","CS","1","category1/CS9.png","","","","",""
"","html-keyboard-response","83","432100","0.0-6.0-6.0-0.14","nbt2h46sx2","one_one","1","direct_first","1","er09en28","0","21","1","1","3","1","","0","1","0","null","","","<div class = 'row'><div class = 'column'><img src = 'category4/CS10.png' width = '70%;'></div><div class = 'column'><img src = 'usneg/9041.bmp' width = '100%;'></div></div>","null","neg","CS","CS","4","category4/CS10.png","","","","",""
"","html-keyboard-response","84","434612","0.0-6.0-6.0-0.15","nbt2h46sx2","one_one","1","direct_first","1","er09en28","0","21","1","1","3","1","","0","1","0","null","","","<div class = 'row'><div class = 'column'><img src = 'usneg/9560.bmp' width = '100%;'></div><div class = 'column'><img src = 'category1/CS9.png' width = '70%;'></div></div>","null","neg","CS","CS","1","category1/CS9.png","","","","",""
"","html-keyboard-response","85","437124","0.0-6.0-6.0-0.16","nbt2h46sx2","one_one","1","direct_first","1","er09en28","0","21","1","1","3","1","","0","1","0","null","","","<div class = 'row'><div class = 'column'><img src = 'uspos/2208.bmp' width = '100%;'></div><div class = 'column'><img src = 'category2/CS7.png' width = '70%;'></div></div>","null","pos","CS","CS","2","category2/CS7.png","","","","",""
"","html-keyboard-response","86","439641","0.0-6.0-6.0-0.17","nbt2h46sx2","one_one","1","direct_first","1","er09en28","0","21","1","1","3","1","","0","1","0","null","","","<div class = 'row'><div class = 'column'><img src = 'uspos/2550.bmp' width = '100%;'></div><div class = 'column'><img src = 'category3/CS6.png' width = '70%;'></div></div>","null","pos","CS","CS","3","category3/CS6.png","","","","",""
"","html-keyboard-response","87","442158","0.0-6.0-6.0-0.18","nbt2h46sx2","one_one","1","direct_first","1","er09en28","0","21","1","1","3","1","","0","1","0","null","","","<div class = 'row'><div class = 'column'><img src = 'usneg/9041.bmp' width = '100%;'></div><div class = 'column'><img src = 'category4/CS10.png' width = '70%;'></div></div>","null","neg","CS","CS","4","category4/CS10.png","","","","",""
"","html-keyboard-response","88","444668","0.0-6.0-6.0-0.19","nbt2h46sx2","one_one","1","direct_first","1","er09en28","0","21","1","1","3","1","","0","1","0","null","","","<div class = 'row'><div class = 'column'><img src = 'category2/CS7.png' width = '70%;'></div><div class = 'column'><img src = 'uspos/2208.bmp' width = '100%;'></div></div>","null","pos","CS","CS","2","category2/CS7.png","","","","",""
"","survey-html-form","89","454983","0.0-7.0","nbt2h46sx2","one_one","1","direct_first","1","er09en28","0","21","1","1","3","1","","0","1","0","9811.010000063106","","{}","","","","","","","","","","","",""
"","image-slider-response","90","471042","0.0-8.0-0.0","nbt2h46sx2","one_one","1","direct_first","1","er09en28","0","21","1","1","3","1","","0","1","0","13905.62500001397","","","","","pos","GS","GSold","3","category3/CS3.png","76","targets/4.png","direct","",""
"","image-slider-response","91","478803","0.0-8.0-0.1","nbt2h46sx2","one_one","1","direct_first","1","er09en28","0","21","1","1","3","1","","0","1","0","7758.329999982379","","","","","pos","GS","GSold","3","category3/CS4.png","79","targets/25.png","direct","",""
"","image-slider-response","92","485301","0.0-8.0-0.2","nbt2h46sx2","one_one","1","direct_first","1","er09en28","0","21","1","1","3","1","","0","1","0","6494.880000012927","","","","","neg","GS","GSold","1","category1/CS6.png","-35","targets/47.png","direct","",""
"","image-slider-response","93","491270","0.0-8.0-0.3","nbt2h46sx2","one_one","1","direct_first","1","er09en28","0","21","1","1","3","1","","0","1","0","5970.179999945685","","","","","pos","GS","GSnew","2","category2/GS3.png","50","targets/9.png","direct","",""
"","image-slider-response","94","494748","0.0-8.0-0.4","nbt2h46sx2","one_one","1","direct_first","1","er09en28","0","21","1","1","3","1","","0","1","0","3475.2400000579655","","","","","neg","GS","abstract","4","category4/lin.png","80","targets/20.png","direct","",""
"","image-slider-response","95","497098","0.0-8.0-0.5","nbt2h46sx2","one_one","1","direct_first","1","er09en28","0","21","1","1","3","1","","0","1","0","2347.0249999081716","","","","","pos","GS","GSold","2","category2/CS8.png","67","targets/26.png","direct","",""
"","image-slider-response","96","500088","0.0-8.0-0.6","nbt2h46sx2","one_one","1","direct_first","1","er09en28","0","21","1","1","3","1","","0","1","0","2987.3399999924004","","","","","neg","GS","GSold","4","category4/CS5.png","-40","targets/7.png","direct","",""
"","image-slider-response","97","502782","0.0-8.0-0.7","nbt2h46sx2","one_one","1","direct_first","1","er09en28","0","21","1","1","3","1","","0","1","0","2691.1049999762326","","","","","neg","GS","GSnew","1","category1/GS3.png","92","targets/39.png","direct","",""
"","image-slider-response","98","505208","0.0-8.0-0.8","nbt2h46sx2","one_one","1","direct_first","1","er09en28","0","21","1","1","3","1","","0","1","0","2423.0749999405816","","","","","neg","GS","GSnew","4","category4/GS2.png","90","targets/18.png","direct","",""
"","image-slider-response","99","512124","0.0-8.0-0.9","nbt2h46sx2","one_one","1","direct_first","1","er09en28","0","21","1","1","3","1","","0","1","0","6913.734999950975","","","","","pos","CS","CS","3","category3/CS6.png","46","targets/38.png","direct","",""
"","image-slider-response","100","515684","0.0-8.0-0.10","nbt2h46sx2","one_one","1","direct_first","1","er09en28","0","21","1","1","3","1","","0","1","0","3557.035000063479","","","","","neg","GS","GSnew","1","category1/GS1.png","-78","targets/34.png","direct","",""
"","image-slider-response","101","517780","0.0-8.0-0.11","nbt2h46sx2","one_one","1","direct_first","1","er09en28","0","21","1","1","3","1","","0","1","0","2091.969999950379","","","","","neg","GS","GSnew","1","category1/GS2.png","-17","targets/40.png","direct","",""
"","image-slider-response","102","521068","0.0-8.0-0.12","nbt2h46sx2","one_one","1","direct_first","1","er09en28","0","21","1","1","3","1","","0","1","0","3285.7549999607727","","","","","pos","GS","GSnew","2","category2/GS1.png","-84","targets/28.png","direct","",""
"","image-slider-response","103","525194","0.0-8.0-0.13","nbt2h46sx2","one_one","1","direct_first","1","er09en28","0","21","1","1","3","1","","0","1","0","4123.9000000059605","","","","","pos","GS","abstract","2","category2/men.png","-84","targets/16.png","direct","",""
"","image-slider-response","104","527322","0.0-8.0-0.14","nbt2h46sx2","one_one","1","direct_first","1","er09en28","0","21","1","1","3","1","","0","1","0","2124.9799999641255","","","","","pos","GS","GSnew","2","category2/GS2.png","-61","targets/27.png","direct","",""
"","image-slider-response","105","532300","0.0-8.0-0.15","nbt2h46sx2","one_one","1","direct_first","1","er09en28","0","21","1","1","3","1","","0","1","0","4975.340000004508","","","","","pos","CS","CS","2","category2/CS7.png","-93","targets/10.png","direct","",""
"","image-slider-response","106","535488","0.0-8.0-0.16","nbt2h46sx2","one_one","1","direct_first","1","er09en28","0","21","1","1","3","1","","0","1","0","3185.2700000163168","","","","","neg","GS","GSold","4","category4/CS1.png","93","targets/21.png","direct","",""
"","image-slider-response","107","537904","0.0-8.0-0.17","nbt2h46sx2","one_one","1","direct_first","1","er09en28","0","21","1","1","3","1","","0","1","0","2413.234999985434","","","","","neg","GS","abstract","1","category1/ma.png","-62","targets/45.png","direct","",""
"","image-slider-response","108","541142","0.0-8.0-0.18","nbt2h46sx2","one_one","1","direct_first","1","er09en28","0","21","1","1","3","1","","0","1","0","3235.98499991931","","","","","neg","GS","GSnew","4","category4/GS1.png","22","targets/15.png","direct","",""
"","image-slider-response","109","543756","0.0-8.0-0.19","nbt2h46sx2","one_one","1","direct_first","1","er09en28","0","21","1","1","3","1","","0","1","0","2610.9000000869855","","","","","pos","GS","GSnew","3","category3/GS2.png","91","targets/44.png","direct","",""
"","image-slider-response","110","546320","0.0-8.0-0.20","nbt2h46sx2","one_one","1","direct_first","1","er09en28","0","21","1","1","3","1","","0","1","0","2560.9950000653043","","","","","neg","GS","GSold","1","category1/CS4.png","-70","targets/29.png","direct","",""
"","image-slider-response","111","548398","0.0-8.0-0.21","nbt2h46sx2","one_one","1","direct_first","1","er09en28","0","21","1","1","3","1","","0","1","0","2075.139999971725","","","","","pos","GS","GSold","2","category2/CS10.png","67","targets/11.png","direct","",""
"","image-slider-response","112","550216","0.0-8.0-0.22","nbt2h46sx2","one_one","1","direct_first","1","er09en28","0","21","1","1","3","1","","0","1","0","1817.9650000529364","","","","","neg","GS","GSold","1","category1/CS8.png","-60","targets/23.png","direct","",""
"","image-slider-response","113","553302","0.0-8.0-0.23","nbt2h46sx2","one_one","1","direct_first","1","er09en28","0","21","1","1","3","1","","0","1","0","3083.6750000016764","","","","","neg","CS","CS","1","category1/CS9.png","13","targets/30.png","direct","",""
"","image-slider-response","114","555260","0.0-8.0-0.24","nbt2h46sx2","one_one","1","direct_first","1","er09en28","0","21","1","1","3","1","","0","1","0","1954.8300000606105","","","","","neg","CS","CS","4","category4/CS10.png","29","targets/31.png","direct","",""
"","image-slider-response","115","556912","0.0-8.0-0.25","nbt2h46sx2","one_one","1","direct_first","1","er09en28","0","21","1","1","3","1","","0","1","0","1649.7850000159815","","","","","pos","GS","GSold","3","category3/CS2.png","33","targets/14.png","direct","",""
"","image-slider-response","116","560072","0.0-8.0-0.26","nbt2h46sx2","one_one","1","direct_first","1","er09en28","0","21","1","1","3","1","","0","1","0","3157.909999950789","","","","","pos","GS","GSnew","3","category3/GS3.png","32","targets/42.png","direct","",""
"","image-slider-response","117","563128","0.0-8.0-0.27","nbt2h46sx2","one_one","1","direct_first","1","er09en28","0","21","1","1","3","1","","0","1","0","3053.390000015497","","","","","neg","GS","GSnew","4","category4/GS3.png","-68","targets/2.png","direct","",""
"","image-slider-response","118","565338","0.0-8.0-0.28","nbt2h46sx2","one_one","1","direct_first","1","er09en28","0","21","1","1","3","1","","0","1","0","2207.4150000698864","","","","","pos","GS","GSold","2","category2/CS1.png","60","targets/6.png","direct","",""
"","image-slider-response","119","567466","0.0-8.0-0.29","nbt2h46sx2","one_one","1","direct_first","1","er09en28","0","21","1","1","3","1","","0","1","0","2125.3249999135733","","","","","pos","GS","GSnew","3","category3/GS1.png","-80","targets/1.png","direct","",""
"","image-slider-response","120","569620","0.0-8.0-0.30","nbt2h46sx2","one_one","1","direct_first","1","er09en28","0","21","1","1","3","1","","0","1","0","2152.200000011362","","","","","neg","GS","GSold","4","category4/CS4.png","-33","targets/13.png","direct","",""
"","image-slider-response","121","571632","0.0-8.0-0.31","nbt2h46sx2","one_one","1","direct_first","1","er09en28","0","21","1","1","3","1","","0","1","0","2010.4000000283122","","","","","pos","GS","abstract","3","category3/wang.png","-68","targets/24.png","direct","",""
"","html-keyboard-response","122","607224","0.0-9.0","nbt2h46sx2","one_one","1","direct_first","1","er09en28","0","21","1","1","3","1","","0","1","0","35590.92500002589","","","<p>Sie sehen nun die chinesischen Zeichen nur ganz kurz. Danach sehen Sie die jeweilige Aussprache der Zeichen als Silbe auf dem Bildschrim. Ihre Aufgabe ist es, für jede Silbe anzugeben, ob diese etwas angenehmes, oder unangenehmes bedeuten könnte. Verlassen Sie sich hier vor allem auf Ihre Intuition.<br><br>Die Zeichen werden nur zur Orientierung dargestellt, beachten Sie sie deshalb nicht. Konzentrieren Sie sich vor allem auf die Silben. <br>Reagieren Sie mit folgenden zwei Tasten: <br><br><b>'D' </b> wenn die Silbe etwas <b>unangenehmes</b> bedeuten könnte. <br><b>'K'</b> wenn die Silbe etwas <b>angenehmes</b> bedeuten könnte. <br><br>Bitte legen Sie nun den Zeigefinger der linken Hand auf die Taste 'D' und den Zeigefinger der rechten Hand auf die Taste 'K'. <br>Reagieren Sie auf jede Silbe so schnell wie möglich. Uns interessiert Ihre spontane Reaktion. <br> <br> <br>Drücken Sie 'D' oder 'K', um die nächste Aufgabe zu starten. </p>","75","","","","","","","","","",""
"","html-keyboard-response","123","610238","0.0-10.0-0.0","nbt2h46sx2","one_one","1","direct_first","1","er09en28","0","21","1","1","3","1","","0","1","0","null","","","<div style=""font-size:60px;"">+</div>","null","","","","","","","","","",""
"","html-keyboard-response","124","610334","0.0-10.0-1.0","nbt2h46sx2","one_one","1","direct_first","1","er09en28","0","21","1","1","3","1","","0","1","0","null","","","<img src = 'category2/CS8.png' width = '100%;'>","null","","","","","","","","","",""
"","html-keyboard-response","125","610594","0.0-10.0-2.0","nbt2h46sx2","one_one","1","direct_first","1","er09en28","0","21","1","1","3","1","","0","1","0","null","","","<img src = 'targets/26.png' width = '100%;'>","null","","","","","","","","","",""
"","html-keyboard-response","126","614995","0.0-10.0-3.0","nbt2h46sx2","one_one","1","direct_first","1","er09en28","0","21","1","1","3","1","","0","1","0","4400.724999955855","","","<img src = 'targets/mask.png' width = '100%;'>","75","pos","GS","GSold","2","category2/CS8.png","","targets/26.png","indirect","1","0"
"","html-keyboard-response","127","616505","0.0-10.0-0.1","nbt2h46sx2","one_one","1","direct_first","1","er09en28","0","21","1","1","3","1","","0","1","0","null","","","<div style=""font-size:60px;"">+</div>","null","","","","","","","","","",""
"","html-keyboard-response","128","616602","0.0-10.0-1.1","nbt2h46sx2","one_one","1","direct_first","1","er09en28","0","21","1","1","3","1","","0","1","0","null","","","<img src = 'category3/CS3.png' width = '100%;'>","null","","","","","","","","","",""
"","html-keyboard-response","129","616861","0.0-10.0-2.1","nbt2h46sx2","one_one","1","direct_first","1","er09en28","0","21","1","1","3","1","","0","1","0","null","","","<img src = 'targets/4.png' width = '100%;'>","null","","","","","","","","","",""
"","html-keyboard-response","130","618748","0.0-10.0-3.1","nbt2h46sx2","one_one","1","direct_first","1","er09en28","0","21","1","1","3","1","","0","1","0","1885.6150000356138","","","<img src = 'targets/mask.png' width = '100%;'>","75","pos","GS","GSold","3","category3/CS3.png","","targets/4.png","indirect","1","1"
"","html-keyboard-response","131","620255","0.0-10.0-0.2","nbt2h46sx2","one_one","1","direct_first","1","er09en28","0","21","1","1","3","1","","0","1","0","null","","","<div style=""font-size:60px;"">+</div>","null","","","","","","","","","",""
"","html-keyboard-response","132","620352","0.0-10.0-1.2","nbt2h46sx2","one_one","1","direct_first","1","er09en28","0","21","1","1","3","1","","0","1","0","null","","","<img src = 'category2/CS1.png' width = '100%;'>","null","","","","","","","","","",""
"","html-keyboard-response","133","620612","0.0-10.0-2.2","nbt2h46sx2","one_one","1","direct_first","1","er09en28","0","21","1","1","3","1","","0","1","0","null","","","<img src = 'targets/6.png' width = '100%;'>","null","","","","","","","","","",""
"","html-keyboard-response","134","624068","0.0-10.0-3.2","nbt2h46sx2","one_one","1","direct_first","1","er09en28","0","21","1","1","3","1","","0","1","0","3455.0250000320375","","","<img src = 'targets/mask.png' width = '100%;'>","68","pos","GS","GSold","2","category2/CS1.png","","targets/6.png","indirect","0","2"
"","html-keyboard-response","135","625584","0.0-10.0-0.3","nbt2h46sx2","one_one","1","direct_first","1","er09en28","0","21","1","1","3","1","","0","1","0","null","","","<div style=""font-size:60px;"">+</div>","null","","","","","","","","","",""
"","html-keyboard-response","136","625681","0.0-10.0-1.3","nbt2h46sx2","one_one","1","direct_first","1","er09en28","0","21","1","1","3","1","","0","1","0","null","","","<img src = 'category1/CS8.png' width = '100%;'>","null","","","","","","","","","",""
"","html-keyboard-response","137","625940","0.0-10.0-2.3","nbt2h46sx2","one_one","1","direct_first","1","er09en28","0","21","1","1","3","1","","0","1","0","null","","","<img src = 'targets/23.png' width = '100%;'>","null","","","","","","","","","",""
"","html-keyboard-response","138","627853","0.0-10.0-3.3","nbt2h46sx2","one_one","1","direct_first","1","er09en28","0","21","1","1","3","1","","0","1","0","1911.104999948293","","","<img src = 'targets/mask.png' width = '100%;'>","68","neg","GS","GSold","1","category1/CS8.png","","targets/23.png","indirect","0","3"
"","html-keyboard-response","139","629375","0.0-10.0-0.4","nbt2h46sx2","one_one","1","direct_first","1","er09en28","0","21","1","1","3","1","","0","1","0","null","","","<div style=""font-size:60px;"">+</div>","null","","","","","","","","","",""
"","html-keyboard-response","140","629472","0.0-10.0-1.4","nbt2h46sx2","one_one","1","direct_first","1","er09en28","0","21","1","1","3","1","","0","1","0","null","","","<img src = 'category3/CS2.png' width = '100%;'>","null","","","","","","","","","",""
"","html-keyboard-response","141","629737","0.0-10.0-2.4","nbt2h46sx2","one_one","1","direct_first","1","er09en28","0","21","1","1","3","1","","0","1","0","null","","","<img src = 'targets/14.png' width = '100%;'>","null","","","","","","","","","",""
"","html-keyboard-response","142","631105","0.0-10.0-3.4","nbt2h46sx2","one_one","1","direct_first","1","er09en28","0","21","1","1","3","1","","0","1","0","1366.1850000498816","","","<img src = 'targets/mask.png' width = '100%;'>","68","pos","GS","GSold","3","category3/CS2.png","","targets/14.png","indirect","0","4"
"","html-keyboard-response","143","632619","0.0-10.0-0.5","nbt2h46sx2","one_one","1","direct_first","1","er09en28","0","21","1","1","3","1","","0","1","0","null","","","<div style=""font-size:60px;"">+</div>","null","","","","","","","","","",""
"","html-keyboard-response","144","632725","0.0-10.0-1.5","nbt2h46sx2","one_one","1","direct_first","1","er09en28","0","21","1","1","3","1","","0","1","0","null","","","<img src = 'category4/CS5.png' width = '100%;'>","null","","","","","","","","","",""
"","html-keyboard-response","145","632983","0.0-10.0-2.5","nbt2h46sx2","one_one","1","direct_first","1","er09en28","0","21","1","1","3","1","","0","1","0","null","","","<img src = 'targets/7.png' width = '100%;'>","null","","","","","","","","","",""
"","html-keyboard-response","146","634173","0.0-10.0-3.5","nbt2h46sx2","one_one","1","direct_first","1","er09en28","0","21","1","1","3","1","","0","1","0","1188.39999998454","","","<img src = 'targets/mask.png' width = '100%;'>","75","neg","GS","GSold","4","category4/CS5.png","","targets/7.png","indirect","1","5"
"","html-keyboard-response","147","635687","0.0-10.0-0.6","nbt2h46sx2","one_one","1","direct_first","1","er09en28","0","21","1","1","3","1","","0","1","0","null","","","<div style=""font-size:60px;"">+</div>","null","","","","","","","","","",""
"","html-keyboard-response","148","635784","0.0-10.0-1.6","nbt2h46sx2","one_one","1","direct_first","1","er09en28","0","21","1","1","3","1","","0","1","0","null","","","<img src = 'category1/CS4.png' width = '100%;'>","null","","","","","","","","","",""
"","html-keyboard-response","149","636044","0.0-10.0-2.6","nbt2h46sx2","one_one","1","direct_first","1","er09en28","0","21","1","1","3","1","","0","1","0","null","","","<img src = 'targets/29.png' width = '100%;'>","null","","","","","","","","","",""
"","html-keyboard-response","150","636927","0.0-10.0-3.6","nbt2h46sx2","one_one","1","direct_first","1","er09en28","0","21","1","1","3","1","","0","1","0","881.8899999605492","","","<img src = 'targets/mask.png' width = '100%;'>","75","neg","GS","GSold","1","category1/CS4.png","","targets/29.png","indirect","1","6"
"","html-keyboard-response","151","638438","0.0-10.0-0.7","nbt2h46sx2","one_one","1","direct_first","1","er09en28","0","21","1","1","3","1","","0","1","0","null","","","<div style=""font-size:60px;"">+</div>","null","","","","","","","","","",""
"","html-keyboard-response","152","638535","0.0-10.0-1.7","nbt2h46sx2","one_one","1","direct_first","1","er09en28","0","21","1","1","3","1","","0","1","0","null","","","<img src = 'category2/CS7.png' width = '100%;'>","null","","","","","","","","","",""
"","html-keyboard-response","153","638796","0.0-10.0-2.7","nbt2h46sx2","one_one","1","direct_first","1","er09en28","0","21","1","1","3","1","","0","1","0","null","","","<img src = 'targets/10.png' width = '100%;'>","null","","","","","","","","","",""
"","html-keyboard-response","154","639837","0.0-10.0-3.7","nbt2h46sx2","one_one","1","direct_first","1","er09en28","0","21","1","1","3","1","","0","1","0","1038.910000002943","","","<img src = 'targets/mask.png' width = '100%;'>","75","pos","CS","CS","2","category2/CS7.png","","targets/10.png","indirect","1","7"
"","html-keyboard-response","155","641358","0.0-10.0-0.8","nbt2h46sx2","one_one","1","direct_first","1","er09en28","0","21","1","1","3","1","","0","1","0","null","","","<div style=""font-size:60px;"">+</div>","null","","","","","","","","","",""
"","html-keyboard-response","156","641455","0.0-10.0-1.8","nbt2h46sx2","one_one","1","direct_first","1","er09en28","0","21","1","1","3","1","","0","1","0","null","","","<img src = 'category4/CS10.png' width = '100%;'>","null","","","","","","","","","",""
"","html-keyboard-response","157","641717","0.0-10.0-2.8","nbt2h46sx2","one_one","1","direct_first","1","er09en28","0","21","1","1","3","1","","0","1","0","null","","","<img src = 'targets/31.png' width = '100%;'>","null","","","","","","","","","",""
"","html-keyboard-response","158","642770","0.0-10.0-3.8","nbt2h46sx2","one_one","1","direct_first","1","er09en28","0","21","1","1","3","1","","0","1","0","1051.5199999790639","","","<img src = 'targets/mask.png' width = '100%;'>","75","neg","CS","CS","4","category4/CS10.png","","targets/31.png","indirect","1","8"
"","html-keyboard-response","159","644277","0.0-10.0-0.9","nbt2h46sx2","one_one","1","direct_first","1","er09en28","0","21","1","1","3","1","","0","1","0","null","","","<div style=""font-size:60px;"">+</div>","null","","","","","","","","","",""
"","html-keyboard-response","160","644374","0.0-10.0-1.9","nbt2h46sx2","one_one","1","direct_first","1","er09en28","0","21","1","1","3","1","","0","1","0","null","","","<img src = 'category1/CS6.png' width = '100%;'>","null","","","","","","","","","",""
"","html-keyboard-response","161","644633","0.0-10.0-2.9","nbt2h46sx2","one_one","1","direct_first","1","er09en28","0","21","1","1","3","1","","0","1","0","null","","","<img src = 'targets/47.png' width = '100%;'>","null","","","","","","","","","",""
"","html-keyboard-response","162","645905","0.0-10.0-3.9","nbt2h46sx2","one_one","1","direct_first","1","er09en28","0","21","1","1","3","1","","0","1","0","1271.5600000228733","","","<img src = 'targets/mask.png' width = '100%;'>","68","neg","GS","GSold","1","category1/CS6.png","","targets/47.png","indirect","0","9"
"","html-keyboard-response","163","647421","0.0-10.0-0.10","nbt2h46sx2","one_one","1","direct_first","1","er09en28","0","21","1","1","3","1","","0","1","0","null","","","<div style=""font-size:60px;"">+</div>","null","","","","","","","","","",""
"","html-keyboard-response","164","647518","0.0-10.0-1.10","nbt2h46sx2","one_one","1","direct_first","1","er09en28","0","21","1","1","3","1","","0","1","0","null","","","<img src = 'category4/CS4.png' width = '100%;'>","null","","","","","","","","","",""
"","html-keyboard-response","165","647776","0.0-10.0-2.10","nbt2h46sx2","one_one","1","direct_first","1","er09en28","0","21","1","1","3","1","","0","1","0","null","","","<img src = 'targets/13.png' width = '100%;'>","null","","","","","","","","","",""
"","html-keyboard-response","166","648580","0.0-10.0-3.10","nbt2h46sx2","one_one","1","direct_first","1","er09en28","0","21","1","1","3","1","","0","1","0","801.6150000039488","","","<img src = 'targets/mask.png' width = '100%;'>","75","neg","GS","GSold","4","category4/CS4.png","","targets/13.png","indirect","1","10"
"","html-keyboard-response","167","650091","0.0-10.0-0.11","nbt2h46sx2","one_one","1","direct_first","1","er09en28","0","21","1","1","3","1","","0","1","0","null","","","<div style=""font-size:60px;"">+</div>","null","","","","","","","","","",""
"","html-keyboard-response","168","650188","0.0-10.0-1.11","nbt2h46sx2","one_one","1","direct_first","1","er09en28","0","21","1","1","3","1","","0","1","0","null","","","<img src = 'category2/CS10.png' width = '100%;'>","null","","","","","","","","","",""
"","html-keyboard-response","169","650446","0.0-10.0-2.11","nbt2h46sx2","one_one","1","direct_first","1","er09en28","0","21","1","1","3","1","","0","1","0","null","","","<img src = 'targets/11.png' width = '100%;'>","null","","","","","","","","","",""
"","html-keyboard-response","170","651194","0.0-10.0-3.11","nbt2h46sx2","one_one","1","direct_first","1","er09en28","0","21","1","1","3","1","","0","1","0","746.8849999131635","","","<img src = 'targets/mask.png' width = '100%;'>","68","pos","GS","GSold","2","category2/CS10.png","","targets/11.png","indirect","0","11"
"","html-keyboard-response","171","652703","0.0-10.0-0.12","nbt2h46sx2","one_one","1","direct_first","1","er09en28","0","21","1","1","3","1","","0","1","0","null","","","<div style=""font-size:60px;"">+</div>","null","","","","","","","","","",""
"","html-keyboard-response","172","652800","0.0-10.0-1.12","nbt2h46sx2","one_one","1","direct_first","1","er09en28","0","21","1","1","3","1","","0","1","0","null","","","<img src = 'category1/CS9.png' width = '100%;'>","null","","","","","","","","","",""
"","html-keyboard-response","173","653057","0.0-10.0-2.12","nbt2h46sx2","one_one","1","direct_first","1","er09en28","0","21","1","1","3","1","","0","1","0","null","","","<img src = 'targets/30.png' width = '100%;'>","null","","","","","","","","","",""
"","html-keyboard-response","174","653672","0.0-10.0-3.12","nbt2h46sx2","one_one","1","direct_first","1","er09en28","0","21","1","1","3","1","","0","1","0","613.565000006929","","","<img src = 'targets/mask.png' width = '100%;'>","75","neg","CS","CS","1","category1/CS9.png","","targets/30.png","indirect","1","12"
"","html-keyboard-response","175","655190","0.0-10.0-0.13","nbt2h46sx2","one_one","1","direct_first","1","er09en28","0","21","1","1","3","1","","0","1","0","null","","","<div style=""font-size:60px;"">+</div>","null","","","","","","","","","",""
"","html-keyboard-response","176","655295","0.0-10.0-1.13","nbt2h46sx2","one_one","1","direct_first","1","er09en28","0","21","1","1","3","1","","0","1","0","null","","","<img src = 'category3/CS4.png' width = '100%;'>","null","","","","","","","","","",""
"","html-keyboard-response","177","655554","0.0-10.0-2.13","nbt2h46sx2","one_one","1","direct_first","1","er09en28","0","21","1","1","3","1","","0","1","0","null","","","<img src = 'targets/25.png' width = '100%;'>","null","","","","","","","","","",""
"","html-keyboard-response","178","656159","0.0-10.0-3.13","nbt2h46sx2","one_one","1","direct_first","1","er09en28","0","21","1","1","3","1","","0","1","0","603.1400000210851","","","<img src = 'targets/mask.png' width = '100%;'>","75","pos","GS","GSold","3","category3/CS4.png","","targets/25.png","indirect","1","13"
"","html-keyboard-response","179","657676","0.0-10.0-0.14","nbt2h46sx2","one_one","1","direct_first","1","er09en28","0","21","1","1","3","1","","0","1","0","null","","","<div style=""font-size:60px;"">+</div>","null","","","","","","","","","",""
"","html-keyboard-response","180","657772","0.0-10.0-1.14","nbt2h46sx2","one_one","1","direct_first","1","er09en28","0","21","1","1","3","1","","0","1","0","null","","","<img src = 'category3/CS6.png' width = '100%;'>","null","","","","","","","","","",""
"","html-keyboard-response","181","658034","0.0-10.0-2.14","nbt2h46sx2","one_one","1","direct_first","1","er09en28","0","21","1","1","3","1","","0","1","0","null","","","<img src = 'targets/38.png' width = '100%;'>","null","","","","","","","","","",""
"","html-keyboard-response","182","658718","0.0-10.0-3.14","nbt2h46sx2","one_one","1","direct_first","1","er09en28","0","21","1","1","3","1","","0","1","0","683.1800000509247","","","<img src = 'targets/mask.png' width = '100%;'>","68","pos","CS","CS","3","category3/CS6.png","","targets/38.png","indirect","0","14"
"","html-keyboard-response","183","660231","0.0-10.0-0.15","nbt2h46sx2","one_one","1","direct_first","1","er09en28","0","21","1","1","3","1","","0","1","0","null","","","<div style=""font-size:60px;"">+</div>","null","","","","","","","","","",""
"","html-keyboard-response","184","660336","0.0-10.0-1.15","nbt2h46sx2","one_one","1","direct_first","1","er09en28","0","21","1","1","3","1","","0","1","0","null","","","<img src = 'category4/CS1.png' width = '100%;'>","null","","","","","","","","","",""
"","html-keyboard-response","185","660594","0.0-10.0-2.15","nbt2h46sx2","one_one","1","direct_first","1","er09en28","0","21","1","1","3","1","","0","1","0","null","","","<img src = 'targets/21.png' width = '100%;'>","null","","","","","","","","","",""
"","html-keyboard-response","186","661463","0.0-10.0-3.15","nbt2h46sx2","one_one","1","direct_first","1","er09en28","0","21","1","1","3","1","","0","1","0","868.640000000596","","","<img src = 'targets/mask.png' width = '100%;'>","75","neg","GS","GSold","4","category4/CS1.png","","targets/21.png","indirect","1","15"
"","survey-html-form","187","664115","0.0-11.0","nbt2h46sx2","one_one","1","direct_first","1","er09en28","0","21","1","1","3","1","","0","1","0","2148.7600000109524","","{}","","","","","","","","","","","",""
"","html-keyboard-response","188","667124","0.0-12.0-0.0","nbt2h46sx2","one_one","1","direct_first","1","er09en28","0","21","1","1","3","1","","0","1","0","null","","","<div style=""font-size:60px;"">+</div>","null","","","","","","","","","",""
"","html-keyboard-response","189","667221","0.0-12.0-1.0","nbt2h46sx2","one_one","1","direct_first","1","er09en28","0","21","1","1","3","1","","0","1","0","null","","","<img src = 'category4/lin.png' width = '100%;'>","null","","","","","","","","","",""
"","html-keyboard-response","190","667487","0.0-12.0-2.0","nbt2h46sx2","one_one","1","direct_first","1","er09en28","0","21","1","1","3","1","","0","1","0","null","","","<img src = 'targets/20.png' width = '100%;'>","null","","","","","","","","","",""
"","html-keyboard-response","191","668320","0.0-12.0-3.0","nbt2h46sx2","one_one","1","direct_first","1","er09en28","0","21","1","1","3","1","","0","1","0","831.3100000377744","","","<img src = 'targets/mask.png' width = '100%;'>","75","neg","GS","abstract","4","category4/lin.png","","targets/20.png","indirect","1","16"
"","html-keyboard-response","192","669824","0.0-12.0-0.1","nbt2h46sx2","one_one","1","direct_first","1","er09en28","0","21","1","1","3","1","","0","1","0","null","","","<div style=""font-size:60px;"">+</div>","null","","","","","","","","","",""
"","html-keyboard-response","193","669920","0.0-12.0-1.1","nbt2h46sx2","one_one","1","direct_first","1","er09en28","0","21","1","1","3","1","","0","1","0","null","","","<img src = 'category2/GS2.png' width = '100%;'>","null","","","","","","","","","",""
"","html-keyboard-response","194","670179","0.0-12.0-2.1","nbt2h46sx2","one_one","1","direct_first","1","er09en28","0","21","1","1","3","1","","0","1","0","null","","","<img src = 'targets/27.png' width = '100%;'>","null","","","","","","","","","",""
"","html-keyboard-response","195","670615","0.0-12.0-3.1","nbt2h46sx2","one_one","1","direct_first","1","er09en28","0","21","1","1","3","1","","0","1","0","436.8450000183657","","","<img src = 'targets/mask.png' width = '100%;'>","75","pos","GS","GSnew","2","category2/GS2.png","","targets/27.png","indirect","1","17"
"","html-keyboard-response","196","672128","0.0-12.0-0.2","nbt2h46sx2","one_one","1","direct_first","1","er09en28","0","21","1","1","3","1","","0","1","0","null","","","<div style=""font-size:60px;"">+</div>","null","","","","","","","","","",""
"","html-keyboard-response","197","672225","0.0-12.0-1.2","nbt2h46sx2","one_one","1","direct_first","1","er09en28","0","21","1","1","3","1","","0","1","0","null","","","<img src = 'category1/GS1.png' width = '100%;'>","null","","","","","","","","","",""
"","html-keyboard-response","198","672483","0.0-12.0-2.2","nbt2h46sx2","one_one","1","direct_first","1","er09en28","0","21","1","1","3","1","","0","1","0","null","","","<img src = 'targets/34.png' width = '100%;'>","null","","","","","","","","","",""
"","html-keyboard-response","199","672913","0.0-12.0-3.2","nbt2h46sx2","one_one","1","direct_first","1","er09en28","0","21","1","1","3","1","","0","1","0","428.3800000557676","","","<img src = 'targets/mask.png' width = '100%;'>","75","neg","GS","GSnew","1","category1/GS1.png","","targets/34.png","indirect","1","18"
"","html-keyboard-response","200","674422","0.0-12.0-0.3","nbt2h46sx2","one_one","1","direct_first","1","er09en28","0","21","1","1","3","1","","0","1","0","null","","","<div style=""font-size:60px;"">+</div>","null","","","","","","","","","",""
"","html-keyboard-response","201","674514","0.0-12.0-1.3","nbt2h46sx2","one_one","1","direct_first","1","er09en28","0","21","1","1","3","1","","0","1","0","null","","","<img src = 'category4/GS3.png' width = '100%;'>","null","","","","","","","","","",""
"","html-keyboard-response","202","674775","0.0-12.0-2.3","nbt2h46sx2","one_one","1","direct_first","1","er09en28","0","21","1","1","3","1","","0","1","0","null","","","<img src = 'targets/2.png' width = '100%;'>","null","","","","","","","","","",""
"","html-keyboard-response","203","675757","0.0-12.0-3.3","nbt2h46sx2","one_one","1","direct_first","1","er09en28","0","21","1","1","3","1","","0","1","0","979.1149999946356","","","<img src = 'targets/mask.png' width = '100%;'>","75","neg","GS","GSnew","4","category4/GS3.png","","targets/2.png","indirect","1","19"
"","html-keyboard-response","204","677271","0.0-12.0-0.4","nbt2h46sx2","one_one","1","direct_first","1","er09en28","0","21","1","1","3","1","","0","1","0","null","","","<div style=""font-size:60px;"">+</div>","null","","","","","","","","","",""
"","html-keyboard-response","205","677368","0.0-12.0-1.4","nbt2h46sx2","one_one","1","direct_first","1","er09en28","0","21","1","1","3","1","","0","1","0","null","","","<img src = 'category3/GS3.png' width = '100%;'>","null","","","","","","","","","",""
"","html-keyboard-response","206","677628","0.0-12.0-2.4","nbt2h46sx2","one_one","1","direct_first","1","er09en28","0","21","1","1","3","1","","0","1","0","null","","","<img src = 'targets/42.png' width = '100%;'>","null","","","","","","","","","",""
"","html-keyboard-response","207","678028","0.0-12.0-3.4","nbt2h46sx2","one_one","1","direct_first","1","er09en28","0","21","1","1","3","1","","0","1","0","399.2550000548363","","","<img src = 'targets/mask.png' width = '100%;'>","68","pos","GS","GSnew","3","category3/GS3.png","","targets/42.png","indirect","0","20"
"","html-keyboard-response","208","679541","0.0-12.0-0.5","nbt2h46sx2","one_one","1","direct_first","1","er09en28","0","21","1","1","3","1","","0","1","0","null","","","<div style=""font-size:60px;"">+</div>","null","","","","","","","","","",""
"","html-keyboard-response","209","679639","0.0-12.0-1.5","nbt2h46sx2","one_one","1","direct_first","1","er09en28","0","21","1","1","3","1","","0","1","0","null","","","<img src = 'category1/GS2.png' width = '100%;'>","null","","","","","","","","","",""
"","html-keyboard-response","210","679897","0.0-12.0-2.5","nbt2h46sx2","one_one","1","direct_first","1","er09en28","0","21","1","1","3","1","","0","1","0","null","","","<img src = 'targets/40.png' width = '100%;'>","null","","","","","","","","","",""
"","html-keyboard-response","211","680571","0.0-12.0-3.5","nbt2h46sx2","one_one","1","direct_first","1","er09en28","0","21","1","1","3","1","","0","1","0","672.3050000146031","","","<img src = 'targets/mask.png' width = '100%;'>","68","neg","GS","GSnew","1","category1/GS2.png","","targets/40.png","indirect","0","21"
"","html-keyboard-response","212","682083","0.0-12.0-0.6","nbt2h46sx2","one_one","1","direct_first","1","er09en28","0","21","1","1","3","1","","0","1","0","null","","","<div style=""font-size:60px;"">+</div>","null","","","","","","","","","",""
"","html-keyboard-response","213","682179","0.0-12.0-1.6","nbt2h46sx2","one_one","1","direct_first","1","er09en28","0","21","1","1","3","1","","0","1","0","null","","","<img src = 'category2/GS1.png' width = '100%;'>","null","","","","","","","","","",""
"","html-keyboard-response","214","682437","0.0-12.0-2.6","nbt2h46sx2","one_one","1","direct_first","1","er09en28","0","21","1","1","3","1","","0","1","0","null","","","<img src = 'targets/28.png' width = '100%;'>","null","","","","","","","","","",""
"","html-keyboard-response","215","682973","0.0-12.0-3.6","nbt2h46sx2","one_one","1","direct_first","1","er09en28","0","21","1","1","3","1","","0","1","0","534.4799999147654","","","<img src = 'targets/mask.png' width = '100%;'>","75","pos","GS","GSnew","2","category2/GS1.png","","targets/28.png","indirect","1","22"
"","html-keyboard-response","216","684480","0.0-12.0-0.7","nbt2h46sx2","one_one","1","direct_first","1","er09en28","0","21","1","1","3","1","","0","1","0","null","","","<div style=""font-size:60px;"">+</div>","null","","","","","","","","","",""
"","html-keyboard-response","217","684577","0.0-12.0-1.7","nbt2h46sx2","one_one","1","direct_first","1","er09en28","0","21","1","1","3","1","","0","1","0","null","","","<img src = 'category4/GS1.png' width = '100%;'>","null","","","","","","","","","",""
"","html-keyboard-response","218","684835","0.0-12.0-2.7","nbt2h46sx2","one_one","1","direct_first","1","er09en28","0","21","1","1","3","1","","0","1","0","null","","","<img src = 'targets/15.png' width = '100%;'>","null","","","","","","","","","",""
"","html-keyboard-response","219","685278","0.0-12.0-3.7","nbt2h46sx2","one_one","1","direct_first","1","er09en28","0","21","1","1","3","1","","0","1","0","442.15000001713634","","","<img src = 'targets/mask.png' width = '100%;'>","68","neg","GS","GSnew","4","category4/GS1.png","","targets/15.png","indirect","0","23"
"","html-keyboard-response","220","686799","0.0-12.0-0.8","nbt2h46sx2","one_one","1","direct_first","1","er09en28","0","21","1","1","3","1","","0","1","0","null","","","<div style=""font-size:60px;"">+</div>","null","","","","","","","","","",""
"","html-keyboard-response","221","686895","0.0-12.0-1.8","nbt2h46sx2","one_one","1","direct_first","1","er09en28","0","21","1","1","3","1","","0","1","0","null","","","<img src = 'category2/men.png' width = '100%;'>","null","","","","","","","","","",""
"","html-keyboard-response","222","687154","0.0-12.0-2.8","nbt2h46sx2","one_one","1","direct_first","1","er09en28","0","21","1","1","3","1","","0","1","0","null","","","<img src = 'targets/16.png' width = '100%;'>","null","","","","","","","","","",""
"","html-keyboard-response","223","687763","0.0-12.0-3.8","nbt2h46sx2","one_one","1","direct_first","1","er09en28","0","21","1","1","3","1","","0","1","0","607.9700000118464","","","<img src = 'targets/mask.png' width = '100%;'>","75","pos","GS","abstract","2","category2/men.png","","targets/16.png","indirect","1","24"
"","html-keyboard-response","224","689280","0.0-12.0-0.9","nbt2h46sx2","one_one","1","direct_first","1","er09en28","0","21","1","1","3","1","","0","1","0","null","","","<div style=""font-size:60px;"">+</div>","null","","","","","","","","","",""
"","html-keyboard-response","225","689377","0.0-12.0-1.9","nbt2h46sx2","one_one","1","direct_first","1","er09en28","0","21","1","1","3","1","","0","1","0","null","","","<img src = 'category2/GS3.png' width = '100%;'>","null","","","","","","","","","",""
"","html-keyboard-response","226","689638","0.0-12.0-2.9","nbt2h46sx2","one_one","1","direct_first","1","er09en28","0","21","1","1","3","1","","0","1","0","null","","","<img src = 'targets/9.png' width = '100%;'>","null","","","","","","","","","",""
"","html-keyboard-response","227","690103","0.0-12.0-3.9","nbt2h46sx2","one_one","1","direct_first","1","er09en28","0","21","1","1","3","1","","0","1","0","463.4999999543652","","","<img src = 'targets/mask.png' width = '100%;'>","75","pos","GS","GSnew","2","category2/GS3.png","","targets/9.png","indirect","1","25"
"","html-keyboard-response","228","691611","0.0-12.0-0.10","nbt2h46sx2","one_one","1","direct_first","1","er09en28","0","21","1","1","3","1","","0","1","0","null","","","<div style=""font-size:60px;"">+</div>","null","","","","","","","","","",""
"","html-keyboard-response","229","691707","0.0-12.0-1.10","nbt2h46sx2","one_one","1","direct_first","1","er09en28","0","21","1","1","3","1","","0","1","0","null","","","<img src = 'category1/GS3.png' width = '100%;'>","null","","","","","","","","","",""
"","html-keyboard-response","230","691967","0.0-12.0-2.10","nbt2h46sx2","one_one","1","direct_first","1","er09en28","0","21","1","1","3","1","","0","1","0","null","","","<img src = 'targets/39.png' width = '100%;'>","null","","","","","","","","","",""
"","html-keyboard-response","231","692451","0.0-12.0-3.10","nbt2h46sx2","one_one","1","direct_first","1","er09en28","0","21","1","1","3","1","","0","1","0","481.93500004708767","","","<img src = 'targets/mask.png' width = '100%;'>","68","neg","GS","GSnew","1","category1/GS3.png","","targets/39.png","indirect","0","26"
"","html-keyboard-response","232","693966","0.0-12.0-0.11","nbt2h46sx2","one_one","1","direct_first","1","er09en28","0","21","1","1","3","1","","0","1","0","null","","","<div style=""font-size:60px;"">+</div>","null","","","","","","","","","",""
"","html-keyboard-response","233","694063","0.0-12.0-1.11","nbt2h46sx2","one_one","1","direct_first","1","er09en28","0","21","1","1","3","1","","0","1","0","null","","","<img src = 'category3/wang.png' width = '100%;'>","null","","","","","","","","","",""
"","html-keyboard-response","234","694326","0.0-12.0-2.11","nbt2h46sx2","one_one","1","direct_first","1","er09en28","0","21","1","1","3","1","","0","1","0","null","","","<img src = 'targets/24.png' width = '100%;'>","null","","","","","","","","","",""
"","html-keyboard-response","235","694671","0.0-12.0-3.11","nbt2h46sx2","one_one","1","direct_first","1","er09en28","0","21","1","1","3","1","","0","1","0","343.83499994874","","","<img src = 'targets/mask.png' width = '100%;'>","75","pos","GS","abstract","3","category3/wang.png","","targets/24.png","indirect","1","27"
"","html-keyboard-response","236","696179","0.0-12.0-0.12","nbt2h46sx2","one_one","1","direct_first","1","er09en28","0","21","1","1","3","1","","0","1","0","null","","","<div style=""font-size:60px;"">+</div>","null","","","","","","","","","",""
"","html-keyboard-response","237","696273","0.0-12.0-1.12","nbt2h46sx2","one_one","1","direct_first","1","er09en28","0","21","1","1","3","1","","0","1","0","null","","","<img src = 'category3/GS1.png' width = '100%;'>","null","","","","","","","","","",""
"","html-keyboard-response","238","696532","0.0-12.0-2.12","nbt2h46sx2","one_one","1","direct_first","1","er09en28","0","21","1","1","3","1","","0","1","0","null","","","<img src = 'targets/1.png' width = '100%;'>","null","","","","","","","","","",""
"","html-keyboard-response","239","697206","0.0-12.0-3.12","nbt2h46sx2","one_one","1","direct_first","1","er09en28","0","21","1","1","3","1","","0","1","0","673.0499999830499","","","<img src = 'targets/mask.png' width = '100%;'>","75","pos","GS","GSnew","3","category3/GS1.png","","targets/1.png","indirect","1","28"
"","html-keyboard-response","240","698723","0.0-12.0-0.13","nbt2h46sx2","one_one","1","direct_first","1","er09en28","0","21","1","1","3","1","","0","1","0","null","","","<div style=""font-size:60px;"">+</div>","null","","","","","","","","","",""
"","html-keyboard-response","241","698820","0.0-12.0-1.13","nbt2h46sx2","one_one","1","direct_first","1","er09en28","0","21","1","1","3","1","","0","1","0","null","","","<img src = 'category4/GS2.png' width = '100%;'>","null","","","","","","","","","",""
"","html-keyboard-response","242","699084","0.0-12.0-2.13","nbt2h46sx2","one_one","1","direct_first","1","er09en28","0","21","1","1","3","1","","0","1","0","null","","","<img src = 'targets/18.png' width = '100%;'>","null","","","","","","","","","",""
"","html-keyboard-response","243","699784","0.0-12.0-3.13","nbt2h46sx2","one_one","1","direct_first","1","er09en28","0","21","1","1","3","1","","0","1","0","698.7600000575185","","","<img src = 'targets/mask.png' width = '100%;'>","75","neg","GS","GSnew","4","category4/GS2.png","","targets/18.png","indirect","1","29"
"","html-keyboard-response","244","701296","0.0-12.0-0.14","nbt2h46sx2","one_one","1","direct_first","1","er09en28","0","21","1","1","3","1","","0","1","0","null","","","<div style=""font-size:60px;"">+</div>","null","","","","","","","","","",""
"","html-keyboard-response","245","701394","0.0-12.0-1.14","nbt2h46sx2","one_one","1","direct_first","1","er09en28","0","21","1","1","3","1","","0","1","0","null","","","<img src = 'category1/ma.png' width = '100%;'>","null","","","","","","","","","",""
"","html-keyboard-response","246","701656","0.0-12.0-2.14","nbt2h46sx2","one_one","1","direct_first","1","er09en28","0","21","1","1","3","1","","0","1","0","null","","","<img src = 'targets/45.png' width = '100%;'>","null","","","","","","","","","",""
"","html-keyboard-response","247","701993","0.0-12.0-3.14","nbt2h46sx2","one_one","1","direct_first","1","er09en28","0","21","1","1","3","1","","0","1","0","335.4099999414757","","","<img src = 'targets/mask.png' width = '100%;'>","75","neg","GS","abstract","1","category1/ma.png","","targets/45.png","indirect","1","30"
"","html-keyboard-response","248","703507","0.0-12.0-0.15","nbt2h46sx2","one_one","1","direct_first","1","er09en28","0","21","1","1","3","1","","0","1","0","null","","","<div style=""font-size:60px;"">+</div>","null","","","","","","","","","",""
"","html-keyboard-response","249","703604","0.0-12.0-1.15","nbt2h46sx2","one_one","1","direct_first","1","er09en28","0","21","1","1","3","1","","0","1","0","null","","","<img src = 'category3/GS2.png' width = '100%;'>","null","","","","","","","","","",""
"","html-keyboard-response","250","703864","0.0-12.0-2.15","nbt2h46sx2","one_one","1","direct_first","1","er09en28","0","21","1","1","3","1","","0","1","0","null","","","<img src = 'targets/44.png' width = '100%;'>","null","","","","","","","","","",""
"","html-keyboard-response","251","704454","0.0-12.0-3.15","nbt2h46sx2","one_one","1","direct_first","1","er09en28","0","21","1","1","3","1","","0","1","0","589.0999999828637","","","<img src = 'targets/mask.png' width = '100%;'>","75","pos","GS","GSnew","3","category3/GS2.png","","targets/44.png","indirect","1","31"
"","survey-html-form","252","711030","0.0-13.0","nbt2h46sx2","one_one","1","direct_first","1","er09en28","0","21","1","1","3","1","","0","1","0","6073.715000064112","","{}","","","","","","","","","","","",""
"","image-slider-response","253","716241","0.0-14.0-0.0","nbt2h46sx2","one_one","1","direct_first","1","er09en28","0","21","1","1","3","1","","0","1","0","4207.0150000508875","","","","","neg","All","all","4","category4/lin_all.png","58","","all","",""
"","image-slider-response","254","718411","0.0-14.0-0.1","nbt2h46sx2","one_one","1","direct_first","1","er09en28","0","21","1","1","3","1","","0","1","0","2167.2900000121444","","","","","neg","All","all","1","category1/ma_all.png","-42","","all","",""
"","image-slider-response","255","720352","0.0-14.0-0.2","nbt2h46sx2","one_one","1","direct_first","1","er09en28","0","21","1","1","3","1","","0","1","0","1940.085000009276","","","","","pos","All","all","3","category3/wang_all.png","-51","","all","",""
"","image-slider-response","256","722046","0.0-14.0-0.3","nbt2h46sx2","one_one","1","direct_first","1","er09en28","0","21","1","1","3","1","","0","1","0","1692.3249999526888","","","","","pos","All","all","2","category2/men_all.png","45","","all","",""
"","survey-text","257","728336","0.0-15.0","nbt2h46sx2","one_one","1","direct_first","1","er09en28","0","21","1","1","3","1","","0","1","0","5857.5449999189","","{""comment"":""""}","","","","","","","","","","","",""
"","survey-html-form","258","742859","0.0-16.0","nbt2h46sx2","one_one","1","direct_first","1","er09en28","0","21","1","1","3","1","","0","1","0","14516.670000040904","","{""hinschauen"":""0"",""ablenkung"":""1"",""gewissenhaft"":""0""}","","","","","","","","","","","",""
