"success","trial_type","trial_index","time_elapsed","internal_node_id","subject","condition","condition_code","measure","measure_code","codeword","gender","age","education","chinese","fach","handedness","comment","hinschauen","ablenkung","gewissenhaft","rt","url","responses","stimulus","key_press","val","type","type_specific","category","cs_selected","response","target","task","indirect","nr_pres"
"true","fullscreen","0","22241256","0.0-0.0","qvcu1wacak","one_one","1","direct_first","1","er04rt18","0","24","1","1","3","1","Während der ersten Skalen-Frage wurden mir nicht immer Zeichen angezeigt - wo dies der Fall war, habe ich immer möglich nahe an der Mitte der Skala geklickt.","0","1","0","","","","","","","","","","","","","","",""
"","external-html","1","22272057","0.0-1.0","qvcu1wacak","one_one","1","direct_first","1","er04rt18","0","24","1","1","3","1","Während der ersten Skalen-Frage wurden mir nicht immer Zeichen angezeigt - wo dies der Fall war, habe ich immer möglich nahe an der Mitte der Skala geklickt.","0","1","0","30358.149999987334","text/information.html","","","","","","","","","","","","",""
"","external-html","2","22277628","0.0-2.0","qvcu1wacak","one_one","1","direct_first","1","er04rt18","0","24","1","1","3","1","Während der ersten Skalen-Frage wurden mir nicht immer Zeichen angezeigt - wo dies der Fall war, habe ich immer möglich nahe an der Mitte der Skala geklickt.","0","1","0","5388.080000005662","text/consent.html","","","","","","","","","","","","",""
"","survey-html-form","3","22296435","0.0-3.0","qvcu1wacak","one_one","1","direct_first","1","er04rt18","0","24","1","1","3","1","Während der ersten Skalen-Frage wurden mir nicht immer Zeichen angezeigt - wo dies der Fall war, habe ich immer möglich nahe an der Mitte der Skala geklickt.","0","1","0","18795.47499999404","","{""codeword_enter"":""er04rt18""}","","","","","","","","","","","",""
"","survey-html-form","4","22314745","0.0-4.0","qvcu1wacak","one_one","1","direct_first","1","er04rt18","0","24","1","1","3","1","Während der ersten Skalen-Frage wurden mir nicht immer Zeichen angezeigt - wo dies der Fall war, habe ich immer möglich nahe an der Mitte der Skala geklickt.","0","1","0","18291.83500001207","","{""age"":""24"",""education"":""1"",""subject"":""3"",""gender"":""0"",""handedness"":""1"",""chinese"":""1""}","","","","","","","","","","","",""
"","survey-html-form","5","22330235","0.0-5.0","qvcu1wacak","one_one","1","direct_first","1","er04rt18","0","24","1","1","3","1","Während der ersten Skalen-Frage wurden mir nicht immer Zeichen angezeigt - wo dies der Fall war, habe ich immer möglich nahe an der Mitte der Skala geklickt.","0","1","0","15484.484999995679","","{}","","","","","","","","","","","",""
"","html-keyboard-response","6","22334244","0.0-6.0-0.0-0.0","qvcu1wacak","one_one","1","direct_first","1","er04rt18","0","24","1","1","3","1","Während der ersten Skalen-Frage wurden mir nicht immer Zeichen angezeigt - wo dies der Fall war, habe ich immer möglich nahe an der Mitte der Skala geklickt.","0","1","0","null","","","<div class = 'row'><div class = 'column'><img src = 'uspos/2030.bmp' width = '100%;'></div><div class = 'column'><img src = 'category2/CS8.png' width = '70%;'></div></div>","null","pos","CS","CS","2","category2/CS8.png","","","","",""
"","html-keyboard-response","7","22336751","0.0-6.0-0.0-0.1","qvcu1wacak","one_one","1","direct_first","1","er04rt18","0","24","1","1","3","1","Während der ersten Skalen-Frage wurden mir nicht immer Zeichen angezeigt - wo dies der Fall war, habe ich immer möglich nahe an der Mitte der Skala geklickt.","0","1","0","null","","","<div class = 'row'><div class = 'column'><img src = 'uspos/5600.bmp' width = '100%;'></div><div class = 'column'><img src = 'category4/CS9.png' width = '70%;'></div></div>","null","pos","CS","CS","4","category4/CS9.png","","","","",""
"","html-keyboard-response","8","22339259","0.0-6.0-0.0-0.2","qvcu1wacak","one_one","1","direct_first","1","er04rt18","0","24","1","1","3","1","Während der ersten Skalen-Frage wurden mir nicht immer Zeichen angezeigt - wo dies der Fall war, habe ich immer möglich nahe an der Mitte der Skala geklickt.","0","1","0","null","","","<div class = 'row'><div class = 'column'><img src = 'category3/CS9.png' width = '70%;'></div><div class = 'column'><img src = 'usneg/9290.bmp' width = '100%;'></div></div>","null","neg","CS","CS","3","category3/CS9.png","","","","",""
"","html-keyboard-response","9","22341769","0.0-6.0-0.0-0.3","qvcu1wacak","one_one","1","direct_first","1","er04rt18","0","24","1","1","3","1","Während der ersten Skalen-Frage wurden mir nicht immer Zeichen angezeigt - wo dies der Fall war, habe ich immer möglich nahe an der Mitte der Skala geklickt.","0","1","0","null","","","<div class = 'row'><div class = 'column'><img src = 'category4/CS9.png' width = '70%;'></div><div class = 'column'><img src = 'uspos/5600.bmp' width = '100%;'></div></div>","null","pos","CS","CS","4","category4/CS9.png","","","","",""
"","html-keyboard-response","10","22344275","0.0-6.0-0.0-0.4","qvcu1wacak","one_one","1","direct_first","1","er04rt18","0","24","1","1","3","1","Während der ersten Skalen-Frage wurden mir nicht immer Zeichen angezeigt - wo dies der Fall war, habe ich immer möglich nahe an der Mitte der Skala geklickt.","0","1","0","null","","","<div class = 'row'><div class = 'column'><img src = 'category1/CS8.png' width = '70%;'></div><div class = 'column'><img src = 'usneg/3181.bmp' width = '100%;'></div></div>","null","neg","CS","CS","1","category1/CS8.png","","","","",""
"","html-keyboard-response","11","22346783","0.0-6.0-0.0-0.5","qvcu1wacak","one_one","1","direct_first","1","er04rt18","0","24","1","1","3","1","Während der ersten Skalen-Frage wurden mir nicht immer Zeichen angezeigt - wo dies der Fall war, habe ich immer möglich nahe an der Mitte der Skala geklickt.","0","1","0","null","","","<div class = 'row'><div class = 'column'><img src = 'category3/CS9.png' width = '70%;'></div><div class = 'column'><img src = 'usneg/9290.bmp' width = '100%;'></div></div>","null","neg","CS","CS","3","category3/CS9.png","","","","",""
"","html-keyboard-response","12","22349291","0.0-6.0-0.0-0.6","qvcu1wacak","one_one","1","direct_first","1","er04rt18","0","24","1","1","3","1","Während der ersten Skalen-Frage wurden mir nicht immer Zeichen angezeigt - wo dies der Fall war, habe ich immer möglich nahe an der Mitte der Skala geklickt.","0","1","0","null","","","<div class = 'row'><div class = 'column'><img src = 'usneg/3181.bmp' width = '100%;'></div><div class = 'column'><img src = 'category1/CS8.png' width = '70%;'></div></div>","null","neg","CS","CS","1","category1/CS8.png","","","","",""
"","html-keyboard-response","13","22351798","0.0-6.0-0.0-0.7","qvcu1wacak","one_one","1","direct_first","1","er04rt18","0","24","1","1","3","1","Während der ersten Skalen-Frage wurden mir nicht immer Zeichen angezeigt - wo dies der Fall war, habe ich immer möglich nahe an der Mitte der Skala geklickt.","0","1","0","null","","","<div class = 'row'><div class = 'column'><img src = 'uspos/5600.bmp' width = '100%;'></div><div class = 'column'><img src = 'category4/CS9.png' width = '70%;'></div></div>","null","pos","CS","CS","4","category4/CS9.png","","","","",""
"","html-keyboard-response","14","22354306","0.0-6.0-0.0-0.8","qvcu1wacak","one_one","1","direct_first","1","er04rt18","0","24","1","1","3","1","Während der ersten Skalen-Frage wurden mir nicht immer Zeichen angezeigt - wo dies der Fall war, habe ich immer möglich nahe an der Mitte der Skala geklickt.","0","1","0","null","","","<div class = 'row'><div class = 'column'><img src = 'category2/CS8.png' width = '70%;'></div><div class = 'column'><img src = 'uspos/2030.bmp' width = '100%;'></div></div>","null","pos","CS","CS","2","category2/CS8.png","","","","",""
"","html-keyboard-response","15","22356814","0.0-6.0-0.0-0.9","qvcu1wacak","one_one","1","direct_first","1","er04rt18","0","24","1","1","3","1","Während der ersten Skalen-Frage wurden mir nicht immer Zeichen angezeigt - wo dies der Fall war, habe ich immer möglich nahe an der Mitte der Skala geklickt.","0","1","0","null","","","<div class = 'row'><div class = 'column'><img src = 'usneg/9290.bmp' width = '100%;'></div><div class = 'column'><img src = 'category3/CS9.png' width = '70%;'></div></div>","null","neg","CS","CS","3","category3/CS9.png","","","","",""
"","html-keyboard-response","16","22359321","0.0-6.0-0.0-0.10","qvcu1wacak","one_one","1","direct_first","1","er04rt18","0","24","1","1","3","1","Während der ersten Skalen-Frage wurden mir nicht immer Zeichen angezeigt - wo dies der Fall war, habe ich immer möglich nahe an der Mitte der Skala geklickt.","0","1","0","null","","","<div class = 'row'><div class = 'column'><img src = 'category2/CS8.png' width = '70%;'></div><div class = 'column'><img src = 'uspos/2030.bmp' width = '100%;'></div></div>","null","pos","CS","CS","2","category2/CS8.png","","","","",""
"","html-keyboard-response","17","22361830","0.0-6.0-0.0-0.11","qvcu1wacak","one_one","1","direct_first","1","er04rt18","0","24","1","1","3","1","Während der ersten Skalen-Frage wurden mir nicht immer Zeichen angezeigt - wo dies der Fall war, habe ich immer möglich nahe an der Mitte der Skala geklickt.","0","1","0","null","","","<div class = 'row'><div class = 'column'><img src = 'usneg/3181.bmp' width = '100%;'></div><div class = 'column'><img src = 'category1/CS8.png' width = '70%;'></div></div>","null","neg","CS","CS","1","category1/CS8.png","","","","",""
"","html-keyboard-response","18","22364337","0.0-6.0-0.0-0.12","qvcu1wacak","one_one","1","direct_first","1","er04rt18","0","24","1","1","3","1","Während der ersten Skalen-Frage wurden mir nicht immer Zeichen angezeigt - wo dies der Fall war, habe ich immer möglich nahe an der Mitte der Skala geklickt.","0","1","0","null","","","<div class = 'row'><div class = 'column'><img src = 'category2/CS8.png' width = '70%;'></div><div class = 'column'><img src = 'uspos/2030.bmp' width = '100%;'></div></div>","null","pos","CS","CS","2","category2/CS8.png","","","","",""
"","html-keyboard-response","19","22366845","0.0-6.0-0.0-0.13","qvcu1wacak","one_one","1","direct_first","1","er04rt18","0","24","1","1","3","1","Während der ersten Skalen-Frage wurden mir nicht immer Zeichen angezeigt - wo dies der Fall war, habe ich immer möglich nahe an der Mitte der Skala geklickt.","0","1","0","null","","","<div class = 'row'><div class = 'column'><img src = 'category4/CS9.png' width = '70%;'></div><div class = 'column'><img src = 'uspos/5600.bmp' width = '100%;'></div></div>","null","pos","CS","CS","4","category4/CS9.png","","","","",""
"","html-keyboard-response","20","22369356","0.0-6.0-0.0-0.14","qvcu1wacak","one_one","1","direct_first","1","er04rt18","0","24","1","1","3","1","Während der ersten Skalen-Frage wurden mir nicht immer Zeichen angezeigt - wo dies der Fall war, habe ich immer möglich nahe an der Mitte der Skala geklickt.","0","1","0","null","","","<div class = 'row'><div class = 'column'><img src = 'category3/CS9.png' width = '70%;'></div><div class = 'column'><img src = 'usneg/9290.bmp' width = '100%;'></div></div>","null","neg","CS","CS","3","category3/CS9.png","","","","",""
"","html-keyboard-response","21","22371863","0.0-6.0-0.0-0.15","qvcu1wacak","one_one","1","direct_first","1","er04rt18","0","24","1","1","3","1","Während der ersten Skalen-Frage wurden mir nicht immer Zeichen angezeigt - wo dies der Fall war, habe ich immer möglich nahe an der Mitte der Skala geklickt.","0","1","0","null","","","<div class = 'row'><div class = 'column'><img src = 'usneg/3181.bmp' width = '100%;'></div><div class = 'column'><img src = 'category1/CS8.png' width = '70%;'></div></div>","null","neg","CS","CS","1","category1/CS8.png","","","","",""
"","html-keyboard-response","22","22374369","0.0-6.0-0.0-0.16","qvcu1wacak","one_one","1","direct_first","1","er04rt18","0","24","1","1","3","1","Während der ersten Skalen-Frage wurden mir nicht immer Zeichen angezeigt - wo dies der Fall war, habe ich immer möglich nahe an der Mitte der Skala geklickt.","0","1","0","null","","","<div class = 'row'><div class = 'column'><img src = 'category3/CS9.png' width = '70%;'></div><div class = 'column'><img src = 'usneg/9290.bmp' width = '100%;'></div></div>","null","neg","CS","CS","3","category3/CS9.png","","","","",""
"","html-keyboard-response","23","22376876","0.0-6.0-0.0-0.17","qvcu1wacak","one_one","1","direct_first","1","er04rt18","0","24","1","1","3","1","Während der ersten Skalen-Frage wurden mir nicht immer Zeichen angezeigt - wo dies der Fall war, habe ich immer möglich nahe an der Mitte der Skala geklickt.","0","1","0","null","","","<div class = 'row'><div class = 'column'><img src = 'category4/CS9.png' width = '70%;'></div><div class = 'column'><img src = 'uspos/5600.bmp' width = '100%;'></div></div>","null","pos","CS","CS","4","category4/CS9.png","","","","",""
"","html-keyboard-response","24","22379384","0.0-6.0-0.0-0.18","qvcu1wacak","one_one","1","direct_first","1","er04rt18","0","24","1","1","3","1","Während der ersten Skalen-Frage wurden mir nicht immer Zeichen angezeigt - wo dies der Fall war, habe ich immer möglich nahe an der Mitte der Skala geklickt.","0","1","0","null","","","<div class = 'row'><div class = 'column'><img src = 'usneg/3181.bmp' width = '100%;'></div><div class = 'column'><img src = 'category1/CS8.png' width = '70%;'></div></div>","null","neg","CS","CS","1","category1/CS8.png","","","","",""
"","html-keyboard-response","25","22381894","0.0-6.0-0.0-0.19","qvcu1wacak","one_one","1","direct_first","1","er04rt18","0","24","1","1","3","1","Während der ersten Skalen-Frage wurden mir nicht immer Zeichen angezeigt - wo dies der Fall war, habe ich immer möglich nahe an der Mitte der Skala geklickt.","0","1","0","null","","","<div class = 'row'><div class = 'column'><img src = 'category2/CS8.png' width = '70%;'></div><div class = 'column'><img src = 'uspos/2030.bmp' width = '100%;'></div></div>","null","pos","CS","CS","2","category2/CS8.png","","","","",""
"","survey-html-form","26","22384278","0.0-6.0-1.0","qvcu1wacak","one_one","1","direct_first","1","er04rt18","0","24","1","1","3","1","Während der ersten Skalen-Frage wurden mir nicht immer Zeichen angezeigt - wo dies der Fall war, habe ich immer möglich nahe an der Mitte der Skala geklickt.","0","1","0","1882.1849999949336","","{}","","","","","","","","","","","",""
"","html-keyboard-response","27","22388286","0.0-6.0-2.0-0.0","qvcu1wacak","one_one","1","direct_first","1","er04rt18","0","24","1","1","3","1","Während der ersten Skalen-Frage wurden mir nicht immer Zeichen angezeigt - wo dies der Fall war, habe ich immer möglich nahe an der Mitte der Skala geklickt.","0","1","0","null","","","<div class = 'row'><div class = 'column'><img src = 'usneg/9290.bmp' width = '100%;'></div><div class = 'column'><img src = 'category3/CS9.png' width = '70%;'></div></div>","null","neg","CS","CS","3","category3/CS9.png","","","","",""
"","html-keyboard-response","28","22390791","0.0-6.0-2.0-0.1","qvcu1wacak","one_one","1","direct_first","1","er04rt18","0","24","1","1","3","1","Während der ersten Skalen-Frage wurden mir nicht immer Zeichen angezeigt - wo dies der Fall war, habe ich immer möglich nahe an der Mitte der Skala geklickt.","0","1","0","null","","","<div class = 'row'><div class = 'column'><img src = 'uspos/5600.bmp' width = '100%;'></div><div class = 'column'><img src = 'category4/CS9.png' width = '70%;'></div></div>","null","pos","CS","CS","4","category4/CS9.png","","","","",""
"","html-keyboard-response","29","22393299","0.0-6.0-2.0-0.2","qvcu1wacak","one_one","1","direct_first","1","er04rt18","0","24","1","1","3","1","Während der ersten Skalen-Frage wurden mir nicht immer Zeichen angezeigt - wo dies der Fall war, habe ich immer möglich nahe an der Mitte der Skala geklickt.","0","1","0","null","","","<div class = 'row'><div class = 'column'><img src = 'uspos/2030.bmp' width = '100%;'></div><div class = 'column'><img src = 'category2/CS8.png' width = '70%;'></div></div>","null","pos","CS","CS","2","category2/CS8.png","","","","",""
"","html-keyboard-response","30","22395807","0.0-6.0-2.0-0.3","qvcu1wacak","one_one","1","direct_first","1","er04rt18","0","24","1","1","3","1","Während der ersten Skalen-Frage wurden mir nicht immer Zeichen angezeigt - wo dies der Fall war, habe ich immer möglich nahe an der Mitte der Skala geklickt.","0","1","0","null","","","<div class = 'row'><div class = 'column'><img src = 'usneg/3181.bmp' width = '100%;'></div><div class = 'column'><img src = 'category1/CS8.png' width = '70%;'></div></div>","null","neg","CS","CS","1","category1/CS8.png","","","","",""
"","html-keyboard-response","31","22398315","0.0-6.0-2.0-0.4","qvcu1wacak","one_one","1","direct_first","1","er04rt18","0","24","1","1","3","1","Während der ersten Skalen-Frage wurden mir nicht immer Zeichen angezeigt - wo dies der Fall war, habe ich immer möglich nahe an der Mitte der Skala geklickt.","0","1","0","null","","","<div class = 'row'><div class = 'column'><img src = 'uspos/2030.bmp' width = '100%;'></div><div class = 'column'><img src = 'category2/CS8.png' width = '70%;'></div></div>","null","pos","CS","CS","2","category2/CS8.png","","","","",""
"","html-keyboard-response","32","22400823","0.0-6.0-2.0-0.5","qvcu1wacak","one_one","1","direct_first","1","er04rt18","0","24","1","1","3","1","Während der ersten Skalen-Frage wurden mir nicht immer Zeichen angezeigt - wo dies der Fall war, habe ich immer möglich nahe an der Mitte der Skala geklickt.","0","1","0","null","","","<div class = 'row'><div class = 'column'><img src = 'category4/CS9.png' width = '70%;'></div><div class = 'column'><img src = 'uspos/5600.bmp' width = '100%;'></div></div>","null","pos","CS","CS","4","category4/CS9.png","","","","",""
"","html-keyboard-response","33","22403331","0.0-6.0-2.0-0.6","qvcu1wacak","one_one","1","direct_first","1","er04rt18","0","24","1","1","3","1","Während der ersten Skalen-Frage wurden mir nicht immer Zeichen angezeigt - wo dies der Fall war, habe ich immer möglich nahe an der Mitte der Skala geklickt.","0","1","0","null","","","<div class = 'row'><div class = 'column'><img src = 'usneg/9290.bmp' width = '100%;'></div><div class = 'column'><img src = 'category3/CS9.png' width = '70%;'></div></div>","null","neg","CS","CS","3","category3/CS9.png","","","","",""
"","html-keyboard-response","34","22405839","0.0-6.0-2.0-0.7","qvcu1wacak","one_one","1","direct_first","1","er04rt18","0","24","1","1","3","1","Während der ersten Skalen-Frage wurden mir nicht immer Zeichen angezeigt - wo dies der Fall war, habe ich immer möglich nahe an der Mitte der Skala geklickt.","0","1","0","null","","","<div class = 'row'><div class = 'column'><img src = 'category2/CS8.png' width = '70%;'></div><div class = 'column'><img src = 'uspos/2030.bmp' width = '100%;'></div></div>","null","pos","CS","CS","2","category2/CS8.png","","","","",""
"","html-keyboard-response","35","22408346","0.0-6.0-2.0-0.8","qvcu1wacak","one_one","1","direct_first","1","er04rt18","0","24","1","1","3","1","Während der ersten Skalen-Frage wurden mir nicht immer Zeichen angezeigt - wo dies der Fall war, habe ich immer möglich nahe an der Mitte der Skala geklickt.","0","1","0","null","","","<div class = 'row'><div class = 'column'><img src = 'category4/CS9.png' width = '70%;'></div><div class = 'column'><img src = 'uspos/5600.bmp' width = '100%;'></div></div>","null","pos","CS","CS","4","category4/CS9.png","","","","",""
"","html-keyboard-response","36","22410854","0.0-6.0-2.0-0.9","qvcu1wacak","one_one","1","direct_first","1","er04rt18","0","24","1","1","3","1","Während der ersten Skalen-Frage wurden mir nicht immer Zeichen angezeigt - wo dies der Fall war, habe ich immer möglich nahe an der Mitte der Skala geklickt.","0","1","0","null","","","<div class = 'row'><div class = 'column'><img src = 'category1/CS8.png' width = '70%;'></div><div class = 'column'><img src = 'usneg/3181.bmp' width = '100%;'></div></div>","null","neg","CS","CS","1","category1/CS8.png","","","","",""
"","html-keyboard-response","37","22413364","0.0-6.0-2.0-0.10","qvcu1wacak","one_one","1","direct_first","1","er04rt18","0","24","1","1","3","1","Während der ersten Skalen-Frage wurden mir nicht immer Zeichen angezeigt - wo dies der Fall war, habe ich immer möglich nahe an der Mitte der Skala geklickt.","0","1","0","null","","","<div class = 'row'><div class = 'column'><img src = 'uspos/2030.bmp' width = '100%;'></div><div class = 'column'><img src = 'category2/CS8.png' width = '70%;'></div></div>","null","pos","CS","CS","2","category2/CS8.png","","","","",""
"","html-keyboard-response","38","22415870","0.0-6.0-2.0-0.11","qvcu1wacak","one_one","1","direct_first","1","er04rt18","0","24","1","1","3","1","Während der ersten Skalen-Frage wurden mir nicht immer Zeichen angezeigt - wo dies der Fall war, habe ich immer möglich nahe an der Mitte der Skala geklickt.","0","1","0","null","","","<div class = 'row'><div class = 'column'><img src = 'category1/CS8.png' width = '70%;'></div><div class = 'column'><img src = 'usneg/3181.bmp' width = '100%;'></div></div>","null","neg","CS","CS","1","category1/CS8.png","","","","",""
"","html-keyboard-response","39","22418378","0.0-6.0-2.0-0.12","qvcu1wacak","one_one","1","direct_first","1","er04rt18","0","24","1","1","3","1","Während der ersten Skalen-Frage wurden mir nicht immer Zeichen angezeigt - wo dies der Fall war, habe ich immer möglich nahe an der Mitte der Skala geklickt.","0","1","0","null","","","<div class = 'row'><div class = 'column'><img src = 'category3/CS9.png' width = '70%;'></div><div class = 'column'><img src = 'usneg/9290.bmp' width = '100%;'></div></div>","null","neg","CS","CS","3","category3/CS9.png","","","","",""
"","html-keyboard-response","40","22420885","0.0-6.0-2.0-0.13","qvcu1wacak","one_one","1","direct_first","1","er04rt18","0","24","1","1","3","1","Während der ersten Skalen-Frage wurden mir nicht immer Zeichen angezeigt - wo dies der Fall war, habe ich immer möglich nahe an der Mitte der Skala geklickt.","0","1","0","null","","","<div class = 'row'><div class = 'column'><img src = 'category2/CS8.png' width = '70%;'></div><div class = 'column'><img src = 'uspos/2030.bmp' width = '100%;'></div></div>","null","pos","CS","CS","2","category2/CS8.png","","","","",""
"","html-keyboard-response","41","22423393","0.0-6.0-2.0-0.14","qvcu1wacak","one_one","1","direct_first","1","er04rt18","0","24","1","1","3","1","Während der ersten Skalen-Frage wurden mir nicht immer Zeichen angezeigt - wo dies der Fall war, habe ich immer möglich nahe an der Mitte der Skala geklickt.","0","1","0","null","","","<div class = 'row'><div class = 'column'><img src = 'category3/CS9.png' width = '70%;'></div><div class = 'column'><img src = 'usneg/9290.bmp' width = '100%;'></div></div>","null","neg","CS","CS","3","category3/CS9.png","","","","",""
"","html-keyboard-response","42","22425901","0.0-6.0-2.0-0.15","qvcu1wacak","one_one","1","direct_first","1","er04rt18","0","24","1","1","3","1","Während der ersten Skalen-Frage wurden mir nicht immer Zeichen angezeigt - wo dies der Fall war, habe ich immer möglich nahe an der Mitte der Skala geklickt.","0","1","0","null","","","<div class = 'row'><div class = 'column'><img src = 'usneg/3181.bmp' width = '100%;'></div><div class = 'column'><img src = 'category1/CS8.png' width = '70%;'></div></div>","null","neg","CS","CS","1","category1/CS8.png","","","","",""
"","html-keyboard-response","43","22428409","0.0-6.0-2.0-0.16","qvcu1wacak","one_one","1","direct_first","1","er04rt18","0","24","1","1","3","1","Während der ersten Skalen-Frage wurden mir nicht immer Zeichen angezeigt - wo dies der Fall war, habe ich immer möglich nahe an der Mitte der Skala geklickt.","0","1","0","null","","","<div class = 'row'><div class = 'column'><img src = 'category4/CS9.png' width = '70%;'></div><div class = 'column'><img src = 'uspos/5600.bmp' width = '100%;'></div></div>","null","pos","CS","CS","4","category4/CS9.png","","","","",""
"","html-keyboard-response","44","22430917","0.0-6.0-2.0-0.17","qvcu1wacak","one_one","1","direct_first","1","er04rt18","0","24","1","1","3","1","Während der ersten Skalen-Frage wurden mir nicht immer Zeichen angezeigt - wo dies der Fall war, habe ich immer möglich nahe an der Mitte der Skala geklickt.","0","1","0","null","","","<div class = 'row'><div class = 'column'><img src = 'category3/CS9.png' width = '70%;'></div><div class = 'column'><img src = 'usneg/9290.bmp' width = '100%;'></div></div>","null","neg","CS","CS","3","category3/CS9.png","","","","",""
"","html-keyboard-response","45","22433424","0.0-6.0-2.0-0.18","qvcu1wacak","one_one","1","direct_first","1","er04rt18","0","24","1","1","3","1","Während der ersten Skalen-Frage wurden mir nicht immer Zeichen angezeigt - wo dies der Fall war, habe ich immer möglich nahe an der Mitte der Skala geklickt.","0","1","0","null","","","<div class = 'row'><div class = 'column'><img src = 'category1/CS8.png' width = '70%;'></div><div class = 'column'><img src = 'usneg/3181.bmp' width = '100%;'></div></div>","null","neg","CS","CS","1","category1/CS8.png","","","","",""
"","html-keyboard-response","46","22435933","0.0-6.0-2.0-0.19","qvcu1wacak","one_one","1","direct_first","1","er04rt18","0","24","1","1","3","1","Während der ersten Skalen-Frage wurden mir nicht immer Zeichen angezeigt - wo dies der Fall war, habe ich immer möglich nahe an der Mitte der Skala geklickt.","0","1","0","null","","","<div class = 'row'><div class = 'column'><img src = 'uspos/5600.bmp' width = '100%;'></div><div class = 'column'><img src = 'category4/CS9.png' width = '70%;'></div></div>","null","pos","CS","CS","4","category4/CS9.png","","","","",""
"","survey-html-form","47","22437987","0.0-6.0-3.0","qvcu1wacak","one_one","1","direct_first","1","er04rt18","0","24","1","1","3","1","Während der ersten Skalen-Frage wurden mir nicht immer Zeichen angezeigt - wo dies der Fall war, habe ich immer möglich nahe an der Mitte der Skala geklickt.","0","1","0","1547.344999998808","","{}","","","","","","","","","","","",""
"","html-keyboard-response","48","22441993","0.0-6.0-4.0-0.0","qvcu1wacak","one_one","1","direct_first","1","er04rt18","0","24","1","1","3","1","Während der ersten Skalen-Frage wurden mir nicht immer Zeichen angezeigt - wo dies der Fall war, habe ich immer möglich nahe an der Mitte der Skala geklickt.","0","1","0","null","","","<div class = 'row'><div class = 'column'><img src = 'category2/CS8.png' width = '70%;'></div><div class = 'column'><img src = 'uspos/2030.bmp' width = '100%;'></div></div>","null","pos","CS","CS","2","category2/CS8.png","","","","",""
"","html-keyboard-response","49","22444501","0.0-6.0-4.0-0.1","qvcu1wacak","one_one","1","direct_first","1","er04rt18","0","24","1","1","3","1","Während der ersten Skalen-Frage wurden mir nicht immer Zeichen angezeigt - wo dies der Fall war, habe ich immer möglich nahe an der Mitte der Skala geklickt.","0","1","0","null","","","<div class = 'row'><div class = 'column'><img src = 'uspos/5600.bmp' width = '100%;'></div><div class = 'column'><img src = 'category4/CS9.png' width = '70%;'></div></div>","null","pos","CS","CS","4","category4/CS9.png","","","","",""
"","html-keyboard-response","50","22447009","0.0-6.0-4.0-0.2","qvcu1wacak","one_one","1","direct_first","1","er04rt18","0","24","1","1","3","1","Während der ersten Skalen-Frage wurden mir nicht immer Zeichen angezeigt - wo dies der Fall war, habe ich immer möglich nahe an der Mitte der Skala geklickt.","0","1","0","null","","","<div class = 'row'><div class = 'column'><img src = 'category3/CS9.png' width = '70%;'></div><div class = 'column'><img src = 'usneg/9290.bmp' width = '100%;'></div></div>","null","neg","CS","CS","3","category3/CS9.png","","","","",""
"","html-keyboard-response","51","22449511","0.0-6.0-4.0-0.3","qvcu1wacak","one_one","1","direct_first","1","er04rt18","0","24","1","1","3","1","Während der ersten Skalen-Frage wurden mir nicht immer Zeichen angezeigt - wo dies der Fall war, habe ich immer möglich nahe an der Mitte der Skala geklickt.","0","1","0","null","","","<div class = 'row'><div class = 'column'><img src = 'category1/CS8.png' width = '70%;'></div><div class = 'column'><img src = 'usneg/3181.bmp' width = '100%;'></div></div>","null","neg","CS","CS","1","category1/CS8.png","","","","",""
"","html-keyboard-response","52","22452018","0.0-6.0-4.0-0.4","qvcu1wacak","one_one","1","direct_first","1","er04rt18","0","24","1","1","3","1","Während der ersten Skalen-Frage wurden mir nicht immer Zeichen angezeigt - wo dies der Fall war, habe ich immer möglich nahe an der Mitte der Skala geklickt.","0","1","0","null","","","<div class = 'row'><div class = 'column'><img src = 'category3/CS9.png' width = '70%;'></div><div class = 'column'><img src = 'usneg/9290.bmp' width = '100%;'></div></div>","null","neg","CS","CS","3","category3/CS9.png","","","","",""
"","html-keyboard-response","53","22454526","0.0-6.0-4.0-0.5","qvcu1wacak","one_one","1","direct_first","1","er04rt18","0","24","1","1","3","1","Während der ersten Skalen-Frage wurden mir nicht immer Zeichen angezeigt - wo dies der Fall war, habe ich immer möglich nahe an der Mitte der Skala geklickt.","0","1","0","null","","","<div class = 'row'><div class = 'column'><img src = 'uspos/5600.bmp' width = '100%;'></div><div class = 'column'><img src = 'category4/CS9.png' width = '70%;'></div></div>","null","pos","CS","CS","4","category4/CS9.png","","","","",""
"","html-keyboard-response","54","22457033","0.0-6.0-4.0-0.6","qvcu1wacak","one_one","1","direct_first","1","er04rt18","0","24","1","1","3","1","Während der ersten Skalen-Frage wurden mir nicht immer Zeichen angezeigt - wo dies der Fall war, habe ich immer möglich nahe an der Mitte der Skala geklickt.","0","1","0","null","","","<div class = 'row'><div class = 'column'><img src = 'uspos/2030.bmp' width = '100%;'></div><div class = 'column'><img src = 'category2/CS8.png' width = '70%;'></div></div>","null","pos","CS","CS","2","category2/CS8.png","","","","",""
"","html-keyboard-response","55","22459536","0.0-6.0-4.0-0.7","qvcu1wacak","one_one","1","direct_first","1","er04rt18","0","24","1","1","3","1","Während der ersten Skalen-Frage wurden mir nicht immer Zeichen angezeigt - wo dies der Fall war, habe ich immer möglich nahe an der Mitte der Skala geklickt.","0","1","0","null","","","<div class = 'row'><div class = 'column'><img src = 'usneg/3181.bmp' width = '100%;'></div><div class = 'column'><img src = 'category1/CS8.png' width = '70%;'></div></div>","null","neg","CS","CS","1","category1/CS8.png","","","","",""
"","html-keyboard-response","56","22462044","0.0-6.0-4.0-0.8","qvcu1wacak","one_one","1","direct_first","1","er04rt18","0","24","1","1","3","1","Während der ersten Skalen-Frage wurden mir nicht immer Zeichen angezeigt - wo dies der Fall war, habe ich immer möglich nahe an der Mitte der Skala geklickt.","0","1","0","null","","","<div class = 'row'><div class = 'column'><img src = 'category2/CS8.png' width = '70%;'></div><div class = 'column'><img src = 'uspos/2030.bmp' width = '100%;'></div></div>","null","pos","CS","CS","2","category2/CS8.png","","","","",""
"","html-keyboard-response","57","22464556","0.0-6.0-4.0-0.9","qvcu1wacak","one_one","1","direct_first","1","er04rt18","0","24","1","1","3","1","Während der ersten Skalen-Frage wurden mir nicht immer Zeichen angezeigt - wo dies der Fall war, habe ich immer möglich nahe an der Mitte der Skala geklickt.","0","1","0","null","","","<div class = 'row'><div class = 'column'><img src = 'uspos/5600.bmp' width = '100%;'></div><div class = 'column'><img src = 'category4/CS9.png' width = '70%;'></div></div>","null","pos","CS","CS","4","category4/CS9.png","","","","",""
"","html-keyboard-response","58","22467060","0.0-6.0-4.0-0.10","qvcu1wacak","one_one","1","direct_first","1","er04rt18","0","24","1","1","3","1","Während der ersten Skalen-Frage wurden mir nicht immer Zeichen angezeigt - wo dies der Fall war, habe ich immer möglich nahe an der Mitte der Skala geklickt.","0","1","0","null","","","<div class = 'row'><div class = 'column'><img src = 'category3/CS9.png' width = '70%;'></div><div class = 'column'><img src = 'usneg/9290.bmp' width = '100%;'></div></div>","null","neg","CS","CS","3","category3/CS9.png","","","","",""
"","html-keyboard-response","59","22469567","0.0-6.0-4.0-0.11","qvcu1wacak","one_one","1","direct_first","1","er04rt18","0","24","1","1","3","1","Während der ersten Skalen-Frage wurden mir nicht immer Zeichen angezeigt - wo dies der Fall war, habe ich immer möglich nahe an der Mitte der Skala geklickt.","0","1","0","null","","","<div class = 'row'><div class = 'column'><img src = 'uspos/5600.bmp' width = '100%;'></div><div class = 'column'><img src = 'category4/CS9.png' width = '70%;'></div></div>","null","pos","CS","CS","4","category4/CS9.png","","","","",""
"","html-keyboard-response","60","22472075","0.0-6.0-4.0-0.12","qvcu1wacak","one_one","1","direct_first","1","er04rt18","0","24","1","1","3","1","Während der ersten Skalen-Frage wurden mir nicht immer Zeichen angezeigt - wo dies der Fall war, habe ich immer möglich nahe an der Mitte der Skala geklickt.","0","1","0","null","","","<div class = 'row'><div class = 'column'><img src = 'category1/CS8.png' width = '70%;'></div><div class = 'column'><img src = 'usneg/3181.bmp' width = '100%;'></div></div>","null","neg","CS","CS","1","category1/CS8.png","","","","",""
"","html-keyboard-response","61","22474585","0.0-6.0-4.0-0.13","qvcu1wacak","one_one","1","direct_first","1","er04rt18","0","24","1","1","3","1","Während der ersten Skalen-Frage wurden mir nicht immer Zeichen angezeigt - wo dies der Fall war, habe ich immer möglich nahe an der Mitte der Skala geklickt.","0","1","0","null","","","<div class = 'row'><div class = 'column'><img src = 'uspos/2030.bmp' width = '100%;'></div><div class = 'column'><img src = 'category2/CS8.png' width = '70%;'></div></div>","null","pos","CS","CS","2","category2/CS8.png","","","","",""
"","html-keyboard-response","62","22477091","0.0-6.0-4.0-0.14","qvcu1wacak","one_one","1","direct_first","1","er04rt18","0","24","1","1","3","1","Während der ersten Skalen-Frage wurden mir nicht immer Zeichen angezeigt - wo dies der Fall war, habe ich immer möglich nahe an der Mitte der Skala geklickt.","0","1","0","null","","","<div class = 'row'><div class = 'column'><img src = 'usneg/9290.bmp' width = '100%;'></div><div class = 'column'><img src = 'category3/CS9.png' width = '70%;'></div></div>","null","neg","CS","CS","3","category3/CS9.png","","","","",""
"","html-keyboard-response","63","22479601","0.0-6.0-4.0-0.15","qvcu1wacak","one_one","1","direct_first","1","er04rt18","0","24","1","1","3","1","Während der ersten Skalen-Frage wurden mir nicht immer Zeichen angezeigt - wo dies der Fall war, habe ich immer möglich nahe an der Mitte der Skala geklickt.","0","1","0","null","","","<div class = 'row'><div class = 'column'><img src = 'usneg/3181.bmp' width = '100%;'></div><div class = 'column'><img src = 'category1/CS8.png' width = '70%;'></div></div>","null","neg","CS","CS","1","category1/CS8.png","","","","",""
"","html-keyboard-response","64","22482107","0.0-6.0-4.0-0.16","qvcu1wacak","one_one","1","direct_first","1","er04rt18","0","24","1","1","3","1","Während der ersten Skalen-Frage wurden mir nicht immer Zeichen angezeigt - wo dies der Fall war, habe ich immer möglich nahe an der Mitte der Skala geklickt.","0","1","0","null","","","<div class = 'row'><div class = 'column'><img src = 'category2/CS8.png' width = '70%;'></div><div class = 'column'><img src = 'uspos/2030.bmp' width = '100%;'></div></div>","null","pos","CS","CS","2","category2/CS8.png","","","","",""
"","html-keyboard-response","65","22484615","0.0-6.0-4.0-0.17","qvcu1wacak","one_one","1","direct_first","1","er04rt18","0","24","1","1","3","1","Während der ersten Skalen-Frage wurden mir nicht immer Zeichen angezeigt - wo dies der Fall war, habe ich immer möglich nahe an der Mitte der Skala geklickt.","0","1","0","null","","","<div class = 'row'><div class = 'column'><img src = 'category1/CS8.png' width = '70%;'></div><div class = 'column'><img src = 'usneg/3181.bmp' width = '100%;'></div></div>","null","neg","CS","CS","1","category1/CS8.png","","","","",""
"","html-keyboard-response","66","22487122","0.0-6.0-4.0-0.18","qvcu1wacak","one_one","1","direct_first","1","er04rt18","0","24","1","1","3","1","Während der ersten Skalen-Frage wurden mir nicht immer Zeichen angezeigt - wo dies der Fall war, habe ich immer möglich nahe an der Mitte der Skala geklickt.","0","1","0","null","","","<div class = 'row'><div class = 'column'><img src = 'usneg/9290.bmp' width = '100%;'></div><div class = 'column'><img src = 'category3/CS9.png' width = '70%;'></div></div>","null","neg","CS","CS","3","category3/CS9.png","","","","",""
"","html-keyboard-response","67","22489630","0.0-6.0-4.0-0.19","qvcu1wacak","one_one","1","direct_first","1","er04rt18","0","24","1","1","3","1","Während der ersten Skalen-Frage wurden mir nicht immer Zeichen angezeigt - wo dies der Fall war, habe ich immer möglich nahe an der Mitte der Skala geklickt.","0","1","0","null","","","<div class = 'row'><div class = 'column'><img src = 'category4/CS9.png' width = '70%;'></div><div class = 'column'><img src = 'uspos/5600.bmp' width = '100%;'></div></div>","null","pos","CS","CS","4","category4/CS9.png","","","","",""
"","survey-html-form","68","22492662","0.0-6.0-5.0","qvcu1wacak","one_one","1","direct_first","1","er04rt18","0","24","1","1","3","1","Während der ersten Skalen-Frage wurden mir nicht immer Zeichen angezeigt - wo dies der Fall war, habe ich immer möglich nahe an der Mitte der Skala geklickt.","0","1","0","2526.424999989569","","{}","","","","","","","","","","","",""
"","html-keyboard-response","69","22496673","0.0-6.0-6.0-0.0","qvcu1wacak","one_one","1","direct_first","1","er04rt18","0","24","1","1","3","1","Während der ersten Skalen-Frage wurden mir nicht immer Zeichen angezeigt - wo dies der Fall war, habe ich immer möglich nahe an der Mitte der Skala geklickt.","0","1","0","null","","","<div class = 'row'><div class = 'column'><img src = 'usneg/9290.bmp' width = '100%;'></div><div class = 'column'><img src = 'category3/CS9.png' width = '70%;'></div></div>","null","neg","CS","CS","3","category3/CS9.png","","","","",""
"","html-keyboard-response","70","22499180","0.0-6.0-6.0-0.1","qvcu1wacak","one_one","1","direct_first","1","er04rt18","0","24","1","1","3","1","Während der ersten Skalen-Frage wurden mir nicht immer Zeichen angezeigt - wo dies der Fall war, habe ich immer möglich nahe an der Mitte der Skala geklickt.","0","1","0","null","","","<div class = 'row'><div class = 'column'><img src = 'category4/CS9.png' width = '70%;'></div><div class = 'column'><img src = 'uspos/5600.bmp' width = '100%;'></div></div>","null","pos","CS","CS","4","category4/CS9.png","","","","",""
"","html-keyboard-response","71","22501687","0.0-6.0-6.0-0.2","qvcu1wacak","one_one","1","direct_first","1","er04rt18","0","24","1","1","3","1","Während der ersten Skalen-Frage wurden mir nicht immer Zeichen angezeigt - wo dies der Fall war, habe ich immer möglich nahe an der Mitte der Skala geklickt.","0","1","0","null","","","<div class = 'row'><div class = 'column'><img src = 'category2/CS8.png' width = '70%;'></div><div class = 'column'><img src = 'uspos/2030.bmp' width = '100%;'></div></div>","null","pos","CS","CS","2","category2/CS8.png","","","","",""
"","html-keyboard-response","72","22504195","0.0-6.0-6.0-0.3","qvcu1wacak","one_one","1","direct_first","1","er04rt18","0","24","1","1","3","1","Während der ersten Skalen-Frage wurden mir nicht immer Zeichen angezeigt - wo dies der Fall war, habe ich immer möglich nahe an der Mitte der Skala geklickt.","0","1","0","null","","","<div class = 'row'><div class = 'column'><img src = 'usneg/9290.bmp' width = '100%;'></div><div class = 'column'><img src = 'category3/CS9.png' width = '70%;'></div></div>","null","neg","CS","CS","3","category3/CS9.png","","","","",""
"","html-keyboard-response","73","22506703","0.0-6.0-6.0-0.4","qvcu1wacak","one_one","1","direct_first","1","er04rt18","0","24","1","1","3","1","Während der ersten Skalen-Frage wurden mir nicht immer Zeichen angezeigt - wo dies der Fall war, habe ich immer möglich nahe an der Mitte der Skala geklickt.","0","1","0","null","","","<div class = 'row'><div class = 'column'><img src = 'category1/CS8.png' width = '70%;'></div><div class = 'column'><img src = 'usneg/3181.bmp' width = '100%;'></div></div>","null","neg","CS","CS","1","category1/CS8.png","","","","",""
"","html-keyboard-response","74","22509211","0.0-6.0-6.0-0.5","qvcu1wacak","one_one","1","direct_first","1","er04rt18","0","24","1","1","3","1","Während der ersten Skalen-Frage wurden mir nicht immer Zeichen angezeigt - wo dies der Fall war, habe ich immer möglich nahe an der Mitte der Skala geklickt.","0","1","0","null","","","<div class = 'row'><div class = 'column'><img src = 'uspos/2030.bmp' width = '100%;'></div><div class = 'column'><img src = 'category2/CS8.png' width = '70%;'></div></div>","null","pos","CS","CS","2","category2/CS8.png","","","","",""
"","html-keyboard-response","75","22511713","0.0-6.0-6.0-0.6","qvcu1wacak","one_one","1","direct_first","1","er04rt18","0","24","1","1","3","1","Während der ersten Skalen-Frage wurden mir nicht immer Zeichen angezeigt - wo dies der Fall war, habe ich immer möglich nahe an der Mitte der Skala geklickt.","0","1","0","null","","","<div class = 'row'><div class = 'column'><img src = 'usneg/3181.bmp' width = '100%;'></div><div class = 'column'><img src = 'category1/CS8.png' width = '70%;'></div></div>","null","neg","CS","CS","1","category1/CS8.png","","","","",""
"","html-keyboard-response","76","22514220","0.0-6.0-6.0-0.7","qvcu1wacak","one_one","1","direct_first","1","er04rt18","0","24","1","1","3","1","Während der ersten Skalen-Frage wurden mir nicht immer Zeichen angezeigt - wo dies der Fall war, habe ich immer möglich nahe an der Mitte der Skala geklickt.","0","1","0","null","","","<div class = 'row'><div class = 'column'><img src = 'uspos/5600.bmp' width = '100%;'></div><div class = 'column'><img src = 'category4/CS9.png' width = '70%;'></div></div>","null","pos","CS","CS","4","category4/CS9.png","","","","",""
"","html-keyboard-response","77","22516729","0.0-6.0-6.0-0.8","qvcu1wacak","one_one","1","direct_first","1","er04rt18","0","24","1","1","3","1","Während der ersten Skalen-Frage wurden mir nicht immer Zeichen angezeigt - wo dies der Fall war, habe ich immer möglich nahe an der Mitte der Skala geklickt.","0","1","0","null","","","<div class = 'row'><div class = 'column'><img src = 'category2/CS8.png' width = '70%;'></div><div class = 'column'><img src = 'uspos/2030.bmp' width = '100%;'></div></div>","null","pos","CS","CS","2","category2/CS8.png","","","","",""
"","html-keyboard-response","78","22519235","0.0-6.0-6.0-0.9","qvcu1wacak","one_one","1","direct_first","1","er04rt18","0","24","1","1","3","1","Während der ersten Skalen-Frage wurden mir nicht immer Zeichen angezeigt - wo dies der Fall war, habe ich immer möglich nahe an der Mitte der Skala geklickt.","0","1","0","null","","","<div class = 'row'><div class = 'column'><img src = 'usneg/3181.bmp' width = '100%;'></div><div class = 'column'><img src = 'category1/CS8.png' width = '70%;'></div></div>","null","neg","CS","CS","1","category1/CS8.png","","","","",""
"","html-keyboard-response","79","22521739","0.0-6.0-6.0-0.10","qvcu1wacak","one_one","1","direct_first","1","er04rt18","0","24","1","1","3","1","Während der ersten Skalen-Frage wurden mir nicht immer Zeichen angezeigt - wo dies der Fall war, habe ich immer möglich nahe an der Mitte der Skala geklickt.","0","1","0","null","","","<div class = 'row'><div class = 'column'><img src = 'uspos/2030.bmp' width = '100%;'></div><div class = 'column'><img src = 'category2/CS8.png' width = '70%;'></div></div>","null","pos","CS","CS","2","category2/CS8.png","","","","",""
"","html-keyboard-response","80","22524246","0.0-6.0-6.0-0.11","qvcu1wacak","one_one","1","direct_first","1","er04rt18","0","24","1","1","3","1","Während der ersten Skalen-Frage wurden mir nicht immer Zeichen angezeigt - wo dies der Fall war, habe ich immer möglich nahe an der Mitte der Skala geklickt.","0","1","0","null","","","<div class = 'row'><div class = 'column'><img src = 'category1/CS8.png' width = '70%;'></div><div class = 'column'><img src = 'usneg/3181.bmp' width = '100%;'></div></div>","null","neg","CS","CS","1","category1/CS8.png","","","","",""
"","html-keyboard-response","81","22526754","0.0-6.0-6.0-0.12","qvcu1wacak","one_one","1","direct_first","1","er04rt18","0","24","1","1","3","1","Während der ersten Skalen-Frage wurden mir nicht immer Zeichen angezeigt - wo dies der Fall war, habe ich immer möglich nahe an der Mitte der Skala geklickt.","0","1","0","null","","","<div class = 'row'><div class = 'column'><img src = 'usneg/9290.bmp' width = '100%;'></div><div class = 'column'><img src = 'category3/CS9.png' width = '70%;'></div></div>","null","neg","CS","CS","3","category3/CS9.png","","","","",""
"","html-keyboard-response","82","22529262","0.0-6.0-6.0-0.13","qvcu1wacak","one_one","1","direct_first","1","er04rt18","0","24","1","1","3","1","Während der ersten Skalen-Frage wurden mir nicht immer Zeichen angezeigt - wo dies der Fall war, habe ich immer möglich nahe an der Mitte der Skala geklickt.","0","1","0","null","","","<div class = 'row'><div class = 'column'><img src = 'uspos/5600.bmp' width = '100%;'></div><div class = 'column'><img src = 'category4/CS9.png' width = '70%;'></div></div>","null","pos","CS","CS","4","category4/CS9.png","","","","",""
"","html-keyboard-response","83","22531770","0.0-6.0-6.0-0.14","qvcu1wacak","one_one","1","direct_first","1","er04rt18","0","24","1","1","3","1","Während der ersten Skalen-Frage wurden mir nicht immer Zeichen angezeigt - wo dies der Fall war, habe ich immer möglich nahe an der Mitte der Skala geklickt.","0","1","0","null","","","<div class = 'row'><div class = 'column'><img src = 'usneg/9290.bmp' width = '100%;'></div><div class = 'column'><img src = 'category3/CS9.png' width = '70%;'></div></div>","null","neg","CS","CS","3","category3/CS9.png","","","","",""
"","html-keyboard-response","84","22534278","0.0-6.0-6.0-0.15","qvcu1wacak","one_one","1","direct_first","1","er04rt18","0","24","1","1","3","1","Während der ersten Skalen-Frage wurden mir nicht immer Zeichen angezeigt - wo dies der Fall war, habe ich immer möglich nahe an der Mitte der Skala geklickt.","0","1","0","null","","","<div class = 'row'><div class = 'column'><img src = 'uspos/5600.bmp' width = '100%;'></div><div class = 'column'><img src = 'category4/CS9.png' width = '70%;'></div></div>","null","pos","CS","CS","4","category4/CS9.png","","","","",""
"","html-keyboard-response","85","22536786","0.0-6.0-6.0-0.16","qvcu1wacak","one_one","1","direct_first","1","er04rt18","0","24","1","1","3","1","Während der ersten Skalen-Frage wurden mir nicht immer Zeichen angezeigt - wo dies der Fall war, habe ich immer möglich nahe an der Mitte der Skala geklickt.","0","1","0","null","","","<div class = 'row'><div class = 'column'><img src = 'category2/CS8.png' width = '70%;'></div><div class = 'column'><img src = 'uspos/2030.bmp' width = '100%;'></div></div>","null","pos","CS","CS","2","category2/CS8.png","","","","",""
"","html-keyboard-response","86","22539293","0.0-6.0-6.0-0.17","qvcu1wacak","one_one","1","direct_first","1","er04rt18","0","24","1","1","3","1","Während der ersten Skalen-Frage wurden mir nicht immer Zeichen angezeigt - wo dies der Fall war, habe ich immer möglich nahe an der Mitte der Skala geklickt.","0","1","0","null","","","<div class = 'row'><div class = 'column'><img src = 'category4/CS9.png' width = '70%;'></div><div class = 'column'><img src = 'uspos/5600.bmp' width = '100%;'></div></div>","null","pos","CS","CS","4","category4/CS9.png","","","","",""
"","html-keyboard-response","87","22541801","0.0-6.0-6.0-0.18","qvcu1wacak","one_one","1","direct_first","1","er04rt18","0","24","1","1","3","1","Während der ersten Skalen-Frage wurden mir nicht immer Zeichen angezeigt - wo dies der Fall war, habe ich immer möglich nahe an der Mitte der Skala geklickt.","0","1","0","null","","","<div class = 'row'><div class = 'column'><img src = 'usneg/9290.bmp' width = '100%;'></div><div class = 'column'><img src = 'category3/CS9.png' width = '70%;'></div></div>","null","neg","CS","CS","3","category3/CS9.png","","","","",""
"","html-keyboard-response","88","22544312","0.0-6.0-6.0-0.19","qvcu1wacak","one_one","1","direct_first","1","er04rt18","0","24","1","1","3","1","Während der ersten Skalen-Frage wurden mir nicht immer Zeichen angezeigt - wo dies der Fall war, habe ich immer möglich nahe an der Mitte der Skala geklickt.","0","1","0","null","","","<div class = 'row'><div class = 'column'><img src = 'usneg/3181.bmp' width = '100%;'></div><div class = 'column'><img src = 'category1/CS8.png' width = '70%;'></div></div>","null","neg","CS","CS","1","category1/CS8.png","","","","",""
"","survey-html-form","89","22552708","0.0-7.0","qvcu1wacak","one_one","1","direct_first","1","er04rt18","0","24","1","1","3","1","Während der ersten Skalen-Frage wurden mir nicht immer Zeichen angezeigt - wo dies der Fall war, habe ich immer möglich nahe an der Mitte der Skala geklickt.","0","1","0","7877.919999998063","","{}","","","","","","","","","","","",""
"","image-slider-response","90","22559532","0.0-8.0-0.0","qvcu1wacak","one_one","1","direct_first","1","er04rt18","0","24","1","1","3","1","Während der ersten Skalen-Frage wurden mir nicht immer Zeichen angezeigt - wo dies der Fall war, habe ich immer möglich nahe an der Mitte der Skala geklickt.","0","1","0","4812.919999998063","","","","","neg","GS","GSold","3","category3/CS8.png","49","targets/39.png","direct","",""
"","image-slider-response","91","22564119","0.0-8.0-0.1","qvcu1wacak","one_one","1","direct_first","1","er04rt18","0","24","1","1","3","1","Während der ersten Skalen-Frage wurden mir nicht immer Zeichen angezeigt - wo dies der Fall war, habe ich immer möglich nahe an der Mitte der Skala geklickt.","0","1","0","4582.605000004172","","","","","pos","GS","GSold","2","category2/CS9.png","17","targets/33.png","direct","",""
"","image-slider-response","92","22568820","0.0-8.0-0.2","qvcu1wacak","one_one","1","direct_first","1","er04rt18","0","24","1","1","3","1","Während der ersten Skalen-Frage wurden mir nicht immer Zeichen angezeigt - wo dies der Fall war, habe ich immer möglich nahe an der Mitte der Skala geklickt.","0","1","0","4697.675000000745","","","","","pos","GS","GSold","2","category2/CS7.png","24","targets/40.png","direct","",""
"","image-slider-response","93","22576317","0.0-8.0-0.3","qvcu1wacak","one_one","1","direct_first","1","er04rt18","0","24","1","1","3","1","Während der ersten Skalen-Frage wurden mir nicht immer Zeichen angezeigt - wo dies der Fall war, habe ich immer möglich nahe an der Mitte der Skala geklickt.","0","1","0","7494.890000000596","","","","","neg","GS","GSold","1","category1/CS2.png","1","targets/16.png","direct","",""
"","image-slider-response","94","22579134","0.0-8.0-0.4","qvcu1wacak","one_one","1","direct_first","1","er04rt18","0","24","1","1","3","1","Während der ersten Skalen-Frage wurden mir nicht immer Zeichen angezeigt - wo dies der Fall war, habe ich immer möglich nahe an der Mitte der Skala geklickt.","0","1","0","2814.389999985695","","","","","neg","GS","GSnew","3","category3/GS1.png","3","targets/43.png","direct","",""
"","image-slider-response","95","22582194","0.0-8.0-0.5","qvcu1wacak","one_one","1","direct_first","1","er04rt18","0","24","1","1","3","1","Während der ersten Skalen-Frage wurden mir nicht immer Zeichen angezeigt - wo dies der Fall war, habe ich immer möglich nahe an der Mitte der Skala geklickt.","0","1","0","3049.6799999959767","","","","","pos","CS","CS","4","category4/CS9.png","27","targets/35.png","direct","",""
"","image-slider-response","96","22586592","0.0-8.0-0.6","qvcu1wacak","one_one","1","direct_first","1","er04rt18","0","24","1","1","3","1","Während der ersten Skalen-Frage wurden mir nicht immer Zeichen angezeigt - wo dies der Fall war, habe ich immer möglich nahe an der Mitte der Skala geklickt.","0","1","0","4384.215000025928","","","","","neg","CS","CS","1","category1/CS8.png","28","targets/42.png","direct","",""
"","image-slider-response","97","22593689","0.0-8.0-0.7","qvcu1wacak","one_one","1","direct_first","1","er04rt18","0","24","1","1","3","1","Während der ersten Skalen-Frage wurden mir nicht immer Zeichen angezeigt - wo dies der Fall war, habe ich immer möglich nahe an der Mitte der Skala geklickt.","0","1","0","7094.810000009835","","","","","pos","GS","abstract","4","category4/lin.png","-5","targets/22.png","direct","",""
"","image-slider-response","98","22599733","0.0-8.0-0.8","qvcu1wacak","one_one","1","direct_first","1","er04rt18","0","24","1","1","3","1","Während der ersten Skalen-Frage wurden mir nicht immer Zeichen angezeigt - wo dies der Fall war, habe ich immer möglich nahe an der Mitte der Skala geklickt.","0","1","0","6041.444999981672","","","","","neg","GS","GSold","3","category3/CS5.png","29","targets/9.png","direct","",""
"","image-slider-response","99","22603141","0.0-8.0-0.9","qvcu1wacak","one_one","1","direct_first","1","er04rt18","0","24","1","1","3","1","Während der ersten Skalen-Frage wurden mir nicht immer Zeichen angezeigt - wo dies der Fall war, habe ich immer möglich nahe an der Mitte der Skala geklickt.","0","1","0","3403.1899999827147","","","","","pos","GS","GSnew","4","category4/GS3.png","37","targets/37.png","direct","",""
"","image-slider-response","100","22605346","0.0-8.0-0.10","qvcu1wacak","one_one","1","direct_first","1","er04rt18","0","24","1","1","3","1","Während der ersten Skalen-Frage wurden mir nicht immer Zeichen angezeigt - wo dies der Fall war, habe ich immer möglich nahe an der Mitte der Skala geklickt.","0","1","0","2185.949999984354","","","","","pos","GS","GSold","4","category4/CS8.png","31","targets/23.png","direct","",""
"","image-slider-response","101","22609739","0.0-8.0-0.11","qvcu1wacak","one_one","1","direct_first","1","er04rt18","0","24","1","1","3","1","Während der ersten Skalen-Frage wurden mir nicht immer Zeichen angezeigt - wo dies der Fall war, habe ich immer möglich nahe an der Mitte der Skala geklickt.","0","1","0","4391.984999995679","","","","","neg","GS","GSnew","1","category1/GS2.png","-21","targets/24.png","direct","",""
"","image-slider-response","102","22612576","0.0-8.0-0.12","qvcu1wacak","one_one","1","direct_first","1","er04rt18","0","24","1","1","3","1","Während der ersten Skalen-Frage wurden mir nicht immer Zeichen angezeigt - wo dies der Fall war, habe ich immer möglich nahe an der Mitte der Skala geklickt.","0","1","0","2833.9949999935925","","","","","pos","GS","GSold","4","category4/CS1.png","59","targets/36.png","direct","",""
"","image-slider-response","103","22615122","0.0-8.0-0.13","qvcu1wacak","one_one","1","direct_first","1","er04rt18","0","24","1","1","3","1","Während der ersten Skalen-Frage wurden mir nicht immer Zeichen angezeigt - wo dies der Fall war, habe ich immer möglich nahe an der Mitte der Skala geklickt.","0","1","0","2544.0899999812245","","","","","pos","GS","GSnew","2","category2/GS3.png","60","targets/44.png","direct","",""
"","image-slider-response","104","22617349","0.0-8.0-0.14","qvcu1wacak","one_one","1","direct_first","1","er04rt18","0","24","1","1","3","1","Während der ersten Skalen-Frage wurden mir nicht immer Zeichen angezeigt - wo dies der Fall war, habe ich immer möglich nahe an der Mitte der Skala geklickt.","0","1","0","2224.7849999964237","","","","","pos","GS","GSold","2","category2/CS6.png","30","targets/13.png","direct","",""
"","image-slider-response","105","22621281","0.0-8.0-0.15","qvcu1wacak","one_one","1","direct_first","1","er04rt18","0","24","1","1","3","1","Während der ersten Skalen-Frage wurden mir nicht immer Zeichen angezeigt - wo dies der Fall war, habe ich immer möglich nahe an der Mitte der Skala geklickt.","0","1","0","3930.5349999926984","","","","","neg","CS","CS","3","category3/CS9.png","29","targets/41.png","direct","",""
"","image-slider-response","106","22626495","0.0-8.0-0.16","qvcu1wacak","one_one","1","direct_first","1","er04rt18","0","24","1","1","3","1","Während der ersten Skalen-Frage wurden mir nicht immer Zeichen angezeigt - wo dies der Fall war, habe ich immer möglich nahe an der Mitte der Skala geklickt.","0","1","0","5211.379999991506","","","","","neg","GS","GSold","3","category3/CS4.png","23","targets/2.png","direct","",""
"","image-slider-response","107","22629584","0.0-8.0-0.17","qvcu1wacak","one_one","1","direct_first","1","er04rt18","0","24","1","1","3","1","Während der ersten Skalen-Frage wurden mir nicht immer Zeichen angezeigt - wo dies der Fall war, habe ich immer möglich nahe an der Mitte der Skala geklickt.","0","1","0","3086.780000012368","","","","","neg","GS","GSnew","3","category3/GS2.png","-14","targets/12.png","direct","",""
"","image-slider-response","108","22631964","0.0-8.0-0.18","qvcu1wacak","one_one","1","direct_first","1","er04rt18","0","24","1","1","3","1","Während der ersten Skalen-Frage wurden mir nicht immer Zeichen angezeigt - wo dies der Fall war, habe ich immer möglich nahe an der Mitte der Skala geklickt.","0","1","0","2378.114999998361","","","","","neg","GS","GSnew","3","category3/GS3.png","-9","targets/34.png","direct","",""
"","image-slider-response","109","22634248","0.0-8.0-0.19","qvcu1wacak","one_one","1","direct_first","1","er04rt18","0","24","1","1","3","1","Während der ersten Skalen-Frage wurden mir nicht immer Zeichen angezeigt - wo dies der Fall war, habe ich immer möglich nahe an der Mitte der Skala geklickt.","0","1","0","2282.1200000196695","","","","","neg","GS","GSnew","1","category1/GS3.png","27","targets/30.png","direct","",""
"","image-slider-response","110","22636409","0.0-8.0-0.20","qvcu1wacak","one_one","1","direct_first","1","er04rt18","0","24","1","1","3","1","Während der ersten Skalen-Frage wurden mir nicht immer Zeichen angezeigt - wo dies der Fall war, habe ich immer möglich nahe an der Mitte der Skala geklickt.","0","1","0","2158.9550000205636","","","","","neg","GS","GSold","1","category1/CS4.png","26","targets/14.png","direct","",""
"","image-slider-response","111","22638429","0.0-8.0-0.21","qvcu1wacak","one_one","1","direct_first","1","er04rt18","0","24","1","1","3","1","Während der ersten Skalen-Frage wurden mir nicht immer Zeichen angezeigt - wo dies der Fall war, habe ich immer möglich nahe an der Mitte der Skala geklickt.","0","1","0","2018.1199999935925","","","","","pos","GS","GSnew","2","category2/GS1.png","23","targets/15.png","direct","",""
"","image-slider-response","112","22640671","0.0-8.0-0.22","qvcu1wacak","one_one","1","direct_first","1","er04rt18","0","24","1","1","3","1","Während der ersten Skalen-Frage wurden mir nicht immer Zeichen angezeigt - wo dies der Fall war, habe ich immer möglich nahe an der Mitte der Skala geklickt.","0","1","0","2239.2800000086427","","","","","pos","GS","GSnew","4","category4/GS2.png","-6","targets/20.png","direct","",""
"","image-slider-response","113","22644090","0.0-8.0-0.23","qvcu1wacak","one_one","1","direct_first","1","er04rt18","0","24","1","1","3","1","Während der ersten Skalen-Frage wurden mir nicht immer Zeichen angezeigt - wo dies der Fall war, habe ich immer möglich nahe an der Mitte der Skala geklickt.","0","1","0","3417.184999998659","","","","","pos","GS","GSnew","4","category4/GS1.png","5","targets/27.png","direct","",""
"","image-slider-response","114","22647631","0.0-8.0-0.24","qvcu1wacak","one_one","1","direct_first","1","er04rt18","0","24","1","1","3","1","Während der ersten Skalen-Frage wurden mir nicht immer Zeichen angezeigt - wo dies der Fall war, habe ich immer möglich nahe an der Mitte der Skala geklickt.","0","1","0","3537.959999985993","","","","","pos","CS","CS","2","category2/CS8.png","23","targets/32.png","direct","",""
"","image-slider-response","115","22650031","0.0-8.0-0.25","qvcu1wacak","one_one","1","direct_first","1","er04rt18","0","24","1","1","3","1","Während der ersten Skalen-Frage wurden mir nicht immer Zeichen angezeigt - wo dies der Fall war, habe ich immer möglich nahe an der Mitte der Skala geklickt.","0","1","0","2398.25","","","","","neg","GS","GSnew","1","category1/GS1.png","13","targets/29.png","direct","",""
"","image-slider-response","116","22653836","0.0-8.0-0.26","qvcu1wacak","one_one","1","direct_first","1","er04rt18","0","24","1","1","3","1","Während der ersten Skalen-Frage wurden mir nicht immer Zeichen angezeigt - wo dies der Fall war, habe ich immer möglich nahe an der Mitte der Skala geklickt.","0","1","0","3803.314999997616","","","","","neg","GS","abstract","3","category3/wang.png","-3","targets/1.png","direct","",""
"","image-slider-response","117","22655965","0.0-8.0-0.27","qvcu1wacak","one_one","1","direct_first","1","er04rt18","0","24","1","1","3","1","Während der ersten Skalen-Frage wurden mir nicht immer Zeichen angezeigt - wo dies der Fall war, habe ich immer möglich nahe an der Mitte der Skala geklickt.","0","1","0","2125.7899999916553","","","","","neg","GS","GSold","1","category1/CS10.png","14","targets/28.png","direct","",""
"","image-slider-response","118","22659041","0.0-8.0-0.28","qvcu1wacak","one_one","1","direct_first","1","er04rt18","0","24","1","1","3","1","Während der ersten Skalen-Frage wurden mir nicht immer Zeichen angezeigt - wo dies der Fall war, habe ich immer möglich nahe an der Mitte der Skala geklickt.","0","1","0","3074.5100000053644","","","","","pos","GS","GSold","4","category4/CS5.png","7","targets/6.png","direct","",""
"","image-slider-response","119","22661117","0.0-8.0-0.29","qvcu1wacak","one_one","1","direct_first","1","er04rt18","0","24","1","1","3","1","Während der ersten Skalen-Frage wurden mir nicht immer Zeichen angezeigt - wo dies der Fall war, habe ich immer möglich nahe an der Mitte der Skala geklickt.","0","1","0","2074.010000012815","","","","","pos","GS","GSnew","2","category2/GS2.png","19","targets/26.png","direct","",""
"","image-slider-response","120","22663782","0.0-8.0-0.30","qvcu1wacak","one_one","1","direct_first","1","er04rt18","0","24","1","1","3","1","Während der ersten Skalen-Frage wurden mir nicht immer Zeichen angezeigt - wo dies der Fall war, habe ich immer möglich nahe an der Mitte der Skala geklickt.","0","1","0","2662.6450000032783","","","","","pos","GS","abstract","2","category2/men.png","-4","targets/4.png","direct","",""
"","image-slider-response","121","22667811","0.0-8.0-0.31","qvcu1wacak","one_one","1","direct_first","1","er04rt18","0","24","1","1","3","1","Während der ersten Skalen-Frage wurden mir nicht immer Zeichen angezeigt - wo dies der Fall war, habe ich immer möglich nahe an der Mitte der Skala geklickt.","0","1","0","4026.974999986589","","","","","neg","GS","abstract","1","category1/ma.png","-15","targets/10.png","direct","",""
"","html-keyboard-response","122","22695680","0.0-9.0","qvcu1wacak","one_one","1","direct_first","1","er04rt18","0","24","1","1","3","1","Während der ersten Skalen-Frage wurden mir nicht immer Zeichen angezeigt - wo dies der Fall war, habe ich immer möglich nahe an der Mitte der Skala geklickt.","0","1","0","27858.575000021607","","","<p>Sie sehen nun die chinesischen Zeichen nur ganz kurz. Danach sehen Sie die jeweilige Aussprache der Zeichen als Silbe auf dem Bildschrim. Ihre Aufgabe ist es, für jede Silbe anzugeben, ob diese etwas angenehmes, oder unangenehmes bedeuten könnte. Verlassen Sie sich hier vor allem auf Ihre Intuition.<br><br>Die Zeichen werden nur zur Orientierung dargestellt, beachten Sie sie deshalb nicht. Konzentrieren Sie sich vor allem auf die Silben. <br>Reagieren Sie mit folgenden zwei Tasten: <br><br><b>'D' </b> wenn die Silbe etwas <b>unangenehmes</b> bedeuten könnte. <br><b>'K'</b> wenn die Silbe etwas <b>angenehmes</b> bedeuten könnte. <br><br>Bitte legen Sie nun den Zeigefinger der linken Hand auf die Taste 'D' und den Zeigefinger der rechten Hand auf die Taste 'K'. <br>Reagieren Sie auf jede Silbe so schnell wie möglich. Uns interessiert Ihre spontane Reaktion. <br> <br> <br>Drücken Sie 'D' oder 'K', um die nächste Aufgabe zu starten. </p>","75","","","","","","","","","",""
"","html-keyboard-response","123","22698685","0.0-10.0-0.0","qvcu1wacak","one_one","1","direct_first","1","er04rt18","0","24","1","1","3","1","Während der ersten Skalen-Frage wurden mir nicht immer Zeichen angezeigt - wo dies der Fall war, habe ich immer möglich nahe an der Mitte der Skala geklickt.","0","1","0","null","","","<div style=""font-size:60px;"">+</div>","null","","","","","","","","","",""
"","html-keyboard-response","124","22698784","0.0-10.0-1.0","qvcu1wacak","one_one","1","direct_first","1","er04rt18","0","24","1","1","3","1","Während der ersten Skalen-Frage wurden mir nicht immer Zeichen angezeigt - wo dies der Fall war, habe ich immer möglich nahe an der Mitte der Skala geklickt.","0","1","0","null","","","<img src = 'category1/CS2.png' width = '100%;'>","null","","","","","","","","","",""
"","html-keyboard-response","125","22699042","0.0-10.0-2.0","qvcu1wacak","one_one","1","direct_first","1","er04rt18","0","24","1","1","3","1","Während der ersten Skalen-Frage wurden mir nicht immer Zeichen angezeigt - wo dies der Fall war, habe ich immer möglich nahe an der Mitte der Skala geklickt.","0","1","0","null","","","<img src = 'targets/16.png' width = '100%;'>","null","","","","","","","","","",""
"","html-keyboard-response","126","22699531","0.0-10.0-3.0","qvcu1wacak","one_one","1","direct_first","1","er04rt18","0","24","1","1","3","1","Während der ersten Skalen-Frage wurden mir nicht immer Zeichen angezeigt - wo dies der Fall war, habe ich immer möglich nahe an der Mitte der Skala geklickt.","0","1","0","487.7550000064075","","","<img src = 'targets/mask.png' width = '100%;'>","68","neg","GS","GSold","1","category1/CS2.png","","targets/16.png","indirect","0","0"
"","html-keyboard-response","127","22701034","0.0-10.0-0.1","qvcu1wacak","one_one","1","direct_first","1","er04rt18","0","24","1","1","3","1","Während der ersten Skalen-Frage wurden mir nicht immer Zeichen angezeigt - wo dies der Fall war, habe ich immer möglich nahe an der Mitte der Skala geklickt.","0","1","0","null","","","<div style=""font-size:60px;"">+</div>","null","","","","","","","","","",""
"","html-keyboard-response","128","22701129","0.0-10.0-1.1","qvcu1wacak","one_one","1","direct_first","1","er04rt18","0","24","1","1","3","1","Während der ersten Skalen-Frage wurden mir nicht immer Zeichen angezeigt - wo dies der Fall war, habe ich immer möglich nahe an der Mitte der Skala geklickt.","0","1","0","null","","","<img src = 'category1/CS4.png' width = '100%;'>","null","","","","","","","","","",""
"","html-keyboard-response","129","22701385","0.0-10.0-2.1","qvcu1wacak","one_one","1","direct_first","1","er04rt18","0","24","1","1","3","1","Während der ersten Skalen-Frage wurden mir nicht immer Zeichen angezeigt - wo dies der Fall war, habe ich immer möglich nahe an der Mitte der Skala geklickt.","0","1","0","null","","","<img src = 'targets/14.png' width = '100%;'>","null","","","","","","","","","",""
"","html-keyboard-response","130","22701774","0.0-10.0-3.1","qvcu1wacak","one_one","1","direct_first","1","er04rt18","0","24","1","1","3","1","Während der ersten Skalen-Frage wurden mir nicht immer Zeichen angezeigt - wo dies der Fall war, habe ich immer möglich nahe an der Mitte der Skala geklickt.","0","1","0","387.66999999806285","","","<img src = 'targets/mask.png' width = '100%;'>","75","neg","GS","GSold","1","category1/CS4.png","","targets/14.png","indirect","1","1"
"","html-keyboard-response","131","22703279","0.0-10.0-0.2","qvcu1wacak","one_one","1","direct_first","1","er04rt18","0","24","1","1","3","1","Während der ersten Skalen-Frage wurden mir nicht immer Zeichen angezeigt - wo dies der Fall war, habe ich immer möglich nahe an der Mitte der Skala geklickt.","0","1","0","null","","","<div style=""font-size:60px;"">+</div>","null","","","","","","","","","",""
"","html-keyboard-response","132","22703370","0.0-10.0-1.2","qvcu1wacak","one_one","1","direct_first","1","er04rt18","0","24","1","1","3","1","Während der ersten Skalen-Frage wurden mir nicht immer Zeichen angezeigt - wo dies der Fall war, habe ich immer möglich nahe an der Mitte der Skala geklickt.","0","1","0","null","","","<img src = 'category3/CS4.png' width = '100%;'>","null","","","","","","","","","",""
"","html-keyboard-response","133","22703624","0.0-10.0-2.2","qvcu1wacak","one_one","1","direct_first","1","er04rt18","0","24","1","1","3","1","Während der ersten Skalen-Frage wurden mir nicht immer Zeichen angezeigt - wo dies der Fall war, habe ich immer möglich nahe an der Mitte der Skala geklickt.","0","1","0","null","","","<img src = 'targets/2.png' width = '100%;'>","null","","","","","","","","","",""
"","html-keyboard-response","134","22705288","0.0-10.0-3.2","qvcu1wacak","one_one","1","direct_first","1","er04rt18","0","24","1","1","3","1","Während der ersten Skalen-Frage wurden mir nicht immer Zeichen angezeigt - wo dies der Fall war, habe ich immer möglich nahe an der Mitte der Skala geklickt.","0","1","0","1662.820000000298","","","<img src = 'targets/mask.png' width = '100%;'>","68","neg","GS","GSold","3","category3/CS4.png","","targets/2.png","indirect","0","2"
"","html-keyboard-response","135","22706796","0.0-10.0-0.3","qvcu1wacak","one_one","1","direct_first","1","er04rt18","0","24","1","1","3","1","Während der ersten Skalen-Frage wurden mir nicht immer Zeichen angezeigt - wo dies der Fall war, habe ich immer möglich nahe an der Mitte der Skala geklickt.","0","1","0","null","","","<div style=""font-size:60px;"">+</div>","null","","","","","","","","","",""
"","html-keyboard-response","136","22706890","0.0-10.0-1.3","qvcu1wacak","one_one","1","direct_first","1","er04rt18","0","24","1","1","3","1","Während der ersten Skalen-Frage wurden mir nicht immer Zeichen angezeigt - wo dies der Fall war, habe ich immer möglich nahe an der Mitte der Skala geklickt.","0","1","0","null","","","<img src = 'category4/CS8.png' width = '100%;'>","null","","","","","","","","","",""
"","html-keyboard-response","137","22707144","0.0-10.0-2.3","qvcu1wacak","one_one","1","direct_first","1","er04rt18","0","24","1","1","3","1","Während der ersten Skalen-Frage wurden mir nicht immer Zeichen angezeigt - wo dies der Fall war, habe ich immer möglich nahe an der Mitte der Skala geklickt.","0","1","0","null","","","<img src = 'targets/23.png' width = '100%;'>","null","","","","","","","","","",""
"","html-keyboard-response","138","22707821","0.0-10.0-3.3","qvcu1wacak","one_one","1","direct_first","1","er04rt18","0","24","1","1","3","1","Während der ersten Skalen-Frage wurden mir nicht immer Zeichen angezeigt - wo dies der Fall war, habe ich immer möglich nahe an der Mitte der Skala geklickt.","0","1","0","675.940000012517","","","<img src = 'targets/mask.png' width = '100%;'>","68","pos","GS","GSold","4","category4/CS8.png","","targets/23.png","indirect","0","3"
"","html-keyboard-response","139","22709326","0.0-10.0-0.4","qvcu1wacak","one_one","1","direct_first","1","er04rt18","0","24","1","1","3","1","Während der ersten Skalen-Frage wurden mir nicht immer Zeichen angezeigt - wo dies der Fall war, habe ich immer möglich nahe an der Mitte der Skala geklickt.","0","1","0","null","","","<div style=""font-size:60px;"">+</div>","null","","","","","","","","","",""
"","html-keyboard-response","140","22709419","0.0-10.0-1.4","qvcu1wacak","one_one","1","direct_first","1","er04rt18","0","24","1","1","3","1","Während der ersten Skalen-Frage wurden mir nicht immer Zeichen angezeigt - wo dies der Fall war, habe ich immer möglich nahe an der Mitte der Skala geklickt.","0","1","0","null","","","<img src = 'category2/CS9.png' width = '100%;'>","null","","","","","","","","","",""
"","html-keyboard-response","141","22709675","0.0-10.0-2.4","qvcu1wacak","one_one","1","direct_first","1","er04rt18","0","24","1","1","3","1","Während der ersten Skalen-Frage wurden mir nicht immer Zeichen angezeigt - wo dies der Fall war, habe ich immer möglich nahe an der Mitte der Skala geklickt.","0","1","0","null","","","<img src = 'targets/33.png' width = '100%;'>","null","","","","","","","","","",""
"","html-keyboard-response","142","22710298","0.0-10.0-3.4","qvcu1wacak","one_one","1","direct_first","1","er04rt18","0","24","1","1","3","1","Während der ersten Skalen-Frage wurden mir nicht immer Zeichen angezeigt - wo dies der Fall war, habe ich immer möglich nahe an der Mitte der Skala geklickt.","0","1","0","621.7100000083447","","","<img src = 'targets/mask.png' width = '100%;'>","75","pos","GS","GSold","2","category2/CS9.png","","targets/33.png","indirect","1","4"
"","html-keyboard-response","143","22711805","0.0-10.0-0.5","qvcu1wacak","one_one","1","direct_first","1","er04rt18","0","24","1","1","3","1","Während der ersten Skalen-Frage wurden mir nicht immer Zeichen angezeigt - wo dies der Fall war, habe ich immer möglich nahe an der Mitte der Skala geklickt.","0","1","0","null","","","<div style=""font-size:60px;"">+</div>","null","","","","","","","","","",""
"","html-keyboard-response","144","22711898","0.0-10.0-1.5","qvcu1wacak","one_one","1","direct_first","1","er04rt18","0","24","1","1","3","1","Während der ersten Skalen-Frage wurden mir nicht immer Zeichen angezeigt - wo dies der Fall war, habe ich immer möglich nahe an der Mitte der Skala geklickt.","0","1","0","null","","","<img src = 'category2/CS6.png' width = '100%;'>","null","","","","","","","","","",""
"","html-keyboard-response","145","22712154","0.0-10.0-2.5","qvcu1wacak","one_one","1","direct_first","1","er04rt18","0","24","1","1","3","1","Während der ersten Skalen-Frage wurden mir nicht immer Zeichen angezeigt - wo dies der Fall war, habe ich immer möglich nahe an der Mitte der Skala geklickt.","0","1","0","null","","","<img src = 'targets/13.png' width = '100%;'>","null","","","","","","","","","",""
"","html-keyboard-response","146","22712816","0.0-10.0-3.5","qvcu1wacak","one_one","1","direct_first","1","er04rt18","0","24","1","1","3","1","Während der ersten Skalen-Frage wurden mir nicht immer Zeichen angezeigt - wo dies der Fall war, habe ich immer möglich nahe an der Mitte der Skala geklickt.","0","1","0","660.5899999849498","","","<img src = 'targets/mask.png' width = '100%;'>","75","pos","GS","GSold","2","category2/CS6.png","","targets/13.png","indirect","1","5"
"","html-keyboard-response","147","22714325","0.0-10.0-0.6","qvcu1wacak","one_one","1","direct_first","1","er04rt18","0","24","1","1","3","1","Während der ersten Skalen-Frage wurden mir nicht immer Zeichen angezeigt - wo dies der Fall war, habe ich immer möglich nahe an der Mitte der Skala geklickt.","0","1","0","null","","","<div style=""font-size:60px;"">+</div>","null","","","","","","","","","",""
"","html-keyboard-response","148","22714420","0.0-10.0-1.6","qvcu1wacak","one_one","1","direct_first","1","er04rt18","0","24","1","1","3","1","Während der ersten Skalen-Frage wurden mir nicht immer Zeichen angezeigt - wo dies der Fall war, habe ich immer möglich nahe an der Mitte der Skala geklickt.","0","1","0","null","","","<img src = 'category1/CS10.png' width = '100%;'>","null","","","","","","","","","",""
"","html-keyboard-response","149","22714679","0.0-10.0-2.6","qvcu1wacak","one_one","1","direct_first","1","er04rt18","0","24","1","1","3","1","Während der ersten Skalen-Frage wurden mir nicht immer Zeichen angezeigt - wo dies der Fall war, habe ich immer möglich nahe an der Mitte der Skala geklickt.","0","1","0","null","","","<img src = 'targets/28.png' width = '100%;'>","null","","","","","","","","","",""
"","html-keyboard-response","150","22715441","0.0-10.0-3.6","qvcu1wacak","one_one","1","direct_first","1","er04rt18","0","24","1","1","3","1","Während der ersten Skalen-Frage wurden mir nicht immer Zeichen angezeigt - wo dies der Fall war, habe ich immer möglich nahe an der Mitte der Skala geklickt.","0","1","0","760.7949999794364","","","<img src = 'targets/mask.png' width = '100%;'>","68","neg","GS","GSold","1","category1/CS10.png","","targets/28.png","indirect","0","6"
"","html-keyboard-response","151","22716949","0.0-10.0-0.7","qvcu1wacak","one_one","1","direct_first","1","er04rt18","0","24","1","1","3","1","Während der ersten Skalen-Frage wurden mir nicht immer Zeichen angezeigt - wo dies der Fall war, habe ich immer möglich nahe an der Mitte der Skala geklickt.","0","1","0","null","","","<div style=""font-size:60px;"">+</div>","null","","","","","","","","","",""
"","html-keyboard-response","152","22717042","0.0-10.0-1.7","qvcu1wacak","one_one","1","direct_first","1","er04rt18","0","24","1","1","3","1","Während der ersten Skalen-Frage wurden mir nicht immer Zeichen angezeigt - wo dies der Fall war, habe ich immer möglich nahe an der Mitte der Skala geklickt.","0","1","0","null","","","<img src = 'category2/CS8.png' width = '100%;'>","null","","","","","","","","","",""
"","html-keyboard-response","153","22717297","0.0-10.0-2.7","qvcu1wacak","one_one","1","direct_first","1","er04rt18","0","24","1","1","3","1","Während der ersten Skalen-Frage wurden mir nicht immer Zeichen angezeigt - wo dies der Fall war, habe ich immer möglich nahe an der Mitte der Skala geklickt.","0","1","0","null","","","<img src = 'targets/32.png' width = '100%;'>","null","","","","","","","","","",""
"","html-keyboard-response","154","22717676","0.0-10.0-3.7","qvcu1wacak","one_one","1","direct_first","1","er04rt18","0","24","1","1","3","1","Während der ersten Skalen-Frage wurden mir nicht immer Zeichen angezeigt - wo dies der Fall war, habe ich immer möglich nahe an der Mitte der Skala geklickt.","0","1","0","377.89000000432134","","","<img src = 'targets/mask.png' width = '100%;'>","75","pos","CS","CS","2","category2/CS8.png","","targets/32.png","indirect","1","7"
"","html-keyboard-response","155","22719184","0.0-10.0-0.8","qvcu1wacak","one_one","1","direct_first","1","er04rt18","0","24","1","1","3","1","Während der ersten Skalen-Frage wurden mir nicht immer Zeichen angezeigt - wo dies der Fall war, habe ich immer möglich nahe an der Mitte der Skala geklickt.","0","1","0","null","","","<div style=""font-size:60px;"">+</div>","null","","","","","","","","","",""
"","html-keyboard-response","156","22719276","0.0-10.0-1.8","qvcu1wacak","one_one","1","direct_first","1","er04rt18","0","24","1","1","3","1","Während der ersten Skalen-Frage wurden mir nicht immer Zeichen angezeigt - wo dies der Fall war, habe ich immer möglich nahe an der Mitte der Skala geklickt.","0","1","0","null","","","<img src = 'category4/CS9.png' width = '100%;'>","null","","","","","","","","","",""
"","html-keyboard-response","157","22719530","0.0-10.0-2.8","qvcu1wacak","one_one","1","direct_first","1","er04rt18","0","24","1","1","3","1","Während der ersten Skalen-Frage wurden mir nicht immer Zeichen angezeigt - wo dies der Fall war, habe ich immer möglich nahe an der Mitte der Skala geklickt.","0","1","0","null","","","<img src = 'targets/35.png' width = '100%;'>","null","","","","","","","","","",""
"","html-keyboard-response","158","22719946","0.0-10.0-3.8","qvcu1wacak","one_one","1","direct_first","1","er04rt18","0","24","1","1","3","1","Während der ersten Skalen-Frage wurden mir nicht immer Zeichen angezeigt - wo dies der Fall war, habe ich immer möglich nahe an der Mitte der Skala geklickt.","0","1","0","414.5799999795854","","","<img src = 'targets/mask.png' width = '100%;'>","75","pos","CS","CS","4","category4/CS9.png","","targets/35.png","indirect","1","8"
"","html-keyboard-response","159","22721453","0.0-10.0-0.9","qvcu1wacak","one_one","1","direct_first","1","er04rt18","0","24","1","1","3","1","Während der ersten Skalen-Frage wurden mir nicht immer Zeichen angezeigt - wo dies der Fall war, habe ich immer möglich nahe an der Mitte der Skala geklickt.","0","1","0","null","","","<div style=""font-size:60px;"">+</div>","null","","","","","","","","","",""
"","html-keyboard-response","160","22721546","0.0-10.0-1.9","qvcu1wacak","one_one","1","direct_first","1","er04rt18","0","24","1","1","3","1","Während der ersten Skalen-Frage wurden mir nicht immer Zeichen angezeigt - wo dies der Fall war, habe ich immer möglich nahe an der Mitte der Skala geklickt.","0","1","0","null","","","<img src = 'category4/CS1.png' width = '100%;'>","null","","","","","","","","","",""
"","html-keyboard-response","161","22721802","0.0-10.0-2.9","qvcu1wacak","one_one","1","direct_first","1","er04rt18","0","24","1","1","3","1","Während der ersten Skalen-Frage wurden mir nicht immer Zeichen angezeigt - wo dies der Fall war, habe ich immer möglich nahe an der Mitte der Skala geklickt.","0","1","0","null","","","<img src = 'targets/36.png' width = '100%;'>","null","","","","","","","","","",""
"","html-keyboard-response","162","22722076","0.0-10.0-3.9","qvcu1wacak","one_one","1","direct_first","1","er04rt18","0","24","1","1","3","1","Während der ersten Skalen-Frage wurden mir nicht immer Zeichen angezeigt - wo dies der Fall war, habe ich immer möglich nahe an der Mitte der Skala geklickt.","0","1","0","273.0849999934435","","","<img src = 'targets/mask.png' width = '100%;'>","75","pos","GS","GSold","4","category4/CS1.png","","targets/36.png","indirect","1","9"
"","html-keyboard-response","163","22723584","0.0-10.0-0.10","qvcu1wacak","one_one","1","direct_first","1","er04rt18","0","24","1","1","3","1","Während der ersten Skalen-Frage wurden mir nicht immer Zeichen angezeigt - wo dies der Fall war, habe ich immer möglich nahe an der Mitte der Skala geklickt.","0","1","0","null","","","<div style=""font-size:60px;"">+</div>","null","","","","","","","","","",""
"","html-keyboard-response","164","22723675","0.0-10.0-1.10","qvcu1wacak","one_one","1","direct_first","1","er04rt18","0","24","1","1","3","1","Während der ersten Skalen-Frage wurden mir nicht immer Zeichen angezeigt - wo dies der Fall war, habe ich immer möglich nahe an der Mitte der Skala geklickt.","0","1","0","null","","","<img src = 'category3/CS8.png' width = '100%;'>","null","","","","","","","","","",""
"","html-keyboard-response","165","22723932","0.0-10.0-2.10","qvcu1wacak","one_one","1","direct_first","1","er04rt18","0","24","1","1","3","1","Während der ersten Skalen-Frage wurden mir nicht immer Zeichen angezeigt - wo dies der Fall war, habe ich immer möglich nahe an der Mitte der Skala geklickt.","0","1","0","null","","","<img src = 'targets/39.png' width = '100%;'>","null","","","","","","","","","",""
"","html-keyboard-response","166","22724342","0.0-10.0-3.10","qvcu1wacak","one_one","1","direct_first","1","er04rt18","0","24","1","1","3","1","Während der ersten Skalen-Frage wurden mir nicht immer Zeichen angezeigt - wo dies der Fall war, habe ich immer möglich nahe an der Mitte der Skala geklickt.","0","1","0","408.15500001236796","","","<img src = 'targets/mask.png' width = '100%;'>","68","neg","GS","GSold","3","category3/CS8.png","","targets/39.png","indirect","0","10"
"","html-keyboard-response","167","22725849","0.0-10.0-0.11","qvcu1wacak","one_one","1","direct_first","1","er04rt18","0","24","1","1","3","1","Während der ersten Skalen-Frage wurden mir nicht immer Zeichen angezeigt - wo dies der Fall war, habe ich immer möglich nahe an der Mitte der Skala geklickt.","0","1","0","null","","","<div style=""font-size:60px;"">+</div>","null","","","","","","","","","",""
"","html-keyboard-response","168","22725941","0.0-10.0-1.11","qvcu1wacak","one_one","1","direct_first","1","er04rt18","0","24","1","1","3","1","Während der ersten Skalen-Frage wurden mir nicht immer Zeichen angezeigt - wo dies der Fall war, habe ich immer möglich nahe an der Mitte der Skala geklickt.","0","1","0","null","","","<img src = 'category3/CS5.png' width = '100%;'>","null","","","","","","","","","",""
"","html-keyboard-response","169","22726196","0.0-10.0-2.11","qvcu1wacak","one_one","1","direct_first","1","er04rt18","0","24","1","1","3","1","Während der ersten Skalen-Frage wurden mir nicht immer Zeichen angezeigt - wo dies der Fall war, habe ich immer möglich nahe an der Mitte der Skala geklickt.","0","1","0","null","","","<img src = 'targets/9.png' width = '100%;'>","null","","","","","","","","","",""
"","html-keyboard-response","170","22726411","0.0-10.0-3.11","qvcu1wacak","one_one","1","direct_first","1","er04rt18","0","24","1","1","3","1","Während der ersten Skalen-Frage wurden mir nicht immer Zeichen angezeigt - wo dies der Fall war, habe ich immer möglich nahe an der Mitte der Skala geklickt.","0","1","0","213.71000000834465","","","<img src = 'targets/mask.png' width = '100%;'>","75","neg","GS","GSold","3","category3/CS5.png","","targets/9.png","indirect","1","11"
"","html-keyboard-response","171","22727918","0.0-10.0-0.12","qvcu1wacak","one_one","1","direct_first","1","er04rt18","0","24","1","1","3","1","Während der ersten Skalen-Frage wurden mir nicht immer Zeichen angezeigt - wo dies der Fall war, habe ich immer möglich nahe an der Mitte der Skala geklickt.","0","1","0","null","","","<div style=""font-size:60px;"">+</div>","null","","","","","","","","","",""
"","html-keyboard-response","172","22728013","0.0-10.0-1.12","qvcu1wacak","one_one","1","direct_first","1","er04rt18","0","24","1","1","3","1","Während der ersten Skalen-Frage wurden mir nicht immer Zeichen angezeigt - wo dies der Fall war, habe ich immer möglich nahe an der Mitte der Skala geklickt.","0","1","0","null","","","<img src = 'category2/CS7.png' width = '100%;'>","null","","","","","","","","","",""
"","html-keyboard-response","173","22728269","0.0-10.0-2.12","qvcu1wacak","one_one","1","direct_first","1","er04rt18","0","24","1","1","3","1","Während der ersten Skalen-Frage wurden mir nicht immer Zeichen angezeigt - wo dies der Fall war, habe ich immer möglich nahe an der Mitte der Skala geklickt.","0","1","0","null","","","<img src = 'targets/40.png' width = '100%;'>","null","","","","","","","","","",""
"","html-keyboard-response","174","22728750","0.0-10.0-3.12","qvcu1wacak","one_one","1","direct_first","1","er04rt18","0","24","1","1","3","1","Während der ersten Skalen-Frage wurden mir nicht immer Zeichen angezeigt - wo dies der Fall war, habe ich immer möglich nahe an der Mitte der Skala geklickt.","0","1","0","479.69999999552965","","","<img src = 'targets/mask.png' width = '100%;'>","68","pos","GS","GSold","2","category2/CS7.png","","targets/40.png","indirect","0","12"
"","html-keyboard-response","175","22730254","0.0-10.0-0.13","qvcu1wacak","one_one","1","direct_first","1","er04rt18","0","24","1","1","3","1","Während der ersten Skalen-Frage wurden mir nicht immer Zeichen angezeigt - wo dies der Fall war, habe ich immer möglich nahe an der Mitte der Skala geklickt.","0","1","0","null","","","<div style=""font-size:60px;"">+</div>","null","","","","","","","","","",""
"","html-keyboard-response","176","22730347","0.0-10.0-1.13","qvcu1wacak","one_one","1","direct_first","1","er04rt18","0","24","1","1","3","1","Während der ersten Skalen-Frage wurden mir nicht immer Zeichen angezeigt - wo dies der Fall war, habe ich immer möglich nahe an der Mitte der Skala geklickt.","0","1","0","null","","","<img src = 'category3/CS9.png' width = '100%;'>","null","","","","","","","","","",""
"","html-keyboard-response","177","22730602","0.0-10.0-2.13","qvcu1wacak","one_one","1","direct_first","1","er04rt18","0","24","1","1","3","1","Während der ersten Skalen-Frage wurden mir nicht immer Zeichen angezeigt - wo dies der Fall war, habe ich immer möglich nahe an der Mitte der Skala geklickt.","0","1","0","null","","","<img src = 'targets/41.png' width = '100%;'>","null","","","","","","","","","",""
"","html-keyboard-response","178","22731073","0.0-10.0-3.13","qvcu1wacak","one_one","1","direct_first","1","er04rt18","0","24","1","1","3","1","Während der ersten Skalen-Frage wurden mir nicht immer Zeichen angezeigt - wo dies der Fall war, habe ich immer möglich nahe an der Mitte der Skala geklickt.","0","1","0","469.1849999949336","","","<img src = 'targets/mask.png' width = '100%;'>","68","neg","CS","CS","3","category3/CS9.png","","targets/41.png","indirect","0","13"
"","html-keyboard-response","179","22732582","0.0-10.0-0.14","qvcu1wacak","one_one","1","direct_first","1","er04rt18","0","24","1","1","3","1","Während der ersten Skalen-Frage wurden mir nicht immer Zeichen angezeigt - wo dies der Fall war, habe ich immer möglich nahe an der Mitte der Skala geklickt.","0","1","0","null","","","<div style=""font-size:60px;"">+</div>","null","","","","","","","","","",""
"","html-keyboard-response","180","22732675","0.0-10.0-1.14","qvcu1wacak","one_one","1","direct_first","1","er04rt18","0","24","1","1","3","1","Während der ersten Skalen-Frage wurden mir nicht immer Zeichen angezeigt - wo dies der Fall war, habe ich immer möglich nahe an der Mitte der Skala geklickt.","0","1","0","null","","","<img src = 'category4/CS5.png' width = '100%;'>","null","","","","","","","","","",""
"","html-keyboard-response","181","22732930","0.0-10.0-2.14","qvcu1wacak","one_one","1","direct_first","1","er04rt18","0","24","1","1","3","1","Während der ersten Skalen-Frage wurden mir nicht immer Zeichen angezeigt - wo dies der Fall war, habe ich immer möglich nahe an der Mitte der Skala geklickt.","0","1","0","null","","","<img src = 'targets/6.png' width = '100%;'>","null","","","","","","","","","",""
"","html-keyboard-response","182","22733347","0.0-10.0-3.14","qvcu1wacak","one_one","1","direct_first","1","er04rt18","0","24","1","1","3","1","Während der ersten Skalen-Frage wurden mir nicht immer Zeichen angezeigt - wo dies der Fall war, habe ich immer möglich nahe an der Mitte der Skala geklickt.","0","1","0","415.78499998897314","","","<img src = 'targets/mask.png' width = '100%;'>","75","pos","GS","GSold","4","category4/CS5.png","","targets/6.png","indirect","1","14"
"","html-keyboard-response","183","22734852","0.0-10.0-0.15","qvcu1wacak","one_one","1","direct_first","1","er04rt18","0","24","1","1","3","1","Während der ersten Skalen-Frage wurden mir nicht immer Zeichen angezeigt - wo dies der Fall war, habe ich immer möglich nahe an der Mitte der Skala geklickt.","0","1","0","null","","","<div style=""font-size:60px;"">+</div>","null","","","","","","","","","",""
"","html-keyboard-response","184","22734945","0.0-10.0-1.15","qvcu1wacak","one_one","1","direct_first","1","er04rt18","0","24","1","1","3","1","Während der ersten Skalen-Frage wurden mir nicht immer Zeichen angezeigt - wo dies der Fall war, habe ich immer möglich nahe an der Mitte der Skala geklickt.","0","1","0","null","","","<img src = 'category1/CS8.png' width = '100%;'>","null","","","","","","","","","",""
"","html-keyboard-response","185","22735200","0.0-10.0-2.15","qvcu1wacak","one_one","1","direct_first","1","er04rt18","0","24","1","1","3","1","Während der ersten Skalen-Frage wurden mir nicht immer Zeichen angezeigt - wo dies der Fall war, habe ich immer möglich nahe an der Mitte der Skala geklickt.","0","1","0","null","","","<img src = 'targets/42.png' width = '100%;'>","null","","","","","","","","","",""
"","html-keyboard-response","186","22735643","0.0-10.0-3.15","qvcu1wacak","one_one","1","direct_first","1","er04rt18","0","24","1","1","3","1","Während der ersten Skalen-Frage wurden mir nicht immer Zeichen angezeigt - wo dies der Fall war, habe ich immer möglich nahe an der Mitte der Skala geklickt.","0","1","0","442.08000000566244","","","<img src = 'targets/mask.png' width = '100%;'>","68","neg","CS","CS","1","category1/CS8.png","","targets/42.png","indirect","0","15"
"","survey-html-form","187","22737714","0.0-11.0","qvcu1wacak","one_one","1","direct_first","1","er04rt18","0","24","1","1","3","1","Während der ersten Skalen-Frage wurden mir nicht immer Zeichen angezeigt - wo dies der Fall war, habe ich immer möglich nahe an der Mitte der Skala geklickt.","0","1","0","1560.7299999967217","","{}","","","","","","","","","","","",""
"","html-keyboard-response","188","22740721","0.0-12.0-0.0","qvcu1wacak","one_one","1","direct_first","1","er04rt18","0","24","1","1","3","1","Während der ersten Skalen-Frage wurden mir nicht immer Zeichen angezeigt - wo dies der Fall war, habe ich immer möglich nahe an der Mitte der Skala geklickt.","0","1","0","null","","","<div style=""font-size:60px;"">+</div>","null","","","","","","","","","",""
"","html-keyboard-response","189","22740814","0.0-12.0-1.0","qvcu1wacak","one_one","1","direct_first","1","er04rt18","0","24","1","1","3","1","Während der ersten Skalen-Frage wurden mir nicht immer Zeichen angezeigt - wo dies der Fall war, habe ich immer möglich nahe an der Mitte der Skala geklickt.","0","1","0","null","","","<img src = 'category1/GS1.png' width = '100%;'>","null","","","","","","","","","",""
"","html-keyboard-response","190","22741069","0.0-12.0-2.0","qvcu1wacak","one_one","1","direct_first","1","er04rt18","0","24","1","1","3","1","Während der ersten Skalen-Frage wurden mir nicht immer Zeichen angezeigt - wo dies der Fall war, habe ich immer möglich nahe an der Mitte der Skala geklickt.","0","1","0","null","","","<img src = 'targets/29.png' width = '100%;'>","null","","","","","","","","","",""
"","html-keyboard-response","191","22741542","0.0-12.0-3.0","qvcu1wacak","one_one","1","direct_first","1","er04rt18","0","24","1","1","3","1","Während der ersten Skalen-Frage wurden mir nicht immer Zeichen angezeigt - wo dies der Fall war, habe ich immer möglich nahe an der Mitte der Skala geklickt.","0","1","0","471.0900000035763","","","<img src = 'targets/mask.png' width = '100%;'>","75","neg","GS","GSnew","1","category1/GS1.png","","targets/29.png","indirect","1","16"
"","html-keyboard-response","192","22743048","0.0-12.0-0.1","qvcu1wacak","one_one","1","direct_first","1","er04rt18","0","24","1","1","3","1","Während der ersten Skalen-Frage wurden mir nicht immer Zeichen angezeigt - wo dies der Fall war, habe ich immer möglich nahe an der Mitte der Skala geklickt.","0","1","0","null","","","<div style=""font-size:60px;"">+</div>","null","","","","","","","","","",""
"","html-keyboard-response","193","22743142","0.0-12.0-1.1","qvcu1wacak","one_one","1","direct_first","1","er04rt18","0","24","1","1","3","1","Während der ersten Skalen-Frage wurden mir nicht immer Zeichen angezeigt - wo dies der Fall war, habe ich immer möglich nahe an der Mitte der Skala geklickt.","0","1","0","null","","","<img src = 'category3/GS3.png' width = '100%;'>","null","","","","","","","","","",""
"","html-keyboard-response","194","22743397","0.0-12.0-2.1","qvcu1wacak","one_one","1","direct_first","1","er04rt18","0","24","1","1","3","1","Während der ersten Skalen-Frage wurden mir nicht immer Zeichen angezeigt - wo dies der Fall war, habe ich immer möglich nahe an der Mitte der Skala geklickt.","0","1","0","null","","","<img src = 'targets/34.png' width = '100%;'>","null","","","","","","","","","",""
"","html-keyboard-response","195","22743733","0.0-12.0-3.1","qvcu1wacak","one_one","1","direct_first","1","er04rt18","0","24","1","1","3","1","Während der ersten Skalen-Frage wurden mir nicht immer Zeichen angezeigt - wo dies der Fall war, habe ich immer möglich nahe an der Mitte der Skala geklickt.","0","1","0","335.12999999150634","","","<img src = 'targets/mask.png' width = '100%;'>","68","neg","GS","GSnew","3","category3/GS3.png","","targets/34.png","indirect","0","17"
"","html-keyboard-response","196","22745241","0.0-12.0-0.2","qvcu1wacak","one_one","1","direct_first","1","er04rt18","0","24","1","1","3","1","Während der ersten Skalen-Frage wurden mir nicht immer Zeichen angezeigt - wo dies der Fall war, habe ich immer möglich nahe an der Mitte der Skala geklickt.","0","1","0","null","","","<div style=""font-size:60px;"">+</div>","null","","","","","","","","","",""
"","html-keyboard-response","197","22745336","0.0-12.0-1.2","qvcu1wacak","one_one","1","direct_first","1","er04rt18","0","24","1","1","3","1","Während der ersten Skalen-Frage wurden mir nicht immer Zeichen angezeigt - wo dies der Fall war, habe ich immer möglich nahe an der Mitte der Skala geklickt.","0","1","0","null","","","<img src = 'category3/GS1.png' width = '100%;'>","null","","","","","","","","","",""
"","html-keyboard-response","198","22745591","0.0-12.0-2.2","qvcu1wacak","one_one","1","direct_first","1","er04rt18","0","24","1","1","3","1","Während der ersten Skalen-Frage wurden mir nicht immer Zeichen angezeigt - wo dies der Fall war, habe ich immer möglich nahe an der Mitte der Skala geklickt.","0","1","0","null","","","<img src = 'targets/43.png' width = '100%;'>","null","","","","","","","","","",""
"","html-keyboard-response","199","22746032","0.0-12.0-3.2","qvcu1wacak","one_one","1","direct_first","1","er04rt18","0","24","1","1","3","1","Während der ersten Skalen-Frage wurden mir nicht immer Zeichen angezeigt - wo dies der Fall war, habe ich immer möglich nahe an der Mitte der Skala geklickt.","0","1","0","439.6950000077486","","","<img src = 'targets/mask.png' width = '100%;'>","75","neg","GS","GSnew","3","category3/GS1.png","","targets/43.png","indirect","1","18"
"","html-keyboard-response","200","22747541","0.0-12.0-0.3","qvcu1wacak","one_one","1","direct_first","1","er04rt18","0","24","1","1","3","1","Während der ersten Skalen-Frage wurden mir nicht immer Zeichen angezeigt - wo dies der Fall war, habe ich immer möglich nahe an der Mitte der Skala geklickt.","0","1","0","null","","","<div style=""font-size:60px;"">+</div>","null","","","","","","","","","",""
"","html-keyboard-response","201","22747635","0.0-12.0-1.3","qvcu1wacak","one_one","1","direct_first","1","er04rt18","0","24","1","1","3","1","Während der ersten Skalen-Frage wurden mir nicht immer Zeichen angezeigt - wo dies der Fall war, habe ich immer möglich nahe an der Mitte der Skala geklickt.","0","1","0","null","","","<img src = 'category2/men.png' width = '100%;'>","null","","","","","","","","","",""
"","html-keyboard-response","202","22747890","0.0-12.0-2.3","qvcu1wacak","one_one","1","direct_first","1","er04rt18","0","24","1","1","3","1","Während der ersten Skalen-Frage wurden mir nicht immer Zeichen angezeigt - wo dies der Fall war, habe ich immer möglich nahe an der Mitte der Skala geklickt.","0","1","0","null","","","<img src = 'targets/4.png' width = '100%;'>","null","","","","","","","","","",""
"","html-keyboard-response","203","22748515","0.0-12.0-3.3","qvcu1wacak","one_one","1","direct_first","1","er04rt18","0","24","1","1","3","1","Während der ersten Skalen-Frage wurden mir nicht immer Zeichen angezeigt - wo dies der Fall war, habe ich immer möglich nahe an der Mitte der Skala geklickt.","0","1","0","623.5699999965727","","","<img src = 'targets/mask.png' width = '100%;'>","68","pos","GS","abstract","2","category2/men.png","","targets/4.png","indirect","0","19"
"","html-keyboard-response","204","22750019","0.0-12.0-0.4","qvcu1wacak","one_one","1","direct_first","1","er04rt18","0","24","1","1","3","1","Während der ersten Skalen-Frage wurden mir nicht immer Zeichen angezeigt - wo dies der Fall war, habe ich immer möglich nahe an der Mitte der Skala geklickt.","0","1","0","null","","","<div style=""font-size:60px;"">+</div>","null","","","","","","","","","",""
"","html-keyboard-response","205","22750114","0.0-12.0-1.4","qvcu1wacak","one_one","1","direct_first","1","er04rt18","0","24","1","1","3","1","Während der ersten Skalen-Frage wurden mir nicht immer Zeichen angezeigt - wo dies der Fall war, habe ich immer möglich nahe an der Mitte der Skala geklickt.","0","1","0","null","","","<img src = 'category1/ma.png' width = '100%;'>","null","","","","","","","","","",""
