"success","trial_type","trial_index","time_elapsed","internal_node_id","subject","condition","condition_code","measure","measure_code","codeword","gender","age","education","chinese","fach","handedness","comment","hinschauen","ablenkung","gewissenhaft","rt","url","responses","stimulus","key_press","val","type","type_specific","category","cs_selected","response","target","task","indirect","nr_pres"
"true","fullscreen","0","9425","0.0-0.0","nofyny1e4o","one_one","1","direct_first","1","er09ro30","0","22","1","1","3","1","es war sehr schwierig die Zeichen so schnell zu sehen, und mir ist aufgefallen, dass alle Zeichen mit einer Leiter habe ich direkt in Verbindung gebrahct mit dem leidenden Kind. ","0","1","0","","","","","","","","","","","","","","",""
"","external-html","1","61194","0.0-1.0","nofyny1e4o","one_one","1","direct_first","1","er09ro30","0","22","1","1","3","1","es war sehr schwierig die Zeichen so schnell zu sehen, und mir ist aufgefallen, dass alle Zeichen mit einer Leiter habe ich direkt in Verbindung gebrahct mit dem leidenden Kind. ","0","1","0","51713","text/information.html","","","","","","","","","","","","",""
"","external-html","2","79477","0.0-2.0","nofyny1e4o","one_one","1","direct_first","1","er09ro30","0","22","1","1","3","1","es war sehr schwierig die Zeichen so schnell zu sehen, und mir ist aufgefallen, dass alle Zeichen mit einer Leiter habe ich direkt in Verbindung gebrahct mit dem leidenden Kind. ","0","1","0","17980","text/consent.html","","","","","","","","","","","","",""
"","survey-html-form","3","144290","0.0-3.0","nofyny1e4o","one_one","1","direct_first","1","er09ro30","0","22","1","1","3","1","es war sehr schwierig die Zeichen so schnell zu sehen, und mir ist aufgefallen, dass alle Zeichen mit einer Leiter habe ich direkt in Verbindung gebrahct mit dem leidenden Kind. ","0","1","0","64809","","{""codeword_enter"":""er09ro30""}","","","","","","","","","","","",""
"","survey-html-form","4","174969","0.0-4.0","nofyny1e4o","one_one","1","direct_first","1","er09ro30","0","22","1","1","3","1","es war sehr schwierig die Zeichen so schnell zu sehen, und mir ist aufgefallen, dass alle Zeichen mit einer Leiter habe ich direkt in Verbindung gebrahct mit dem leidenden Kind. ","0","1","0","30672","","{""age"":""22"",""education"":""1"",""subject"":""3"",""gender"":""0"",""handedness"":""1"",""chinese"":""1""}","","","","","","","","","","","",""
"","survey-html-form","5","177419","0.0-5.0","nofyny1e4o","one_one","1","direct_first","1","er09ro30","0","22","1","1","3","1","es war sehr schwierig die Zeichen so schnell zu sehen, und mir ist aufgefallen, dass alle Zeichen mit einer Leiter habe ich direkt in Verbindung gebrahct mit dem leidenden Kind. ","0","1","0","2448","","{}","","","","","","","","","","","",""
"","html-keyboard-response","6","181449","0.0-6.0-0.0-0.0","nofyny1e4o","one_one","1","direct_first","1","er09ro30","0","22","1","1","3","1","es war sehr schwierig die Zeichen so schnell zu sehen, und mir ist aufgefallen, dass alle Zeichen mit einer Leiter habe ich direkt in Verbindung gebrahct mit dem leidenden Kind. ","0","1","0","null","","","<div class = 'row'><div class = 'column'><img src = 'category1/CS4.png' width = '70%;'></div><div class = 'column'><img src = 'uspos/1460.bmp' width = '100%;'></div></div>","null","pos","CS","CS","1","category1/CS4.png","","","","",""
"","html-keyboard-response","7","183977","0.0-6.0-0.0-0.1","nofyny1e4o","one_one","1","direct_first","1","er09ro30","0","22","1","1","3","1","es war sehr schwierig die Zeichen so schnell zu sehen, und mir ist aufgefallen, dass alle Zeichen mit einer Leiter habe ich direkt in Verbindung gebrahct mit dem leidenden Kind. ","0","1","0","null","","","<div class = 'row'><div class = 'column'><img src = 'usneg/9330.bmp' width = '100%;'></div><div class = 'column'><img src = 'category4/CS4.png' width = '70%;'></div></div>","null","neg","CS","CS","4","category4/CS4.png","","","","",""
"","html-keyboard-response","8","186504","0.0-6.0-0.0-0.2","nofyny1e4o","one_one","1","direct_first","1","er09ro30","0","22","1","1","3","1","es war sehr schwierig die Zeichen so schnell zu sehen, und mir ist aufgefallen, dass alle Zeichen mit einer Leiter habe ich direkt in Verbindung gebrahct mit dem leidenden Kind. ","0","1","0","null","","","<div class = 'row'><div class = 'column'><img src = 'category1/CS4.png' width = '70%;'></div><div class = 'column'><img src = 'uspos/1460.bmp' width = '100%;'></div></div>","null","pos","CS","CS","1","category1/CS4.png","","","","",""
"","html-keyboard-response","9","189011","0.0-6.0-0.0-0.3","nofyny1e4o","one_one","1","direct_first","1","er09ro30","0","22","1","1","3","1","es war sehr schwierig die Zeichen so schnell zu sehen, und mir ist aufgefallen, dass alle Zeichen mit einer Leiter habe ich direkt in Verbindung gebrahct mit dem leidenden Kind. ","0","1","0","null","","","<div class = 'row'><div class = 'column'><img src = 'category2/CS9.png' width = '70%;'></div><div class = 'column'><img src = 'uspos/2165.bmp' width = '100%;'></div></div>","null","pos","CS","CS","2","category2/CS9.png","","","","",""
"","html-keyboard-response","10","191528","0.0-6.0-0.0-0.4","nofyny1e4o","one_one","1","direct_first","1","er09ro30","0","22","1","1","3","1","es war sehr schwierig die Zeichen so schnell zu sehen, und mir ist aufgefallen, dass alle Zeichen mit einer Leiter habe ich direkt in Verbindung gebrahct mit dem leidenden Kind. ","0","1","0","null","","","<div class = 'row'><div class = 'column'><img src = 'category1/CS4.png' width = '70%;'></div><div class = 'column'><img src = 'uspos/1460.bmp' width = '100%;'></div></div>","null","pos","CS","CS","1","category1/CS4.png","","","","",""
"","html-keyboard-response","11","194054","0.0-6.0-0.0-0.5","nofyny1e4o","one_one","1","direct_first","1","er09ro30","0","22","1","1","3","1","es war sehr schwierig die Zeichen so schnell zu sehen, und mir ist aufgefallen, dass alle Zeichen mit einer Leiter habe ich direkt in Verbindung gebrahct mit dem leidenden Kind. ","0","1","0","null","","","<div class = 'row'><div class = 'column'><img src = 'usneg/9330.bmp' width = '100%;'></div><div class = 'column'><img src = 'category4/CS4.png' width = '70%;'></div></div>","null","neg","CS","CS","4","category4/CS4.png","","","","",""
"","html-keyboard-response","12","196573","0.0-6.0-0.0-0.6","nofyny1e4o","one_one","1","direct_first","1","er09ro30","0","22","1","1","3","1","es war sehr schwierig die Zeichen so schnell zu sehen, und mir ist aufgefallen, dass alle Zeichen mit einer Leiter habe ich direkt in Verbindung gebrahct mit dem leidenden Kind. ","0","1","0","null","","","<div class = 'row'><div class = 'column'><img src = 'category2/CS9.png' width = '70%;'></div><div class = 'column'><img src = 'uspos/2165.bmp' width = '100%;'></div></div>","null","pos","CS","CS","2","category2/CS9.png","","","","",""
"","html-keyboard-response","13","199090","0.0-6.0-0.0-0.7","nofyny1e4o","one_one","1","direct_first","1","er09ro30","0","22","1","1","3","1","es war sehr schwierig die Zeichen so schnell zu sehen, und mir ist aufgefallen, dass alle Zeichen mit einer Leiter habe ich direkt in Verbindung gebrahct mit dem leidenden Kind. ","0","1","0","null","","","<div class = 'row'><div class = 'column'><img src = 'usneg/9330.bmp' width = '100%;'></div><div class = 'column'><img src = 'category4/CS4.png' width = '70%;'></div></div>","null","neg","CS","CS","4","category4/CS4.png","","","","",""
"","html-keyboard-response","14","201598","0.0-6.0-0.0-0.8","nofyny1e4o","one_one","1","direct_first","1","er09ro30","0","22","1","1","3","1","es war sehr schwierig die Zeichen so schnell zu sehen, und mir ist aufgefallen, dass alle Zeichen mit einer Leiter habe ich direkt in Verbindung gebrahct mit dem leidenden Kind. ","0","1","0","null","","","<div class = 'row'><div class = 'column'><img src = 'usneg/3300.bmp' width = '100%;'></div><div class = 'column'><img src = 'category3/CS7.png' width = '70%;'></div></div>","null","neg","CS","CS","3","category3/CS7.png","","","","",""
"","html-keyboard-response","15","204105","0.0-6.0-0.0-0.9","nofyny1e4o","one_one","1","direct_first","1","er09ro30","0","22","1","1","3","1","es war sehr schwierig die Zeichen so schnell zu sehen, und mir ist aufgefallen, dass alle Zeichen mit einer Leiter habe ich direkt in Verbindung gebrahct mit dem leidenden Kind. ","0","1","0","null","","","<div class = 'row'><div class = 'column'><img src = 'uspos/1460.bmp' width = '100%;'></div><div class = 'column'><img src = 'category1/CS4.png' width = '70%;'></div></div>","null","pos","CS","CS","1","category1/CS4.png","","","","",""
"","html-keyboard-response","16","206632","0.0-6.0-0.0-0.10","nofyny1e4o","one_one","1","direct_first","1","er09ro30","0","22","1","1","3","1","es war sehr schwierig die Zeichen so schnell zu sehen, und mir ist aufgefallen, dass alle Zeichen mit einer Leiter habe ich direkt in Verbindung gebrahct mit dem leidenden Kind. ","0","1","0","null","","","<div class = 'row'><div class = 'column'><img src = 'category3/CS7.png' width = '70%;'></div><div class = 'column'><img src = 'usneg/3300.bmp' width = '100%;'></div></div>","null","neg","CS","CS","3","category3/CS7.png","","","","",""
"","html-keyboard-response","17","209149","0.0-6.0-0.0-0.11","nofyny1e4o","one_one","1","direct_first","1","er09ro30","0","22","1","1","3","1","es war sehr schwierig die Zeichen so schnell zu sehen, und mir ist aufgefallen, dass alle Zeichen mit einer Leiter habe ich direkt in Verbindung gebrahct mit dem leidenden Kind. ","0","1","0","null","","","<div class = 'row'><div class = 'column'><img src = 'usneg/9330.bmp' width = '100%;'></div><div class = 'column'><img src = 'category4/CS4.png' width = '70%;'></div></div>","null","neg","CS","CS","4","category4/CS4.png","","","","",""
"","html-keyboard-response","18","211677","0.0-6.0-0.0-0.12","nofyny1e4o","one_one","1","direct_first","1","er09ro30","0","22","1","1","3","1","es war sehr schwierig die Zeichen so schnell zu sehen, und mir ist aufgefallen, dass alle Zeichen mit einer Leiter habe ich direkt in Verbindung gebrahct mit dem leidenden Kind. ","0","1","0","null","","","<div class = 'row'><div class = 'column'><img src = 'usneg/3300.bmp' width = '100%;'></div><div class = 'column'><img src = 'category3/CS7.png' width = '70%;'></div></div>","null","neg","CS","CS","3","category3/CS7.png","","","","",""
"","html-keyboard-response","19","214206","0.0-6.0-0.0-0.13","nofyny1e4o","one_one","1","direct_first","1","er09ro30","0","22","1","1","3","1","es war sehr schwierig die Zeichen so schnell zu sehen, und mir ist aufgefallen, dass alle Zeichen mit einer Leiter habe ich direkt in Verbindung gebrahct mit dem leidenden Kind. ","0","1","0","null","","","<div class = 'row'><div class = 'column'><img src = 'uspos/2165.bmp' width = '100%;'></div><div class = 'column'><img src = 'category2/CS9.png' width = '70%;'></div></div>","null","pos","CS","CS","2","category2/CS9.png","","","","",""
"","html-keyboard-response","20","216734","0.0-6.0-0.0-0.14","nofyny1e4o","one_one","1","direct_first","1","er09ro30","0","22","1","1","3","1","es war sehr schwierig die Zeichen so schnell zu sehen, und mir ist aufgefallen, dass alle Zeichen mit einer Leiter habe ich direkt in Verbindung gebrahct mit dem leidenden Kind. ","0","1","0","null","","","<div class = 'row'><div class = 'column'><img src = 'category1/CS4.png' width = '70%;'></div><div class = 'column'><img src = 'uspos/1460.bmp' width = '100%;'></div></div>","null","pos","CS","CS","1","category1/CS4.png","","","","",""
"","html-keyboard-response","21","219261","0.0-6.0-0.0-0.15","nofyny1e4o","one_one","1","direct_first","1","er09ro30","0","22","1","1","3","1","es war sehr schwierig die Zeichen so schnell zu sehen, und mir ist aufgefallen, dass alle Zeichen mit einer Leiter habe ich direkt in Verbindung gebrahct mit dem leidenden Kind. ","0","1","0","null","","","<div class = 'row'><div class = 'column'><img src = 'usneg/3300.bmp' width = '100%;'></div><div class = 'column'><img src = 'category3/CS7.png' width = '70%;'></div></div>","null","neg","CS","CS","3","category3/CS7.png","","","","",""
"","html-keyboard-response","22","221768","0.0-6.0-0.0-0.16","nofyny1e4o","one_one","1","direct_first","1","er09ro30","0","22","1","1","3","1","es war sehr schwierig die Zeichen so schnell zu sehen, und mir ist aufgefallen, dass alle Zeichen mit einer Leiter habe ich direkt in Verbindung gebrahct mit dem leidenden Kind. ","0","1","0","null","","","<div class = 'row'><div class = 'column'><img src = 'category2/CS9.png' width = '70%;'></div><div class = 'column'><img src = 'uspos/2165.bmp' width = '100%;'></div></div>","null","pos","CS","CS","2","category2/CS9.png","","","","",""
"","html-keyboard-response","23","224273","0.0-6.0-0.0-0.17","nofyny1e4o","one_one","1","direct_first","1","er09ro30","0","22","1","1","3","1","es war sehr schwierig die Zeichen so schnell zu sehen, und mir ist aufgefallen, dass alle Zeichen mit einer Leiter habe ich direkt in Verbindung gebrahct mit dem leidenden Kind. ","0","1","0","null","","","<div class = 'row'><div class = 'column'><img src = 'usneg/3300.bmp' width = '100%;'></div><div class = 'column'><img src = 'category3/CS7.png' width = '70%;'></div></div>","null","neg","CS","CS","3","category3/CS7.png","","","","",""
"","html-keyboard-response","24","226782","0.0-6.0-0.0-0.18","nofyny1e4o","one_one","1","direct_first","1","er09ro30","0","22","1","1","3","1","es war sehr schwierig die Zeichen so schnell zu sehen, und mir ist aufgefallen, dass alle Zeichen mit einer Leiter habe ich direkt in Verbindung gebrahct mit dem leidenden Kind. ","0","1","0","null","","","<div class = 'row'><div class = 'column'><img src = 'uspos/2165.bmp' width = '100%;'></div><div class = 'column'><img src = 'category2/CS9.png' width = '70%;'></div></div>","null","pos","CS","CS","2","category2/CS9.png","","","","",""
"","html-keyboard-response","25","229310","0.0-6.0-0.0-0.19","nofyny1e4o","one_one","1","direct_first","1","er09ro30","0","22","1","1","3","1","es war sehr schwierig die Zeichen so schnell zu sehen, und mir ist aufgefallen, dass alle Zeichen mit einer Leiter habe ich direkt in Verbindung gebrahct mit dem leidenden Kind. ","0","1","0","null","","","<div class = 'row'><div class = 'column'><img src = 'category4/CS4.png' width = '70%;'></div><div class = 'column'><img src = 'usneg/9330.bmp' width = '100%;'></div></div>","null","neg","CS","CS","4","category4/CS4.png","","","","",""
"","survey-html-form","26","234873","0.0-6.0-1.0","nofyny1e4o","one_one","1","direct_first","1","er09ro30","0","22","1","1","3","1","es war sehr schwierig die Zeichen so schnell zu sehen, und mir ist aufgefallen, dass alle Zeichen mit einer Leiter habe ich direkt in Verbindung gebrahct mit dem leidenden Kind. ","0","1","0","5051","","{}","","","","","","","","","","","",""
"","html-keyboard-response","27","238901","0.0-6.0-2.0-0.0","nofyny1e4o","one_one","1","direct_first","1","er09ro30","0","22","1","1","3","1","es war sehr schwierig die Zeichen so schnell zu sehen, und mir ist aufgefallen, dass alle Zeichen mit einer Leiter habe ich direkt in Verbindung gebrahct mit dem leidenden Kind. ","0","1","0","null","","","<div class = 'row'><div class = 'column'><img src = 'uspos/2165.bmp' width = '100%;'></div><div class = 'column'><img src = 'category2/CS9.png' width = '70%;'></div></div>","null","pos","CS","CS","2","category2/CS9.png","","","","",""
"","html-keyboard-response","28","241413","0.0-6.0-2.0-0.1","nofyny1e4o","one_one","1","direct_first","1","er09ro30","0","22","1","1","3","1","es war sehr schwierig die Zeichen so schnell zu sehen, und mir ist aufgefallen, dass alle Zeichen mit einer Leiter habe ich direkt in Verbindung gebrahct mit dem leidenden Kind. ","0","1","0","null","","","<div class = 'row'><div class = 'column'><img src = 'usneg/9330.bmp' width = '100%;'></div><div class = 'column'><img src = 'category4/CS4.png' width = '70%;'></div></div>","null","neg","CS","CS","4","category4/CS4.png","","","","",""
"","html-keyboard-response","29","243945","0.0-6.0-2.0-0.2","nofyny1e4o","one_one","1","direct_first","1","er09ro30","0","22","1","1","3","1","es war sehr schwierig die Zeichen so schnell zu sehen, und mir ist aufgefallen, dass alle Zeichen mit einer Leiter habe ich direkt in Verbindung gebrahct mit dem leidenden Kind. ","0","1","0","null","","","<div class = 'row'><div class = 'column'><img src = 'category3/CS7.png' width = '70%;'></div><div class = 'column'><img src = 'usneg/3300.bmp' width = '100%;'></div></div>","null","neg","CS","CS","3","category3/CS7.png","","","","",""
"","html-keyboard-response","30","246472","0.0-6.0-2.0-0.3","nofyny1e4o","one_one","1","direct_first","1","er09ro30","0","22","1","1","3","1","es war sehr schwierig die Zeichen so schnell zu sehen, und mir ist aufgefallen, dass alle Zeichen mit einer Leiter habe ich direkt in Verbindung gebrahct mit dem leidenden Kind. ","0","1","0","null","","","<div class = 'row'><div class = 'column'><img src = 'category2/CS9.png' width = '70%;'></div><div class = 'column'><img src = 'uspos/2165.bmp' width = '100%;'></div></div>","null","pos","CS","CS","2","category2/CS9.png","","","","",""
"","html-keyboard-response","31","248977","0.0-6.0-2.0-0.4","nofyny1e4o","one_one","1","direct_first","1","er09ro30","0","22","1","1","3","1","es war sehr schwierig die Zeichen so schnell zu sehen, und mir ist aufgefallen, dass alle Zeichen mit einer Leiter habe ich direkt in Verbindung gebrahct mit dem leidenden Kind. ","0","1","0","null","","","<div class = 'row'><div class = 'column'><img src = 'usneg/9330.bmp' width = '100%;'></div><div class = 'column'><img src = 'category4/CS4.png' width = '70%;'></div></div>","null","neg","CS","CS","4","category4/CS4.png","","","","",""
"","html-keyboard-response","32","251496","0.0-6.0-2.0-0.5","nofyny1e4o","one_one","1","direct_first","1","er09ro30","0","22","1","1","3","1","es war sehr schwierig die Zeichen so schnell zu sehen, und mir ist aufgefallen, dass alle Zeichen mit einer Leiter habe ich direkt in Verbindung gebrahct mit dem leidenden Kind. ","0","1","0","null","","","<div class = 'row'><div class = 'column'><img src = 'usneg/3300.bmp' width = '100%;'></div><div class = 'column'><img src = 'category3/CS7.png' width = '70%;'></div></div>","null","neg","CS","CS","3","category3/CS7.png","","","","",""
"","html-keyboard-response","33","254024","0.0-6.0-2.0-0.6","nofyny1e4o","one_one","1","direct_first","1","er09ro30","0","22","1","1","3","1","es war sehr schwierig die Zeichen so schnell zu sehen, und mir ist aufgefallen, dass alle Zeichen mit einer Leiter habe ich direkt in Verbindung gebrahct mit dem leidenden Kind. ","0","1","0","null","","","<div class = 'row'><div class = 'column'><img src = 'uspos/1460.bmp' width = '100%;'></div><div class = 'column'><img src = 'category1/CS4.png' width = '70%;'></div></div>","null","pos","CS","CS","1","category1/CS4.png","","","","",""
"","html-keyboard-response","34","256551","0.0-6.0-2.0-0.7","nofyny1e4o","one_one","1","direct_first","1","er09ro30","0","22","1","1","3","1","es war sehr schwierig die Zeichen so schnell zu sehen, und mir ist aufgefallen, dass alle Zeichen mit einer Leiter habe ich direkt in Verbindung gebrahct mit dem leidenden Kind. ","0","1","0","null","","","<div class = 'row'><div class = 'column'><img src = 'category4/CS4.png' width = '70%;'></div><div class = 'column'><img src = 'usneg/9330.bmp' width = '100%;'></div></div>","null","neg","CS","CS","4","category4/CS4.png","","","","",""
"","html-keyboard-response","35","259069","0.0-6.0-2.0-0.8","nofyny1e4o","one_one","1","direct_first","1","er09ro30","0","22","1","1","3","1","es war sehr schwierig die Zeichen so schnell zu sehen, und mir ist aufgefallen, dass alle Zeichen mit einer Leiter habe ich direkt in Verbindung gebrahct mit dem leidenden Kind. ","0","1","0","null","","","<div class = 'row'><div class = 'column'><img src = 'uspos/1460.bmp' width = '100%;'></div><div class = 'column'><img src = 'category1/CS4.png' width = '70%;'></div></div>","null","pos","CS","CS","1","category1/CS4.png","","","","",""
"","html-keyboard-response","36","261587","0.0-6.0-2.0-0.9","nofyny1e4o","one_one","1","direct_first","1","er09ro30","0","22","1","1","3","1","es war sehr schwierig die Zeichen so schnell zu sehen, und mir ist aufgefallen, dass alle Zeichen mit einer Leiter habe ich direkt in Verbindung gebrahct mit dem leidenden Kind. ","0","1","0","null","","","<div class = 'row'><div class = 'column'><img src = 'category4/CS4.png' width = '70%;'></div><div class = 'column'><img src = 'usneg/9330.bmp' width = '100%;'></div></div>","null","neg","CS","CS","4","category4/CS4.png","","","","",""
"","html-keyboard-response","37","264104","0.0-6.0-2.0-0.10","nofyny1e4o","one_one","1","direct_first","1","er09ro30","0","22","1","1","3","1","es war sehr schwierig die Zeichen so schnell zu sehen, und mir ist aufgefallen, dass alle Zeichen mit einer Leiter habe ich direkt in Verbindung gebrahct mit dem leidenden Kind. ","0","1","0","null","","","<div class = 'row'><div class = 'column'><img src = 'category3/CS7.png' width = '70%;'></div><div class = 'column'><img src = 'usneg/3300.bmp' width = '100%;'></div></div>","null","neg","CS","CS","3","category3/CS7.png","","","","",""
"","html-keyboard-response","38","266616","0.0-6.0-2.0-0.11","nofyny1e4o","one_one","1","direct_first","1","er09ro30","0","22","1","1","3","1","es war sehr schwierig die Zeichen so schnell zu sehen, und mir ist aufgefallen, dass alle Zeichen mit einer Leiter habe ich direkt in Verbindung gebrahct mit dem leidenden Kind. ","0","1","0","null","","","<div class = 'row'><div class = 'column'><img src = 'uspos/1460.bmp' width = '100%;'></div><div class = 'column'><img src = 'category1/CS4.png' width = '70%;'></div></div>","null","pos","CS","CS","1","category1/CS4.png","","","","",""
"","html-keyboard-response","39","269129","0.0-6.0-2.0-0.12","nofyny1e4o","one_one","1","direct_first","1","er09ro30","0","22","1","1","3","1","es war sehr schwierig die Zeichen so schnell zu sehen, und mir ist aufgefallen, dass alle Zeichen mit einer Leiter habe ich direkt in Verbindung gebrahct mit dem leidenden Kind. ","0","1","0","null","","","<div class = 'row'><div class = 'column'><img src = 'category3/CS7.png' width = '70%;'></div><div class = 'column'><img src = 'usneg/3300.bmp' width = '100%;'></div></div>","null","neg","CS","CS","3","category3/CS7.png","","","","",""
"","html-keyboard-response","40","271656","0.0-6.0-2.0-0.13","nofyny1e4o","one_one","1","direct_first","1","er09ro30","0","22","1","1","3","1","es war sehr schwierig die Zeichen so schnell zu sehen, und mir ist aufgefallen, dass alle Zeichen mit einer Leiter habe ich direkt in Verbindung gebrahct mit dem leidenden Kind. ","0","1","0","null","","","<div class = 'row'><div class = 'column'><img src = 'uspos/2165.bmp' width = '100%;'></div><div class = 'column'><img src = 'category2/CS9.png' width = '70%;'></div></div>","null","pos","CS","CS","2","category2/CS9.png","","","","",""
"","html-keyboard-response","41","274184","0.0-6.0-2.0-0.14","nofyny1e4o","one_one","1","direct_first","1","er09ro30","0","22","1","1","3","1","es war sehr schwierig die Zeichen so schnell zu sehen, und mir ist aufgefallen, dass alle Zeichen mit einer Leiter habe ich direkt in Verbindung gebrahct mit dem leidenden Kind. ","0","1","0","null","","","<div class = 'row'><div class = 'column'><img src = 'category3/CS7.png' width = '70%;'></div><div class = 'column'><img src = 'usneg/3300.bmp' width = '100%;'></div></div>","null","neg","CS","CS","3","category3/CS7.png","","","","",""
"","html-keyboard-response","42","276701","0.0-6.0-2.0-0.15","nofyny1e4o","one_one","1","direct_first","1","er09ro30","0","22","1","1","3","1","es war sehr schwierig die Zeichen so schnell zu sehen, und mir ist aufgefallen, dass alle Zeichen mit einer Leiter habe ich direkt in Verbindung gebrahct mit dem leidenden Kind. ","0","1","0","null","","","<div class = 'row'><div class = 'column'><img src = 'category4/CS4.png' width = '70%;'></div><div class = 'column'><img src = 'usneg/9330.bmp' width = '100%;'></div></div>","null","neg","CS","CS","4","category4/CS4.png","","","","",""
"","html-keyboard-response","43","279229","0.0-6.0-2.0-0.16","nofyny1e4o","one_one","1","direct_first","1","er09ro30","0","22","1","1","3","1","es war sehr schwierig die Zeichen so schnell zu sehen, und mir ist aufgefallen, dass alle Zeichen mit einer Leiter habe ich direkt in Verbindung gebrahct mit dem leidenden Kind. ","0","1","0","null","","","<div class = 'row'><div class = 'column'><img src = 'category2/CS9.png' width = '70%;'></div><div class = 'column'><img src = 'uspos/2165.bmp' width = '100%;'></div></div>","null","pos","CS","CS","2","category2/CS9.png","","","","",""
"","html-keyboard-response","44","281757","0.0-6.0-2.0-0.17","nofyny1e4o","one_one","1","direct_first","1","er09ro30","0","22","1","1","3","1","es war sehr schwierig die Zeichen so schnell zu sehen, und mir ist aufgefallen, dass alle Zeichen mit einer Leiter habe ich direkt in Verbindung gebrahct mit dem leidenden Kind. ","0","1","0","null","","","<div class = 'row'><div class = 'column'><img src = 'uspos/1460.bmp' width = '100%;'></div><div class = 'column'><img src = 'category1/CS4.png' width = '70%;'></div></div>","null","pos","CS","CS","1","category1/CS4.png","","","","",""
"","html-keyboard-response","45","284274","0.0-6.0-2.0-0.18","nofyny1e4o","one_one","1","direct_first","1","er09ro30","0","22","1","1","3","1","es war sehr schwierig die Zeichen so schnell zu sehen, und mir ist aufgefallen, dass alle Zeichen mit einer Leiter habe ich direkt in Verbindung gebrahct mit dem leidenden Kind. ","0","1","0","null","","","<div class = 'row'><div class = 'column'><img src = 'uspos/2165.bmp' width = '100%;'></div><div class = 'column'><img src = 'category2/CS9.png' width = '70%;'></div></div>","null","pos","CS","CS","2","category2/CS9.png","","","","",""
"","html-keyboard-response","46","286781","0.0-6.0-2.0-0.19","nofyny1e4o","one_one","1","direct_first","1","er09ro30","0","22","1","1","3","1","es war sehr schwierig die Zeichen so schnell zu sehen, und mir ist aufgefallen, dass alle Zeichen mit einer Leiter habe ich direkt in Verbindung gebrahct mit dem leidenden Kind. ","0","1","0","null","","","<div class = 'row'><div class = 'column'><img src = 'category1/CS4.png' width = '70%;'></div><div class = 'column'><img src = 'uspos/1460.bmp' width = '100%;'></div></div>","null","pos","CS","CS","1","category1/CS4.png","","","","",""
"","survey-html-form","47","290973","0.0-6.0-3.0","nofyny1e4o","one_one","1","direct_first","1","er09ro30","0","22","1","1","3","1","es war sehr schwierig die Zeichen so schnell zu sehen, und mir ist aufgefallen, dass alle Zeichen mit einer Leiter habe ich direkt in Verbindung gebrahct mit dem leidenden Kind. ","0","1","0","3679","","{}","","","","","","","","","","","",""
"","html-keyboard-response","48","294984","0.0-6.0-4.0-0.0","nofyny1e4o","one_one","1","direct_first","1","er09ro30","0","22","1","1","3","1","es war sehr schwierig die Zeichen so schnell zu sehen, und mir ist aufgefallen, dass alle Zeichen mit einer Leiter habe ich direkt in Verbindung gebrahct mit dem leidenden Kind. ","0","1","0","null","","","<div class = 'row'><div class = 'column'><img src = 'category3/CS7.png' width = '70%;'></div><div class = 'column'><img src = 'usneg/3300.bmp' width = '100%;'></div></div>","null","neg","CS","CS","3","category3/CS7.png","","","","",""
"","html-keyboard-response","49","297502","0.0-6.0-4.0-0.1","nofyny1e4o","one_one","1","direct_first","1","er09ro30","0","22","1","1","3","1","es war sehr schwierig die Zeichen so schnell zu sehen, und mir ist aufgefallen, dass alle Zeichen mit einer Leiter habe ich direkt in Verbindung gebrahct mit dem leidenden Kind. ","0","1","0","null","","","<div class = 'row'><div class = 'column'><img src = 'category4/CS4.png' width = '70%;'></div><div class = 'column'><img src = 'usneg/9330.bmp' width = '100%;'></div></div>","null","neg","CS","CS","4","category4/CS4.png","","","","",""
"","html-keyboard-response","50","300029","0.0-6.0-4.0-0.2","nofyny1e4o","one_one","1","direct_first","1","er09ro30","0","22","1","1","3","1","es war sehr schwierig die Zeichen so schnell zu sehen, und mir ist aufgefallen, dass alle Zeichen mit einer Leiter habe ich direkt in Verbindung gebrahct mit dem leidenden Kind. ","0","1","0","null","","","<div class = 'row'><div class = 'column'><img src = 'category3/CS7.png' width = '70%;'></div><div class = 'column'><img src = 'usneg/3300.bmp' width = '100%;'></div></div>","null","neg","CS","CS","3","category3/CS7.png","","","","",""
"","html-keyboard-response","51","302558","0.0-6.0-4.0-0.3","nofyny1e4o","one_one","1","direct_first","1","er09ro30","0","22","1","1","3","1","es war sehr schwierig die Zeichen so schnell zu sehen, und mir ist aufgefallen, dass alle Zeichen mit einer Leiter habe ich direkt in Verbindung gebrahct mit dem leidenden Kind. ","0","1","0","null","","","<div class = 'row'><div class = 'column'><img src = 'category1/CS4.png' width = '70%;'></div><div class = 'column'><img src = 'uspos/1460.bmp' width = '100%;'></div></div>","null","pos","CS","CS","1","category1/CS4.png","","","","",""
"","html-keyboard-response","52","305086","0.0-6.0-4.0-0.4","nofyny1e4o","one_one","1","direct_first","1","er09ro30","0","22","1","1","3","1","es war sehr schwierig die Zeichen so schnell zu sehen, und mir ist aufgefallen, dass alle Zeichen mit einer Leiter habe ich direkt in Verbindung gebrahct mit dem leidenden Kind. ","0","1","0","null","","","<div class = 'row'><div class = 'column'><img src = 'category4/CS4.png' width = '70%;'></div><div class = 'column'><img src = 'usneg/9330.bmp' width = '100%;'></div></div>","null","neg","CS","CS","4","category4/CS4.png","","","","",""
"","html-keyboard-response","53","307592","0.0-6.0-4.0-0.5","nofyny1e4o","one_one","1","direct_first","1","er09ro30","0","22","1","1","3","1","es war sehr schwierig die Zeichen so schnell zu sehen, und mir ist aufgefallen, dass alle Zeichen mit einer Leiter habe ich direkt in Verbindung gebrahct mit dem leidenden Kind. ","0","1","0","null","","","<div class = 'row'><div class = 'column'><img src = 'uspos/2165.bmp' width = '100%;'></div><div class = 'column'><img src = 'category2/CS9.png' width = '70%;'></div></div>","null","pos","CS","CS","2","category2/CS9.png","","","","",""
"","html-keyboard-response","54","310109","0.0-6.0-4.0-0.6","nofyny1e4o","one_one","1","direct_first","1","er09ro30","0","22","1","1","3","1","es war sehr schwierig die Zeichen so schnell zu sehen, und mir ist aufgefallen, dass alle Zeichen mit einer Leiter habe ich direkt in Verbindung gebrahct mit dem leidenden Kind. ","0","1","0","null","","","<div class = 'row'><div class = 'column'><img src = 'category1/CS4.png' width = '70%;'></div><div class = 'column'><img src = 'uspos/1460.bmp' width = '100%;'></div></div>","null","pos","CS","CS","1","category1/CS4.png","","","","",""
"","html-keyboard-response","55","312637","0.0-6.0-4.0-0.7","nofyny1e4o","one_one","1","direct_first","1","er09ro30","0","22","1","1","3","1","es war sehr schwierig die Zeichen so schnell zu sehen, und mir ist aufgefallen, dass alle Zeichen mit einer Leiter habe ich direkt in Verbindung gebrahct mit dem leidenden Kind. ","0","1","0","null","","","<div class = 'row'><div class = 'column'><img src = 'category2/CS9.png' width = '70%;'></div><div class = 'column'><img src = 'uspos/2165.bmp' width = '100%;'></div></div>","null","pos","CS","CS","2","category2/CS9.png","","","","",""
"","html-keyboard-response","56","315154","0.0-6.0-4.0-0.8","nofyny1e4o","one_one","1","direct_first","1","er09ro30","0","22","1","1","3","1","es war sehr schwierig die Zeichen so schnell zu sehen, und mir ist aufgefallen, dass alle Zeichen mit einer Leiter habe ich direkt in Verbindung gebrahct mit dem leidenden Kind. ","0","1","0","null","","","<div class = 'row'><div class = 'column'><img src = 'category4/CS4.png' width = '70%;'></div><div class = 'column'><img src = 'usneg/9330.bmp' width = '100%;'></div></div>","null","neg","CS","CS","4","category4/CS4.png","","","","",""
"","html-keyboard-response","57","317671","0.0-6.0-4.0-0.9","nofyny1e4o","one_one","1","direct_first","1","er09ro30","0","22","1","1","3","1","es war sehr schwierig die Zeichen so schnell zu sehen, und mir ist aufgefallen, dass alle Zeichen mit einer Leiter habe ich direkt in Verbindung gebrahct mit dem leidenden Kind. ","0","1","0","null","","","<div class = 'row'><div class = 'column'><img src = 'uspos/2165.bmp' width = '100%;'></div><div class = 'column'><img src = 'category2/CS9.png' width = '70%;'></div></div>","null","pos","CS","CS","2","category2/CS9.png","","","","",""
"","html-keyboard-response","58","320201","0.0-6.0-4.0-0.10","nofyny1e4o","one_one","1","direct_first","1","er09ro30","0","22","1","1","3","1","es war sehr schwierig die Zeichen so schnell zu sehen, und mir ist aufgefallen, dass alle Zeichen mit einer Leiter habe ich direkt in Verbindung gebrahct mit dem leidenden Kind. ","0","1","0","null","","","<div class = 'row'><div class = 'column'><img src = 'usneg/3300.bmp' width = '100%;'></div><div class = 'column'><img src = 'category3/CS7.png' width = '70%;'></div></div>","null","neg","CS","CS","3","category3/CS7.png","","","","",""
"","html-keyboard-response","59","322718","0.0-6.0-4.0-0.11","nofyny1e4o","one_one","1","direct_first","1","er09ro30","0","22","1","1","3","1","es war sehr schwierig die Zeichen so schnell zu sehen, und mir ist aufgefallen, dass alle Zeichen mit einer Leiter habe ich direkt in Verbindung gebrahct mit dem leidenden Kind. ","0","1","0","null","","","<div class = 'row'><div class = 'column'><img src = 'category1/CS4.png' width = '70%;'></div><div class = 'column'><img src = 'uspos/1460.bmp' width = '100%;'></div></div>","null","pos","CS","CS","1","category1/CS4.png","","","","",""
"","html-keyboard-response","60","325224","0.0-6.0-4.0-0.12","nofyny1e4o","one_one","1","direct_first","1","er09ro30","0","22","1","1","3","1","es war sehr schwierig die Zeichen so schnell zu sehen, und mir ist aufgefallen, dass alle Zeichen mit einer Leiter habe ich direkt in Verbindung gebrahct mit dem leidenden Kind. ","0","1","0","null","","","<div class = 'row'><div class = 'column'><img src = 'category3/CS7.png' width = '70%;'></div><div class = 'column'><img src = 'usneg/3300.bmp' width = '100%;'></div></div>","null","neg","CS","CS","3","category3/CS7.png","","","","",""
"","html-keyboard-response","61","327731","0.0-6.0-4.0-0.13","nofyny1e4o","one_one","1","direct_first","1","er09ro30","0","22","1","1","3","1","es war sehr schwierig die Zeichen so schnell zu sehen, und mir ist aufgefallen, dass alle Zeichen mit einer Leiter habe ich direkt in Verbindung gebrahct mit dem leidenden Kind. ","0","1","0","null","","","<div class = 'row'><div class = 'column'><img src = 'usneg/9330.bmp' width = '100%;'></div><div class = 'column'><img src = 'category4/CS4.png' width = '70%;'></div></div>","null","neg","CS","CS","4","category4/CS4.png","","","","",""
"","html-keyboard-response","62","330248","0.0-6.0-4.0-0.14","nofyny1e4o","one_one","1","direct_first","1","er09ro30","0","22","1","1","3","1","es war sehr schwierig die Zeichen so schnell zu sehen, und mir ist aufgefallen, dass alle Zeichen mit einer Leiter habe ich direkt in Verbindung gebrahct mit dem leidenden Kind. ","0","1","0","null","","","<div class = 'row'><div class = 'column'><img src = 'uspos/2165.bmp' width = '100%;'></div><div class = 'column'><img src = 'category2/CS9.png' width = '70%;'></div></div>","null","pos","CS","CS","2","category2/CS9.png","","","","",""
"","html-keyboard-response","63","332764","0.0-6.0-4.0-0.15","nofyny1e4o","one_one","1","direct_first","1","er09ro30","0","22","1","1","3","1","es war sehr schwierig die Zeichen so schnell zu sehen, und mir ist aufgefallen, dass alle Zeichen mit einer Leiter habe ich direkt in Verbindung gebrahct mit dem leidenden Kind. ","0","1","0","null","","","<div class = 'row'><div class = 'column'><img src = 'category1/CS4.png' width = '70%;'></div><div class = 'column'><img src = 'uspos/1460.bmp' width = '100%;'></div></div>","null","pos","CS","CS","1","category1/CS4.png","","","","",""
"","html-keyboard-response","64","335272","0.0-6.0-4.0-0.16","nofyny1e4o","one_one","1","direct_first","1","er09ro30","0","22","1","1","3","1","es war sehr schwierig die Zeichen so schnell zu sehen, und mir ist aufgefallen, dass alle Zeichen mit einer Leiter habe ich direkt in Verbindung gebrahct mit dem leidenden Kind. ","0","1","0","null","","","<div class = 'row'><div class = 'column'><img src = 'category3/CS7.png' width = '70%;'></div><div class = 'column'><img src = 'usneg/3300.bmp' width = '100%;'></div></div>","null","neg","CS","CS","3","category3/CS7.png","","","","",""
"","html-keyboard-response","65","337799","0.0-6.0-4.0-0.17","nofyny1e4o","one_one","1","direct_first","1","er09ro30","0","22","1","1","3","1","es war sehr schwierig die Zeichen so schnell zu sehen, und mir ist aufgefallen, dass alle Zeichen mit einer Leiter habe ich direkt in Verbindung gebrahct mit dem leidenden Kind. ","0","1","0","null","","","<div class = 'row'><div class = 'column'><img src = 'uspos/2165.bmp' width = '100%;'></div><div class = 'column'><img src = 'category2/CS9.png' width = '70%;'></div></div>","null","pos","CS","CS","2","category2/CS9.png","","","","",""
"","html-keyboard-response","66","340317","0.0-6.0-4.0-0.18","nofyny1e4o","one_one","1","direct_first","1","er09ro30","0","22","1","1","3","1","es war sehr schwierig die Zeichen so schnell zu sehen, und mir ist aufgefallen, dass alle Zeichen mit einer Leiter habe ich direkt in Verbindung gebrahct mit dem leidenden Kind. ","0","1","0","null","","","<div class = 'row'><div class = 'column'><img src = 'category4/CS4.png' width = '70%;'></div><div class = 'column'><img src = 'usneg/9330.bmp' width = '100%;'></div></div>","null","neg","CS","CS","4","category4/CS4.png","","","","",""
"","html-keyboard-response","67","342835","0.0-6.0-4.0-0.19","nofyny1e4o","one_one","1","direct_first","1","er09ro30","0","22","1","1","3","1","es war sehr schwierig die Zeichen so schnell zu sehen, und mir ist aufgefallen, dass alle Zeichen mit einer Leiter habe ich direkt in Verbindung gebrahct mit dem leidenden Kind. ","0","1","0","null","","","<div class = 'row'><div class = 'column'><img src = 'uspos/1460.bmp' width = '100%;'></div><div class = 'column'><img src = 'category1/CS4.png' width = '70%;'></div></div>","null","pos","CS","CS","1","category1/CS4.png","","","","",""
"","survey-html-form","68","346240","0.0-6.0-5.0","nofyny1e4o","one_one","1","direct_first","1","er09ro30","0","22","1","1","3","1","es war sehr schwierig die Zeichen so schnell zu sehen, und mir ist aufgefallen, dass alle Zeichen mit einer Leiter habe ich direkt in Verbindung gebrahct mit dem leidenden Kind. ","0","1","0","2892","","{}","","","","","","","","","","","",""
"","html-keyboard-response","69","350260","0.0-6.0-6.0-0.0","nofyny1e4o","one_one","1","direct_first","1","er09ro30","0","22","1","1","3","1","es war sehr schwierig die Zeichen so schnell zu sehen, und mir ist aufgefallen, dass alle Zeichen mit einer Leiter habe ich direkt in Verbindung gebrahct mit dem leidenden Kind. ","0","1","0","null","","","<div class = 'row'><div class = 'column'><img src = 'category2/CS9.png' width = '70%;'></div><div class = 'column'><img src = 'uspos/2165.bmp' width = '100%;'></div></div>","null","pos","CS","CS","2","category2/CS9.png","","","","",""
"","html-keyboard-response","70","352787","0.0-6.0-6.0-0.1","nofyny1e4o","one_one","1","direct_first","1","er09ro30","0","22","1","1","3","1","es war sehr schwierig die Zeichen so schnell zu sehen, und mir ist aufgefallen, dass alle Zeichen mit einer Leiter habe ich direkt in Verbindung gebrahct mit dem leidenden Kind. ","0","1","0","null","","","<div class = 'row'><div class = 'column'><img src = 'category3/CS7.png' width = '70%;'></div><div class = 'column'><img src = 'usneg/3300.bmp' width = '100%;'></div></div>","null","neg","CS","CS","3","category3/CS7.png","","","","",""
"","html-keyboard-response","71","355304","0.0-6.0-6.0-0.2","nofyny1e4o","one_one","1","direct_first","1","er09ro30","0","22","1","1","3","1","es war sehr schwierig die Zeichen so schnell zu sehen, und mir ist aufgefallen, dass alle Zeichen mit einer Leiter habe ich direkt in Verbindung gebrahct mit dem leidenden Kind. ","0","1","0","null","","","<div class = 'row'><div class = 'column'><img src = 'uspos/1460.bmp' width = '100%;'></div><div class = 'column'><img src = 'category1/CS4.png' width = '70%;'></div></div>","null","pos","CS","CS","1","category1/CS4.png","","","","",""
"","html-keyboard-response","72","357811","0.0-6.0-6.0-0.3","nofyny1e4o","one_one","1","direct_first","1","er09ro30","0","22","1","1","3","1","es war sehr schwierig die Zeichen so schnell zu sehen, und mir ist aufgefallen, dass alle Zeichen mit einer Leiter habe ich direkt in Verbindung gebrahct mit dem leidenden Kind. ","0","1","0","null","","","<div class = 'row'><div class = 'column'><img src = 'uspos/2165.bmp' width = '100%;'></div><div class = 'column'><img src = 'category2/CS9.png' width = '70%;'></div></div>","null","pos","CS","CS","2","category2/CS9.png","","","","",""
"","html-keyboard-response","73","360328","0.0-6.0-6.0-0.4","nofyny1e4o","one_one","1","direct_first","1","er09ro30","0","22","1","1","3","1","es war sehr schwierig die Zeichen so schnell zu sehen, und mir ist aufgefallen, dass alle Zeichen mit einer Leiter habe ich direkt in Verbindung gebrahct mit dem leidenden Kind. ","0","1","0","null","","","<div class = 'row'><div class = 'column'><img src = 'uspos/1460.bmp' width = '100%;'></div><div class = 'column'><img src = 'category1/CS4.png' width = '70%;'></div></div>","null","pos","CS","CS","1","category1/CS4.png","","","","",""
"","html-keyboard-response","74","362855","0.0-6.0-6.0-0.5","nofyny1e4o","one_one","1","direct_first","1","er09ro30","0","22","1","1","3","1","es war sehr schwierig die Zeichen so schnell zu sehen, und mir ist aufgefallen, dass alle Zeichen mit einer Leiter habe ich direkt in Verbindung gebrahct mit dem leidenden Kind. ","0","1","0","null","","","<div class = 'row'><div class = 'column'><img src = 'usneg/9330.bmp' width = '100%;'></div><div class = 'column'><img src = 'category4/CS4.png' width = '70%;'></div></div>","null","neg","CS","CS","4","category4/CS4.png","","","","",""
"","html-keyboard-response","75","365384","0.0-6.0-6.0-0.6","nofyny1e4o","one_one","1","direct_first","1","er09ro30","0","22","1","1","3","1","es war sehr schwierig die Zeichen so schnell zu sehen, und mir ist aufgefallen, dass alle Zeichen mit einer Leiter habe ich direkt in Verbindung gebrahct mit dem leidenden Kind. ","0","1","0","null","","","<div class = 'row'><div class = 'column'><img src = 'category3/CS7.png' width = '70%;'></div><div class = 'column'><img src = 'usneg/3300.bmp' width = '100%;'></div></div>","null","neg","CS","CS","3","category3/CS7.png","","","","",""
"","html-keyboard-response","76","367912","0.0-6.0-6.0-0.7","nofyny1e4o","one_one","1","direct_first","1","er09ro30","0","22","1","1","3","1","es war sehr schwierig die Zeichen so schnell zu sehen, und mir ist aufgefallen, dass alle Zeichen mit einer Leiter habe ich direkt in Verbindung gebrahct mit dem leidenden Kind. ","0","1","0","null","","","<div class = 'row'><div class = 'column'><img src = 'uspos/2165.bmp' width = '100%;'></div><div class = 'column'><img src = 'category2/CS9.png' width = '70%;'></div></div>","null","pos","CS","CS","2","category2/CS9.png","","","","",""
"","html-keyboard-response","77","370430","0.0-6.0-6.0-0.8","nofyny1e4o","one_one","1","direct_first","1","er09ro30","0","22","1","1","3","1","es war sehr schwierig die Zeichen so schnell zu sehen, und mir ist aufgefallen, dass alle Zeichen mit einer Leiter habe ich direkt in Verbindung gebrahct mit dem leidenden Kind. ","0","1","0","null","","","<div class = 'row'><div class = 'column'><img src = 'category3/CS7.png' width = '70%;'></div><div class = 'column'><img src = 'usneg/3300.bmp' width = '100%;'></div></div>","null","neg","CS","CS","3","category3/CS7.png","","","","",""
"","html-keyboard-response","78","372957","0.0-6.0-6.0-0.9","nofyny1e4o","one_one","1","direct_first","1","er09ro30","0","22","1","1","3","1","es war sehr schwierig die Zeichen so schnell zu sehen, und mir ist aufgefallen, dass alle Zeichen mit einer Leiter habe ich direkt in Verbindung gebrahct mit dem leidenden Kind. ","0","1","0","null","","","<div class = 'row'><div class = 'column'><img src = 'uspos/1460.bmp' width = '100%;'></div><div class = 'column'><img src = 'category1/CS4.png' width = '70%;'></div></div>","null","pos","CS","CS","1","category1/CS4.png","","","","",""
"","html-keyboard-response","79","375475","0.0-6.0-6.0-0.10","nofyny1e4o","one_one","1","direct_first","1","er09ro30","0","22","1","1","3","1","es war sehr schwierig die Zeichen so schnell zu sehen, und mir ist aufgefallen, dass alle Zeichen mit einer Leiter habe ich direkt in Verbindung gebrahct mit dem leidenden Kind. ","0","1","0","null","","","<div class = 'row'><div class = 'column'><img src = 'category4/CS4.png' width = '70%;'></div><div class = 'column'><img src = 'usneg/9330.bmp' width = '100%;'></div></div>","null","neg","CS","CS","4","category4/CS4.png","","","","",""
"","html-keyboard-response","80","377993","0.0-6.0-6.0-0.11","nofyny1e4o","one_one","1","direct_first","1","er09ro30","0","22","1","1","3","1","es war sehr schwierig die Zeichen so schnell zu sehen, und mir ist aufgefallen, dass alle Zeichen mit einer Leiter habe ich direkt in Verbindung gebrahct mit dem leidenden Kind. ","0","1","0","null","","","<div class = 'row'><div class = 'column'><img src = 'category2/CS9.png' width = '70%;'></div><div class = 'column'><img src = 'uspos/2165.bmp' width = '100%;'></div></div>","null","pos","CS","CS","2","category2/CS9.png","","","","",""
"","html-keyboard-response","81","380520","0.0-6.0-6.0-0.12","nofyny1e4o","one_one","1","direct_first","1","er09ro30","0","22","1","1","3","1","es war sehr schwierig die Zeichen so schnell zu sehen, und mir ist aufgefallen, dass alle Zeichen mit einer Leiter habe ich direkt in Verbindung gebrahct mit dem leidenden Kind. ","0","1","0","null","","","<div class = 'row'><div class = 'column'><img src = 'usneg/9330.bmp' width = '100%;'></div><div class = 'column'><img src = 'category4/CS4.png' width = '70%;'></div></div>","null","neg","CS","CS","4","category4/CS4.png","","","","",""
"","html-keyboard-response","82","383026","0.0-6.0-6.0-0.13","nofyny1e4o","one_one","1","direct_first","1","er09ro30","0","22","1","1","3","1","es war sehr schwierig die Zeichen so schnell zu sehen, und mir ist aufgefallen, dass alle Zeichen mit einer Leiter habe ich direkt in Verbindung gebrahct mit dem leidenden Kind. ","0","1","0","null","","","<div class = 'row'><div class = 'column'><img src = 'usneg/3300.bmp' width = '100%;'></div><div class = 'column'><img src = 'category3/CS7.png' width = '70%;'></div></div>","null","neg","CS","CS","3","category3/CS7.png","","","","",""
"","html-keyboard-response","83","385532","0.0-6.0-6.0-0.14","nofyny1e4o","one_one","1","direct_first","1","er09ro30","0","22","1","1","3","1","es war sehr schwierig die Zeichen so schnell zu sehen, und mir ist aufgefallen, dass alle Zeichen mit einer Leiter habe ich direkt in Verbindung gebrahct mit dem leidenden Kind. ","0","1","0","null","","","<div class = 'row'><div class = 'column'><img src = 'usneg/9330.bmp' width = '100%;'></div><div class = 'column'><img src = 'category4/CS4.png' width = '70%;'></div></div>","null","neg","CS","CS","4","category4/CS4.png","","","","",""
"","html-keyboard-response","84","388050","0.0-6.0-6.0-0.15","nofyny1e4o","one_one","1","direct_first","1","er09ro30","0","22","1","1","3","1","es war sehr schwierig die Zeichen so schnell zu sehen, und mir ist aufgefallen, dass alle Zeichen mit einer Leiter habe ich direkt in Verbindung gebrahct mit dem leidenden Kind. ","0","1","0","null","","","<div class = 'row'><div class = 'column'><img src = 'category1/CS4.png' width = '70%;'></div><div class = 'column'><img src = 'uspos/1460.bmp' width = '100%;'></div></div>","null","pos","CS","CS","1","category1/CS4.png","","","","",""
"","html-keyboard-response","85","390568","0.0-6.0-6.0-0.16","nofyny1e4o","one_one","1","direct_first","1","er09ro30","0","22","1","1","3","1","es war sehr schwierig die Zeichen so schnell zu sehen, und mir ist aufgefallen, dass alle Zeichen mit einer Leiter habe ich direkt in Verbindung gebrahct mit dem leidenden Kind. ","0","1","0","null","","","<div class = 'row'><div class = 'column'><img src = 'uspos/2165.bmp' width = '100%;'></div><div class = 'column'><img src = 'category2/CS9.png' width = '70%;'></div></div>","null","pos","CS","CS","2","category2/CS9.png","","","","",""
"","html-keyboard-response","86","393075","0.0-6.0-6.0-0.17","nofyny1e4o","one_one","1","direct_first","1","er09ro30","0","22","1","1","3","1","es war sehr schwierig die Zeichen so schnell zu sehen, und mir ist aufgefallen, dass alle Zeichen mit einer Leiter habe ich direkt in Verbindung gebrahct mit dem leidenden Kind. ","0","1","0","null","","","<div class = 'row'><div class = 'column'><img src = 'usneg/3300.bmp' width = '100%;'></div><div class = 'column'><img src = 'category3/CS7.png' width = '70%;'></div></div>","null","neg","CS","CS","3","category3/CS7.png","","","","",""
"","html-keyboard-response","87","395603","0.0-6.0-6.0-0.18","nofyny1e4o","one_one","1","direct_first","1","er09ro30","0","22","1","1","3","1","es war sehr schwierig die Zeichen so schnell zu sehen, und mir ist aufgefallen, dass alle Zeichen mit einer Leiter habe ich direkt in Verbindung gebrahct mit dem leidenden Kind. ","0","1","0","null","","","<div class = 'row'><div class = 'column'><img src = 'category4/CS4.png' width = '70%;'></div><div class = 'column'><img src = 'usneg/9330.bmp' width = '100%;'></div></div>","null","neg","CS","CS","4","category4/CS4.png","","","","",""
"","html-keyboard-response","88","398131","0.0-6.0-6.0-0.19","nofyny1e4o","one_one","1","direct_first","1","er09ro30","0","22","1","1","3","1","es war sehr schwierig die Zeichen so schnell zu sehen, und mir ist aufgefallen, dass alle Zeichen mit einer Leiter habe ich direkt in Verbindung gebrahct mit dem leidenden Kind. ","0","1","0","null","","","<div class = 'row'><div class = 'column'><img src = 'category1/CS4.png' width = '70%;'></div><div class = 'column'><img src = 'uspos/1460.bmp' width = '100%;'></div></div>","null","pos","CS","CS","1","category1/CS4.png","","","","",""
"","survey-html-form","89","416875","0.0-7.0","nofyny1e4o","one_one","1","direct_first","1","er09ro30","0","22","1","1","3","1","es war sehr schwierig die Zeichen so schnell zu sehen, und mir ist aufgefallen, dass alle Zeichen mit einer Leiter habe ich direkt in Verbindung gebrahct mit dem leidenden Kind. ","0","1","0","18241","","{}","","","","","","","","","","","",""
"","image-slider-response","90","430113","0.0-8.0-0.0","nofyny1e4o","one_one","1","direct_first","1","er09ro30","0","22","1","1","3","1","es war sehr schwierig die Zeichen so schnell zu sehen, und mir ist aufgefallen, dass alle Zeichen mit einer Leiter habe ich direkt in Verbindung gebrahct mit dem leidenden Kind. ","0","1","0","11227","","","","","pos","GS","GSold","1","category1/CS6.png","-46","targets/25.png","direct","",""
"","image-slider-response","91","435315","0.0-8.0-0.1","nofyny1e4o","one_one","1","direct_first","1","er09ro30","0","22","1","1","3","1","es war sehr schwierig die Zeichen so schnell zu sehen, und mir ist aufgefallen, dass alle Zeichen mit einer Leiter habe ich direkt in Verbindung gebrahct mit dem leidenden Kind. ","0","1","0","5200","","","","","pos","GS","GSold","2","category2/CS1.png","91","targets/39.png","direct","",""
"","image-slider-response","92","439992","0.0-8.0-0.2","nofyny1e4o","one_one","1","direct_first","1","er09ro30","0","22","1","1","3","1","es war sehr schwierig die Zeichen so schnell zu sehen, und mir ist aufgefallen, dass alle Zeichen mit einer Leiter habe ich direkt in Verbindung gebrahct mit dem leidenden Kind. ","0","1","0","4673","","","","","neg","GS","GSold","3","category3/CS6.png","-97","targets/5.png","direct","",""
"","image-slider-response","93","447743","0.0-8.0-0.3","nofyny1e4o","one_one","1","direct_first","1","er09ro30","0","22","1","1","3","1","es war sehr schwierig die Zeichen so schnell zu sehen, und mir ist aufgefallen, dass alle Zeichen mit einer Leiter habe ich direkt in Verbindung gebrahct mit dem leidenden Kind. ","0","1","0","7746","","","","","neg","GS","abstract","4","category4/lin.png","23","targets/7.png","direct","",""
"","image-slider-response","94","456109","0.0-8.0-0.4","nofyny1e4o","one_one","1","direct_first","1","er09ro30","0","22","1","1","3","1","es war sehr schwierig die Zeichen so schnell zu sehen, und mir ist aufgefallen, dass alle Zeichen mit einer Leiter habe ich direkt in Verbindung gebrahct mit dem leidenden Kind. ","0","1","0","8364","","","","","pos","GS","abstract","1","category1/ma.png","-37","targets/44.png","direct","",""
"","image-slider-response","95","460738","0.0-8.0-0.5","nofyny1e4o","one_one","1","direct_first","1","er09ro30","0","22","1","1","3","1","es war sehr schwierig die Zeichen so schnell zu sehen, und mir ist aufgefallen, dass alle Zeichen mit einer Leiter habe ich direkt in Verbindung gebrahct mit dem leidenden Kind. ","0","1","0","4624","","","","","neg","GS","abstract","3","category3/wang.png","-100","targets/12.png","direct","",""
"","image-slider-response","96","466799","0.0-8.0-0.6","nofyny1e4o","one_one","1","direct_first","1","er09ro30","0","22","1","1","3","1","es war sehr schwierig die Zeichen so schnell zu sehen, und mir ist aufgefallen, dass alle Zeichen mit einer Leiter habe ich direkt in Verbindung gebrahct mit dem leidenden Kind. ","0","1","0","6056","","","","","neg","GS","GSold","4","category4/CS6.png","65","targets/24.png","direct","",""
"","image-slider-response","97","470734","0.0-8.0-0.7","nofyny1e4o","one_one","1","direct_first","1","er09ro30","0","22","1","1","3","1","es war sehr schwierig die Zeichen so schnell zu sehen, und mir ist aufgefallen, dass alle Zeichen mit einer Leiter habe ich direkt in Verbindung gebrahct mit dem leidenden Kind. ","0","1","0","3930","","","","","neg","GS","GSnew","3","category3/GS1.png","-100","targets/18.png","direct","",""
"","image-slider-response","98","475061","0.0-8.0-0.8","nofyny1e4o","one_one","1","direct_first","1","er09ro30","0","22","1","1","3","1","es war sehr schwierig die Zeichen so schnell zu sehen, und mir ist aufgefallen, dass alle Zeichen mit einer Leiter habe ich direkt in Verbindung gebrahct mit dem leidenden Kind. ","0","1","0","4324","","","","","neg","GS","GSold","3","category3/CS10.png","-60","targets/15.png","direct","",""
"","image-slider-response","99","478603","0.0-8.0-0.9","nofyny1e4o","one_one","1","direct_first","1","er09ro30","0","22","1","1","3","1","es war sehr schwierig die Zeichen so schnell zu sehen, und mir ist aufgefallen, dass alle Zeichen mit einer Leiter habe ich direkt in Verbindung gebrahct mit dem leidenden Kind. ","0","1","0","3538","","","","","pos","GS","abstract","2","category2/men.png","100","targets/26.png","direct","",""
"","image-slider-response","100","481780","0.0-8.0-0.10","nofyny1e4o","one_one","1","direct_first","1","er09ro30","0","22","1","1","3","1","es war sehr schwierig die Zeichen so schnell zu sehen, und mir ist aufgefallen, dass alle Zeichen mit einer Leiter habe ich direkt in Verbindung gebrahct mit dem leidenden Kind. ","0","1","0","3174","","","","","neg","GS","GSnew","3","category3/GS2.png","-44","targets/21.png","direct","",""
"","image-slider-response","101","485625","0.0-8.0-0.11","nofyny1e4o","one_one","1","direct_first","1","er09ro30","0","22","1","1","3","1","es war sehr schwierig die Zeichen so schnell zu sehen, und mir ist aufgefallen, dass alle Zeichen mit einer Leiter habe ich direkt in Verbindung gebrahct mit dem leidenden Kind. ","0","1","0","3839","","","","","neg","GS","GSnew","4","category4/GS1.png","-53","targets/8.png","direct","",""
"","image-slider-response","102","489130","0.0-8.0-0.12","nofyny1e4o","one_one","1","direct_first","1","er09ro30","0","22","1","1","3","1","es war sehr schwierig die Zeichen so schnell zu sehen, und mir ist aufgefallen, dass alle Zeichen mit einer Leiter habe ich direkt in Verbindung gebrahct mit dem leidenden Kind. ","0","1","0","3498","","","","","pos","GS","GSnew","1","category1/GS1.png","-58","targets/42.png","direct","",""
"","image-slider-response","103","492349","0.0-8.0-0.13","nofyny1e4o","one_one","1","direct_first","1","er09ro30","0","22","1","1","3","1","es war sehr schwierig die Zeichen so schnell zu sehen, und mir ist aufgefallen, dass alle Zeichen mit einer Leiter habe ich direkt in Verbindung gebrahct mit dem leidenden Kind. ","0","1","0","3216","","","","","neg","GS","GSnew","4","category4/GS2.png","69","targets/13.png","direct","",""
"","image-slider-response","104","495863","0.0-8.0-0.14","nofyny1e4o","one_one","1","direct_first","1","er09ro30","0","22","1","1","3","1","es war sehr schwierig die Zeichen so schnell zu sehen, und mir ist aufgefallen, dass alle Zeichen mit einer Leiter habe ich direkt in Verbindung gebrahct mit dem leidenden Kind. ","0","1","0","3511","","","","","neg","GS","GSnew","3","category3/GS3.png","-100","targets/9.png","direct","",""
"","image-slider-response","105","499131","0.0-8.0-0.15","nofyny1e4o","one_one","1","direct_first","1","er09ro30","0","22","1","1","3","1","es war sehr schwierig die Zeichen so schnell zu sehen, und mir ist aufgefallen, dass alle Zeichen mit einer Leiter habe ich direkt in Verbindung gebrahct mit dem leidenden Kind. ","0","1","0","3265","","","","","pos","GS","GSnew","1","category1/GS2.png","37","targets/35.png","direct","",""
"","image-slider-response","106","503366","0.0-8.0-0.16","nofyny1e4o","one_one","1","direct_first","1","er09ro30","0","22","1","1","3","1","es war sehr schwierig die Zeichen so schnell zu sehen, und mir ist aufgefallen, dass alle Zeichen mit einer Leiter habe ich direkt in Verbindung gebrahct mit dem leidenden Kind. ","0","1","0","4233","","","","","neg","GS","GSold","3","category3/CS2.png","-21","targets/19.png","direct","",""
"","image-slider-response","107","506887","0.0-8.0-0.17","nofyny1e4o","one_one","1","direct_first","1","er09ro30","0","22","1","1","3","1","es war sehr schwierig die Zeichen so schnell zu sehen, und mir ist aufgefallen, dass alle Zeichen mit einer Leiter habe ich direkt in Verbindung gebrahct mit dem leidenden Kind. ","0","1","0","3518","","","","","pos","GS","GSold","2","category2/CS6.png","100","targets/36.png","direct","",""
"","image-slider-response","108","511327","0.0-8.0-0.18","nofyny1e4o","one_one","1","direct_first","1","er09ro30","0","22","1","1","3","1","es war sehr schwierig die Zeichen so schnell zu sehen, und mir ist aufgefallen, dass alle Zeichen mit einer Leiter habe ich direkt in Verbindung gebrahct mit dem leidenden Kind. ","0","1","0","4437","","","","","pos","CS","CS","1","category1/CS4.png","100","targets/3.png","direct","",""
"","image-slider-response","109","516146","0.0-8.0-0.19","nofyny1e4o","one_one","1","direct_first","1","er09ro30","0","22","1","1","3","1","es war sehr schwierig die Zeichen so schnell zu sehen, und mir ist aufgefallen, dass alle Zeichen mit einer Leiter habe ich direkt in Verbindung gebrahct mit dem leidenden Kind. ","0","1","0","4815","","","","","neg","CS","CS","4","category4/CS4.png","-48","targets/34.png","direct","",""
"","image-slider-response","110","521510","0.0-8.0-0.20","nofyny1e4o","one_one","1","direct_first","1","er09ro30","0","22","1","1","3","1","es war sehr schwierig die Zeichen so schnell zu sehen, und mir ist aufgefallen, dass alle Zeichen mit einer Leiter habe ich direkt in Verbindung gebrahct mit dem leidenden Kind. ","0","1","0","5359","","","","","pos","GS","GSold","1","category1/CS7.png","81","targets/47.png","direct","",""
"","image-slider-response","111","526084","0.0-8.0-0.21","nofyny1e4o","one_one","1","direct_first","1","er09ro30","0","22","1","1","3","1","es war sehr schwierig die Zeichen so schnell zu sehen, und mir ist aufgefallen, dass alle Zeichen mit einer Leiter habe ich direkt in Verbindung gebrahct mit dem leidenden Kind. ","0","1","0","4567","","","","","pos","GS","GSold","2","category2/CS4.png","100","targets/41.png","direct","",""
"","image-slider-response","112","530255","0.0-8.0-0.22","nofyny1e4o","one_one","1","direct_first","1","er09ro30","0","22","1","1","3","1","es war sehr schwierig die Zeichen so schnell zu sehen, und mir ist aufgefallen, dass alle Zeichen mit einer Leiter habe ich direkt in Verbindung gebrahct mit dem leidenden Kind. ","0","1","0","4168","","","","","pos","GS","GSnew","2","category2/GS3.png","-100","targets/4.png","direct","",""
"","image-slider-response","113","533340","0.0-8.0-0.23","nofyny1e4o","one_one","1","direct_first","1","er09ro30","0","22","1","1","3","1","es war sehr schwierig die Zeichen so schnell zu sehen, und mir ist aufgefallen, dass alle Zeichen mit einer Leiter habe ich direkt in Verbindung gebrahct mit dem leidenden Kind. ","0","1","0","3083","","","","","pos","CS","CS","2","category2/CS9.png","100","targets/27.png","direct","",""
"","image-slider-response","114","536526","0.0-8.0-0.24","nofyny1e4o","one_one","1","direct_first","1","er09ro30","0","22","1","1","3","1","es war sehr schwierig die Zeichen so schnell zu sehen, und mir ist aufgefallen, dass alle Zeichen mit einer Leiter habe ich direkt in Verbindung gebrahct mit dem leidenden Kind. ","0","1","0","3181","","","","","pos","GS","GSnew","1","category1/GS3.png","30","targets/38.png","direct","",""
"","image-slider-response","115","540557","0.0-8.0-0.25","nofyny1e4o","one_one","1","direct_first","1","er09ro30","0","22","1","1","3","1","es war sehr schwierig die Zeichen so schnell zu sehen, und mir ist aufgefallen, dass alle Zeichen mit einer Leiter habe ich direkt in Verbindung gebrahct mit dem leidenden Kind. ","0","1","0","4029","","","","","pos","GS","GSnew","2","category2/GS2.png","-42","targets/28.png","direct","",""
"","image-slider-response","116","544365","0.0-8.0-0.26","nofyny1e4o","one_one","1","direct_first","1","er09ro30","0","22","1","1","3","1","es war sehr schwierig die Zeichen so schnell zu sehen, und mir ist aufgefallen, dass alle Zeichen mit einer Leiter habe ich direkt in Verbindung gebrahct mit dem leidenden Kind. ","0","1","0","3804","","","","","neg","GS","GSnew","4","category4/GS3.png","-42","targets/37.png","direct","",""
"","image-slider-response","117","547136","0.0-8.0-0.27","nofyny1e4o","one_one","1","direct_first","1","er09ro30","0","22","1","1","3","1","es war sehr schwierig die Zeichen so schnell zu sehen, und mir ist aufgefallen, dass alle Zeichen mit einer Leiter habe ich direkt in Verbindung gebrahct mit dem leidenden Kind. ","0","1","0","2769","","","","","pos","GS","GSold","1","category1/CS10.png","-61","targets/2.png","direct","",""
"","image-slider-response","118","549885","0.0-8.0-0.28","nofyny1e4o","one_one","1","direct_first","1","er09ro30","0","22","1","1","3","1","es war sehr schwierig die Zeichen so schnell zu sehen, und mir ist aufgefallen, dass alle Zeichen mit einer Leiter habe ich direkt in Verbindung gebrahct mit dem leidenden Kind. ","0","1","0","2745","","","","","neg","GS","GSold","4","category4/CS9.png","61","targets/20.png","direct","",""
"","image-slider-response","119","552669","0.0-8.0-0.29","nofyny1e4o","one_one","1","direct_first","1","er09ro30","0","22","1","1","3","1","es war sehr schwierig die Zeichen so schnell zu sehen, und mir ist aufgefallen, dass alle Zeichen mit einer Leiter habe ich direkt in Verbindung gebrahct mit dem leidenden Kind. ","0","1","0","2780","","","","","pos","GS","GSnew","2","category2/GS1.png","53","targets/6.png","direct","",""
"","image-slider-response","120","557916","0.0-8.0-0.30","nofyny1e4o","one_one","1","direct_first","1","er09ro30","0","22","1","1","3","1","es war sehr schwierig die Zeichen so schnell zu sehen, und mir ist aufgefallen, dass alle Zeichen mit einer Leiter habe ich direkt in Verbindung gebrahct mit dem leidenden Kind. ","0","1","0","5243","","","","","neg","CS","CS","3","category3/CS7.png","-66","targets/14.png","direct","",""
"","image-slider-response","121","562202","0.0-8.0-0.31","nofyny1e4o","one_one","1","direct_first","1","er09ro30","0","22","1","1","3","1","es war sehr schwierig die Zeichen so schnell zu sehen, und mir ist aufgefallen, dass alle Zeichen mit einer Leiter habe ich direkt in Verbindung gebrahct mit dem leidenden Kind. ","0","1","0","4282","","","","","neg","GS","GSold","4","category4/CS10.png","38","targets/17.png","direct","",""
"","html-keyboard-response","122","602912","0.0-9.0","nofyny1e4o","one_one","1","direct_first","1","er09ro30","0","22","1","1","3","1","es war sehr schwierig die Zeichen so schnell zu sehen, und mir ist aufgefallen, dass alle Zeichen mit einer Leiter habe ich direkt in Verbindung gebrahct mit dem leidenden Kind. ","0","1","0","40706","","","<p>Sie sehen nun die chinesischen Zeichen nur ganz kurz. Danach sehen Sie die jeweilige Aussprache der Zeichen als Silbe auf dem Bildschrim. Ihre Aufgabe ist es, fr jede Silbe anzugeben, ob diese etwas angenehmes, oder unangenehmes bedeuten knnte. Verlassen Sie sich hier vor allem auf Ihre Intuition.<br><br>Die Zeichen werden nur zur Orientierung dargestellt, beachten Sie sie deshalb nicht. Konzentrieren Sie sich vor allem auf die Silben. <br>Reagieren Sie mit folgenden zwei Tasten: <br><br><b>'D' </b> wenn die Silbe etwas <b>unangenehmes</b> bedeuten knnte. <br><b>'K'</b> wenn die Silbe etwas <b>angenehmes</b> bedeuten knnte. <br><br>Bitte legen Sie nun den Zeigefinger der linken Hand auf die Taste 'D' und den Zeigefinger der rechten Hand auf die Taste 'K'. <br>Reagieren Sie auf jede Silbe so schnell wie mglich. Uns interessiert Ihre spontane Reaktion. <br> <br> <br>Drcken Sie 'D' oder 'K', um die nchste Aufgabe zu starten. </p>","68","","","","","","","","","",""
"","html-keyboard-response","123","605934","0.0-10.0-0.0","nofyny1e4o","one_one","1","direct_first","1","er09ro30","0","22","1","1","3","1","es war sehr schwierig die Zeichen so schnell zu sehen, und mir ist aufgefallen, dass alle Zeichen mit einer Leiter habe ich direkt in Verbindung gebrahct mit dem leidenden Kind. ","0","1","0","null","","","<div style=""font-size:60px;"">+</div>","null","","","","","","","","","",""
"","html-keyboard-response","124","606040","0.0-10.0-1.0","nofyny1e4o","one_one","1","direct_first","1","er09ro30","0","22","1","1","3","1","es war sehr schwierig die Zeichen so schnell zu sehen, und mir ist aufgefallen, dass alle Zeichen mit einer Leiter habe ich direkt in Verbindung gebrahct mit dem leidenden Kind. ","0","1","0","null","","","<img src = 'category4/CS10.png' width = '100%;'>","null","","","","","","","","","",""
"","html-keyboard-response","125","606296","0.0-10.0-2.0","nofyny1e4o","one_one","1","direct_first","1","er09ro30","0","22","1","1","3","1","es war sehr schwierig die Zeichen so schnell zu sehen, und mir ist aufgefallen, dass alle Zeichen mit einer Leiter habe ich direkt in Verbindung gebrahct mit dem leidenden Kind. ","0","1","0","null","","","<img src = 'targets/17.png' width = '100%;'>","null","","","","","","","","","",""
"","html-keyboard-response","126","610438","0.0-10.0-3.0","nofyny1e4o","one_one","1","direct_first","1","er09ro30","0","22","1","1","3","1","es war sehr schwierig die Zeichen so schnell zu sehen, und mir ist aufgefallen, dass alle Zeichen mit einer Leiter habe ich direkt in Verbindung gebrahct mit dem leidenden Kind. ","0","1","0","4139","","","<img src = 'targets/mask.png' width = '100%;'>","68","neg","GS","GSold","4","category4/CS10.png","","targets/17.png","indirect","0","0"
"","html-keyboard-response","127","611972","0.0-10.0-0.1","nofyny1e4o","one_one","1","direct_first","1","er09ro30","0","22","1","1","3","1","es war sehr schwierig die Zeichen so schnell zu sehen, und mir ist aufgefallen, dass alle Zeichen mit einer Leiter habe ich direkt in Verbindung gebrahct mit dem leidenden Kind. ","0","1","0","null","","","<div style=""font-size:60px;"">+</div>","null","","","","","","","","","",""
"","html-keyboard-response","128","612077","0.0-10.0-1.1","nofyny1e4o","one_one","1","direct_first","1","er09ro30","0","22","1","1","3","1","es war sehr schwierig die Zeichen so schnell zu sehen, und mir ist aufgefallen, dass alle Zeichen mit einer Leiter habe ich direkt in Verbindung gebrahct mit dem leidenden Kind. ","0","1","0","null","","","<img src = 'category1/CS10.png' width = '100%;'>","null","","","","","","","","","",""
"","html-keyboard-response","129","612333","0.0-10.0-2.1","nofyny1e4o","one_one","1","direct_first","1","er09ro30","0","22","1","1","3","1","es war sehr schwierig die Zeichen so schnell zu sehen, und mir ist aufgefallen, dass alle Zeichen mit einer Leiter habe ich direkt in Verbindung gebrahct mit dem leidenden Kind. ","0","1","0","null","","","<img src = 'targets/2.png' width = '100%;'>","null","","","","","","","","","",""
"","html-keyboard-response","130","616175","0.0-10.0-3.1","nofyny1e4o","one_one","1","direct_first","1","er09ro30","0","22","1","1","3","1","es war sehr schwierig die Zeichen so schnell zu sehen, und mir ist aufgefallen, dass alle Zeichen mit einer Leiter habe ich direkt in Verbindung gebrahct mit dem leidenden Kind. ","0","1","0","3841","","","<img src = 'targets/mask.png' width = '100%;'>","68","pos","GS","GSold","1","category1/CS10.png","","targets/2.png","indirect","0","1"
"","html-keyboard-response","131","617699","0.0-10.0-0.2","nofyny1e4o","one_one","1","direct_first","1","er09ro30","0","22","1","1","3","1","es war sehr schwierig die Zeichen so schnell zu sehen, und mir ist aufgefallen, dass alle Zeichen mit einer Leiter habe ich direkt in Verbindung gebrahct mit dem leidenden Kind. ","0","1","0","null","","","<div style=""font-size:60px;"">+</div>","null","","","","","","","","","",""
"","html-keyboard-response","132","617799","0.0-10.0-1.2","nofyny1e4o","one_one","1","direct_first","1","er09ro30","0","22","1","1","3","1","es war sehr schwierig die Zeichen so schnell zu sehen, und mir ist aufgefallen, dass alle Zeichen mit einer Leiter habe ich direkt in Verbindung gebrahct mit dem leidenden Kind. ","0","1","0","null","","","<img src = 'category4/CS9.png' width = '100%;'>","null","","","","","","","","","",""
"","html-keyboard-response","133","618071","0.0-10.0-2.2","nofyny1e4o","one_one","1","direct_first","1","er09ro30","0","22","1","1","3","1","es war sehr schwierig die Zeichen so schnell zu sehen, und mir ist aufgefallen, dass alle Zeichen mit einer Leiter habe ich direkt in Verbindung gebrahct mit dem leidenden Kind. ","0","1","0","null","","","<img src = 'targets/20.png' width = '100%;'>","null","","","","","","","","","",""
"","html-keyboard-response","134","618789","0.0-10.0-3.2","nofyny1e4o","one_one","1","direct_first","1","er09ro30","0","22","1","1","3","1","es war sehr schwierig die Zeichen so schnell zu sehen, und mir ist aufgefallen, dass alle Zeichen mit einer Leiter habe ich direkt in Verbindung gebrahct mit dem leidenden Kind. ","0","1","0","717","","","<img src = 'targets/mask.png' width = '100%;'>","75","neg","GS","GSold","4","category4/CS9.png","","targets/20.png","indirect","1","2"
"","html-keyboard-response","135","620312","0.0-10.0-0.3","nofyny1e4o","one_one","1","direct_first","1","er09ro30","0","22","1","1","3","1","es war sehr schwierig die Zeichen so schnell zu sehen, und mir ist aufgefallen, dass alle Zeichen mit einer Leiter habe ich direkt in Verbindung gebrahct mit dem leidenden Kind. ","0","1","0","null","","","<div style=""font-size:60px;"">+</div>","null","","","","","","","","","",""
"","html-keyboard-response","136","620408","0.0-10.0-1.3","nofyny1e4o","one_one","1","direct_first","1","er09ro30","0","22","1","1","3","1","es war sehr schwierig die Zeichen so schnell zu sehen, und mir ist aufgefallen, dass alle Zeichen mit einer Leiter habe ich direkt in Verbindung gebrahct mit dem leidenden Kind. ","0","1","0","null","","","<img src = 'category2/CS6.png' width = '100%;'>","null","","","","","","","","","",""
"","html-keyboard-response","137","620664","0.0-10.0-2.3","nofyny1e4o","one_one","1","direct_first","1","er09ro30","0","22","1","1","3","1","es war sehr schwierig die Zeichen so schnell zu sehen, und mir ist aufgefallen, dass alle Zeichen mit einer Leiter habe ich direkt in Verbindung gebrahct mit dem leidenden Kind. ","0","1","0","null","","","<img src = 'targets/36.png' width = '100%;'>","null","","","","","","","","","",""
"","html-keyboard-response","138","621209","0.0-10.0-3.3","nofyny1e4o","one_one","1","direct_first","1","er09ro30","0","22","1","1","3","1","es war sehr schwierig die Zeichen so schnell zu sehen, und mir ist aufgefallen, dass alle Zeichen mit einer Leiter habe ich direkt in Verbindung gebrahct mit dem leidenden Kind. ","0","1","0","543","","","<img src = 'targets/mask.png' width = '100%;'>","75","pos","GS","GSold","2","category2/CS6.png","","targets/36.png","indirect","1","3"
"","html-keyboard-response","139","622732","0.0-10.0-0.4","nofyny1e4o","one_one","1","direct_first","1","er09ro30","0","22","1","1","3","1","es war sehr schwierig die Zeichen so schnell zu sehen, und mir ist aufgefallen, dass alle Zeichen mit einer Leiter habe ich direkt in Verbindung gebrahct mit dem leidenden Kind. ","0","1","0","null","","","<div style=""font-size:60px;"">+</div>","null","","","","","","","","","",""
"","html-keyboard-response","140","622838","0.0-10.0-1.4","nofyny1e4o","one_one","1","direct_first","1","er09ro30","0","22","1","1","3","1","es war sehr schwierig die Zeichen so schnell zu sehen, und mir ist aufgefallen, dass alle Zeichen mit einer Leiter habe ich direkt in Verbindung gebrahct mit dem leidenden Kind. ","0","1","0","null","","","<img src = 'category4/CS6.png' width = '100%;'>","null","","","","","","","","","",""
"","html-keyboard-response","141","623106","0.0-10.0-2.4","nofyny1e4o","one_one","1","direct_first","1","er09ro30","0","22","1","1","3","1","es war sehr schwierig die Zeichen so schnell zu sehen, und mir ist aufgefallen, dass alle Zeichen mit einer Leiter habe ich direkt in Verbindung gebrahct mit dem leidenden Kind. ","0","1","0","null","","","<img src = 'targets/24.png' width = '100%;'>","null","","","","","","","","","",""
"","html-keyboard-response","142","623662","0.0-10.0-3.4","nofyny1e4o","one_one","1","direct_first","1","er09ro30","0","22","1","1","3","1","es war sehr schwierig die Zeichen so schnell zu sehen, und mir ist aufgefallen, dass alle Zeichen mit einer Leiter habe ich direkt in Verbindung gebrahct mit dem leidenden Kind. ","0","1","0","555","","","<img src = 'targets/mask.png' width = '100%;'>","68","neg","GS","GSold","4","category4/CS6.png","","targets/24.png","indirect","0","4"
"","html-keyboard-response","143","625196","0.0-10.0-0.5","nofyny1e4o","one_one","1","direct_first","1","er09ro30","0","22","1","1","3","1","es war sehr schwierig die Zeichen so schnell zu sehen, und mir ist aufgefallen, dass alle Zeichen mit einer Leiter habe ich direkt in Verbindung gebrahct mit dem leidenden Kind. ","0","1","0","null","","","<div style=""font-size:60px;"">+</div>","null","","","","","","","","","",""
"","html-keyboard-response","144","625303","0.0-10.0-1.5","nofyny1e4o","one_one","1","direct_first","1","er09ro30","0","22","1","1","3","1","es war sehr schwierig die Zeichen so schnell zu sehen, und mir ist aufgefallen, dass alle Zeichen mit einer Leiter habe ich direkt in Verbindung gebrahct mit dem leidenden Kind. ","0","1","0","null","","","<img src = 'category3/CS7.png' width = '100%;'>","null","","","","","","","","","",""
"","html-keyboard-response","145","625570","0.0-10.0-2.5","nofyny1e4o","one_one","1","direct_first","1","er09ro30","0","22","1","1","3","1","es war sehr schwierig die Zeichen so schnell zu sehen, und mir ist aufgefallen, dass alle Zeichen mit einer Leiter habe ich direkt in Verbindung gebrahct mit dem leidenden Kind. ","0","1","0","null","","","<img src = 'targets/14.png' width = '100%;'>","null","","","","","","","","","",""
"","html-keyboard-response","146","626419","0.0-10.0-3.5","nofyny1e4o","one_one","1","direct_first","1","er09ro30","0","22","1","1","3","1","es war sehr schwierig die Zeichen so schnell zu sehen, und mir ist aufgefallen, dass alle Zeichen mit einer Leiter habe ich direkt in Verbindung gebrahct mit dem leidenden Kind. ","0","1","0","848","","","<img src = 'targets/mask.png' width = '100%;'>","68","neg","CS","CS","3","category3/CS7.png","","targets/14.png","indirect","0","5"
"","html-keyboard-response","147","627937","0.0-10.0-0.6","nofyny1e4o","one_one","1","direct_first","1","er09ro30","0","22","1","1","3","1","es war sehr schwierig die Zeichen so schnell zu sehen, und mir ist aufgefallen, dass alle Zeichen mit einer Leiter habe ich direkt in Verbindung gebrahct mit dem leidenden Kind. ","0","1","0","null","","","<div style=""font-size:60px;"">+</div>","null","","","","","","","","","",""
"","html-keyboard-response","148","628034","0.0-10.0-1.6","nofyny1e4o","one_one","1","direct_first","1","er09ro30","0","22","1","1","3","1","es war sehr schwierig die Zeichen so schnell zu sehen, und mir ist aufgefallen, dass alle Zeichen mit einer Leiter habe ich direkt in Verbindung gebrahct mit dem leidenden Kind. ","0","1","0","null","","","<img src = 'category2/CS9.png' width = '100%;'>","null","","","","","","","","","",""
"","html-keyboard-response","149","628295","0.0-10.0-2.6","nofyny1e4o","one_one","1","direct_first","1","er09ro30","0","22","1","1","3","1","es war sehr schwierig die Zeichen so schnell zu sehen, und mir ist aufgefallen, dass alle Zeichen mit einer Leiter habe ich direkt in Verbindung gebrahct mit dem leidenden Kind. ","0","1","0","null","","","<img src = 'targets/27.png' width = '100%;'>","null","","","","","","","","","",""
"","html-keyboard-response","150","628673","0.0-10.0-3.6","nofyny1e4o","one_one","1","direct_first","1","er09ro30","0","22","1","1","3","1","es war sehr schwierig die Zeichen so schnell zu sehen, und mir ist aufgefallen, dass alle Zeichen mit einer Leiter habe ich direkt in Verbindung gebrahct mit dem leidenden Kind. ","0","1","0","377","","","<img src = 'targets/mask.png' width = '100%;'>","75","pos","CS","CS","2","category2/CS9.png","","targets/27.png","indirect","1","6"
"","html-keyboard-response","151","630189","0.0-10.0-0.7","nofyny1e4o","one_one","1","direct_first","1","er09ro30","0","22","1","1","3","1","es war sehr schwierig die Zeichen so schnell zu sehen, und mir ist aufgefallen, dass alle Zeichen mit einer Leiter habe ich direkt in Verbindung gebrahct mit dem leidenden Kind. ","0","1","0","null","","","<div style=""font-size:60px;"">+</div>","null","","","","","","","","","",""
"","html-keyboard-response","152","630295","0.0-10.0-1.7","nofyny1e4o","one_one","1","direct_first","1","er09ro30","0","22","1","1","3","1","es war sehr schwierig die Zeichen so schnell zu sehen, und mir ist aufgefallen, dass alle Zeichen mit einer Leiter habe ich direkt in Verbindung gebrahct mit dem leidenden Kind. ","0","1","0","null","","","<img src = 'category2/CS1.png' width = '100%;'>","null","","","","","","","","","",""
"","html-keyboard-response","153","630563","0.0-10.0-2.7","nofyny1e4o","one_one","1","direct_first","1","er09ro30","0","22","1","1","3","1","es war sehr schwierig die Zeichen so schnell zu sehen, und mir ist aufgefallen, dass alle Zeichen mit einer Leiter habe ich direkt in Verbindung gebrahct mit dem leidenden Kind. ","0","1","0","null","","","<img src = 'targets/39.png' width = '100%;'>","null","","","","","","","","","",""
"","html-keyboard-response","154","631670","0.0-10.0-3.7","nofyny1e4o","one_one","1","direct_first","1","er09ro30","0","22","1","1","3","1","es war sehr schwierig die Zeichen so schnell zu sehen, und mir ist aufgefallen, dass alle Zeichen mit einer Leiter habe ich direkt in Verbindung gebrahct mit dem leidenden Kind. ","0","1","0","1106","","","<img src = 'targets/mask.png' width = '100%;'>","75","pos","GS","GSold","2","category2/CS1.png","","targets/39.png","indirect","1","7"
"","html-keyboard-response","155","633199","0.0-10.0-0.8","nofyny1e4o","one_one","1","direct_first","1","er09ro30","0","22","1","1","3","1","es war sehr schwierig die Zeichen so schnell zu sehen, und mir ist aufgefallen, dass alle Zeichen mit einer Leiter habe ich direkt in Verbindung gebrahct mit dem leidenden Kind. ","0","1","0","null","","","<div style=""font-size:60px;"">+</div>","null","","","","","","","","","",""
"","html-keyboard-response","156","633303","0.0-10.0-1.8","nofyny1e4o","one_one","1","direct_first","1","er09ro30","0","22","1","1","3","1","es war sehr schwierig die Zeichen so schnell zu sehen, und mir ist aufgefallen, dass alle Zeichen mit einer Leiter habe ich direkt in Verbindung gebrahct mit dem leidenden Kind. ","0","1","0","null","","","<img src = 'category3/CS2.png' width = '100%;'>","null","","","","","","","","","",""
"","html-keyboard-response","157","633561","0.0-10.0-2.8","nofyny1e4o","one_one","1","direct_first","1","er09ro30","0","22","1","1","3","1","es war sehr schwierig die Zeichen so schnell zu sehen, und mir ist aufgefallen, dass alle Zeichen mit einer Leiter habe ich direkt in Verbindung gebrahct mit dem leidenden Kind. ","0","1","0","null","","","<img src = 'targets/19.png' width = '100%;'>","null","","","","","","","","","",""
"","html-keyboard-response","158","633983","0.0-10.0-3.8","nofyny1e4o","one_one","1","direct_first","1","er09ro30","0","22","1","1","3","1","es war sehr schwierig die Zeichen so schnell zu sehen, und mir ist aufgefallen, dass alle Zeichen mit einer Leiter habe ich direkt in Verbindung gebrahct mit dem leidenden Kind. ","0","1","0","421","","","<img src = 'targets/mask.png' width = '100%;'>","68","neg","GS","GSold","3","category3/CS2.png","","targets/19.png","indirect","0","8"
"","html-keyboard-response","159","635502","0.0-10.0-0.9","nofyny1e4o","one_one","1","direct_first","1","er09ro30","0","22","1","1","3","1","es war sehr schwierig die Zeichen so schnell zu sehen, und mir ist aufgefallen, dass alle Zeichen mit einer Leiter habe ich direkt in Verbindung gebrahct mit dem leidenden Kind. ","0","1","0","null","","","<div style=""font-size:60px;"">+</div>","null","","","","","","","","","",""
"","html-keyboard-response","160","635608","0.0-10.0-1.9","nofyny1e4o","one_one","1","direct_first","1","er09ro30","0","22","1","1","3","1","es war sehr schwierig die Zeichen so schnell zu sehen, und mir ist aufgefallen, dass alle Zeichen mit einer Leiter habe ich direkt in Verbindung gebrahct mit dem leidenden Kind. ","0","1","0","null","","","<img src = 'category1/CS4.png' width = '100%;'>","null","","","","","","","","","",""
"","html-keyboard-response","161","635869","0.0-10.0-2.9","nofyny1e4o","one_one","1","direct_first","1","er09ro30","0","22","1","1","3","1","es war sehr schwierig die Zeichen so schnell zu sehen, und mir ist aufgefallen, dass alle Zeichen mit einer Leiter habe ich direkt in Verbindung gebrahct mit dem leidenden Kind. ","0","1","0","null","","","<img src = 'targets/3.png' width = '100%;'>","null","","","","","","","","","",""
"","html-keyboard-response","162","636690","0.0-10.0-3.9","nofyny1e4o","one_one","1","direct_first","1","er09ro30","0","22","1","1","3","1","es war sehr schwierig die Zeichen so schnell zu sehen, und mir ist aufgefallen, dass alle Zeichen mit einer Leiter habe ich direkt in Verbindung gebrahct mit dem leidenden Kind. ","0","1","0","820","","","<img src = 'targets/mask.png' width = '100%;'>","75","pos","CS","CS","1","category1/CS4.png","","targets/3.png","indirect","1","9"
"","html-keyboard-response","163","638221","0.0-10.0-0.10","nofyny1e4o","one_one","1","direct_first","1","er09ro30","0","22","1","1","3","1","es war sehr schwierig die Zeichen so schnell zu sehen, und mir ist aufgefallen, dass alle Zeichen mit einer Leiter habe ich direkt in Verbindung gebrahct mit dem leidenden Kind. ","0","1","0","null","","","<div style=""font-size:60px;"">+</div>","null","","","","","","","","","",""
"","html-keyboard-response","164","638328","0.0-10.0-1.10","nofyny1e4o","one_one","1","direct_first","1","er09ro30","0","22","1","1","3","1","es war sehr schwierig die Zeichen so schnell zu sehen, und mir ist aufgefallen, dass alle Zeichen mit einer Leiter habe ich direkt in Verbindung gebrahct mit dem leidenden Kind. ","0","1","0","null","","","<img src = 'category4/CS4.png' width = '100%;'>","null","","","","","","","","","",""
"","html-keyboard-response","165","638585","0.0-10.0-2.10","nofyny1e4o","one_one","1","direct_first","1","er09ro30","0","22","1","1","3","1","es war sehr schwierig die Zeichen so schnell zu sehen, und mir ist aufgefallen, dass alle Zeichen mit einer Leiter habe ich direkt in Verbindung gebrahct mit dem leidenden Kind. ","0","1","0","null","","","<img src = 'targets/34.png' width = '100%;'>","null","","","","","","","","","",""
"","html-keyboard-response","166","639318","0.0-10.0-3.10","nofyny1e4o","one_one","1","direct_first","1","er09ro30","0","22","1","1","3","1","es war sehr schwierig die Zeichen so schnell zu sehen, und mir ist aufgefallen, dass alle Zeichen mit einer Leiter habe ich direkt in Verbindung gebrahct mit dem leidenden Kind. ","0","1","0","733","","","<img src = 'targets/mask.png' width = '100%;'>","68","neg","CS","CS","4","category4/CS4.png","","targets/34.png","indirect","0","10"
"","html-keyboard-response","167","640846","0.0-10.0-0.11","nofyny1e4o","one_one","1","direct_first","1","er09ro30","0","22","1","1","3","1","es war sehr schwierig die Zeichen so schnell zu sehen, und mir ist aufgefallen, dass alle Zeichen mit einer Leiter habe ich direkt in Verbindung gebrahct mit dem leidenden Kind. ","0","1","0","null","","","<div style=""font-size:60px;"">+</div>","null","","","","","","","","","",""
"","html-keyboard-response","168","640941","0.0-10.0-1.11","nofyny1e4o","one_one","1","direct_first","1","er09ro30","0","22","1","1","3","1","es war sehr schwierig die Zeichen so schnell zu sehen, und mir ist aufgefallen, dass alle Zeichen mit einer Leiter habe ich direkt in Verbindung gebrahct mit dem leidenden Kind. ","0","1","0","null","","","<img src = 'category3/CS10.png' width = '100%;'>","null","","","","","","","","","",""
"","html-keyboard-response","169","641196","0.0-10.0-2.11","nofyny1e4o","one_one","1","direct_first","1","er09ro30","0","22","1","1","3","1","es war sehr schwierig die Zeichen so schnell zu sehen, und mir ist aufgefallen, dass alle Zeichen mit einer Leiter habe ich direkt in Verbindung gebrahct mit dem leidenden Kind. ","0","1","0","null","","","<img src = 'targets/15.png' width = '100%;'>","null","","","","","","","","","",""
"","html-keyboard-response","170","641670","0.0-10.0-3.11","nofyny1e4o","one_one","1","direct_first","1","er09ro30","0","22","1","1","3","1","es war sehr schwierig die Zeichen so schnell zu sehen, und mir ist aufgefallen, dass alle Zeichen mit einer Leiter habe ich direkt in Verbindung gebrahct mit dem leidenden Kind. ","0","1","0","472","","","<img src = 'targets/mask.png' width = '100%;'>","68","neg","GS","GSold","3","category3/CS10.png","","targets/15.png","indirect","0","11"
"","html-keyboard-response","171","643192","0.0-10.0-0.12","nofyny1e4o","one_one","1","direct_first","1","er09ro30","0","22","1","1","3","1","es war sehr schwierig die Zeichen so schnell zu sehen, und mir ist aufgefallen, dass alle Zeichen mit einer Leiter habe ich direkt in Verbindung gebrahct mit dem leidenden Kind. ","0","1","0","null","","","<div style=""font-size:60px;"">+</div>","null","","","","","","","","","",""
"","html-keyboard-response","172","643297","0.0-10.0-1.12","nofyny1e4o","one_one","1","direct_first","1","er09ro30","0","22","1","1","3","1","es war sehr schwierig die Zeichen so schnell zu sehen, und mir ist aufgefallen, dass alle Zeichen mit einer Leiter habe ich direkt in Verbindung gebrahct mit dem leidenden Kind. ","0","1","0","null","","","<img src = 'category1/CS7.png' width = '100%;'>","null","","","","","","","","","",""
"","html-keyboard-response","173","643564","0.0-10.0-2.12","nofyny1e4o","one_one","1","direct_first","1","er09ro30","0","22","1","1","3","1","es war sehr schwierig die Zeichen so schnell zu sehen, und mir ist aufgefallen, dass alle Zeichen mit einer Leiter habe ich direkt in Verbindung gebrahct mit dem leidenden Kind. ","0","1","0","null","","","<img src = 'targets/47.png' width = '100%;'>","null","","","","","","","","","",""
"","html-keyboard-response","174","644020","0.0-10.0-3.12","nofyny1e4o","one_one","1","direct_first","1","er09ro30","0","22","1","1","3","1","es war sehr schwierig die Zeichen so schnell zu sehen, und mir ist aufgefallen, dass alle Zeichen mit einer Leiter habe ich direkt in Verbindung gebrahct mit dem leidenden Kind. ","0","1","0","455","","","<img src = 'targets/mask.png' width = '100%;'>","75","pos","GS","GSold","1","category1/CS7.png","","targets/47.png","indirect","1","12"
"","html-keyboard-response","175","645532","0.0-10.0-0.13","nofyny1e4o","one_one","1","direct_first","1","er09ro30","0","22","1","1","3","1","es war sehr schwierig die Zeichen so schnell zu sehen, und mir ist aufgefallen, dass alle Zeichen mit einer Leiter habe ich direkt in Verbindung gebrahct mit dem leidenden Kind. ","0","1","0","null","","","<div style=""font-size:60px;"">+</div>","null","","","","","","","","","",""
"","html-keyboard-response","176","645623","0.0-10.0-1.13","nofyny1e4o","one_one","1","direct_first","1","er09ro30","0","22","1","1","3","1","es war sehr schwierig die Zeichen so schnell zu sehen, und mir ist aufgefallen, dass alle Zeichen mit einer Leiter habe ich direkt in Verbindung gebrahct mit dem leidenden Kind. ","0","1","0","null","","","<img src = 'category1/CS6.png' width = '100%;'>","null","","","","","","","","","",""
"","html-keyboard-response","177","645879","0.0-10.0-2.13","nofyny1e4o","one_one","1","direct_first","1","er09ro30","0","22","1","1","3","1","es war sehr schwierig die Zeichen so schnell zu sehen, und mir ist aufgefallen, dass alle Zeichen mit einer Leiter habe ich direkt in Verbindung gebrahct mit dem leidenden Kind. ","0","1","0","null","","","<img src = 'targets/25.png' width = '100%;'>","null","","","","","","","","","",""
"","html-keyboard-response","178","646253","0.0-10.0-3.13","nofyny1e4o","one_one","1","direct_first","1","er09ro30","0","22","1","1","3","1","es war sehr schwierig die Zeichen so schnell zu sehen, und mir ist aufgefallen, dass alle Zeichen mit einer Leiter habe ich direkt in Verbindung gebrahct mit dem leidenden Kind. ","0","1","0","373","","","<img src = 'targets/mask.png' width = '100%;'>","75","pos","GS","GSold","1","category1/CS6.png","","targets/25.png","indirect","1","13"
"","html-keyboard-response","179","647767","0.0-10.0-0.14","nofyny1e4o","one_one","1","direct_first","1","er09ro30","0","22","1","1","3","1","es war sehr schwierig die Zeichen so schnell zu sehen, und mir ist aufgefallen, dass alle Zeichen mit einer Leiter habe ich direkt in Verbindung gebrahct mit dem leidenden Kind. ","0","1","0","null","","","<div style=""font-size:60px;"">+</div>","null","","","","","","","","","",""
"","html-keyboard-response","180","647873","0.0-10.0-1.14","nofyny1e4o","one_one","1","direct_first","1","er09ro30","0","22","1","1","3","1","es war sehr schwierig die Zeichen so schnell zu sehen, und mir ist aufgefallen, dass alle Zeichen mit einer Leiter habe ich direkt in Verbindung gebrahct mit dem leidenden Kind. ","0","1","0","null","","","<img src = 'category2/CS4.png' width = '100%;'>","null","","","","","","","","","",""
"","html-keyboard-response","181","648135","0.0-10.0-2.14","nofyny1e4o","one_one","1","direct_first","1","er09ro30","0","22","1","1","3","1","es war sehr schwierig die Zeichen so schnell zu sehen, und mir ist aufgefallen, dass alle Zeichen mit einer Leiter habe ich direkt in Verbindung gebrahct mit dem leidenden Kind. ","0","1","0","null","","","<img src = 'targets/41.png' width = '100%;'>","null","","","","","","","","","",""
"","html-keyboard-response","182","648456","0.0-10.0-3.14","nofyny1e4o","one_one","1","direct_first","1","er09ro30","0","22","1","1","3","1","es war sehr schwierig die Zeichen so schnell zu sehen, und mir ist aufgefallen, dass alle Zeichen mit einer Leiter habe ich direkt in Verbindung gebrahct mit dem leidenden Kind. ","0","1","0","321","","","<img src = 'targets/mask.png' width = '100%;'>","75","pos","GS","GSold","2","category2/CS4.png","","targets/41.png","indirect","1","14"
"","html-keyboard-response","183","649986","0.0-10.0-0.15","nofyny1e4o","one_one","1","direct_first","1","er09ro30","0","22","1","1","3","1","es war sehr schwierig die Zeichen so schnell zu sehen, und mir ist aufgefallen, dass alle Zeichen mit einer Leiter habe ich direkt in Verbindung gebrahct mit dem leidenden Kind. ","0","1","0","null","","","<div style=""font-size:60px;"">+</div>","null","","","","","","","","","",""
"","html-keyboard-response","184","650093","0.0-10.0-1.15","nofyny1e4o","one_one","1","direct_first","1","er09ro30","0","22","1","1","3","1","es war sehr schwierig die Zeichen so schnell zu sehen, und mir ist aufgefallen, dass alle Zeichen mit einer Leiter habe ich direkt in Verbindung gebrahct mit dem leidenden Kind. ","0","1","0","null","","","<img src = 'category3/CS6.png' width = '100%;'>","null","","","","","","","","","",""
"","html-keyboard-response","185","650348","0.0-10.0-2.15","nofyny1e4o","one_one","1","direct_first","1","er09ro30","0","22","1","1","3","1","es war sehr schwierig die Zeichen so schnell zu sehen, und mir ist aufgefallen, dass alle Zeichen mit einer Leiter habe ich direkt in Verbindung gebrahct mit dem leidenden Kind. ","0","1","0","null","","","<img src = 'targets/5.png' width = '100%;'>","null","","","","","","","","","",""
"","html-keyboard-response","186","650720","0.0-10.0-3.15","nofyny1e4o","one_one","1","direct_first","1","er09ro30","0","22","1","1","3","1","es war sehr schwierig die Zeichen so schnell zu sehen, und mir ist aufgefallen, dass alle Zeichen mit einer Leiter habe ich direkt in Verbindung gebrahct mit dem leidenden Kind. ","0","1","0","371","","","<img src = 'targets/mask.png' width = '100%;'>","68","neg","GS","GSold","3","category3/CS6.png","","targets/5.png","indirect","0","15"
"","survey-html-form","187","655205","0.0-11.0","nofyny1e4o","one_one","1","direct_first","1","er09ro30","0","22","1","1","3","1","es war sehr schwierig die Zeichen so schnell zu sehen, und mir ist aufgefallen, dass alle Zeichen mit einer Leiter habe ich direkt in Verbindung gebrahct mit dem leidenden Kind. ","0","1","0","3971","","{}","","","","","","","","","","","",""
"","html-keyboard-response","188","658210","0.0-12.0-0.0","nofyny1e4o","one_one","1","direct_first","1","er09ro30","0","22","1","1","3","1","es war sehr schwierig die Zeichen so schnell zu sehen, und mir ist aufgefallen, dass alle Zeichen mit einer Leiter habe ich direkt in Verbindung gebrahct mit dem leidenden Kind. ","0","1","0","null","","","<div style=""font-size:60px;"">+</div>","null","","","","","","","","","",""
"","html-keyboard-response","189","658317","0.0-12.0-1.0","nofyny1e4o","one_one","1","direct_first","1","er09ro30","0","22","1","1","3","1","es war sehr schwierig die Zeichen so schnell zu sehen, und mir ist aufgefallen, dass alle Zeichen mit einer Leiter habe ich direkt in Verbindung gebrahct mit dem leidenden Kind. ","0","1","0","null","","","<img src = 'category4/GS3.png' width = '100%;'>","null","","","","","","","","","",""
"","html-keyboard-response","190","658583","0.0-12.0-2.0","nofyny1e4o","one_one","1","direct_first","1","er09ro30","0","22","1","1","3","1","es war sehr schwierig die Zeichen so schnell zu sehen, und mir ist aufgefallen, dass alle Zeichen mit einer Leiter habe ich direkt in Verbindung gebrahct mit dem leidenden Kind. ","0","1","0","null","","","<img src = 'targets/37.png' width = '100%;'>","null","","","","","","","","","",""
"","html-keyboard-response","191","659263","0.0-12.0-3.0","nofyny1e4o","one_one","1","direct_first","1","er09ro30","0","22","1","1","3","1","es war sehr schwierig die Zeichen so schnell zu sehen, und mir ist aufgefallen, dass alle Zeichen mit einer Leiter habe ich direkt in Verbindung gebrahct mit dem leidenden Kind. ","0","1","0","678","","","<img src = 'targets/mask.png' width = '100%;'>","68","neg","GS","GSnew","4","category4/GS3.png","","targets/37.png","indirect","0","16"
"","html-keyboard-response","192","660781","0.0-12.0-0.1","nofyny1e4o","one_one","1","direct_first","1","er09ro30","0","22","1","1","3","1","es war sehr schwierig die Zeichen so schnell zu sehen, und mir ist aufgefallen, dass alle Zeichen mit einer Leiter habe ich direkt in Verbindung gebrahct mit dem leidenden Kind. ","0","1","0","null","","","<div style=""font-size:60px;"">+</div>","null","","","","","","","","","",""
"","html-keyboard-response","193","660888","0.0-12.0-1.1","nofyny1e4o","one_one","1","direct_first","1","er09ro30","0","22","1","1","3","1","es war sehr schwierig die Zeichen so schnell zu sehen, und mir ist aufgefallen, dass alle Zeichen mit einer Leiter habe ich direkt in Verbindung gebrahct mit dem leidenden Kind. ","0","1","0","null","","","<img src = 'category4/GS1.png' width = '100%;'>","null","","","","","","","","","",""
"","html-keyboard-response","194","661143","0.0-12.0-2.1","nofyny1e4o","one_one","1","direct_first","1","er09ro30","0","22","1","1","3","1","es war sehr schwierig die Zeichen so schnell zu sehen, und mir ist aufgefallen, dass alle Zeichen mit einer Leiter habe ich direkt in Verbindung gebrahct mit dem leidenden Kind. ","0","1","0","null","","","<img src = 'targets/8.png' width = '100%;'>","null","","","","","","","","","",""
"","html-keyboard-response","195","661968","0.0-12.0-3.1","nofyny1e4o","one_one","1","direct_first","1","er09ro30","0","22","1","1","3","1","es war sehr schwierig die Zeichen so schnell zu sehen, und mir ist aufgefallen, dass alle Zeichen mit einer Leiter habe ich direkt in Verbindung gebrahct mit dem leidenden Kind. ","0","1","0","824","","","<img src = 'targets/mask.png' width = '100%;'>","68","neg","GS","GSnew","4","category4/GS1.png","","targets/8.png","indirect","0","17"
"","html-keyboard-response","196","663490","0.0-12.0-0.2","nofyny1e4o","one_one","1","direct_first","1","er09ro30","0","22","1","1","3","1","es war sehr schwierig die Zeichen so schnell zu sehen, und mir ist aufgefallen, dass alle Zeichen mit einer Leiter habe ich direkt in Verbindung gebrahct mit dem leidenden Kind. ","0","1","0","null","","","<div style=""font-size:60px;"">+</div>","null","","","","","","","","","",""
"","html-keyboard-response","197","663597","0.0-12.0-1.2","nofyny1e4o","one_one","1","direct_first","1","er09ro30","0","22","1","1","3","1","es war sehr schwierig die Zeichen so schnell zu sehen, und mir ist aufgefallen, dass alle Zeichen mit einer Leiter habe ich direkt in Verbindung gebrahct mit dem leidenden Kind. ","0","1","0","null","","","<img src = 'category1/GS3.png' width = '100%;'>","null","","","","","","","","","",""
"","html-keyboard-response","198","663852","0.0-12.0-2.2","nofyny1e4o","one_one","1","direct_first","1","er09ro30","0","22","1","1","3","1","es war sehr schwierig die Zeichen so schnell zu sehen, und mir ist aufgefallen, dass alle Zeichen mit einer Leiter habe ich direkt in Verbindung gebrahct mit dem leidenden Kind. ","0","1","0","null","","","<img src = 'targets/38.png' width = '100%;'>","null","","","","","","","","","",""
