"success","trial_type","trial_index","time_elapsed","internal_node_id","subject","condition","condition_code","measure","measure_code","codeword","gender","age","education","chinese","fach","handedness","rt","url","responses","stimulus","key_press","val","type","type_specific","category","cs_selected","response","target","task","indirect","nr_pres"
"true","fullscreen","0","2048","0.0-0.0","xmz7cn2d79","many_one","0","direct_first","1","la05ol29","1","24","1","1","3","1","","","","","","","","","","","","","","",""
"","external-html","1","110631","0.0-1.0","xmz7cn2d79","many_one","0","direct_first","1","la05ol29","1","24","1","1","3","1","108566","text/information.html","","","","","","","","","","","","",""
"","external-html","2","144287","0.0-2.0","xmz7cn2d79","many_one","0","direct_first","1","la05ol29","1","24","1","1","3","1","33647","text/consent.html","","","","","","","","","","","","",""
"","survey-html-form","3","247110","0.0-3.0","xmz7cn2d79","many_one","0","direct_first","1","la05ol29","1","24","1","1","3","1","102821","","{""codeword_enter"":""la05ol29""}","","","","","","","","","","","",""
"","survey-html-form","4","275104","0.0-4.0","xmz7cn2d79","many_one","0","direct_first","1","la05ol29","1","24","1","1","3","1","27993","","{""age"":""24"",""education"":""1"",""subject"":""3"",""gender"":""1"",""handedness"":""1"",""chinese"":""1""}","","","","","","","","","","","",""
"","survey-html-form","5","295864","0.0-5.0","xmz7cn2d79","many_one","0","direct_first","1","la05ol29","1","24","1","1","3","1","20759","","{}","","","","","","","","","","","",""
"","html-keyboard-response","6","299889","0.0-6.0-0.0-0.0","xmz7cn2d79","many_one","0","direct_first","1","la05ol29","1","24","1","1","3","1","null","","","<div class = 'row'><div class = 'column'><img src = 'uspos/8080.bmp' width = '100%;'></div><div class = 'column'><img src = 'category1/CS2.png' width = '70%;'></div></div>","null","pos","CS","CS","1","category1/CS2.png","","","","",""
"","html-keyboard-response","7","302428","0.0-6.0-0.0-0.1","xmz7cn2d79","many_one","0","direct_first","1","la05ol29","1","24","1","1","3","1","null","","","<div class = 'row'><div class = 'column'><img src = 'category2/CS7.png' width = '70%;'></div><div class = 'column'><img src = 'usneg/9181.bmp' width = '100%;'></div></div>","null","neg","CS","CS","2","category2/CS7.png","","","","",""
"","html-keyboard-response","8","304958","0.0-6.0-0.0-0.2","xmz7cn2d79","many_one","0","direct_first","1","la05ol29","1","24","1","1","3","1","null","","","<div class = 'row'><div class = 'column'><img src = 'category2/CS3.png' width = '70%;'></div><div class = 'column'><img src = 'usneg/9180.bmp' width = '100%;'></div></div>","null","neg","CS","CS","2","category2/CS3.png","","","","",""
"","html-keyboard-response","9","307498","0.0-6.0-0.0-0.3","xmz7cn2d79","many_one","0","direct_first","1","la05ol29","1","24","1","1","3","1","null","","","<div class = 'row'><div class = 'column'><img src = 'uspos/2160.bmp' width = '100%;'></div><div class = 'column'><img src = 'category4/CS10.png' width = '70%;'></div></div>","null","pos","CS","CS","4","category4/CS10.png","","","","",""
"","html-keyboard-response","10","310038","0.0-6.0-0.0-0.4","xmz7cn2d79","many_one","0","direct_first","1","la05ol29","1","24","1","1","3","1","null","","","<div class = 'row'><div class = 'column'><img src = 'usneg/6570.1.bmp' width = '100%;'></div><div class = 'column'><img src = 'category2/CS8.png' width = '70%;'></div></div>","null","neg","CS","CS","2","category2/CS8.png","","","","",""
"","html-keyboard-response","11","312578","0.0-6.0-0.0-0.5","xmz7cn2d79","many_one","0","direct_first","1","la05ol29","1","24","1","1","3","1","null","","","<div class = 'row'><div class = 'column'><img src = 'category1/CS8.png' width = '70%;'></div><div class = 'column'><img src = 'uspos/5621.bmp' width = '100%;'></div></div>","null","pos","CS","CS","1","category1/CS8.png","","","","",""
"","html-keyboard-response","12","315118","0.0-6.0-0.0-0.6","xmz7cn2d79","many_one","0","direct_first","1","la05ol29","1","24","1","1","3","1","null","","","<div class = 'row'><div class = 'column'><img src = 'category3/CS6.png' width = '70%;'></div><div class = 'column'><img src = 'usneg/9584.bmp' width = '100%;'></div></div>","null","neg","CS","CS","3","category3/CS6.png","","","","",""
"","html-keyboard-response","13","317658","0.0-6.0-0.0-0.7","xmz7cn2d79","many_one","0","direct_first","1","la05ol29","1","24","1","1","3","1","null","","","<div class = 'row'><div class = 'column'><img src = 'category3/CS4.png' width = '70%;'></div><div class = 'column'><img src = 'usneg/9041.bmp' width = '100%;'></div></div>","null","neg","CS","CS","3","category3/CS4.png","","","","",""
"","html-keyboard-response","14","320179","0.0-6.0-0.0-0.8","xmz7cn2d79","many_one","0","direct_first","1","la05ol29","1","24","1","1","3","1","null","","","<div class = 'row'><div class = 'column'><img src = 'category1/CS1.png' width = '70%;'></div><div class = 'column'><img src = 'uspos/8350.bmp' width = '100%;'></div></div>","null","pos","CS","CS","1","category1/CS1.png","","","","",""
"","html-keyboard-response","15","322718","0.0-6.0-0.0-0.9","xmz7cn2d79","many_one","0","direct_first","1","la05ol29","1","24","1","1","3","1","null","","","<div class = 'row'><div class = 'column'><img src = 'category2/CS5.png' width = '70%;'></div><div class = 'column'><img src = 'usneg/9330.bmp' width = '100%;'></div></div>","null","neg","CS","CS","2","category2/CS5.png","","","","",""
"","html-keyboard-response","16","325251","0.0-6.0-0.0-0.10","xmz7cn2d79","many_one","0","direct_first","1","la05ol29","1","24","1","1","3","1","null","","","<div class = 'row'><div class = 'column'><img src = 'uspos/1710.bmp' width = '100%;'></div><div class = 'column'><img src = 'category4/CS1.png' width = '70%;'></div></div>","null","pos","CS","CS","4","category4/CS1.png","","","","",""
"","html-keyboard-response","17","327767","0.0-6.0-0.0-0.11","xmz7cn2d79","many_one","0","direct_first","1","la05ol29","1","24","1","1","3","1","null","","","<div class = 'row'><div class = 'column'><img src = 'uspos/2311.bmp' width = '100%;'></div><div class = 'column'><img src = 'category4/CS6.png' width = '70%;'></div></div>","null","pos","CS","CS","4","category4/CS6.png","","","","",""
"","html-keyboard-response","18","330308","0.0-6.0-0.0-0.12","xmz7cn2d79","many_one","0","direct_first","1","la05ol29","1","24","1","1","3","1","null","","","<div class = 'row'><div class = 'column'><img src = 'category3/CS2.png' width = '70%;'></div><div class = 'column'><img src = 'usneg/9404.bmp' width = '100%;'></div></div>","null","neg","CS","CS","3","category3/CS2.png","","","","",""
"","html-keyboard-response","19","332847","0.0-6.0-0.0-0.13","xmz7cn2d79","many_one","0","direct_first","1","la05ol29","1","24","1","1","3","1","null","","","<div class = 'row'><div class = 'column'><img src = 'uspos/1463.bmp' width = '100%;'></div><div class = 'column'><img src = 'category1/CS7.png' width = '70%;'></div></div>","null","pos","CS","CS","1","category1/CS7.png","","","","",""
"","html-keyboard-response","20","335388","0.0-6.0-0.0-0.14","xmz7cn2d79","many_one","0","direct_first","1","la05ol29","1","24","1","1","3","1","null","","","<div class = 'row'><div class = 'column'><img src = 'category3/CS1.png' width = '70%;'></div><div class = 'column'><img src = 'usneg/9435.bmp' width = '100%;'></div></div>","null","neg","CS","CS","3","category3/CS1.png","","","","",""
"","html-keyboard-response","21","337917","0.0-6.0-0.0-0.15","xmz7cn2d79","many_one","0","direct_first","1","la05ol29","1","24","1","1","3","1","null","","","<div class = 'row'><div class = 'column'><img src = 'usneg/9340.bmp' width = '100%;'></div><div class = 'column'><img src = 'category2/CS2.png' width = '70%;'></div></div>","null","neg","CS","CS","2","category2/CS2.png","","","","",""
"","html-keyboard-response","22","340458","0.0-6.0-0.0-0.16","xmz7cn2d79","many_one","0","direct_first","1","la05ol29","1","24","1","1","3","1","null","","","<div class = 'row'><div class = 'column'><img src = 'uspos/2165.bmp' width = '100%;'></div><div class = 'column'><img src = 'category4/CS3.png' width = '70%;'></div></div>","null","pos","CS","CS","4","category4/CS3.png","","","","",""
"","html-keyboard-response","23","342977","0.0-6.0-0.0-0.17","xmz7cn2d79","many_one","0","direct_first","1","la05ol29","1","24","1","1","3","1","null","","","<div class = 'row'><div class = 'column'><img src = 'category4/CS5.png' width = '70%;'></div><div class = 'column'><img src = 'uspos/1340.bmp' width = '100%;'></div></div>","null","pos","CS","CS","4","category4/CS5.png","","","","",""
"","html-keyboard-response","24","345518","0.0-6.0-0.0-0.18","xmz7cn2d79","many_one","0","direct_first","1","la05ol29","1","24","1","1","3","1","null","","","<div class = 'row'><div class = 'column'><img src = 'usneg/8485.bmp' width = '100%;'></div><div class = 'column'><img src = 'category3/CS3.png' width = '70%;'></div></div>","null","neg","CS","CS","3","category3/CS3.png","","","","",""
"","html-keyboard-response","25","348058","0.0-6.0-0.0-0.19","xmz7cn2d79","many_one","0","direct_first","1","la05ol29","1","24","1","1","3","1","null","","","<div class = 'row'><div class = 'column'><img src = 'uspos/8190.bmp' width = '100%;'></div><div class = 'column'><img src = 'category1/CS6.png' width = '70%;'></div></div>","null","pos","CS","CS","1","category1/CS6.png","","","","",""
"","survey-html-form","26","357015","0.0-6.0-1.0","xmz7cn2d79","many_one","0","direct_first","1","la05ol29","1","24","1","1","3","1","8437","","{}","","","","","","","","","","","",""
"","html-keyboard-response","27","361047","0.0-6.0-2.0-0.0","xmz7cn2d79","many_one","0","direct_first","1","la05ol29","1","24","1","1","3","1","null","","","<div class = 'row'><div class = 'column'><img src = 'uspos/2165.bmp' width = '100%;'></div><div class = 'column'><img src = 'category4/CS3.png' width = '70%;'></div></div>","null","pos","CS","CS","4","category4/CS3.png","","","","",""
"","html-keyboard-response","28","363557","0.0-6.0-2.0-0.1","xmz7cn2d79","many_one","0","direct_first","1","la05ol29","1","24","1","1","3","1","null","","","<div class = 'row'><div class = 'column'><img src = 'category3/CS6.png' width = '70%;'></div><div class = 'column'><img src = 'usneg/9584.bmp' width = '100%;'></div></div>","null","neg","CS","CS","3","category3/CS6.png","","","","",""
"","html-keyboard-response","29","366097","0.0-6.0-2.0-0.2","xmz7cn2d79","many_one","0","direct_first","1","la05ol29","1","24","1","1","3","1","null","","","<div class = 'row'><div class = 'column'><img src = 'category4/CS5.png' width = '70%;'></div><div class = 'column'><img src = 'uspos/1340.bmp' width = '100%;'></div></div>","null","pos","CS","CS","4","category4/CS5.png","","","","",""
"","html-keyboard-response","30","368608","0.0-6.0-2.0-0.3","xmz7cn2d79","many_one","0","direct_first","1","la05ol29","1","24","1","1","3","1","null","","","<div class = 'row'><div class = 'column'><img src = 'uspos/1710.bmp' width = '100%;'></div><div class = 'column'><img src = 'category4/CS1.png' width = '70%;'></div></div>","null","pos","CS","CS","4","category4/CS1.png","","","","",""
"","html-keyboard-response","31","371147","0.0-6.0-2.0-0.4","xmz7cn2d79","many_one","0","direct_first","1","la05ol29","1","24","1","1","3","1","null","","","<div class = 'row'><div class = 'column'><img src = 'category3/CS2.png' width = '70%;'></div><div class = 'column'><img src = 'usneg/9404.bmp' width = '100%;'></div></div>","null","neg","CS","CS","3","category3/CS2.png","","","","",""
"","html-keyboard-response","32","373677","0.0-6.0-2.0-0.5","xmz7cn2d79","many_one","0","direct_first","1","la05ol29","1","24","1","1","3","1","null","","","<div class = 'row'><div class = 'column'><img src = 'category4/CS10.png' width = '70%;'></div><div class = 'column'><img src = 'uspos/2160.bmp' width = '100%;'></div></div>","null","pos","CS","CS","4","category4/CS10.png","","","","",""
"","html-keyboard-response","33","376207","0.0-6.0-2.0-0.6","xmz7cn2d79","many_one","0","direct_first","1","la05ol29","1","24","1","1","3","1","null","","","<div class = 'row'><div class = 'column'><img src = 'category1/CS6.png' width = '70%;'></div><div class = 'column'><img src = 'uspos/8190.bmp' width = '100%;'></div></div>","null","pos","CS","CS","1","category1/CS6.png","","","","",""
"","html-keyboard-response","34","378747","0.0-6.0-2.0-0.7","xmz7cn2d79","many_one","0","direct_first","1","la05ol29","1","24","1","1","3","1","null","","","<div class = 'row'><div class = 'column'><img src = 'usneg/9340.bmp' width = '100%;'></div><div class = 'column'><img src = 'category2/CS2.png' width = '70%;'></div></div>","null","neg","CS","CS","2","category2/CS2.png","","","","",""
"","html-keyboard-response","35","381269","0.0-6.0-2.0-0.8","xmz7cn2d79","many_one","0","direct_first","1","la05ol29","1","24","1","1","3","1","null","","","<div class = 'row'><div class = 'column'><img src = 'uspos/8080.bmp' width = '100%;'></div><div class = 'column'><img src = 'category1/CS2.png' width = '70%;'></div></div>","null","pos","CS","CS","1","category1/CS2.png","","","","",""
"","html-keyboard-response","36","383808","0.0-6.0-2.0-0.9","xmz7cn2d79","many_one","0","direct_first","1","la05ol29","1","24","1","1","3","1","null","","","<div class = 'row'><div class = 'column'><img src = 'category3/CS1.png' width = '70%;'></div><div class = 'column'><img src = 'usneg/9435.bmp' width = '100%;'></div></div>","null","neg","CS","CS","3","category3/CS1.png","","","","",""
"","html-keyboard-response","37","386328","0.0-6.0-2.0-0.10","xmz7cn2d79","many_one","0","direct_first","1","la05ol29","1","24","1","1","3","1","null","","","<div class = 'row'><div class = 'column'><img src = 'uspos/5621.bmp' width = '100%;'></div><div class = 'column'><img src = 'category1/CS8.png' width = '70%;'></div></div>","null","pos","CS","CS","1","category1/CS8.png","","","","",""
"","html-keyboard-response","38","388858","0.0-6.0-2.0-0.11","xmz7cn2d79","many_one","0","direct_first","1","la05ol29","1","24","1","1","3","1","null","","","<div class = 'row'><div class = 'column'><img src = 'category2/CS8.png' width = '70%;'></div><div class = 'column'><img src = 'usneg/6570.1.bmp' width = '100%;'></div></div>","null","neg","CS","CS","2","category2/CS8.png","","","","",""
"","html-keyboard-response","39","391394","0.0-6.0-2.0-0.12","xmz7cn2d79","many_one","0","direct_first","1","la05ol29","1","24","1","1","3","1","null","","","<div class = 'row'><div class = 'column'><img src = 'uspos/8350.bmp' width = '100%;'></div><div class = 'column'><img src = 'category1/CS1.png' width = '70%;'></div></div>","null","pos","CS","CS","1","category1/CS1.png","","","","",""
"","html-keyboard-response","40","393938","0.0-6.0-2.0-0.13","xmz7cn2d79","many_one","0","direct_first","1","la05ol29","1","24","1","1","3","1","null","","","<div class = 'row'><div class = 'column'><img src = 'category2/CS3.png' width = '70%;'></div><div class = 'column'><img src = 'usneg/9180.bmp' width = '100%;'></div></div>","null","neg","CS","CS","2","category2/CS3.png","","","","",""
"","html-keyboard-response","41","396477","0.0-6.0-2.0-0.14","xmz7cn2d79","many_one","0","direct_first","1","la05ol29","1","24","1","1","3","1","null","","","<div class = 'row'><div class = 'column'><img src = 'usneg/8485.bmp' width = '100%;'></div><div class = 'column'><img src = 'category3/CS3.png' width = '70%;'></div></div>","null","neg","CS","CS","3","category3/CS3.png","","","","",""
"","html-keyboard-response","42","399015","0.0-6.0-2.0-0.15","xmz7cn2d79","many_one","0","direct_first","1","la05ol29","1","24","1","1","3","1","null","","","<div class = 'row'><div class = 'column'><img src = 'usneg/9041.bmp' width = '100%;'></div><div class = 'column'><img src = 'category3/CS4.png' width = '70%;'></div></div>","null","neg","CS","CS","3","category3/CS4.png","","","","",""
"","html-keyboard-response","43","401518","0.0-6.0-2.0-0.16","xmz7cn2d79","many_one","0","direct_first","1","la05ol29","1","24","1","1","3","1","null","","","<div class = 'row'><div class = 'column'><img src = 'category2/CS5.png' width = '70%;'></div><div class = 'column'><img src = 'usneg/9330.bmp' width = '100%;'></div></div>","null","neg","CS","CS","2","category2/CS5.png","","","","",""
"","html-keyboard-response","44","404058","0.0-6.0-2.0-0.17","xmz7cn2d79","many_one","0","direct_first","1","la05ol29","1","24","1","1","3","1","null","","","<div class = 'row'><div class = 'column'><img src = 'uspos/1463.bmp' width = '100%;'></div><div class = 'column'><img src = 'category1/CS7.png' width = '70%;'></div></div>","null","pos","CS","CS","1","category1/CS7.png","","","","",""
"","html-keyboard-response","45","406598","0.0-6.0-2.0-0.18","xmz7cn2d79","many_one","0","direct_first","1","la05ol29","1","24","1","1","3","1","null","","","<div class = 'row'><div class = 'column'><img src = 'category2/CS7.png' width = '70%;'></div><div class = 'column'><img src = 'usneg/9181.bmp' width = '100%;'></div></div>","null","neg","CS","CS","2","category2/CS7.png","","","","",""
"","html-keyboard-response","46","409127","0.0-6.0-2.0-0.19","xmz7cn2d79","many_one","0","direct_first","1","la05ol29","1","24","1","1","3","1","null","","","<div class = 'row'><div class = 'column'><img src = 'category4/CS6.png' width = '70%;'></div><div class = 'column'><img src = 'uspos/2311.bmp' width = '100%;'></div></div>","null","pos","CS","CS","4","category4/CS6.png","","","","",""
"","survey-html-form","47","416471","0.0-6.0-3.0","xmz7cn2d79","many_one","0","direct_first","1","la05ol29","1","24","1","1","3","1","6822","","{}","","","","","","","","","","","",""
"","html-keyboard-response","48","420508","0.0-6.0-4.0-0.0","xmz7cn2d79","many_one","0","direct_first","1","la05ol29","1","24","1","1","3","1","null","","","<div class = 'row'><div class = 'column'><img src = 'category1/CS2.png' width = '70%;'></div><div class = 'column'><img src = 'uspos/8080.bmp' width = '100%;'></div></div>","null","pos","CS","CS","1","category1/CS2.png","","","","",""
"","html-keyboard-response","49","423047","0.0-6.0-4.0-0.1","xmz7cn2d79","many_one","0","direct_first","1","la05ol29","1","24","1","1","3","1","null","","","<div class = 'row'><div class = 'column'><img src = 'category4/CS10.png' width = '70%;'></div><div class = 'column'><img src = 'uspos/2160.bmp' width = '100%;'></div></div>","null","pos","CS","CS","4","category4/CS10.png","","","","",""
"","html-keyboard-response","50","425557","0.0-6.0-4.0-0.2","xmz7cn2d79","many_one","0","direct_first","1","la05ol29","1","24","1","1","3","1","null","","","<div class = 'row'><div class = 'column'><img src = 'uspos/8350.bmp' width = '100%;'></div><div class = 'column'><img src = 'category1/CS1.png' width = '70%;'></div></div>","null","pos","CS","CS","1","category1/CS1.png","","","","",""
"","html-keyboard-response","51","428088","0.0-6.0-4.0-0.3","xmz7cn2d79","many_one","0","direct_first","1","la05ol29","1","24","1","1","3","1","null","","","<div class = 'row'><div class = 'column'><img src = 'usneg/9181.bmp' width = '100%;'></div><div class = 'column'><img src = 'category2/CS7.png' width = '70%;'></div></div>","null","neg","CS","CS","2","category2/CS7.png","","","","",""
"","html-keyboard-response","52","430628","0.0-6.0-4.0-0.4","xmz7cn2d79","many_one","0","direct_first","1","la05ol29","1","24","1","1","3","1","null","","","<div class = 'row'><div class = 'column'><img src = 'category1/CS6.png' width = '70%;'></div><div class = 'column'><img src = 'uspos/8190.bmp' width = '100%;'></div></div>","null","pos","CS","CS","1","category1/CS6.png","","","","",""
"","html-keyboard-response","53","433157","0.0-6.0-4.0-0.5","xmz7cn2d79","many_one","0","direct_first","1","la05ol29","1","24","1","1","3","1","null","","","<div class = 'row'><div class = 'column'><img src = 'category3/CS3.png' width = '70%;'></div><div class = 'column'><img src = 'usneg/8485.bmp' width = '100%;'></div></div>","null","neg","CS","CS","3","category3/CS3.png","","","","",""
"","html-keyboard-response","54","435698","0.0-6.0-4.0-0.6","xmz7cn2d79","many_one","0","direct_first","1","la05ol29","1","24","1","1","3","1","null","","","<div class = 'row'><div class = 'column'><img src = 'category2/CS5.png' width = '70%;'></div><div class = 'column'><img src = 'usneg/9330.bmp' width = '100%;'></div></div>","null","neg","CS","CS","2","category2/CS5.png","","","","",""
"","html-keyboard-response","55","438228","0.0-6.0-4.0-0.7","xmz7cn2d79","many_one","0","direct_first","1","la05ol29","1","24","1","1","3","1","null","","","<div class = 'row'><div class = 'column'><img src = 'category3/CS6.png' width = '70%;'></div><div class = 'column'><img src = 'usneg/9584.bmp' width = '100%;'></div></div>","null","neg","CS","CS","3","category3/CS6.png","","","","",""
"","html-keyboard-response","56","440767","0.0-6.0-4.0-0.8","xmz7cn2d79","many_one","0","direct_first","1","la05ol29","1","24","1","1","3","1","null","","","<div class = 'row'><div class = 'column'><img src = 'usneg/9340.bmp' width = '100%;'></div><div class = 'column'><img src = 'category2/CS2.png' width = '70%;'></div></div>","null","neg","CS","CS","2","category2/CS2.png","","","","",""
"","html-keyboard-response","57","443308","0.0-6.0-4.0-0.9","xmz7cn2d79","many_one","0","direct_first","1","la05ol29","1","24","1","1","3","1","null","","","<div class = 'row'><div class = 'column'><img src = 'category2/CS8.png' width = '70%;'></div><div class = 'column'><img src = 'usneg/6570.1.bmp' width = '100%;'></div></div>","null","neg","CS","CS","2","category2/CS8.png","","","","",""
"","html-keyboard-response","58","445843","0.0-6.0-4.0-0.10","xmz7cn2d79","many_one","0","direct_first","1","la05ol29","1","24","1","1","3","1","null","","","<div class = 'row'><div class = 'column'><img src = 'category1/CS8.png' width = '70%;'></div><div class = 'column'><img src = 'uspos/5621.bmp' width = '100%;'></div></div>","null","pos","CS","CS","1","category1/CS8.png","","","","",""
"","html-keyboard-response","59","448348","0.0-6.0-4.0-0.11","xmz7cn2d79","many_one","0","direct_first","1","la05ol29","1","24","1","1","3","1","null","","","<div class = 'row'><div class = 'column'><img src = 'uspos/1710.bmp' width = '100%;'></div><div class = 'column'><img src = 'category4/CS1.png' width = '70%;'></div></div>","null","pos","CS","CS","4","category4/CS1.png","","","","",""
"","html-keyboard-response","60","450887","0.0-6.0-4.0-0.12","xmz7cn2d79","many_one","0","direct_first","1","la05ol29","1","24","1","1","3","1","null","","","<div class = 'row'><div class = 'column'><img src = 'category2/CS3.png' width = '70%;'></div><div class = 'column'><img src = 'usneg/9180.bmp' width = '100%;'></div></div>","null","neg","CS","CS","2","category2/CS3.png","","","","",""
"","html-keyboard-response","61","453428","0.0-6.0-4.0-0.13","xmz7cn2d79","many_one","0","direct_first","1","la05ol29","1","24","1","1","3","1","null","","","<div class = 'row'><div class = 'column'><img src = 'uspos/1463.bmp' width = '100%;'></div><div class = 'column'><img src = 'category1/CS7.png' width = '70%;'></div></div>","null","pos","CS","CS","1","category1/CS7.png","","","","",""
"","html-keyboard-response","62","455965","0.0-6.0-4.0-0.14","xmz7cn2d79","many_one","0","direct_first","1","la05ol29","1","24","1","1","3","1","null","","","<div class = 'row'><div class = 'column'><img src = 'category3/CS4.png' width = '70%;'></div><div class = 'column'><img src = 'usneg/9041.bmp' width = '100%;'></div></div>","null","neg","CS","CS","3","category3/CS4.png","","","","",""
"","html-keyboard-response","63","458467","0.0-6.0-4.0-0.15","xmz7cn2d79","many_one","0","direct_first","1","la05ol29","1","24","1","1","3","1","null","","","<div class = 'row'><div class = 'column'><img src = 'uspos/2165.bmp' width = '100%;'></div><div class = 'column'><img src = 'category4/CS3.png' width = '70%;'></div></div>","null","pos","CS","CS","4","category4/CS3.png","","","","",""
"","html-keyboard-response","64","461007","0.0-6.0-4.0-0.16","xmz7cn2d79","many_one","0","direct_first","1","la05ol29","1","24","1","1","3","1","null","","","<div class = 'row'><div class = 'column'><img src = 'category4/CS5.png' width = '70%;'></div><div class = 'column'><img src = 'uspos/1340.bmp' width = '100%;'></div></div>","null","pos","CS","CS","4","category4/CS5.png","","","","",""
"","html-keyboard-response","65","463528","0.0-6.0-4.0-0.17","xmz7cn2d79","many_one","0","direct_first","1","la05ol29","1","24","1","1","3","1","null","","","<div class = 'row'><div class = 'column'><img src = 'category3/CS2.png' width = '70%;'></div><div class = 'column'><img src = 'usneg/9404.bmp' width = '100%;'></div></div>","null","neg","CS","CS","3","category3/CS2.png","","","","",""
"","html-keyboard-response","66","466048","0.0-6.0-4.0-0.18","xmz7cn2d79","many_one","0","direct_first","1","la05ol29","1","24","1","1","3","1","null","","","<div class = 'row'><div class = 'column'><img src = 'uspos/2311.bmp' width = '100%;'></div><div class = 'column'><img src = 'category4/CS6.png' width = '70%;'></div></div>","null","pos","CS","CS","4","category4/CS6.png","","","","",""
"","html-keyboard-response","67","468583","0.0-6.0-4.0-0.19","xmz7cn2d79","many_one","0","direct_first","1","la05ol29","1","24","1","1","3","1","null","","","<div class = 'row'><div class = 'column'><img src = 'category3/CS1.png' width = '70%;'></div><div class = 'column'><img src = 'usneg/9435.bmp' width = '100%;'></div></div>","null","neg","CS","CS","3","category3/CS1.png","","","","",""
"","survey-html-form","68","473223","0.0-6.0-5.0","xmz7cn2d79","many_one","0","direct_first","1","la05ol29","1","24","1","1","3","1","4138","","{}","","","","","","","","","","","",""
"","html-keyboard-response","69","477247","0.0-6.0-6.0-0.0","xmz7cn2d79","many_one","0","direct_first","1","la05ol29","1","24","1","1","3","1","null","","","<div class = 'row'><div class = 'column'><img src = 'category2/CS7.png' width = '70%;'></div><div class = 'column'><img src = 'usneg/9181.bmp' width = '100%;'></div></div>","null","neg","CS","CS","2","category2/CS7.png","","","","",""
"","html-keyboard-response","70","479768","0.0-6.0-6.0-0.1","xmz7cn2d79","many_one","0","direct_first","1","la05ol29","1","24","1","1","3","1","null","","","<div class = 'row'><div class = 'column'><img src = 'category3/CS2.png' width = '70%;'></div><div class = 'column'><img src = 'usneg/9404.bmp' width = '100%;'></div></div>","null","neg","CS","CS","3","category3/CS2.png","","","","",""
"","html-keyboard-response","71","482308","0.0-6.0-6.0-0.2","xmz7cn2d79","many_one","0","direct_first","1","la05ol29","1","24","1","1","3","1","null","","","<div class = 'row'><div class = 'column'><img src = 'category3/CS1.png' width = '70%;'></div><div class = 'column'><img src = 'usneg/9435.bmp' width = '100%;'></div></div>","null","neg","CS","CS","3","category3/CS1.png","","","","",""
"","html-keyboard-response","72","484844","0.0-6.0-6.0-0.3","xmz7cn2d79","many_one","0","direct_first","1","la05ol29","1","24","1","1","3","1","null","","","<div class = 'row'><div class = 'column'><img src = 'uspos/1463.bmp' width = '100%;'></div><div class = 'column'><img src = 'category1/CS7.png' width = '70%;'></div></div>","null","pos","CS","CS","1","category1/CS7.png","","","","",""
"","html-keyboard-response","73","487347","0.0-6.0-6.0-0.4","xmz7cn2d79","many_one","0","direct_first","1","la05ol29","1","24","1","1","3","1","null","","","<div class = 'row'><div class = 'column'><img src = 'usneg/9041.bmp' width = '100%;'></div><div class = 'column'><img src = 'category3/CS4.png' width = '70%;'></div></div>","null","neg","CS","CS","3","category3/CS4.png","","","","",""
"","html-keyboard-response","74","489867","0.0-6.0-6.0-0.5","xmz7cn2d79","many_one","0","direct_first","1","la05ol29","1","24","1","1","3","1","null","","","<div class = 'row'><div class = 'column'><img src = 'usneg/6570.1.bmp' width = '100%;'></div><div class = 'column'><img src = 'category2/CS8.png' width = '70%;'></div></div>","null","neg","CS","CS","2","category2/CS8.png","","","","",""
"","html-keyboard-response","75","492407","0.0-6.0-6.0-0.6","xmz7cn2d79","many_one","0","direct_first","1","la05ol29","1","24","1","1","3","1","null","","","<div class = 'row'><div class = 'column'><img src = 'category4/CS5.png' width = '70%;'></div><div class = 'column'><img src = 'uspos/1340.bmp' width = '100%;'></div></div>","null","pos","CS","CS","4","category4/CS5.png","","","","",""
"","html-keyboard-response","76","494928","0.0-6.0-6.0-0.7","xmz7cn2d79","many_one","0","direct_first","1","la05ol29","1","24","1","1","3","1","null","","","<div class = 'row'><div class = 'column'><img src = 'usneg/8485.bmp' width = '100%;'></div><div class = 'column'><img src = 'category3/CS3.png' width = '70%;'></div></div>","null","neg","CS","CS","3","category3/CS3.png","","","","",""
"","html-keyboard-response","77","497468","0.0-6.0-6.0-0.8","xmz7cn2d79","many_one","0","direct_first","1","la05ol29","1","24","1","1","3","1","null","","","<div class = 'row'><div class = 'column'><img src = 'uspos/2165.bmp' width = '100%;'></div><div class = 'column'><img src = 'category4/CS3.png' width = '70%;'></div></div>","null","pos","CS","CS","4","category4/CS3.png","","","","",""
"","html-keyboard-response","78","499998","0.0-6.0-6.0-0.9","xmz7cn2d79","many_one","0","direct_first","1","la05ol29","1","24","1","1","3","1","null","","","<div class = 'row'><div class = 'column'><img src = 'usneg/9180.bmp' width = '100%;'></div><div class = 'column'><img src = 'category2/CS3.png' width = '70%;'></div></div>","null","neg","CS","CS","2","category2/CS3.png","","","","",""
"","html-keyboard-response","79","502520","0.0-6.0-6.0-0.10","xmz7cn2d79","many_one","0","direct_first","1","la05ol29","1","24","1","1","3","1","null","","","<div class = 'row'><div class = 'column'><img src = 'category1/CS8.png' width = '70%;'></div><div class = 'column'><img src = 'uspos/5621.bmp' width = '100%;'></div></div>","null","pos","CS","CS","1","category1/CS8.png","","","","",""
"","html-keyboard-response","80","505038","0.0-6.0-6.0-0.11","xmz7cn2d79","many_one","0","direct_first","1","la05ol29","1","24","1","1","3","1","null","","","<div class = 'row'><div class = 'column'><img src = 'uspos/1710.bmp' width = '100%;'></div><div class = 'column'><img src = 'category4/CS1.png' width = '70%;'></div></div>","null","pos","CS","CS","4","category4/CS1.png","","","","",""
"","html-keyboard-response","81","507578","0.0-6.0-6.0-0.12","xmz7cn2d79","many_one","0","direct_first","1","la05ol29","1","24","1","1","3","1","null","","","<div class = 'row'><div class = 'column'><img src = 'category1/CS2.png' width = '70%;'></div><div class = 'column'><img src = 'uspos/8080.bmp' width = '100%;'></div></div>","null","pos","CS","CS","1","category1/CS2.png","","","","",""
"","html-keyboard-response","82","510117","0.0-6.0-6.0-0.13","xmz7cn2d79","many_one","0","direct_first","1","la05ol29","1","24","1","1","3","1","null","","","<div class = 'row'><div class = 'column'><img src = 'uspos/2160.bmp' width = '100%;'></div><div class = 'column'><img src = 'category4/CS10.png' width = '70%;'></div></div>","null","pos","CS","CS","4","category4/CS10.png","","","","",""
"","html-keyboard-response","83","512658","0.0-6.0-6.0-0.14","xmz7cn2d79","many_one","0","direct_first","1","la05ol29","1","24","1","1","3","1","null","","","<div class = 'row'><div class = 'column'><img src = 'category1/CS1.png' width = '70%;'></div><div class = 'column'><img src = 'uspos/8350.bmp' width = '100%;'></div></div>","null","pos","CS","CS","1","category1/CS1.png","","","","",""
"","html-keyboard-response","84","515197","0.0-6.0-6.0-0.15","xmz7cn2d79","many_one","0","direct_first","1","la05ol29","1","24","1","1","3","1","null","","","<div class = 'row'><div class = 'column'><img src = 'category3/CS6.png' width = '70%;'></div><div class = 'column'><img src = 'usneg/9584.bmp' width = '100%;'></div></div>","null","neg","CS","CS","3","category3/CS6.png","","","","",""
"","html-keyboard-response","85","517737","0.0-6.0-6.0-0.16","xmz7cn2d79","many_one","0","direct_first","1","la05ol29","1","24","1","1","3","1","null","","","<div class = 'row'><div class = 'column'><img src = 'uspos/2311.bmp' width = '100%;'></div><div class = 'column'><img src = 'category4/CS6.png' width = '70%;'></div></div>","null","pos","CS","CS","4","category4/CS6.png","","","","",""
"","html-keyboard-response","86","520277","0.0-6.0-6.0-0.17","xmz7cn2d79","many_one","0","direct_first","1","la05ol29","1","24","1","1","3","1","null","","","<div class = 'row'><div class = 'column'><img src = 'category2/CS5.png' width = '70%;'></div><div class = 'column'><img src = 'usneg/9330.bmp' width = '100%;'></div></div>","null","neg","CS","CS","2","category2/CS5.png","","","","",""
"","html-keyboard-response","87","522818","0.0-6.0-6.0-0.18","xmz7cn2d79","many_one","0","direct_first","1","la05ol29","1","24","1","1","3","1","null","","","<div class = 'row'><div class = 'column'><img src = 'usneg/9340.bmp' width = '100%;'></div><div class = 'column'><img src = 'category2/CS2.png' width = '70%;'></div></div>","null","neg","CS","CS","2","category2/CS2.png","","","","",""
"","html-keyboard-response","88","525356","0.0-6.0-6.0-0.19","xmz7cn2d79","many_one","0","direct_first","1","la05ol29","1","24","1","1","3","1","null","","","<div class = 'row'><div class = 'column'><img src = 'uspos/8190.bmp' width = '100%;'></div><div class = 'column'><img src = 'category1/CS6.png' width = '70%;'></div></div>","null","pos","CS","CS","1","category1/CS6.png","","","","",""
"","survey-html-form","89","545463","0.0-7.0","xmz7cn2d79","many_one","0","direct_first","1","la05ol29","1","24","1","1","3","1","19605","","{}","","","","","","","","","","","",""
"","image-slider-response","90","560854","0.0-8.0-0.0","xmz7cn2d79","many_one","0","direct_first","1","la05ol29","1","24","1","1","3","1","13372","","","","","neg","CS","CS","2","category2/CS8.png","-30","targets/13.png","direct","",""
"","image-slider-response","91","568063","0.0-8.0-0.1","xmz7cn2d79","many_one","0","direct_first","1","la05ol29","1","24","1","1","3","1","7207","","","","","neg","CS","CS","2","category2/CS2.png","-10","targets/48.png","direct","",""
"","image-slider-response","92","575022","0.0-8.0-0.2","xmz7cn2d79","many_one","0","direct_first","1","la05ol29","1","24","1","1","3","1","6959","","","","","pos","GS","abstract","1","category1/ma.png","76","targets/31.png","direct","",""
"","image-slider-response","93","583814","0.0-8.0-0.3","xmz7cn2d79","many_one","0","direct_first","1","la05ol29","1","24","1","1","3","1","8791","","","","","pos","CS","CS","4","category4/CS3.png","67","targets/9.png","direct","",""
"","image-slider-response","94","590382","0.0-8.0-0.4","xmz7cn2d79","many_one","0","direct_first","1","la05ol29","1","24","1","1","3","1","6567","","","","","pos","CS","CS","4","category4/CS6.png","72","targets/41.png","direct","",""
"","image-slider-response","95","605126","0.0-8.0-0.5","xmz7cn2d79","many_one","0","direct_first","1","la05ol29","1","24","1","1","3","1","14743","","","","","neg","CS","CS","3","category3/CS1.png","8","targets/22.png","direct","",""
"","image-slider-response","96","615382","0.0-8.0-0.6","xmz7cn2d79","many_one","0","direct_first","1","la05ol29","1","24","1","1","3","1","10254","","","","","neg","GS","GSold","2","category2/CS6.png","-50","targets/29.png","direct","",""
"","image-slider-response","97","621198","0.0-8.0-0.7","xmz7cn2d79","many_one","0","direct_first","1","la05ol29","1","24","1","1","3","1","5815","","","","","pos","GS","GSold","4","category4/CS2.png","93","targets/12.png","direct","",""
"","image-slider-response","98","631550","0.0-8.0-0.8","xmz7cn2d79","many_one","0","direct_first","1","la05ol29","1","24","1","1","3","1","10351","","","","","neg","GS","GSold","3","category3/CS5.png","-79","targets/3.png","direct","",""
"","image-slider-response","99","635206","0.0-8.0-0.9","xmz7cn2d79","many_one","0","direct_first","1","la05ol29","1","24","1","1","3","1","3655","","","","","pos","GS","GSnew","4","category4/GS3.png","76","targets/20.png","direct","",""
"","image-slider-response","100","641582","0.0-8.0-0.10","xmz7cn2d79","many_one","0","direct_first","1","la05ol29","1","24","1","1","3","1","6374","","","","","neg","GS","GSold","2","category2/CS1.png","-19","targets/26.png","direct","",""
"","image-slider-response","101","656974","0.0-8.0-0.11","xmz7cn2d79","many_one","0","direct_first","1","la05ol29","1","24","1","1","3","1","15390","","","","","neg","GS","abstract","3","category3/wang.png","-31","targets/30.png","direct","",""
"","image-slider-response","102","667767","0.0-8.0-0.12","xmz7cn2d79","many_one","0","direct_first","1","la05ol29","1","24","1","1","3","1","10791","","","","","neg","CS","CS","3","category3/CS4.png","-14","targets/11.png","direct","",""
"","image-slider-response","103","672718","0.0-8.0-0.13","xmz7cn2d79","many_one","0","direct_first","1","la05ol29","1","24","1","1","3","1","4950","","","","","pos","GS","GSold","4","category4/CS7.png","82","targets/19.png","direct","",""
"","image-slider-response","104","681422","0.0-8.0-0.14","xmz7cn2d79","many_one","0","direct_first","1","la05ol29","1","24","1","1","3","1","8703","","","","","neg","CS","CS","3","category3/CS6.png","-16","targets/27.png","direct","",""
"","image-slider-response","105","686750","0.0-8.0-0.15","xmz7cn2d79","many_one","0","direct_first","1","la05ol29","1","24","1","1","3","1","5327","","","","","neg","CS","CS","2","category2/CS7.png","-39","targets/7.png","direct","",""
"","image-slider-response","106","691759","0.0-8.0-0.16","xmz7cn2d79","many_one","0","direct_first","1","la05ol29","1","24","1","1","3","1","5006","","","","","neg","GS","GSnew","3","category3/GS3.png","-27","targets/25.png","direct","",""
"","image-slider-response","107","699254","0.0-8.0-0.17","xmz7cn2d79","many_one","0","direct_first","1","la05ol29","1","24","1","1","3","1","7494","","","","","pos","GS","GSnew","1","category1/GS3.png","31","targets/2.png","direct","",""
"","image-slider-response","108","707247","0.0-8.0-0.18","xmz7cn2d79","many_one","0","direct_first","1","la05ol29","1","24","1","1","3","1","7991","","","","","neg","GS","GSold","3","category3/CS10.png","-26","targets/18.png","direct","",""
"","image-slider-response","109","712990","0.0-8.0-0.19","xmz7cn2d79","many_one","0","direct_first","1","la05ol29","1","24","1","1","3","1","5742","","","","","pos","CS","CS","1","category1/CS1.png","20","targets/34.png","direct","",""
"","image-slider-response","110","720135","0.0-8.0-0.20","xmz7cn2d79","many_one","0","direct_first","1","la05ol29","1","24","1","1","3","1","7144","","","","","neg","GS","GSold","3","category3/CS7.png","-24","targets/21.png","direct","",""
"","image-slider-response","111","725623","0.0-8.0-0.21","xmz7cn2d79","many_one","0","direct_first","1","la05ol29","1","24","1","1","3","1","5486","","","","","pos","GS","GSnew","1","category1/GS1.png","12","targets/23.png","direct","",""
"","image-slider-response","112","729407","0.0-8.0-0.22","xmz7cn2d79","many_one","0","direct_first","1","la05ol29","1","24","1","1","3","1","3783","","","","","pos","CS","CS","4","category4/CS5.png","97","targets/17.png","direct","",""
"","image-slider-response","113","740111","0.0-8.0-0.23","xmz7cn2d79","many_one","0","direct_first","1","la05ol29","1","24","1","1","3","1","10703","","","","","neg","GS","GSold","2","category2/CS10.png","-42","targets/36.png","direct","",""
"","image-slider-response","114","745686","0.0-8.0-0.24","xmz7cn2d79","many_one","0","direct_first","1","la05ol29","1","24","1","1","3","1","5574","","","","","pos","CS","CS","1","category1/CS6.png","91","targets/14.png","direct","",""
"","image-slider-response","115","749990","0.0-8.0-0.25","xmz7cn2d79","many_one","0","direct_first","1","la05ol29","1","24","1","1","3","1","4302","","","","","pos","CS","CS","4","category4/CS10.png","85","targets/42.png","direct","",""
"","image-slider-response","116","753775","0.0-8.0-0.26","xmz7cn2d79","many_one","0","direct_first","1","la05ol29","1","24","1","1","3","1","3782","","","","","pos","GS","GSold","1","category1/CS10.png","89","targets/45.png","direct","",""
"","image-slider-response","117","759222","0.0-8.0-0.27","xmz7cn2d79","many_one","0","direct_first","1","la05ol29","1","24","1","1","3","1","5447","","","","","neg","GS","GSnew","3","category3/GS1.png","-19","targets/32.png","direct","",""
"","image-slider-response","118","765055","0.0-8.0-0.28","xmz7cn2d79","many_one","0","direct_first","1","la05ol29","1","24","1","1","3","1","5830","","","","","pos","GS","GSold","4","category4/CS4.png","96","targets/6.png","direct","",""
"","image-slider-response","119","770470","0.0-8.0-0.29","xmz7cn2d79","many_one","0","direct_first","1","la05ol29","1","24","1","1","3","1","5416","","","","","neg","CS","CS","3","category3/CS3.png","-48","targets/40.png","direct","",""
"","image-slider-response","120","779270","0.0-8.0-0.30","xmz7cn2d79","many_one","0","direct_first","1","la05ol29","1","24","1","1","3","1","8799","","","","","neg","CS","CS","2","category2/CS5.png","-14","targets/46.png","direct","",""
"","image-slider-response","121","785262","0.0-8.0-0.31","xmz7cn2d79","many_one","0","direct_first","1","la05ol29","1","24","1","1","3","1","5991","","","","","neg","CS","CS","2","category2/CS3.png","-20","targets/47.png","direct","",""
"","image-slider-response","122","790215","0.0-8.0-0.32","xmz7cn2d79","many_one","0","direct_first","1","la05ol29","1","24","1","1","3","1","4950","","","","","pos","GS","GSnew","4","category4/GS1.png","77","targets/8.png","direct","",""
"","image-slider-response","123","793174","0.0-8.0-0.33","xmz7cn2d79","many_one","0","direct_first","1","la05ol29","1","24","1","1","3","1","2958","","","","","neg","GS","GSnew","2","category2/GS1.png","65","targets/44.png","direct","",""
"","image-slider-response","124","797366","0.0-8.0-0.34","xmz7cn2d79","many_one","0","direct_first","1","la05ol29","1","24","1","1","3","1","4191","","","","","pos","CS","CS","1","category1/CS7.png","42","targets/16.png","direct","",""
"","image-slider-response","125","802558","0.0-8.0-0.35","xmz7cn2d79","many_one","0","direct_first","1","la05ol29","1","24","1","1","3","1","5190","","","","","neg","GS","abstract","2","category2/men.png","-97","targets/10.png","direct","",""
"","image-slider-response","126","811343","0.0-8.0-0.36","xmz7cn2d79","many_one","0","direct_first","1","la05ol29","1","24","1","1","3","1","8783","","","","","neg","GS","GSnew","2","category2/GS2.png","-16","targets/38.png","direct","",""
"","image-slider-response","127","817703","0.0-8.0-0.37","xmz7cn2d79","many_one","0","direct_first","1","la05ol29","1","24","1","1","3","1","6359","","","","","pos","GS","GSnew","4","category4/GS2.png","71","targets/24.png","direct","",""
"","image-slider-response","128","821599","0.0-8.0-0.38","xmz7cn2d79","many_one","0","direct_first","1","la05ol29","1","24","1","1","3","1","3895","","","","","neg","GS","GSnew","3","category3/GS2.png","-11","targets/43.png","direct","",""
"","image-slider-response","129","831487","0.0-8.0-0.39","xmz7cn2d79","many_one","0","direct_first","1","la05ol29","1","24","1","1","3","1","9886","","","","","pos","GS","GSold","1","category1/CS9.png","26","targets/5.png","direct","",""
"","image-slider-response","130","838239","0.0-8.0-0.40","xmz7cn2d79","many_one","0","direct_first","1","la05ol29","1","24","1","1","3","1","6751","","","","","pos","GS","GSold","1","category1/CS3.png","50","targets/4.png","direct","",""
"","image-slider-response","131","841031","0.0-8.0-0.41","xmz7cn2d79","many_one","0","direct_first","1","la05ol29","1","24","1","1","3","1","2791","","","","","pos","GS","abstract","4","category4/lin.png","89","targets/1.png","direct","",""
"","image-slider-response","132","849854","0.0-8.0-0.42","xmz7cn2d79","many_one","0","direct_first","1","la05ol29","1","24","1","1","3","1","8824","","","","","pos","CS","CS","1","category1/CS2.png","15","targets/35.png","direct","",""
"","image-slider-response","133","854038","0.0-8.0-0.43","xmz7cn2d79","many_one","0","direct_first","1","la05ol29","1","24","1","1","3","1","4183","","","","","pos","CS","CS","1","category1/CS8.png","62","targets/33.png","direct","",""
"","image-slider-response","134","857494","0.0-8.0-0.44","xmz7cn2d79","many_one","0","direct_first","1","la05ol29","1","24","1","1","3","1","3456","","","","","pos","CS","CS","4","category4/CS1.png","81","targets/15.png","direct","",""
"","image-slider-response","135","863134","0.0-8.0-0.45","xmz7cn2d79","many_one","0","direct_first","1","la05ol29","1","24","1","1","3","1","5639","","","","","neg","GS","GSnew","2","category2/GS3.png","-44","targets/28.png","direct","",""
"","image-slider-response","136","868566","0.0-8.0-0.46","xmz7cn2d79","many_one","0","direct_first","1","la05ol29","1","24","1","1","3","1","5431","","","","","pos","GS","GSnew","1","category1/GS2.png","28","targets/37.png","direct","",""
"","image-slider-response","137","871701","0.0-8.0-0.47","xmz7cn2d79","many_one","0","direct_first","1","la05ol29","1","24","1","1","3","1","3136","","","","","neg","CS","CS","3","category3/CS2.png","-29","targets/39.png","direct","",""
"","html-keyboard-response","138","922671","0.0-9.0","xmz7cn2d79","many_one","0","direct_first","1","la05ol29","1","24","1","1","3","1","50969","","","<p>Sie sehen nun die chinesischen Zeichen nur ganz kurz. Danach sehen Sie die jeweilige Aussprache der Zeichen als Silbe auf dem Bildschrim. Ihre Aufgabe ist es, für jede Silbe anzugeben, ob diese etwas angenehmes, oder unangenehmes bedeuten könnte. Verlassen Sie sich hier vor allem auf Ihre Intuition.<br><br>Die Zeichen werden nur zur Orientierung dargestellt, beachten Sie sie deshalb nicht. Konzentrieren Sie sich vor allem auf die Silben. <br>Reagieren Sie mit folgenden zwei Tasten: <br><br><b>'D' </b> wenn die Silbe etwas <b>unangenehmes</b> bedeuten könnte. <br><b>'K'</b> wenn die Silbe etwas <b>angenehmes</b> bedeuten könnte. <br><br>Bitte legen Sie nun den Zeigefinger der linken Hand auf die Taste 'D' und den Zeigefinger der rechten Hand auf die Taste 'K'. <br>Reagieren Sie auf jede Silbe so schnell wie möglich. Uns interessiert Ihre spontane Reaktion. <br> <br> <br>Drücken Sie 'D' oder 'K', um die nächste Aufgabe zu starten. </p>","75","","","","","","","","","",""
"","html-keyboard-response","139","925695","0.0-10.0-0.0","xmz7cn2d79","many_one","0","direct_first","1","la05ol29","1","24","1","1","3","1","null","","","<div style=""font-size:60px;"">+</div>","null","","","","","","","","","",""
"","html-keyboard-response","140","925805","0.0-10.0-1.0","xmz7cn2d79","many_one","0","direct_first","1","la05ol29","1","24","1","1","3","1","null","","","<img src = 'category3/CS4.png' width = '100%;'>","null","","","","","","","","","",""
"","html-keyboard-response","141","926086","0.0-10.0-2.0","xmz7cn2d79","many_one","0","direct_first","1","la05ol29","1","24","1","1","3","1","null","","","<img src = 'targets/11.png' width = '100%;'>","null","","","","","","","","","",""
"","html-keyboard-response","142","932342","0.0-10.0-3.0","xmz7cn2d79","many_one","0","direct_first","1","la05ol29","1","24","1","1","3","1","6253","","","<img src = 'targets/mask.png' width = '100%;'>","75","neg","CS","CS","3","category3/CS4.png","","targets/11.png","indirect","1","0"
"","html-keyboard-response","143","933846","0.0-10.0-0.1","xmz7cn2d79","many_one","0","direct_first","1","la05ol29","1","24","1","1","3","1","null","","","<div style=""font-size:60px;"">+</div>","null","","","","","","","","","",""
"","html-keyboard-response","144","933945","0.0-10.0-1.1","xmz7cn2d79","many_one","0","direct_first","1","la05ol29","1","24","1","1","3","1","null","","","<img src = 'category2/CS3.png' width = '100%;'>","null","","","","","","","","","",""
"","html-keyboard-response","145","934225","0.0-10.0-2.1","xmz7cn2d79","many_one","0","direct_first","1","la05ol29","1","24","1","1","3","1","null","","","<img src = 'targets/47.png' width = '100%;'>","null","","","","","","","","","",""
"","html-keyboard-response","146","937550","0.0-10.0-3.1","xmz7cn2d79","many_one","0","direct_first","1","la05ol29","1","24","1","1","3","1","3323","","","<img src = 'targets/mask.png' width = '100%;'>","75","neg","CS","CS","2","category2/CS3.png","","targets/47.png","indirect","1","1"
"","html-keyboard-response","147","939065","0.0-10.0-0.2","xmz7cn2d79","many_one","0","direct_first","1","la05ol29","1","24","1","1","3","1","null","","","<div style=""font-size:60px;"">+</div>","null","","","","","","","","","",""
"","html-keyboard-response","148","939166","0.0-10.0-1.2","xmz7cn2d79","many_one","0","direct_first","1","la05ol29","1","24","1","1","3","1","null","","","<img src = 'category3/CS3.png' width = '100%;'>","null","","","","","","","","","",""
"","html-keyboard-response","149","939445","0.0-10.0-2.2","xmz7cn2d79","many_one","0","direct_first","1","la05ol29","1","24","1","1","3","1","null","","","<img src = 'targets/40.png' width = '100%;'>","null","","","","","","","","","",""
"","html-keyboard-response","150","941069","0.0-10.0-3.2","xmz7cn2d79","many_one","0","direct_first","1","la05ol29","1","24","1","1","3","1","1623","","","<img src = 'targets/mask.png' width = '100%;'>","68","neg","CS","CS","3","category3/CS3.png","","targets/40.png","indirect","0","2"
"","html-keyboard-response","151","942605","0.0-10.0-0.3","xmz7cn2d79","many_one","0","direct_first","1","la05ol29","1","24","1","1","3","1","null","","","<div style=""font-size:60px;"">+</div>","null","","","","","","","","","",""
"","html-keyboard-response","152","942706","0.0-10.0-1.3","xmz7cn2d79","many_one","0","direct_first","1","la05ol29","1","24","1","1","3","1","null","","","<img src = 'category4/CS1.png' width = '100%;'>","null","","","","","","","","","",""
"","html-keyboard-response","153","942985","0.0-10.0-2.3","xmz7cn2d79","many_one","0","direct_first","1","la05ol29","1","24","1","1","3","1","null","","","<img src = 'targets/15.png' width = '100%;'>","null","","","","","","","","","",""
"","html-keyboard-response","154","946701","0.0-10.0-3.3","xmz7cn2d79","many_one","0","direct_first","1","la05ol29","1","24","1","1","3","1","3714","","","<img src = 'targets/mask.png' width = '100%;'>","68","pos","CS","CS","4","category4/CS1.png","","targets/15.png","indirect","0","3"
"","html-keyboard-response","155","948223","0.0-10.0-0.4","xmz7cn2d79","many_one","0","direct_first","1","la05ol29","1","24","1","1","3","1","null","","","<div style=""font-size:60px;"">+</div>","null","","","","","","","","","",""
"","html-keyboard-response","156","948323","0.0-10.0-1.4","xmz7cn2d79","many_one","0","direct_first","1","la05ol29","1","24","1","1","3","1","null","","","<img src = 'category4/CS3.png' width = '100%;'>","null","","","","","","","","","",""
"","html-keyboard-response","157","948606","0.0-10.0-2.4","xmz7cn2d79","many_one","0","direct_first","1","la05ol29","1","24","1","1","3","1","null","","","<img src = 'targets/9.png' width = '100%;'>","null","","","","","","","","","",""
"","html-keyboard-response","158","951446","0.0-10.0-3.4","xmz7cn2d79","many_one","0","direct_first","1","la05ol29","1","24","1","1","3","1","2838","","","<img src = 'targets/mask.png' width = '100%;'>","75","pos","CS","CS","4","category4/CS3.png","","targets/9.png","indirect","1","4"
"","html-keyboard-response","159","952966","0.0-10.0-0.5","xmz7cn2d79","many_one","0","direct_first","1","la05ol29","1","24","1","1","3","1","null","","","<div style=""font-size:60px;"">+</div>","null","","","","","","","","","",""
"","html-keyboard-response","160","953065","0.0-10.0-1.5","xmz7cn2d79","many_one","0","direct_first","1","la05ol29","1","24","1","1","3","1","null","","","<img src = 'category3/CS6.png' width = '100%;'>","null","","","","","","","","","",""
"","html-keyboard-response","161","953345","0.0-10.0-2.5","xmz7cn2d79","many_one","0","direct_first","1","la05ol29","1","24","1","1","3","1","null","","","<img src = 'targets/27.png' width = '100%;'>","null","","","","","","","","","",""
"","html-keyboard-response","162","955477","0.0-10.0-3.5","xmz7cn2d79","many_one","0","direct_first","1","la05ol29","1","24","1","1","3","1","2130","","","<img src = 'targets/mask.png' width = '100%;'>","68","neg","CS","CS","3","category3/CS6.png","","targets/27.png","indirect","0","5"
"","html-keyboard-response","163","956985","0.0-10.0-0.6","xmz7cn2d79","many_one","0","direct_first","1","la05ol29","1","24","1","1","3","1","null","","","<div style=""font-size:60px;"">+</div>","null","","","","","","","","","",""
"","html-keyboard-response","164","957086","0.0-10.0-1.6","xmz7cn2d79","many_one","0","direct_first","1","la05ol29","1","24","1","1","3","1","null","","","<img src = 'category4/CS5.png' width = '100%;'>","null","","","","","","","","","",""
"","html-keyboard-response","165","957365","0.0-10.0-2.6","xmz7cn2d79","many_one","0","direct_first","1","la05ol29","1","24","1","1","3","1","null","","","<img src = 'targets/17.png' width = '100%;'>","null","","","","","","","","","",""
"","html-keyboard-response","166","958886","0.0-10.0-3.6","xmz7cn2d79","many_one","0","direct_first","1","la05ol29","1","24","1","1","3","1","1520","","","<img src = 'targets/mask.png' width = '100%;'>","68","pos","CS","CS","4","category4/CS5.png","","targets/17.png","indirect","0","6"
"","html-keyboard-response","167","960406","0.0-10.0-0.7","xmz7cn2d79","many_one","0","direct_first","1","la05ol29","1","24","1","1","3","1","null","","","<div style=""font-size:60px;"">+</div>","null","","","","","","","","","",""
"","html-keyboard-response","168","960505","0.0-10.0-1.7","xmz7cn2d79","many_one","0","direct_first","1","la05ol29","1","24","1","1","3","1","null","","","<img src = 'category2/CS8.png' width = '100%;'>","null","","","","","","","","","",""
"","html-keyboard-response","169","960785","0.0-10.0-2.7","xmz7cn2d79","many_one","0","direct_first","1","la05ol29","1","24","1","1","3","1","null","","","<img src = 'targets/13.png' width = '100%;'>","null","","","","","","","","","",""
"","html-keyboard-response","170","962485","0.0-10.0-3.7","xmz7cn2d79","many_one","0","direct_first","1","la05ol29","1","24","1","1","3","1","1699","","","<img src = 'targets/mask.png' width = '100%;'>","75","neg","CS","CS","2","category2/CS8.png","","targets/13.png","indirect","1","7"
"","html-keyboard-response","171","964005","0.0-10.0-0.8","xmz7cn2d79","many_one","0","direct_first","1","la05ol29","1","24","1","1","3","1","null","","","<div style=""font-size:60px;"">+</div>","null","","","","","","","","","",""
"","html-keyboard-response","172","964105","0.0-10.0-1.8","xmz7cn2d79","many_one","0","direct_first","1","la05ol29","1","24","1","1","3","1","null","","","<img src = 'category3/CS1.png' width = '100%;'>","null","","","","","","","","","",""
"","html-keyboard-response","173","964385","0.0-10.0-2.8","xmz7cn2d79","many_one","0","direct_first","1","la05ol29","1","24","1","1","3","1","null","","","<img src = 'targets/22.png' width = '100%;'>","null","","","","","","","","","",""
"","html-keyboard-response","174","965629","0.0-10.0-3.8","xmz7cn2d79","many_one","0","direct_first","1","la05ol29","1","24","1","1","3","1","1242","","","<img src = 'targets/mask.png' width = '100%;'>","75","neg","CS","CS","3","category3/CS1.png","","targets/22.png","indirect","1","8"
"","html-keyboard-response","175","967164","0.0-10.0-0.9","xmz7cn2d79","many_one","0","direct_first","1","la05ol29","1","24","1","1","3","1","null","","","<div style=""font-size:60px;"">+</div>","null","","","","","","","","","",""
"","html-keyboard-response","176","967265","0.0-10.0-1.9","xmz7cn2d79","many_one","0","direct_first","1","la05ol29","1","24","1","1","3","1","null","","","<img src = 'category1/CS6.png' width = '100%;'>","null","","","","","","","","","",""
"","html-keyboard-response","177","967545","0.0-10.0-2.9","xmz7cn2d79","many_one","0","direct_first","1","la05ol29","1","24","1","1","3","1","null","","","<img src = 'targets/14.png' width = '100%;'>","null","","","","","","","","","",""
"","html-keyboard-response","178","969741","0.0-10.0-3.9","xmz7cn2d79","many_one","0","direct_first","1","la05ol29","1","24","1","1","3","1","2196","","","<img src = 'targets/mask.png' width = '100%;'>","75","pos","CS","CS","1","category1/CS6.png","","targets/14.png","indirect","1","9"
"","html-keyboard-response","179","971245","0.0-10.0-0.10","xmz7cn2d79","many_one","0","direct_first","1","la05ol29","1","24","1","1","3","1","null","","","<div style=""font-size:60px;"">+</div>","null","","","","","","","","","",""
"","html-keyboard-response","180","971345","0.0-10.0-1.10","xmz7cn2d79","many_one","0","direct_first","1","la05ol29","1","24","1","1","3","1","null","","","<img src = 'category2/CS5.png' width = '100%;'>","null","","","","","","","","","",""
"","html-keyboard-response","181","971625","0.0-10.0-2.10","xmz7cn2d79","many_one","0","direct_first","1","la05ol29","1","24","1","1","3","1","null","","","<img src = 'targets/46.png' width = '100%;'>","null","","","","","","","","","",""
"","html-keyboard-response","182","973324","0.0-10.0-3.10","xmz7cn2d79","many_one","0","direct_first","1","la05ol29","1","24","1","1","3","1","1699","","","<img src = 'targets/mask.png' width = '100%;'>","75","neg","CS","CS","2","category2/CS5.png","","targets/46.png","indirect","1","10"
"","html-keyboard-response","183","974844","0.0-10.0-0.11","xmz7cn2d79","many_one","0","direct_first","1","la05ol29","1","24","1","1","3","1","null","","","<div style=""font-size:60px;"">+</div>","null","","","","","","","","","",""
"","html-keyboard-response","184","974944","0.0-10.0-1.11","xmz7cn2d79","many_one","0","direct_first","1","la05ol29","1","24","1","1","3","1","null","","","<img src = 'category3/CS7.png' width = '100%;'>","null","","","","","","","","","",""
"","html-keyboard-response","185","975225","0.0-10.0-2.11","xmz7cn2d79","many_one","0","direct_first","1","la05ol29","1","24","1","1","3","1","null","","","<img src = 'targets/21.png' width = '100%;'>","null","","","","","","","","","",""
"","html-keyboard-response","186","977901","0.0-10.0-3.11","xmz7cn2d79","many_one","0","direct_first","1","la05ol29","1","24","1","1","3","1","2673","","","<img src = 'targets/mask.png' width = '100%;'>","75","neg","GS","GSold","3","category3/CS7.png","","targets/21.png","indirect","1","11"
"","html-keyboard-response","187","979406","0.0-10.0-0.12","xmz7cn2d79","many_one","0","direct_first","1","la05ol29","1","24","1","1","3","1","null","","","<div style=""font-size:60px;"">+</div>","null","","","","","","","","","",""
"","html-keyboard-response","188","979502","0.0-10.0-1.12","xmz7cn2d79","many_one","0","direct_first","1","la05ol29","1","24","1","1","3","1","null","","","<img src = 'category3/CS5.png' width = '100%;'>","null","","","","","","","","","",""
"","html-keyboard-response","189","979785","0.0-10.0-2.12","xmz7cn2d79","many_one","0","direct_first","1","la05ol29","1","24","1","1","3","1","null","","","<img src = 'targets/3.png' width = '100%;'>","null","","","","","","","","","",""
"","html-keyboard-response","190","981501","0.0-10.0-3.12","xmz7cn2d79","many_one","0","direct_first","1","la05ol29","1","24","1","1","3","1","1715","","","<img src = 'targets/mask.png' width = '100%;'>","68","neg","GS","GSold","3","category3/CS5.png","","targets/3.png","indirect","0","12"
"","html-keyboard-response","191","983004","0.0-10.0-0.13","xmz7cn2d79","many_one","0","direct_first","1","la05ol29","1","24","1","1","3","1","null","","","<div style=""font-size:60px;"">+</div>","null","","","","","","","","","",""
"","html-keyboard-response","192","983105","0.0-10.0-1.13","xmz7cn2d79","many_one","0","direct_first","1","la05ol29","1","24","1","1","3","1","null","","","<img src = 'category1/CS8.png' width = '100%;'>","null","","","","","","","","","",""
"","html-keyboard-response","193","983385","0.0-10.0-2.13","xmz7cn2d79","many_one","0","direct_first","1","la05ol29","1","24","1","1","3","1","null","","","<img src = 'targets/33.png' width = '100%;'>","null","","","","","","","","","",""
"","html-keyboard-response","194","986637","0.0-10.0-3.13","xmz7cn2d79","many_one","0","direct_first","1","la05ol29","1","24","1","1","3","1","3251","","","<img src = 'targets/mask.png' width = '100%;'>","75","pos","CS","CS","1","category1/CS8.png","","targets/33.png","indirect","1","13"
"","html-keyboard-response","195","988164","0.0-10.0-0.14","xmz7cn2d79","many_one","0","direct_first","1","la05ol29","1","24","1","1","3","1","null","","","<div style=""font-size:60px;"">+</div>","null","","","","","","","","","",""
"","html-keyboard-response","196","988265","0.0-10.0-1.14","xmz7cn2d79","many_one","0","direct_first","1","la05ol29","1","24","1","1","3","1","null","","","<img src = 'category2/CS2.png' width = '100%;'>","null","","","","","","","","","",""
"","html-keyboard-response","197","988544","0.0-10.0-2.14","xmz7cn2d79","many_one","0","direct_first","1","la05ol29","1","24","1","1","3","1","null","","","<img src = 'targets/48.png' width = '100%;'>","null","","","","","","","","","",""
"","html-keyboard-response","198","989196","0.0-10.0-3.14","xmz7cn2d79","many_one","0","direct_first","1","la05ol29","1","24","1","1","3","1","651","","","<img src = 'targets/mask.png' width = '100%;'>","68","neg","CS","CS","2","category2/CS2.png","","targets/48.png","indirect","0","14"
"","html-keyboard-response","199","990705","0.0-10.0-0.15","xmz7cn2d79","many_one","0","direct_first","1","la05ol29","1","24","1","1","3","1","null","","","<div style=""font-size:60px;"">+</div>","null","","","","","","","","","",""
"","html-keyboard-response","200","990796","0.0-10.0-1.15","xmz7cn2d79","many_one","0","direct_first","1","la05ol29","1","24","1","1","3","1","null","","","<img src = 'category4/CS10.png' width = '100%;'>","null","","","","","","","","","",""
"","html-keyboard-response","201","991064","0.0-10.0-2.15","xmz7cn2d79","many_one","0","direct_first","1","la05ol29","1","24","1","1","3","1","null","","","<img src = 'targets/42.png' width = '100%;'>","null","","","","","","","","","",""
"","html-keyboard-response","202","992869","0.0-10.0-3.15","xmz7cn2d79","many_one","0","direct_first","1","la05ol29","1","24","1","1","3","1","1803","","","<img src = 'targets/mask.png' width = '100%;'>","75","pos","CS","CS","4","category4/CS10.png","","targets/42.png","indirect","1","15"
"","html-keyboard-response","203","994394","0.0-10.0-0.16","xmz7cn2d79","many_one","0","direct_first","1","la05ol29","1","24","1","1","3","1","null","","","<div style=""font-size:60px;"">+</div>","null","","","","","","","","","",""
"","html-keyboard-response","204","994494","0.0-10.0-1.16","xmz7cn2d79","many_one","0","direct_first","1","la05ol29","1","24","1","1","3","1","null","","","<img src = 'category1/CS2.png' width = '100%;'>","null","","","","","","","","","",""
"","html-keyboard-response","205","994774","0.0-10.0-2.16","xmz7cn2d79","many_one","0","direct_first","1","la05ol29","1","24","1","1","3","1","null","","","<img src = 'targets/35.png' width = '100%;'>","null","","","","","","","","","",""
"","html-keyboard-response","206","996597","0.0-10.0-3.16","xmz7cn2d79","many_one","0","direct_first","1","la05ol29","1","24","1","1","3","1","1821","","","<img src = 'targets/mask.png' width = '100%;'>","75","pos","CS","CS","1","category1/CS2.png","","targets/35.png","indirect","1","16"
"","html-keyboard-response","207","998134","0.0-10.0-0.17","xmz7cn2d79","many_one","0","direct_first","1","la05ol29","1","24","1","1","3","1","null","","","<div style=""font-size:60px;"">+</div>","null","","","","","","","","","",""
"","html-keyboard-response","208","998235","0.0-10.0-1.17","xmz7cn2d79","many_one","0","direct_first","1","la05ol29","1","24","1","1","3","1","null","","","<img src = 'category1/CS1.png' width = '100%;'>","null","","","","","","","","","",""
"","html-keyboard-response","209","998514","0.0-10.0-2.17","xmz7cn2d79","many_one","0","direct_first","1","la05ol29","1","24","1","1","3","1","null","","","<img src = 'targets/34.png' width = '100%;'>","null","","","","","","","","","",""
"","html-keyboard-response","210","1000141","0.0-10.0-3.17","xmz7cn2d79","many_one","0","direct_first","1","la05ol29","1","24","1","1","3","1","1625","","","<img src = 'targets/mask.png' width = '100%;'>","75","pos","CS","CS","1","category1/CS1.png","","targets/34.png","indirect","1","17"
"","html-keyboard-response","211","1001654","0.0-10.0-0.18","xmz7cn2d79","many_one","0","direct_first","1","la05ol29","1","24","1","1","3","1","null","","","<div style=""font-size:60px;"">+</div>","null","","","","","","","","","",""
"","html-keyboard-response","212","1001754","0.0-10.0-1.18","xmz7cn2d79","many_one","0","direct_first","1","la05ol29","1","24","1","1","3","1","null","","","<img src = 'category3/CS2.png' width = '100%;'>","null","","","","","","","","","",""
"","html-keyboard-response","213","1002035","0.0-10.0-2.18","xmz7cn2d79","many_one","0","direct_first","1","la05ol29","1","24","1","1","3","1","null","","","<img src = 'targets/39.png' width = '100%;'>","null","","","","","","","","","",""
"","html-keyboard-response","214","1003252","0.0-10.0-3.18","xmz7cn2d79","many_one","0","direct_first","1","la05ol29","1","24","1","1","3","1","1217","","","<img src = 'targets/mask.png' width = '100%;'>","68","neg","CS","CS","3","category3/CS2.png","","targets/39.png","indirect","0","18"
"","html-keyboard-response","215","1004754","0.0-10.0-0.19","xmz7cn2d79","many_one","0","direct_first","1","la05ol29","1","24","1","1","3","1","null","","","<div style=""font-size:60px;"">+</div>","null","","","","","","","","","",""
"","html-keyboard-response","216","1004854","0.0-10.0-1.19","xmz7cn2d79","many_one","0","direct_first","1","la05ol29","1","24","1","1","3","1","null","","","<img src = 'category2/CS7.png' width = '100%;'>","null","","","","","","","","","",""
"","html-keyboard-response","217","1005134","0.0-10.0-2.19","xmz7cn2d79","many_one","0","direct_first","1","la05ol29","1","24","1","1","3","1","null","","","<img src = 'targets/7.png' width = '100%;'>","null","","","","","","","","","",""
"","html-keyboard-response","218","1006188","0.0-10.0-3.19","xmz7cn2d79","many_one","0","direct_first","1","la05ol29","1","24","1","1","3","1","1052","","","<img src = 'targets/mask.png' width = '100%;'>","68","neg","CS","CS","2","category2/CS7.png","","targets/7.png","indirect","0","19"
"","html-keyboard-response","219","1007694","0.0-10.0-0.20","xmz7cn2d79","many_one","0","direct_first","1","la05ol29","1","24","1","1","3","1","null","","","<div style=""font-size:60px;"">+</div>","null","","","","","","","","","",""
"","html-keyboard-response","220","1007795","0.0-10.0-1.20","xmz7cn2d79","many_one","0","direct_first","1","la05ol29","1","24","1","1","3","1","null","","","<img src = 'category1/CS7.png' width = '100%;'>","null","","","","","","","","","",""
"","html-keyboard-response","221","1008074","0.0-10.0-2.20","xmz7cn2d79","many_one","0","direct_first","1","la05ol29","1","24","1","1","3","1","null","","","<img src = 'targets/16.png' width = '100%;'>","null","","","","","","","","","",""
"","html-keyboard-response","222","1009028","0.0-10.0-3.20","xmz7cn2d79","many_one","0","direct_first","1","la05ol29","1","24","1","1","3","1","953","","","<img src = 'targets/mask.png' width = '100%;'>","68","pos","CS","CS","1","category1/CS7.png","","targets/16.png","indirect","0","20"
"","html-keyboard-response","223","1010554","0.0-10.0-0.21","xmz7cn2d79","many_one","0","direct_first","1","la05ol29","1","24","1","1","3","1","null","","","<div style=""font-size:60px;"">+</div>","null","","","","","","","","","",""
"","html-keyboard-response","224","1010655","0.0-10.0-1.21","xmz7cn2d79","many_one","0","direct_first","1","la05ol29","1","24","1","1","3","1","null","","","<img src = 'category3/CS10.png' width = '100%;'>","null","","","","","","","","","",""
"","html-keyboard-response","225","1010934","0.0-10.0-2.21","xmz7cn2d79","many_one","0","direct_first","1","la05ol29","1","24","1","1","3","1","null","","","<img src = 'targets/18.png' width = '100%;'>","null","","","","","","","","","",""
"","html-keyboard-response","226","1012660","0.0-10.0-3.21","xmz7cn2d79","many_one","0","direct_first","1","la05ol29","1","24","1","1","3","1","1724","","","<img src = 'targets/mask.png' width = '100%;'>","68","neg","GS","GSold","3","category3/CS10.png","","targets/18.png","indirect","0","21"
"","html-keyboard-response","227","1014194","0.0-10.0-0.22","xmz7cn2d79","many_one","0","direct_first","1","la05ol29","1","24","1","1","3","1","null","","","<div style=""font-size:60px;"">+</div>","null","","","","","","","","","",""
"","html-keyboard-response","228","1014294","0.0-10.0-1.22","xmz7cn2d79","many_one","0","direct_first","1","la05ol29","1","24","1","1","3","1","null","","","<img src = 'category4/CS6.png' width = '100%;'>","null","","","","","","","","","",""
"","html-keyboard-response","229","1014574","0.0-10.0-2.22","xmz7cn2d79","many_one","0","direct_first","1","la05ol29","1","24","1","1","3","1","null","","","<img src = 'targets/41.png' width = '100%;'>","null","","","","","","","","","",""
"","html-keyboard-response","230","1015132","0.0-10.0-3.22","xmz7cn2d79","many_one","0","direct_first","1","la05ol29","1","24","1","1","3","1","557","","","<img src = 'targets/mask.png' width = '100%;'>","68","pos","CS","CS","4","category4/CS6.png","","targets/41.png","indirect","0","22"
"","html-keyboard-response","231","1016654","0.0-10.0-0.23","xmz7cn2d79","many_one","0","direct_first","1","la05ol29","1","24","1","1","3","1","null","","","<div style=""font-size:60px;"">+</div>","null","","","","","","","","","",""
"","html-keyboard-response","232","1016754","0.0-10.0-1.23","xmz7cn2d79","many_one","0","direct_first","1","la05ol29","1","24","1","1","3","1","null","","","<img src = 'category1/CS9.png' width = '100%;'>","null","","","","","","","","","",""
"","html-keyboard-response","233","1017035","0.0-10.0-2.23","xmz7cn2d79","many_one","0","direct_first","1","la05ol29","1","24","1","1","3","1","null","","","<img src = 'targets/5.png' width = '100%;'>","null","","","","","","","","","",""
"","html-keyboard-response","234","1018196","0.0-10.0-3.23","xmz7cn2d79","many_one","0","direct_first","1","la05ol29","1","24","1","1","3","1","1160","","","<img src = 'targets/mask.png' width = '100%;'>","75","pos","GS","GSold","1","category1/CS9.png","","targets/5.png","indirect","1","23"
"","survey-html-form","235","1025012","0.0-11.0","xmz7cn2d79","many_one","0","direct_first","1","la05ol29","1","24","1","1","3","1","6298","","{}","","","","","","","","","","","",""
"","html-keyboard-response","236","1028043","0.0-12.0-0.0","xmz7cn2d79","many_one","0","direct_first","1","la05ol29","1","24","1","1","3","1","null","","","<div style=""font-size:60px;"">+</div>","null","","","","","","","","","",""
"","html-keyboard-response","237","1028144","0.0-12.0-1.0","xmz7cn2d79","many_one","0","direct_first","1","la05ol29","1","24","1","1","3","1","null","","","<img src = 'category4/CS2.png' width = '100%;'>","null","","","","","","","","","",""
"","html-keyboard-response","238","1028424","0.0-12.0-2.0","xmz7cn2d79","many_one","0","direct_first","1","la05ol29","1","24","1","1","3","1","null","","","<img src = 'targets/12.png' width = '100%;'>","null","","","","","","","","","",""
"","html-keyboard-response","239","1029972","0.0-12.0-3.0","xmz7cn2d79","many_one","0","direct_first","1","la05ol29","1","24","1","1","3","1","1547","","","<img src = 'targets/mask.png' width = '100%;'>","75","pos","GS","GSold","4","category4/CS2.png","","targets/12.png","indirect","1","24"
"","html-keyboard-response","240","1031504","0.0-12.0-0.1","xmz7cn2d79","many_one","0","direct_first","1","la05ol29","1","24","1","1","3","1","null","","","<div style=""font-size:60px;"">+</div>","null","","","","","","","","","",""
"","html-keyboard-response","241","1031604","0.0-12.0-1.1","xmz7cn2d79","many_one","0","direct_first","1","la05ol29","1","24","1","1","3","1","null","","","<img src = 'category1/ma.png' width = '100%;'>","null","","","","","","","","","",""
"","html-keyboard-response","242","1031885","0.0-12.0-2.1","xmz7cn2d79","many_one","0","direct_first","1","la05ol29","1","24","1","1","3","1","null","","","<img src = 'targets/31.png' width = '100%;'>","null","","","","","","","","","",""
"","html-keyboard-response","243","1033427","0.0-12.0-3.1","xmz7cn2d79","many_one","0","direct_first","1","la05ol29","1","24","1","1","3","1","1542","","","<img src = 'targets/mask.png' width = '100%;'>","75","pos","GS","abstract","1","category1/ma.png","","targets/31.png","indirect","1","25"
"","html-keyboard-response","244","1034964","0.0-12.0-0.2","xmz7cn2d79","many_one","0","direct_first","1","la05ol29","1","24","1","1","3","1","null","","","<div style=""font-size:60px;"">+</div>","null","","","","","","","","","",""
"","html-keyboard-response","245","1035064","0.0-12.0-1.2","xmz7cn2d79","many_one","0","direct_first","1","la05ol29","1","24","1","1","3","1","null","","","<img src = 'category3/GS1.png' width = '100%;'>","null","","","","","","","","","",""
"","html-keyboard-response","246","1035344","0.0-12.0-2.2","xmz7cn2d79","many_one","0","direct_first","1","la05ol29","1","24","1","1","3","1","null","","","<img src = 'targets/32.png' width = '100%;'>","null","","","","","","","","","",""
"","html-keyboard-response","247","1035964","0.0-12.0-3.2","xmz7cn2d79","many_one","0","direct_first","1","la05ol29","1","24","1","1","3","1","618","","","<img src = 'targets/mask.png' width = '100%;'>","68","neg","GS","GSnew","3","category3/GS1.png","","targets/32.png","indirect","0","26"
"","html-keyboard-response","248","1037503","0.0-12.0-0.3","xmz7cn2d79","many_one","0","direct_first","1","la05ol29","1","24","1","1","3","1","null","","","<div style=""font-size:60px;"">+</div>","null","","","","","","","","","",""
"","html-keyboard-response","249","1037604","0.0-12.0-1.3","xmz7cn2d79","many_one","0","direct_first","1","la05ol29","1","24","1","1","3","1","null","","","<img src = 'category2/GS1.png' width = '100%;'>","null","","","","","","","","","",""
"","html-keyboard-response","250","1037884","0.0-12.0-2.3","xmz7cn2d79","many_one","0","direct_first","1","la05ol29","1","24","1","1","3","1","null","","","<img src = 'targets/44.png' width = '100%;'>","null","","","","","","","","","",""
"","html-keyboard-response","251","1039796","0.0-12.0-3.3","xmz7cn2d79","many_one","0","direct_first","1","la05ol29","1","24","1","1","3","1","1911","","","<img src = 'targets/mask.png' width = '100%;'>","75","neg","GS","GSnew","2","category2/GS1.png","","targets/44.png","indirect","1","27"
"","html-keyboard-response","252","1041304","0.0-12.0-0.4","xmz7cn2d79","many_one","0","direct_first","1","la05ol29","1","24","1","1","3","1","null","","","<div style=""font-size:60px;"">+</div>","null","","","","","","","","","",""
"","html-keyboard-response","253","1041404","0.0-12.0-1.4","xmz7cn2d79","many_one","0","direct_first","1","la05ol29","1","24","1","1","3","1","null","","","<img src = 'category3/GS2.png' width = '100%;'>","null","","","","","","","","","",""
"","html-keyboard-response","254","1041684","0.0-12.0-2.4","xmz7cn2d79","many_one","0","direct_first","1","la05ol29","1","24","1","1","3","1","null","","","<img src = 'targets/43.png' width = '100%;'>","null","","","","","","","","","",""
"","html-keyboard-response","255","1043099","0.0-12.0-3.4","xmz7cn2d79","many_one","0","direct_first","1","la05ol29","1","24","1","1","3","1","1416","","","<img src = 'targets/mask.png' width = '100%;'>","68","neg","GS","GSnew","3","category3/GS2.png","","targets/43.png","indirect","0","28"
"","html-keyboard-response","256","1044603","0.0-12.0-0.5","xmz7cn2d79","many_one","0","direct_first","1","la05ol29","1","24","1","1","3","1","null","","","<div style=""font-size:60px;"">+</div>","null","","","","","","","","","",""
"","html-keyboard-response","257","1044703","0.0-12.0-1.5","xmz7cn2d79","many_one","0","direct_first","1","la05ol29","1","24","1","1","3","1","null","","","<img src = 'category1/GS2.png' width = '100%;'>","null","","","","","","","","","",""
"","html-keyboard-response","258","1044984","0.0-12.0-2.5","xmz7cn2d79","many_one","0","direct_first","1","la05ol29","1","24","1","1","3","1","null","","","<img src = 'targets/37.png' width = '100%;'>","null","","","","","","","","","",""
"","html-keyboard-response","259","1046452","0.0-12.0-3.5","xmz7cn2d79","many_one","0","direct_first","1","la05ol29","1","24","1","1","3","1","1466","","","<img src = 'targets/mask.png' width = '100%;'>","75","pos","GS","GSnew","1","category1/GS2.png","","targets/37.png","indirect","1","29"
"","html-keyboard-response","260","1047974","0.0-12.0-0.6","xmz7cn2d79","many_one","0","direct_first","1","la05ol29","1","24","1","1","3","1","null","","","<div style=""font-size:60px;"">+</div>","null","","","","","","","","","",""
"","html-keyboard-response","261","1048074","0.0-12.0-1.6","xmz7cn2d79","many_one","0","direct_first","1","la05ol29","1","24","1","1","3","1","null","","","<img src = 'category4/CS4.png' width = '100%;'>","null","","","","","","","","","",""
"","html-keyboard-response","262","1048353","0.0-12.0-2.6","xmz7cn2d79","many_one","0","direct_first","1","la05ol29","1","24","1","1","3","1","null","","","<img src = 'targets/6.png' width = '100%;'>","null","","","","","","","","","",""
"","html-keyboard-response","263","1049404","0.0-12.0-3.6","xmz7cn2d79","many_one","0","direct_first","1","la05ol29","1","24","1","1","3","1","1048","","","<img src = 'targets/mask.png' width = '100%;'>","68","pos","GS","GSold","4","category4/CS4.png","","targets/6.png","indirect","0","30"
"","html-keyboard-response","264","1050913","0.0-12.0-0.7","xmz7cn2d79","many_one","0","direct_first","1","la05ol29","1","24","1","1","3","1","null","","","<div style=""font-size:60px;"">+</div>","null","","","","","","","","","",""
"","html-keyboard-response","265","1051014","0.0-12.0-1.7","xmz7cn2d79","many_one","0","direct_first","1","la05ol29","1","24","1","1","3","1","null","","","<img src = 'category1/GS1.png' width = '100%;'>","null","","","","","","","","","",""
"","html-keyboard-response","266","1051294","0.0-12.0-2.7","xmz7cn2d79","many_one","0","direct_first","1","la05ol29","1","24","1","1","3","1","null","","","<img src = 'targets/23.png' width = '100%;'>","null","","","","","","","","","",""
"","html-keyboard-response","267","1052100","0.0-12.0-3.7","xmz7cn2d79","many_one","0","direct_first","1","la05ol29","1","24","1","1","3","1","805","","","<img src = 'targets/mask.png' width = '100%;'>","75","pos","GS","GSnew","1","category1/GS1.png","","targets/23.png","indirect","1","31"
"","html-keyboard-response","268","1053633","0.0-12.0-0.8","xmz7cn2d79","many_one","0","direct_first","1","la05ol29","1","24","1","1","3","1","null","","","<div style=""font-size:60px;"">+</div>","null","","","","","","","","","",""
"","html-keyboard-response","269","1053734","0.0-12.0-1.8","xmz7cn2d79","many_one","0","direct_first","1","la05ol29","1","24","1","1","3","1","null","","","<img src = 'category2/men.png' width = '100%;'>","null","","","","","","","","","",""
"","html-keyboard-response","270","1054014","0.0-12.0-2.8","xmz7cn2d79","many_one","0","direct_first","1","la05ol29","1","24","1","1","3","1","null","","","<img src = 'targets/10.png' width = '100%;'>","null","","","","","","","","","",""
"","html-keyboard-response","271","1055724","0.0-12.0-3.8","xmz7cn2d79","many_one","0","direct_first","1","la05ol29","1","24","1","1","3","1","1709","","","<img src = 'targets/mask.png' width = '100%;'>","68","neg","GS","abstract","2","category2/men.png","","targets/10.png","indirect","0","32"
"","html-keyboard-response","272","1057233","0.0-12.0-0.9","xmz7cn2d79","many_one","0","direct_first","1","la05ol29","1","24","1","1","3","1","null","","","<div style=""font-size:60px;"">+</div>","null","","","","","","","","","",""
"","html-keyboard-response","273","1057333","0.0-12.0-1.9","xmz7cn2d79","many_one","0","direct_first","1","la05ol29","1","24","1","1","3","1","null","","","<img src = 'category2/CS10.png' width = '100%;'>","null","","","","","","","","","",""
"","html-keyboard-response","274","1057613","0.0-12.0-2.9","xmz7cn2d79","many_one","0","direct_first","1","la05ol29","1","24","1","1","3","1","null","","","<img src = 'targets/36.png' width = '100%;'>","null","","","","","","","","","",""
"","html-keyboard-response","275","1058875","0.0-12.0-3.9","xmz7cn2d79","many_one","0","direct_first","1","la05ol29","1","24","1","1","3","1","1262","","","<img src = 'targets/mask.png' width = '100%;'>","68","neg","GS","GSold","2","category2/CS10.png","","targets/36.png","indirect","0","33"
"","html-keyboard-response","276","1060413","0.0-12.0-0.10","xmz7cn2d79","many_one","0","direct_first","1","la05ol29","1","24","1","1","3","1","null","","","<div style=""font-size:60px;"">+</div>","null","","","","","","","","","",""
"","html-keyboard-response","277","1060513","0.0-12.0-1.10","xmz7cn2d79","many_one","0","direct_first","1","la05ol29","1","24","1","1","3","1","null","","","<img src = 'category4/CS7.png' width = '100%;'>","null","","","","","","","","","",""
"","html-keyboard-response","278","1060793","0.0-12.0-2.10","xmz7cn2d79","many_one","0","direct_first","1","la05ol29","1","24","1","1","3","1","null","","","<img src = 'targets/19.png' width = '100%;'>","null","","","","","","","","","",""
"","html-keyboard-response","279","1062723","0.0-12.0-3.10","xmz7cn2d79","many_one","0","direct_first","1","la05ol29","1","24","1","1","3","1","1930","","","<img src = 'targets/mask.png' width = '100%;'>","75","pos","GS","GSold","4","category4/CS7.png","","targets/19.png","indirect","1","34"
"","html-keyboard-response","280","1064263","0.0-12.0-0.11","xmz7cn2d79","many_one","0","direct_first","1","la05ol29","1","24","1","1","3","1","null","","","<div style=""font-size:60px;"">+</div>","null","","","","","","","","","",""
"","html-keyboard-response","281","1064363","0.0-12.0-1.11","xmz7cn2d79","many_one","0","direct_first","1","la05ol29","1","24","1","1","3","1","null","","","<img src = 'category4/GS1.png' width = '100%;'>","null","","","","","","","","","",""
"","html-keyboard-response","282","1064644","0.0-12.0-2.11","xmz7cn2d79","many_one","0","direct_first","1","la05ol29","1","24","1","1","3","1","null","","","<img src = 'targets/8.png' width = '100%;'>","null","","","","","","","","","",""
"","html-keyboard-response","283","1065299","0.0-12.0-3.11","xmz7cn2d79","many_one","0","direct_first","1","la05ol29","1","24","1","1","3","1","655","","","<img src = 'targets/mask.png' width = '100%;'>","75","pos","GS","GSnew","4","category4/GS1.png","","targets/8.png","indirect","1","35"
"","html-keyboard-response","284","1066823","0.0-12.0-0.12","xmz7cn2d79","many_one","0","direct_first","1","la05ol29","1","24","1","1","3","1","null","","","<div style=""font-size:60px;"">+</div>","null","","","","","","","","","",""
"","html-keyboard-response","285","1066923","0.0-12.0-1.12","xmz7cn2d79","many_one","0","direct_first","1","la05ol29","1","24","1","1","3","1","null","","","<img src = 'category2/GS3.png' width = '100%;'>","null","","","","","","","","","",""
"","html-keyboard-response","286","1067203","0.0-12.0-2.12","xmz7cn2d79","many_one","0","direct_first","1","la05ol29","1","24","1","1","3","1","null","","","<img src = 'targets/28.png' width = '100%;'>","null","","","","","","","","","",""
"","html-keyboard-response","287","1067987","0.0-12.0-3.12","xmz7cn2d79","many_one","0","direct_first","1","la05ol29","1","24","1","1","3","1","783","","","<img src = 'targets/mask.png' width = '100%;'>","68","neg","GS","GSnew","2","category2/GS3.png","","targets/28.png","indirect","0","36"
"","html-keyboard-response","288","1069523","0.0-12.0-0.13","xmz7cn2d79","many_one","0","direct_first","1","la05ol29","1","24","1","1","3","1","null","","","<div style=""font-size:60px;"">+</div>","null","","","","","","","","","",""
"","html-keyboard-response","289","1069624","0.0-12.0-1.13","xmz7cn2d79","many_one","0","direct_first","1","la05ol29","1","24","1","1","3","1","null","","","<img src = 'category1/GS3.png' width = '100%;'>","null","","","","","","","","","",""
"","html-keyboard-response","290","1069903","0.0-12.0-2.13","xmz7cn2d79","many_one","0","direct_first","1","la05ol29","1","24","1","1","3","1","null","","","<img src = 'targets/2.png' width = '100%;'>","null","","","","","","","","","",""
"","html-keyboard-response","291","1071955","0.0-12.0-3.13","xmz7cn2d79","many_one","0","direct_first","1","la05ol29","1","24","1","1","3","1","2050","","","<img src = 'targets/mask.png' width = '100%;'>","68","pos","GS","GSnew","1","category1/GS3.png","","targets/2.png","indirect","0","37"
"","html-keyboard-response","292","1073483","0.0-12.0-0.14","xmz7cn2d79","many_one","0","direct_first","1","la05ol29","1","24","1","1","3","1","null","","","<div style=""font-size:60px;"">+</div>","null","","","","","","","","","",""
"","html-keyboard-response","293","1073583","0.0-12.0-1.14","xmz7cn2d79","many_one","0","direct_first","1","la05ol29","1","24","1","1","3","1","null","","","<img src = 'category3/GS3.png' width = '100%;'>","null","","","","","","","","","",""
"","html-keyboard-response","294","1073863","0.0-12.0-2.14","xmz7cn2d79","many_one","0","direct_first","1","la05ol29","1","24","1","1","3","1","null","","","<img src = 'targets/25.png' width = '100%;'>","null","","","","","","","","","",""
"","html-keyboard-response","295","1075171","0.0-12.0-3.14","xmz7cn2d79","many_one","0","direct_first","1","la05ol29","1","24","1","1","3","1","1306","","","<img src = 'targets/mask.png' width = '100%;'>","75","neg","GS","GSnew","3","category3/GS3.png","","targets/25.png","indirect","1","38"
"","html-keyboard-response","296","1076678","0.0-12.0-0.15","xmz7cn2d79","many_one","0","direct_first","1","la05ol29","1","24","1","1","3","1","null","","","<div style=""font-size:60px;"">+</div>","null","","","","","","","","","",""
"","html-keyboard-response","297","1076778","0.0-12.0-1.15","xmz7cn2d79","many_one","0","direct_first","1","la05ol29","1","24","1","1","3","1","null","","","<img src = 'category4/GS3.png' width = '100%;'>","null","","","","","","","","","",""
"","html-keyboard-response","298","1077063","0.0-12.0-2.15","xmz7cn2d79","many_one","0","direct_first","1","la05ol29","1","24","1","1","3","1","null","","","<img src = 'targets/20.png' width = '100%;'>","null","","","","","","","","","",""
"","html-keyboard-response","299","1077811","0.0-12.0-3.15","xmz7cn2d79","many_one","0","direct_first","1","la05ol29","1","24","1","1","3","1","747","","","<img src = 'targets/mask.png' width = '100%;'>","75","pos","GS","GSnew","4","category4/GS3.png","","targets/20.png","indirect","1","39"
"","html-keyboard-response","300","1079323","0.0-12.0-0.16","xmz7cn2d79","many_one","0","direct_first","1","la05ol29","1","24","1","1","3","1","null","","","<div style=""font-size:60px;"">+</div>","null","","","","","","","","","",""
"","html-keyboard-response","301","1079424","0.0-12.0-1.16","xmz7cn2d79","many_one","0","direct_first","1","la05ol29","1","24","1","1","3","1","null","","","<img src = 'category4/GS2.png' width = '100%;'>","null","","","","","","","","","",""
"","html-keyboard-response","302","1079703","0.0-12.0-2.16","xmz7cn2d79","many_one","0","direct_first","1","la05ol29","1","24","1","1","3","1","null","","","<img src = 'targets/24.png' width = '100%;'>","null","","","","","","","","","",""
"","html-keyboard-response","303","1080354","0.0-12.0-3.16","xmz7cn2d79","many_one","0","direct_first","1","la05ol29","1","24","1","1","3","1","651","","","<img src = 'targets/mask.png' width = '100%;'>","68","pos","GS","GSnew","4","category4/GS2.png","","targets/24.png","indirect","0","40"
"","html-keyboard-response","304","1081883","0.0-12.0-0.17","xmz7cn2d79","many_one","0","direct_first","1","la05ol29","1","24","1","1","3","1","null","","","<div style=""font-size:60px;"">+</div>","null","","","","","","","","","",""
"","html-keyboard-response","305","1081983","0.0-12.0-1.17","xmz7cn2d79","many_one","0","direct_first","1","la05ol29","1","24","1","1","3","1","null","","","<img src = 'category2/GS2.png' width = '100%;'>","null","","","","","","","","","",""
"","html-keyboard-response","306","1082262","0.0-12.0-2.17","xmz7cn2d79","many_one","0","direct_first","1","la05ol29","1","24","1","1","3","1","null","","","<img src = 'targets/38.png' width = '100%;'>","null","","","","","","","","","",""
"","html-keyboard-response","307","1082787","0.0-12.0-3.17","xmz7cn2d79","many_one","0","direct_first","1","la05ol29","1","24","1","1","3","1","523","","","<img src = 'targets/mask.png' width = '100%;'>","75","neg","GS","GSnew","2","category2/GS2.png","","targets/38.png","indirect","1","41"
"","html-keyboard-response","308","1084303","0.0-12.0-0.18","xmz7cn2d79","many_one","0","direct_first","1","la05ol29","1","24","1","1","3","1","null","","","<div style=""font-size:60px;"">+</div>","null","","","","","","","","","",""
"","html-keyboard-response","309","1084398","0.0-12.0-1.18","xmz7cn2d79","many_one","0","direct_first","1","la05ol29","1","24","1","1","3","1","null","","","<img src = 'category1/CS10.png' width = '100%;'>","null","","","","","","","","","",""
"","html-keyboard-response","310","1084683","0.0-12.0-2.18","xmz7cn2d79","many_one","0","direct_first","1","la05ol29","1","24","1","1","3","1","null","","","<img src = 'targets/45.png' width = '100%;'>","null","","","","","","","","","",""
"","html-keyboard-response","311","1085363","0.0-12.0-3.18","xmz7cn2d79","many_one","0","direct_first","1","la05ol29","1","24","1","1","3","1","678","","","<img src = 'targets/mask.png' width = '100%;'>","75","pos","GS","GSold","1","category1/CS10.png","","targets/45.png","indirect","1","42"
"","html-keyboard-response","312","1086902","0.0-12.0-0.19","xmz7cn2d79","many_one","0","direct_first","1","la05ol29","1","24","1","1","3","1","null","","","<div style=""font-size:60px;"">+</div>","null","","","","","","","","","",""
"","html-keyboard-response","313","1087003","0.0-12.0-1.19","xmz7cn2d79","many_one","0","direct_first","1","la05ol29","1","24","1","1","3","1","null","","","<img src = 'category3/wang.png' width = '100%;'>","null","","","","","","","","","",""
"","html-keyboard-response","314","1087282","0.0-12.0-2.19","xmz7cn2d79","many_one","0","direct_first","1","la05ol29","1","24","1","1","3","1","null","","","<img src = 'targets/30.png' width = '100%;'>","null","","","","","","","","","",""
"","html-keyboard-response","315","1087906","0.0-12.0-3.19","xmz7cn2d79","many_one","0","direct_first","1","la05ol29","1","24","1","1","3","1","622","","","<img src = 'targets/mask.png' width = '100%;'>","75","neg","GS","abstract","3","category3/wang.png","","targets/30.png","indirect","1","43"
"","html-keyboard-response","316","1089443","0.0-12.0-0.20","xmz7cn2d79","many_one","0","direct_first","1","la05ol29","1","24","1","1","3","1","null","","","<div style=""font-size:60px;"">+</div>","null","","","","","","","","","",""
"","html-keyboard-response","317","1089543","0.0-12.0-1.20","xmz7cn2d79","many_one","0","direct_first","1","la05ol29","1","24","1","1","3","1","null","","","<img src = 'category1/CS3.png' width = '100%;'>","null","","","","","","","","","",""
"","html-keyboard-response","318","1089823","0.0-12.0-2.20","xmz7cn2d79","many_one","0","direct_first","1","la05ol29","1","24","1","1","3","1","null","","","<img src = 'targets/4.png' width = '100%;'>","null","","","","","","","","","",""
"","html-keyboard-response","319","1091522","0.0-12.0-3.20","xmz7cn2d79","many_one","0","direct_first","1","la05ol29","1","24","1","1","3","1","1699","","","<img src = 'targets/mask.png' width = '100%;'>","68","pos","GS","GSold","1","category1/CS3.png","","targets/4.png","indirect","0","44"
"","html-keyboard-response","320","1093062","0.0-12.0-0.21","xmz7cn2d79","many_one","0","direct_first","1","la05ol29","1","24","1","1","3","1","null","","","<div style=""font-size:60px;"">+</div>","null","","","","","","","","","",""
"","html-keyboard-response","321","1093162","0.0-12.0-1.21","xmz7cn2d79","many_one","0","direct_first","1","la05ol29","1","24","1","1","3","1","null","","","<img src = 'category2/CS6.png' width = '100%;'>","null","","","","","","","","","",""
"","html-keyboard-response","322","1093443","0.0-12.0-2.21","xmz7cn2d79","many_one","0","direct_first","1","la05ol29","1","24","1","1","3","1","null","","","<img src = 'targets/29.png' width = '100%;'>","null","","","","","","","","","",""
"","html-keyboard-response","323","1094235","0.0-12.0-3.21","xmz7cn2d79","many_one","0","direct_first","1","la05ol29","1","24","1","1","3","1","790","","","<img src = 'targets/mask.png' width = '100%;'>","75","neg","GS","GSold","2","category2/CS6.png","","targets/29.png","indirect","1","45"
"","html-keyboard-response","324","1095763","0.0-12.0-0.22","xmz7cn2d79","many_one","0","direct_first","1","la05ol29","1","24","1","1","3","1","null","","","<div style=""font-size:60px;"">+</div>","null","","","","","","","","","",""
"","html-keyboard-response","325","1095863","0.0-12.0-1.22","xmz7cn2d79","many_one","0","direct_first","1","la05ol29","1","24","1","1","3","1","null","","","<img src = 'category2/CS1.png' width = '100%;'>","null","","","","","","","","","",""
"","html-keyboard-response","326","1096138","0.0-12.0-2.22","xmz7cn2d79","many_one","0","direct_first","1","la05ol29","1","24","1","1","3","1","null","","","<img src = 'targets/26.png' width = '100%;'>","null","","","","","","","","","",""
"","html-keyboard-response","327","1096650","0.0-12.0-3.22","xmz7cn2d79","many_one","0","direct_first","1","la05ol29","1","24","1","1","3","1","512","","","<img src = 'targets/mask.png' width = '100%;'>","75","neg","GS","GSold","2","category2/CS1.png","","targets/26.png","indirect","1","46"
"","html-keyboard-response","328","1098172","0.0-12.0-0.23","xmz7cn2d79","many_one","0","direct_first","1","la05ol29","1","24","1","1","3","1","null","","","<div style=""font-size:60px;"">+</div>","null","","","","","","","","","",""
"","html-keyboard-response","329","1098272","0.0-12.0-1.23","xmz7cn2d79","many_one","0","direct_first","1","la05ol29","1","24","1","1","3","1","null","","","<img src = 'category4/lin.png' width = '100%;'>","null","","","","","","","","","",""
"","html-keyboard-response","330","1098549","0.0-12.0-2.23","xmz7cn2d79","many_one","0","direct_first","1","la05ol29","1","24","1","1","3","1","null","","","<img src = 'targets/1.png' width = '100%;'>","null","","","","","","","","","",""
"","html-keyboard-response","331","1099370","0.0-12.0-3.23","xmz7cn2d79","many_one","0","direct_first","1","la05ol29","1","24","1","1","3","1","820","","","<img src = 'targets/mask.png' width = '100%;'>","75","pos","GS","abstract","4","category4/lin.png","","targets/1.png","indirect","1","47"
"","survey-html-form","332","1110530","0.0-13.0","xmz7cn2d79","many_one","0","direct_first","1","la05ol29","1","24","1","1","3","1","10657","","{}","","","","","","","","","","","",""
"","image-slider-response","333","1117250","0.0-14.0-0.0","xmz7cn2d79","many_one","0","direct_first","1","la05ol29","1","24","1","1","3","1","5714","","","","","pos","All","all","4","category4/lin_all.png","57","","all","",""
"","image-slider-response","334","1120089","0.0-14.0-0.1","xmz7cn2d79","many_one","0","direct_first","1","la05ol29","1","24","1","1","3","1","2839","","","","","neg","All","all","3","category3/wang_all.png","-19","","all","",""
"","image-slider-response","335","1123105","0.0-14.0-0.2","xmz7cn2d79","many_one","0","direct_first","1","la05ol29","1","24","1","1","3","1","3013","","","","","pos","All","all","1","category1/ma_all.png","53","","all","",""
"","image-slider-response","336","1132552","0.0-14.0-0.3","xmz7cn2d79","many_one","0","direct_first","1","la05ol29","1","24","1","1","3","1","9447","","","","","neg","All","all","2","category2/men_all.png","15","","all","",""
"","survey-text","337","1170514","0.0-15.0","xmz7cn2d79","many_one","0","direct_first","1","la05ol29","1","24","1","1","3","1","37959","","{""Q0"":""""}","","","","","","","","","","","",""
