"success","trial_type","trial_index","time_elapsed","internal_node_id","subject","condition","condition_code","measure","measure_code","codeword","gender","age","education","chinese","fach","handedness","comment","hinschauen","ablenkung","gewissenhaft","rt","url","responses","stimulus","key_press","val","type","type_specific","category","cs_selected","response","target","task","indirect","nr_pres"
"true","fullscreen","0","4478","0.0-0.0","9fgt8h1wkv","many_one","0","direct_first","1","ia4la122","0","23","1","1","3","1","","0","1","0","","","","","","","","","","","","","","",""
"","external-html","1","19774","0.0-1.0","9fgt8h1wkv","many_one","0","direct_first","1","ia4la122","0","23","1","1","3","1","","0","1","0","15244.895000010729","text/information.html","","","","","","","","","","","","",""
"","external-html","2","24556","0.0-2.0","9fgt8h1wkv","many_one","0","direct_first","1","ia4la122","0","23","1","1","3","1","","0","1","0","4698.004999896511","text/consent.html","","","","","","","","","","","","",""
"","survey-html-form","3","98931","0.0-3.0","9fgt8h1wkv","many_one","0","direct_first","1","ia4la122","0","23","1","1","3","1","","0","1","0","74370.09999994189","","{""codeword_enter"":""ia4la122""}","","","","","","","","","","","",""
"","survey-html-form","4","115544","0.0-4.0","9fgt8h1wkv","many_one","0","direct_first","1","ia4la122","0","23","1","1","3","1","","0","1","0","16606.224999995902","","{""age"":""23"",""education"":""1"",""subject"":""3"",""gender"":""0"",""handedness"":""1"",""chinese"":""1""}","","","","","","","","","","","",""
"","survey-html-form","5","117383","0.0-5.0","9fgt8h1wkv","many_one","0","direct_first","1","ia4la122","0","23","1","1","3","1","","0","1","0","1832.9650000669062","","{}","","","","","","","","","","","",""
"","html-keyboard-response","6","121393","0.0-6.0-0.0-0.0","9fgt8h1wkv","many_one","0","direct_first","1","ia4la122","0","23","1","1","3","1","","0","1","0","null","","","<div class = 'row'><div class = 'column'><img src = 'category3/CS4.png' width = '70%;'></div><div class = 'column'><img src = 'usneg/6838.bmp' width = '100%;'></div></div>","null","neg","CS","CS","3","category3/CS4.png","","","","",""
"","html-keyboard-response","7","123907","0.0-6.0-0.0-0.1","9fgt8h1wkv","many_one","0","direct_first","1","ia4la122","0","23","1","1","3","1","","0","1","0","null","","","<div class = 'row'><div class = 'column'><img src = 'usneg/9050.bmp' width = '100%;'></div><div class = 'column'><img src = 'category3/CS3.png' width = '70%;'></div></div>","null","neg","CS","CS","3","category3/CS3.png","","","","",""
"","html-keyboard-response","8","126423","0.0-6.0-0.0-0.2","9fgt8h1wkv","many_one","0","direct_first","1","ia4la122","0","23","1","1","3","1","","0","1","0","null","","","<div class = 'row'><div class = 'column'><img src = 'category4/CS10.png' width = '70%;'></div><div class = 'column'><img src = 'usneg/9280.bmp' width = '100%;'></div></div>","null","neg","CS","CS","4","category4/CS10.png","","","","",""
"","html-keyboard-response","9","128932","0.0-6.0-0.0-0.3","9fgt8h1wkv","many_one","0","direct_first","1","ia4la122","0","23","1","1","3","1","","0","1","0","null","","","<div class = 'row'><div class = 'column'><img src = 'category1/CS8.png' width = '70%;'></div><div class = 'column'><img src = 'uspos/2311.bmp' width = '100%;'></div></div>","null","pos","CS","CS","1","category1/CS8.png","","","","",""
"","html-keyboard-response","10","131450","0.0-6.0-0.0-0.4","9fgt8h1wkv","many_one","0","direct_first","1","ia4la122","0","23","1","1","3","1","","0","1","0","null","","","<div class = 'row'><div class = 'column'><img src = 'uspos/5470.bmp' width = '100%;'></div><div class = 'column'><img src = 'category2/CS1.png' width = '70%;'></div></div>","null","pos","CS","CS","2","category2/CS1.png","","","","",""
"","html-keyboard-response","11","133965","0.0-6.0-0.0-0.5","9fgt8h1wkv","many_one","0","direct_first","1","ia4la122","0","23","1","1","3","1","","0","1","0","null","","","<div class = 'row'><div class = 'column'><img src = 'category1/CS3.png' width = '70%;'></div><div class = 'column'><img src = 'uspos/2040.bmp' width = '100%;'></div></div>","null","pos","CS","CS","1","category1/CS3.png","","","","",""
"","html-keyboard-response","12","136481","0.0-6.0-0.0-0.6","9fgt8h1wkv","many_one","0","direct_first","1","ia4la122","0","23","1","1","3","1","","0","1","0","null","","","<div class = 'row'><div class = 'column'><img src = 'uspos/2160.bmp' width = '100%;'></div><div class = 'column'><img src = 'category1/CS7.png' width = '70%;'></div></div>","null","pos","CS","CS","1","category1/CS7.png","","","","",""
"","html-keyboard-response","13","138993","0.0-6.0-0.0-0.7","9fgt8h1wkv","many_one","0","direct_first","1","ia4la122","0","23","1","1","3","1","","0","1","0","null","","","<div class = 'row'><div class = 'column'><img src = 'category2/CS9.png' width = '70%;'></div><div class = 'column'><img src = 'uspos/2057.bmp' width = '100%;'></div></div>","null","pos","CS","CS","2","category2/CS9.png","","","","",""
"","html-keyboard-response","14","141512","0.0-6.0-0.0-0.8","9fgt8h1wkv","many_one","0","direct_first","1","ia4la122","0","23","1","1","3","1","","0","1","0","null","","","<div class = 'row'><div class = 'column'><img src = 'category2/CS10.png' width = '70%;'></div><div class = 'column'><img src = 'uspos/8080.bmp' width = '100%;'></div></div>","null","pos","CS","CS","2","category2/CS10.png","","","","",""
"","html-keyboard-response","15","144025","0.0-6.0-0.0-0.9","9fgt8h1wkv","many_one","0","direct_first","1","ia4la122","0","23","1","1","3","1","","0","1","0","null","","","<div class = 'row'><div class = 'column'><img src = 'uspos/5621.bmp' width = '100%;'></div><div class = 'column'><img src = 'category1/CS6.png' width = '70%;'></div></div>","null","pos","CS","CS","1","category1/CS6.png","","","","",""
"","html-keyboard-response","16","146529","0.0-6.0-0.0-0.10","9fgt8h1wkv","many_one","0","direct_first","1","ia4la122","0","23","1","1","3","1","","0","1","0","null","","","<div class = 'row'><div class = 'column'><img src = 'uspos/2530.bmp' width = '100%;'></div><div class = 'column'><img src = 'category1/CS1.png' width = '70%;'></div></div>","null","pos","CS","CS","1","category1/CS1.png","","","","",""
"","html-keyboard-response","17","149044","0.0-6.0-0.0-0.11","9fgt8h1wkv","many_one","0","direct_first","1","ia4la122","0","23","1","1","3","1","","0","1","0","null","","","<div class = 'row'><div class = 'column'><img src = 'category4/CS8.png' width = '70%;'></div><div class = 'column'><img src = 'usneg/9041.bmp' width = '100%;'></div></div>","null","neg","CS","CS","4","category4/CS8.png","","","","",""
"","html-keyboard-response","18","151561","0.0-6.0-0.0-0.12","9fgt8h1wkv","many_one","0","direct_first","1","ia4la122","0","23","1","1","3","1","","0","1","0","null","","","<div class = 'row'><div class = 'column'><img src = 'usneg/2900.bmp' width = '100%;'></div><div class = 'column'><img src = 'category4/CS6.png' width = '70%;'></div></div>","null","neg","CS","CS","4","category4/CS6.png","","","","",""
"","html-keyboard-response","19","154077","0.0-6.0-0.0-0.13","9fgt8h1wkv","many_one","0","direct_first","1","ia4la122","0","23","1","1","3","1","","0","1","0","null","","","<div class = 'row'><div class = 'column'><img src = 'category4/CS4.png' width = '70%;'></div><div class = 'column'><img src = 'usneg/9560.bmp' width = '100%;'></div></div>","null","neg","CS","CS","4","category4/CS4.png","","","","",""
"","html-keyboard-response","20","156583","0.0-6.0-0.0-0.14","9fgt8h1wkv","many_one","0","direct_first","1","ia4la122","0","23","1","1","3","1","","0","1","0","null","","","<div class = 'row'><div class = 'column'><img src = 'usneg/6020.bmp' width = '100%;'></div><div class = 'column'><img src = 'category3/CS7.png' width = '70%;'></div></div>","null","neg","CS","CS","3","category3/CS7.png","","","","",""
"","html-keyboard-response","21","159093","0.0-6.0-0.0-0.15","9fgt8h1wkv","many_one","0","direct_first","1","ia4la122","0","23","1","1","3","1","","0","1","0","null","","","<div class = 'row'><div class = 'column'><img src = 'usneg/3160.bmp' width = '100%;'></div><div class = 'column'><img src = 'category4/CS9.png' width = '70%;'></div></div>","null","neg","CS","CS","4","category4/CS9.png","","","","",""
"","html-keyboard-response","22","161598","0.0-6.0-0.0-0.16","9fgt8h1wkv","many_one","0","direct_first","1","ia4la122","0","23","1","1","3","1","","0","1","0","null","","","<div class = 'row'><div class = 'column'><img src = 'category3/CS9.png' width = '70%;'></div><div class = 'column'><img src = 'usneg/9520.bmp' width = '100%;'></div></div>","null","neg","CS","CS","3","category3/CS9.png","","","","",""
"","html-keyboard-response","23","164137","0.0-6.0-0.0-0.17","9fgt8h1wkv","many_one","0","direct_first","1","ia4la122","0","23","1","1","3","1","","0","1","0","null","","","<div class = 'row'><div class = 'column'><img src = 'category2/CS3.png' width = '70%;'></div><div class = 'column'><img src = 'uspos/1440.bmp' width = '100%;'></div></div>","null","pos","CS","CS","2","category2/CS3.png","","","","",""
"","html-keyboard-response","24","166647","0.0-6.0-0.0-0.18","9fgt8h1wkv","many_one","0","direct_first","1","ia4la122","0","23","1","1","3","1","","0","1","0","null","","","<div class = 'row'><div class = 'column'><img src = 'category3/CS1.png' width = '70%;'></div><div class = 'column'><img src = 'usneg/9584.bmp' width = '100%;'></div></div>","null","neg","CS","CS","3","category3/CS1.png","","","","",""
"","html-keyboard-response","25","169154","0.0-6.0-0.0-0.19","9fgt8h1wkv","many_one","0","direct_first","1","ia4la122","0","23","1","1","3","1","","0","1","0","null","","","<div class = 'row'><div class = 'column'><img src = 'uspos/1460.bmp' width = '100%;'></div><div class = 'column'><img src = 'category2/CS8.png' width = '70%;'></div></div>","null","pos","CS","CS","2","category2/CS8.png","","","","",""
"","survey-html-form","26","172419","0.0-6.0-1.0","9fgt8h1wkv","many_one","0","direct_first","1","ia4la122","0","23","1","1","3","1","","0","1","0","2748.714999994263","","{}","","","","","","","","","","","",""
"","html-keyboard-response","27","176441","0.0-6.0-2.0-0.0","9fgt8h1wkv","many_one","0","direct_first","1","ia4la122","0","23","1","1","3","1","","0","1","0","null","","","<div class = 'row'><div class = 'column'><img src = 'uspos/1440.bmp' width = '100%;'></div><div class = 'column'><img src = 'category2/CS3.png' width = '70%;'></div></div>","null","pos","CS","CS","2","category2/CS3.png","","","","",""
"","html-keyboard-response","28","178964","0.0-6.0-2.0-0.1","9fgt8h1wkv","many_one","0","direct_first","1","ia4la122","0","23","1","1","3","1","","0","1","0","null","","","<div class = 'row'><div class = 'column'><img src = 'category3/CS1.png' width = '70%;'></div><div class = 'column'><img src = 'usneg/9584.bmp' width = '100%;'></div></div>","null","neg","CS","CS","3","category3/CS1.png","","","","",""
"","html-keyboard-response","29","181480","0.0-6.0-2.0-0.2","9fgt8h1wkv","many_one","0","direct_first","1","ia4la122","0","23","1","1","3","1","","0","1","0","null","","","<div class = 'row'><div class = 'column'><img src = 'category4/CS4.png' width = '70%;'></div><div class = 'column'><img src = 'usneg/9560.bmp' width = '100%;'></div></div>","null","neg","CS","CS","4","category4/CS4.png","","","","",""
"","html-keyboard-response","30","183985","0.0-6.0-2.0-0.3","9fgt8h1wkv","many_one","0","direct_first","1","ia4la122","0","23","1","1","3","1","","0","1","0","null","","","<div class = 'row'><div class = 'column'><img src = 'category2/CS10.png' width = '70%;'></div><div class = 'column'><img src = 'uspos/8080.bmp' width = '100%;'></div></div>","null","pos","CS","CS","2","category2/CS10.png","","","","",""
"","html-keyboard-response","31","186500","0.0-6.0-2.0-0.4","9fgt8h1wkv","many_one","0","direct_first","1","ia4la122","0","23","1","1","3","1","","0","1","0","null","","","<div class = 'row'><div class = 'column'><img src = 'category3/CS7.png' width = '70%;'></div><div class = 'column'><img src = 'usneg/6020.bmp' width = '100%;'></div></div>","null","neg","CS","CS","3","category3/CS7.png","","","","",""
"","html-keyboard-response","32","189004","0.0-6.0-2.0-0.5","9fgt8h1wkv","many_one","0","direct_first","1","ia4la122","0","23","1","1","3","1","","0","1","0","null","","","<div class = 'row'><div class = 'column'><img src = 'category2/CS1.png' width = '70%;'></div><div class = 'column'><img src = 'uspos/5470.bmp' width = '100%;'></div></div>","null","pos","CS","CS","2","category2/CS1.png","","","","",""
"","html-keyboard-response","33","191514","0.0-6.0-2.0-0.6","9fgt8h1wkv","many_one","0","direct_first","1","ia4la122","0","23","1","1","3","1","","0","1","0","null","","","<div class = 'row'><div class = 'column'><img src = 'category2/CS9.png' width = '70%;'></div><div class = 'column'><img src = 'uspos/2057.bmp' width = '100%;'></div></div>","null","pos","CS","CS","2","category2/CS9.png","","","","",""
"","html-keyboard-response","34","194032","0.0-6.0-2.0-0.7","9fgt8h1wkv","many_one","0","direct_first","1","ia4la122","0","23","1","1","3","1","","0","1","0","null","","","<div class = 'row'><div class = 'column'><img src = 'usneg/9050.bmp' width = '100%;'></div><div class = 'column'><img src = 'category3/CS3.png' width = '70%;'></div></div>","null","neg","CS","CS","3","category3/CS3.png","","","","",""
"","html-keyboard-response","35","196546","0.0-6.0-2.0-0.8","9fgt8h1wkv","many_one","0","direct_first","1","ia4la122","0","23","1","1","3","1","","0","1","0","null","","","<div class = 'row'><div class = 'column'><img src = 'category1/CS1.png' width = '70%;'></div><div class = 'column'><img src = 'uspos/2530.bmp' width = '100%;'></div></div>","null","pos","CS","CS","1","category1/CS1.png","","","","",""
"","html-keyboard-response","36","199060","0.0-6.0-2.0-0.9","9fgt8h1wkv","many_one","0","direct_first","1","ia4la122","0","23","1","1","3","1","","0","1","0","null","","","<div class = 'row'><div class = 'column'><img src = 'category4/CS8.png' width = '70%;'></div><div class = 'column'><img src = 'usneg/9041.bmp' width = '100%;'></div></div>","null","neg","CS","CS","4","category4/CS8.png","","","","",""
"","html-keyboard-response","37","201589","0.0-6.0-2.0-0.10","9fgt8h1wkv","many_one","0","direct_first","1","ia4la122","0","23","1","1","3","1","","0","1","0","null","","","<div class = 'row'><div class = 'column'><img src = 'category3/CS4.png' width = '70%;'></div><div class = 'column'><img src = 'usneg/6838.bmp' width = '100%;'></div></div>","null","neg","CS","CS","3","category3/CS4.png","","","","",""
"","html-keyboard-response","38","204095","0.0-6.0-2.0-0.11","9fgt8h1wkv","many_one","0","direct_first","1","ia4la122","0","23","1","1","3","1","","0","1","0","null","","","<div class = 'row'><div class = 'column'><img src = 'category4/CS6.png' width = '70%;'></div><div class = 'column'><img src = 'usneg/2900.bmp' width = '100%;'></div></div>","null","neg","CS","CS","4","category4/CS6.png","","","","",""
"","html-keyboard-response","39","206604","0.0-6.0-2.0-0.12","9fgt8h1wkv","many_one","0","direct_first","1","ia4la122","0","23","1","1","3","1","","0","1","0","null","","","<div class = 'row'><div class = 'column'><img src = 'uspos/2311.bmp' width = '100%;'></div><div class = 'column'><img src = 'category1/CS8.png' width = '70%;'></div></div>","null","pos","CS","CS","1","category1/CS8.png","","","","",""
"","html-keyboard-response","40","209120","0.0-6.0-2.0-0.13","9fgt8h1wkv","many_one","0","direct_first","1","ia4la122","0","23","1","1","3","1","","0","1","0","null","","","<div class = 'row'><div class = 'column'><img src = 'category2/CS8.png' width = '70%;'></div><div class = 'column'><img src = 'uspos/1460.bmp' width = '100%;'></div></div>","null","pos","CS","CS","2","category2/CS8.png","","","","",""
"","html-keyboard-response","41","211639","0.0-6.0-2.0-0.14","9fgt8h1wkv","many_one","0","direct_first","1","ia4la122","0","23","1","1","3","1","","0","1","0","null","","","<div class = 'row'><div class = 'column'><img src = 'uspos/5621.bmp' width = '100%;'></div><div class = 'column'><img src = 'category1/CS6.png' width = '70%;'></div></div>","null","pos","CS","CS","1","category1/CS6.png","","","","",""
"","html-keyboard-response","42","214144","0.0-6.0-2.0-0.15","9fgt8h1wkv","many_one","0","direct_first","1","ia4la122","0","23","1","1","3","1","","0","1","0","null","","","<div class = 'row'><div class = 'column'><img src = 'category4/CS9.png' width = '70%;'></div><div class = 'column'><img src = 'usneg/3160.bmp' width = '100%;'></div></div>","null","neg","CS","CS","4","category4/CS9.png","","","","",""
"","html-keyboard-response","43","216655","0.0-6.0-2.0-0.16","9fgt8h1wkv","many_one","0","direct_first","1","ia4la122","0","23","1","1","3","1","","0","1","0","null","","","<div class = 'row'><div class = 'column'><img src = 'category3/CS9.png' width = '70%;'></div><div class = 'column'><img src = 'usneg/9520.bmp' width = '100%;'></div></div>","null","neg","CS","CS","3","category3/CS9.png","","","","",""
"","html-keyboard-response","44","219168","0.0-6.0-2.0-0.17","9fgt8h1wkv","many_one","0","direct_first","1","ia4la122","0","23","1","1","3","1","","0","1","0","null","","","<div class = 'row'><div class = 'column'><img src = 'uspos/2040.bmp' width = '100%;'></div><div class = 'column'><img src = 'category1/CS3.png' width = '70%;'></div></div>","null","pos","CS","CS","1","category1/CS3.png","","","","",""
"","html-keyboard-response","45","221689","0.0-6.0-2.0-0.18","9fgt8h1wkv","many_one","0","direct_first","1","ia4la122","0","23","1","1","3","1","","0","1","0","null","","","<div class = 'row'><div class = 'column'><img src = 'category1/CS7.png' width = '70%;'></div><div class = 'column'><img src = 'uspos/2160.bmp' width = '100%;'></div></div>","null","pos","CS","CS","1","category1/CS7.png","","","","",""
"","html-keyboard-response","46","224207","0.0-6.0-2.0-0.19","9fgt8h1wkv","many_one","0","direct_first","1","ia4la122","0","23","1","1","3","1","","0","1","0","null","","","<div class = 'row'><div class = 'column'><img src = 'category4/CS10.png' width = '70%;'></div><div class = 'column'><img src = 'usneg/9280.bmp' width = '100%;'></div></div>","null","neg","CS","CS","4","category4/CS10.png","","","","",""
"","survey-html-form","47","226781","0.0-6.0-3.0","9fgt8h1wkv","many_one","0","direct_first","1","ia4la122","0","23","1","1","3","1","","0","1","0","2072.8200001176447","","{}","","","","","","","","","","","",""
"","html-keyboard-response","48","230800","0.0-6.0-4.0-0.0","9fgt8h1wkv","many_one","0","direct_first","1","ia4la122","0","23","1","1","3","1","","0","1","0","null","","","<div class = 'row'><div class = 'column'><img src = 'uspos/2040.bmp' width = '100%;'></div><div class = 'column'><img src = 'category1/CS3.png' width = '70%;'></div></div>","null","pos","CS","CS","1","category1/CS3.png","","","","",""
"","html-keyboard-response","49","233322","0.0-6.0-4.0-0.1","9fgt8h1wkv","many_one","0","direct_first","1","ia4la122","0","23","1","1","3","1","","0","1","0","null","","","<div class = 'row'><div class = 'column'><img src = 'category3/CS7.png' width = '70%;'></div><div class = 'column'><img src = 'usneg/6020.bmp' width = '100%;'></div></div>","null","neg","CS","CS","3","category3/CS7.png","","","","",""
"","html-keyboard-response","50","235829","0.0-6.0-4.0-0.2","9fgt8h1wkv","many_one","0","direct_first","1","ia4la122","0","23","1","1","3","1","","0","1","0","null","","","<div class = 'row'><div class = 'column'><img src = 'category3/CS4.png' width = '70%;'></div><div class = 'column'><img src = 'usneg/6838.bmp' width = '100%;'></div></div>","null","neg","CS","CS","3","category3/CS4.png","","","","",""
"","html-keyboard-response","51","238342","0.0-6.0-4.0-0.3","9fgt8h1wkv","many_one","0","direct_first","1","ia4la122","0","23","1","1","3","1","","0","1","0","null","","","<div class = 'row'><div class = 'column'><img src = 'usneg/9520.bmp' width = '100%;'></div><div class = 'column'><img src = 'category3/CS9.png' width = '70%;'></div></div>","null","neg","CS","CS","3","category3/CS9.png","","","","",""
"","html-keyboard-response","52","240859","0.0-6.0-4.0-0.4","9fgt8h1wkv","many_one","0","direct_first","1","ia4la122","0","23","1","1","3","1","","0","1","0","null","","","<div class = 'row'><div class = 'column'><img src = 'category4/CS8.png' width = '70%;'></div><div class = 'column'><img src = 'usneg/9041.bmp' width = '100%;'></div></div>","null","neg","CS","CS","4","category4/CS8.png","","","","",""
"","html-keyboard-response","53","243374","0.0-6.0-4.0-0.5","9fgt8h1wkv","many_one","0","direct_first","1","ia4la122","0","23","1","1","3","1","","0","1","0","null","","","<div class = 'row'><div class = 'column'><img src = 'usneg/9560.bmp' width = '100%;'></div><div class = 'column'><img src = 'category4/CS4.png' width = '70%;'></div></div>","null","neg","CS","CS","4","category4/CS4.png","","","","",""
"","html-keyboard-response","54","245878","0.0-6.0-4.0-0.6","9fgt8h1wkv","many_one","0","direct_first","1","ia4la122","0","23","1","1","3","1","","0","1","0","null","","","<div class = 'row'><div class = 'column'><img src = 'usneg/2900.bmp' width = '100%;'></div><div class = 'column'><img src = 'category4/CS6.png' width = '70%;'></div></div>","null","neg","CS","CS","4","category4/CS6.png","","","","",""
"","html-keyboard-response","55","248395","0.0-6.0-4.0-0.7","9fgt8h1wkv","many_one","0","direct_first","1","ia4la122","0","23","1","1","3","1","","0","1","0","null","","","<div class = 'row'><div class = 'column'><img src = 'category4/CS9.png' width = '70%;'></div><div class = 'column'><img src = 'usneg/3160.bmp' width = '100%;'></div></div>","null","neg","CS","CS","4","category4/CS9.png","","","","",""
"","html-keyboard-response","56","250909","0.0-6.0-4.0-0.8","9fgt8h1wkv","many_one","0","direct_first","1","ia4la122","0","23","1","1","3","1","","0","1","0","null","","","<div class = 'row'><div class = 'column'><img src = 'uspos/5621.bmp' width = '100%;'></div><div class = 'column'><img src = 'category1/CS6.png' width = '70%;'></div></div>","null","pos","CS","CS","1","category1/CS6.png","","","","",""
"","html-keyboard-response","57","253424","0.0-6.0-4.0-0.9","9fgt8h1wkv","many_one","0","direct_first","1","ia4la122","0","23","1","1","3","1","","0","1","0","null","","","<div class = 'row'><div class = 'column'><img src = 'uspos/2311.bmp' width = '100%;'></div><div class = 'column'><img src = 'category1/CS8.png' width = '70%;'></div></div>","null","pos","CS","CS","1","category1/CS8.png","","","","",""
"","html-keyboard-response","58","255938","0.0-6.0-4.0-0.10","9fgt8h1wkv","many_one","0","direct_first","1","ia4la122","0","23","1","1","3","1","","0","1","0","null","","","<div class = 'row'><div class = 'column'><img src = 'category3/CS3.png' width = '70%;'></div><div class = 'column'><img src = 'usneg/9050.bmp' width = '100%;'></div></div>","null","neg","CS","CS","3","category3/CS3.png","","","","",""
"","html-keyboard-response","59","258455","0.0-6.0-4.0-0.11","9fgt8h1wkv","many_one","0","direct_first","1","ia4la122","0","23","1","1","3","1","","0","1","0","null","","","<div class = 'row'><div class = 'column'><img src = 'uspos/5470.bmp' width = '100%;'></div><div class = 'column'><img src = 'category2/CS1.png' width = '70%;'></div></div>","null","pos","CS","CS","2","category2/CS1.png","","","","",""
"","html-keyboard-response","60","260968","0.0-6.0-4.0-0.12","9fgt8h1wkv","many_one","0","direct_first","1","ia4la122","0","23","1","1","3","1","","0","1","0","null","","","<div class = 'row'><div class = 'column'><img src = 'uspos/2057.bmp' width = '100%;'></div><div class = 'column'><img src = 'category2/CS9.png' width = '70%;'></div></div>","null","pos","CS","CS","2","category2/CS9.png","","","","",""
"","html-keyboard-response","61","263472","0.0-6.0-4.0-0.13","9fgt8h1wkv","many_one","0","direct_first","1","ia4la122","0","23","1","1","3","1","","0","1","0","null","","","<div class = 'row'><div class = 'column'><img src = 'uspos/8080.bmp' width = '100%;'></div><div class = 'column'><img src = 'category2/CS10.png' width = '70%;'></div></div>","null","pos","CS","CS","2","category2/CS10.png","","","","",""
"","html-keyboard-response","62","265984","0.0-6.0-4.0-0.14","9fgt8h1wkv","many_one","0","direct_first","1","ia4la122","0","23","1","1","3","1","","0","1","0","null","","","<div class = 'row'><div class = 'column'><img src = 'uspos/1460.bmp' width = '100%;'></div><div class = 'column'><img src = 'category2/CS8.png' width = '70%;'></div></div>","null","pos","CS","CS","2","category2/CS8.png","","","","",""
"","html-keyboard-response","63","268497","0.0-6.0-4.0-0.15","9fgt8h1wkv","many_one","0","direct_first","1","ia4la122","0","23","1","1","3","1","","0","1","0","null","","","<div class = 'row'><div class = 'column'><img src = 'usneg/9280.bmp' width = '100%;'></div><div class = 'column'><img src = 'category4/CS10.png' width = '70%;'></div></div>","null","neg","CS","CS","4","category4/CS10.png","","","","",""
"","html-keyboard-response","64","271010","0.0-6.0-4.0-0.16","9fgt8h1wkv","many_one","0","direct_first","1","ia4la122","0","23","1","1","3","1","","0","1","0","null","","","<div class = 'row'><div class = 'column'><img src = 'uspos/2160.bmp' width = '100%;'></div><div class = 'column'><img src = 'category1/CS7.png' width = '70%;'></div></div>","null","pos","CS","CS","1","category1/CS7.png","","","","",""
"","html-keyboard-response","65","273520","0.0-6.0-4.0-0.17","9fgt8h1wkv","many_one","0","direct_first","1","ia4la122","0","23","1","1","3","1","","0","1","0","null","","","<div class = 'row'><div class = 'column'><img src = 'category1/CS1.png' width = '70%;'></div><div class = 'column'><img src = 'uspos/2530.bmp' width = '100%;'></div></div>","null","pos","CS","CS","1","category1/CS1.png","","","","",""
"","html-keyboard-response","66","276036","0.0-6.0-4.0-0.18","9fgt8h1wkv","many_one","0","direct_first","1","ia4la122","0","23","1","1","3","1","","0","1","0","null","","","<div class = 'row'><div class = 'column'><img src = 'category3/CS1.png' width = '70%;'></div><div class = 'column'><img src = 'usneg/9584.bmp' width = '100%;'></div></div>","null","neg","CS","CS","3","category3/CS1.png","","","","",""
"","html-keyboard-response","67","278555","0.0-6.0-4.0-0.19","9fgt8h1wkv","many_one","0","direct_first","1","ia4la122","0","23","1","1","3","1","","0","1","0","null","","","<div class = 'row'><div class = 'column'><img src = 'category2/CS3.png' width = '70%;'></div><div class = 'column'><img src = 'uspos/1440.bmp' width = '100%;'></div></div>","null","pos","CS","CS","2","category2/CS3.png","","","","",""
"","survey-html-form","68","281559","0.0-6.0-5.0","9fgt8h1wkv","many_one","0","direct_first","1","ia4la122","0","23","1","1","3","1","","0","1","0","2497.104999842122","","{}","","","","","","","","","","","",""
"","html-keyboard-response","69","285569","0.0-6.0-6.0-0.0","9fgt8h1wkv","many_one","0","direct_first","1","ia4la122","0","23","1","1","3","1","","0","1","0","null","","","<div class = 'row'><div class = 'column'><img src = 'category4/CS10.png' width = '70%;'></div><div class = 'column'><img src = 'usneg/9280.bmp' width = '100%;'></div></div>","null","neg","CS","CS","4","category4/CS10.png","","","","",""
"","html-keyboard-response","70","288082","0.0-6.0-6.0-0.1","9fgt8h1wkv","many_one","0","direct_first","1","ia4la122","0","23","1","1","3","1","","0","1","0","null","","","<div class = 'row'><div class = 'column'><img src = 'usneg/3160.bmp' width = '100%;'></div><div class = 'column'><img src = 'category4/CS9.png' width = '70%;'></div></div>","null","neg","CS","CS","4","category4/CS9.png","","","","",""
"","html-keyboard-response","71","290615","0.0-6.0-6.0-0.2","9fgt8h1wkv","many_one","0","direct_first","1","ia4la122","0","23","1","1","3","1","","0","1","0","null","","","<div class = 'row'><div class = 'column'><img src = 'usneg/9520.bmp' width = '100%;'></div><div class = 'column'><img src = 'category3/CS9.png' width = '70%;'></div></div>","null","neg","CS","CS","3","category3/CS9.png","","","","",""
"","html-keyboard-response","72","293125","0.0-6.0-6.0-0.3","9fgt8h1wkv","many_one","0","direct_first","1","ia4la122","0","23","1","1","3","1","","0","1","0","null","","","<div class = 'row'><div class = 'column'><img src = 'category2/CS9.png' width = '70%;'></div><div class = 'column'><img src = 'uspos/2057.bmp' width = '100%;'></div></div>","null","pos","CS","CS","2","category2/CS9.png","","","","",""
"","html-keyboard-response","73","295648","0.0-6.0-6.0-0.4","9fgt8h1wkv","many_one","0","direct_first","1","ia4la122","0","23","1","1","3","1","","0","1","0","null","","","<div class = 'row'><div class = 'column'><img src = 'uspos/1440.bmp' width = '100%;'></div><div class = 'column'><img src = 'category2/CS3.png' width = '70%;'></div></div>","null","pos","CS","CS","2","category2/CS3.png","","","","",""
"","html-keyboard-response","74","298163","0.0-6.0-6.0-0.5","9fgt8h1wkv","many_one","0","direct_first","1","ia4la122","0","23","1","1","3","1","","0","1","0","null","","","<div class = 'row'><div class = 'column'><img src = 'uspos/2160.bmp' width = '100%;'></div><div class = 'column'><img src = 'category1/CS7.png' width = '70%;'></div></div>","null","pos","CS","CS","1","category1/CS7.png","","","","",""
"","html-keyboard-response","75","300675","0.0-6.0-6.0-0.6","9fgt8h1wkv","many_one","0","direct_first","1","ia4la122","0","23","1","1","3","1","","0","1","0","null","","","<div class = 'row'><div class = 'column'><img src = 'category3/CS1.png' width = '70%;'></div><div class = 'column'><img src = 'usneg/9584.bmp' width = '100%;'></div></div>","null","neg","CS","CS","3","category3/CS1.png","","","","",""
"","html-keyboard-response","76","303188","0.0-6.0-6.0-0.7","9fgt8h1wkv","many_one","0","direct_first","1","ia4la122","0","23","1","1","3","1","","0","1","0","null","","","<div class = 'row'><div class = 'column'><img src = 'usneg/2900.bmp' width = '100%;'></div><div class = 'column'><img src = 'category4/CS6.png' width = '70%;'></div></div>","null","neg","CS","CS","4","category4/CS6.png","","","","",""
"","html-keyboard-response","77","305703","0.0-6.0-6.0-0.8","9fgt8h1wkv","many_one","0","direct_first","1","ia4la122","0","23","1","1","3","1","","0","1","0","null","","","<div class = 'row'><div class = 'column'><img src = 'uspos/2040.bmp' width = '100%;'></div><div class = 'column'><img src = 'category1/CS3.png' width = '70%;'></div></div>","null","pos","CS","CS","1","category1/CS3.png","","","","",""
"","html-keyboard-response","78","308219","0.0-6.0-6.0-0.9","9fgt8h1wkv","many_one","0","direct_first","1","ia4la122","0","23","1","1","3","1","","0","1","0","null","","","<div class = 'row'><div class = 'column'><img src = 'category2/CS1.png' width = '70%;'></div><div class = 'column'><img src = 'uspos/5470.bmp' width = '100%;'></div></div>","null","pos","CS","CS","2","category2/CS1.png","","","","",""
"","html-keyboard-response","79","310737","0.0-6.0-6.0-0.10","9fgt8h1wkv","many_one","0","direct_first","1","ia4la122","0","23","1","1","3","1","","0","1","0","null","","","<div class = 'row'><div class = 'column'><img src = 'usneg/6020.bmp' width = '100%;'></div><div class = 'column'><img src = 'category3/CS7.png' width = '70%;'></div></div>","null","neg","CS","CS","3","category3/CS7.png","","","","",""
"","html-keyboard-response","80","313246","0.0-6.0-6.0-0.11","9fgt8h1wkv","many_one","0","direct_first","1","ia4la122","0","23","1","1","3","1","","0","1","0","null","","","<div class = 'row'><div class = 'column'><img src = 'category3/CS4.png' width = '70%;'></div><div class = 'column'><img src = 'usneg/6838.bmp' width = '100%;'></div></div>","null","neg","CS","CS","3","category3/CS4.png","","","","",""
"","html-keyboard-response","81","315760","0.0-6.0-6.0-0.12","9fgt8h1wkv","many_one","0","direct_first","1","ia4la122","0","23","1","1","3","1","","0","1","0","null","","","<div class = 'row'><div class = 'column'><img src = 'category4/CS8.png' width = '70%;'></div><div class = 'column'><img src = 'usneg/9041.bmp' width = '100%;'></div></div>","null","neg","CS","CS","4","category4/CS8.png","","","","",""
"","html-keyboard-response","82","318273","0.0-6.0-6.0-0.13","9fgt8h1wkv","many_one","0","direct_first","1","ia4la122","0","23","1","1","3","1","","0","1","0","null","","","<div class = 'row'><div class = 'column'><img src = 'uspos/8080.bmp' width = '100%;'></div><div class = 'column'><img src = 'category2/CS10.png' width = '70%;'></div></div>","null","pos","CS","CS","2","category2/CS10.png","","","","",""
"","html-keyboard-response","83","320791","0.0-6.0-6.0-0.14","9fgt8h1wkv","many_one","0","direct_first","1","ia4la122","0","23","1","1","3","1","","0","1","0","null","","","<div class = 'row'><div class = 'column'><img src = 'usneg/9560.bmp' width = '100%;'></div><div class = 'column'><img src = 'category4/CS4.png' width = '70%;'></div></div>","null","neg","CS","CS","4","category4/CS4.png","","","","",""
"","html-keyboard-response","84","323307","0.0-6.0-6.0-0.15","9fgt8h1wkv","many_one","0","direct_first","1","ia4la122","0","23","1","1","3","1","","0","1","0","null","","","<div class = 'row'><div class = 'column'><img src = 'uspos/2530.bmp' width = '100%;'></div><div class = 'column'><img src = 'category1/CS1.png' width = '70%;'></div></div>","null","pos","CS","CS","1","category1/CS1.png","","","","",""
"","html-keyboard-response","85","325818","0.0-6.0-6.0-0.16","9fgt8h1wkv","many_one","0","direct_first","1","ia4la122","0","23","1","1","3","1","","0","1","0","null","","","<div class = 'row'><div class = 'column'><img src = 'category2/CS8.png' width = '70%;'></div><div class = 'column'><img src = 'uspos/1460.bmp' width = '100%;'></div></div>","null","pos","CS","CS","2","category2/CS8.png","","","","",""
"","html-keyboard-response","86","328333","0.0-6.0-6.0-0.17","9fgt8h1wkv","many_one","0","direct_first","1","ia4la122","0","23","1","1","3","1","","0","1","0","null","","","<div class = 'row'><div class = 'column'><img src = 'category3/CS3.png' width = '70%;'></div><div class = 'column'><img src = 'usneg/9050.bmp' width = '100%;'></div></div>","null","neg","CS","CS","3","category3/CS3.png","","","","",""
"","html-keyboard-response","87","330846","0.0-6.0-6.0-0.18","9fgt8h1wkv","many_one","0","direct_first","1","ia4la122","0","23","1","1","3","1","","0","1","0","null","","","<div class = 'row'><div class = 'column'><img src = 'uspos/5621.bmp' width = '100%;'></div><div class = 'column'><img src = 'category1/CS6.png' width = '70%;'></div></div>","null","pos","CS","CS","1","category1/CS6.png","","","","",""
"","html-keyboard-response","88","333366","0.0-6.0-6.0-0.19","9fgt8h1wkv","many_one","0","direct_first","1","ia4la122","0","23","1","1","3","1","","0","1","0","null","","","<div class = 'row'><div class = 'column'><img src = 'category1/CS8.png' width = '70%;'></div><div class = 'column'><img src = 'uspos/2311.bmp' width = '100%;'></div></div>","null","pos","CS","CS","1","category1/CS8.png","","","","",""
"","survey-html-form","89","339058","0.0-7.0","9fgt8h1wkv","many_one","0","direct_first","1","ia4la122","0","23","1","1","3","1","","0","1","0","5190.205000108108","","{}","","","","","","","","","","","",""
"","image-slider-response","90","344984","0.0-8.0-0.0","9fgt8h1wkv","many_one","0","direct_first","1","ia4la122","0","23","1","1","3","1","","0","1","0","3913.694999879226","","","","","neg","GS","GSnew","3","category3/GS3.png","-62","targets/28.png","direct","",""
"","image-slider-response","91","349244","0.0-8.0-0.1","9fgt8h1wkv","many_one","0","direct_first","1","ia4la122","0","23","1","1","3","1","","0","1","0","4258.314999984577","","","","","neg","GS","GSnew","4","category4/GS2.png","-38","targets/26.png","direct","",""
"","image-slider-response","92","352682","0.0-8.0-0.2","9fgt8h1wkv","many_one","0","direct_first","1","ia4la122","0","23","1","1","3","1","","0","1","0","3435.9049999620765","","","","","neg","CS","CS","4","category4/CS10.png","-4","targets/5.png","direct","",""
"","image-slider-response","93","356278","0.0-8.0-0.3","9fgt8h1wkv","many_one","0","direct_first","1","ia4la122","0","23","1","1","3","1","","0","1","0","3594.905000180006","","","","","neg","GS","abstract","3","category3/wang.png","-48","targets/39.png","direct","",""
"","image-slider-response","94","358304","0.0-8.0-0.4","9fgt8h1wkv","many_one","0","direct_first","1","ia4la122","0","23","1","1","3","1","","0","1","0","2023.8599998410791","","","","","pos","GS","GSnew","1","category1/GS3.png","-46","targets/37.png","direct","",""
"","image-slider-response","95","360000","0.0-8.0-0.5","9fgt8h1wkv","many_one","0","direct_first","1","ia4la122","0","23","1","1","3","1","","0","1","0","1694.724999833852","","","","","pos","CS","CS","1","category1/CS1.png","-54","targets/12.png","direct","",""
"","image-slider-response","96","361608","0.0-8.0-0.6","9fgt8h1wkv","many_one","0","direct_first","1","ia4la122","0","23","1","1","3","1","","0","1","0","1606.3050001394004","","","","","neg","GS","GSnew","3","category3/GS1.png","23","targets/2.png","direct","",""
"","image-slider-response","97","363296","0.0-8.0-0.7","9fgt8h1wkv","many_one","0","direct_first","1","ia4la122","0","23","1","1","3","1","","0","1","0","1686.7649999912828","","","","","neg","GS","GSold","4","category4/CS2.png","26","targets/16.png","direct","",""
"","image-slider-response","98","364552","0.0-8.0-0.8","9fgt8h1wkv","many_one","0","direct_first","1","ia4la122","0","23","1","1","3","1","","0","1","0","1255.0199998077005","","","","","pos","GS","GSold","2","category2/CS4.png","20","targets/1.png","direct","",""
"","image-slider-response","99","365994","0.0-8.0-0.9","9fgt8h1wkv","many_one","0","direct_first","1","ia4la122","0","23","1","1","3","1","","0","1","0","1440.6949998810887","","","","","neg","CS","CS","4","category4/CS8.png","37","targets/15.png","direct","",""
"","image-slider-response","100","367674","0.0-8.0-0.10","9fgt8h1wkv","many_one","0","direct_first","1","ia4la122","0","23","1","1","3","1","","0","1","0","1678.3999998588115","","","","","pos","GS","GSold","2","category2/CS5.png","-38","targets/23.png","direct","",""
"","image-slider-response","101","368826","0.0-8.0-0.11","9fgt8h1wkv","many_one","0","direct_first","1","ia4la122","0","23","1","1","3","1","","0","1","0","1150.9750001132488","","","","","pos","GS","GSold","1","category1/CS4.png","48","targets/36.png","direct","",""
"","image-slider-response","102","370582","0.0-8.0-0.12","9fgt8h1wkv","many_one","0","direct_first","1","ia4la122","0","23","1","1","3","1","","0","1","0","1754.3999999761581","","","","","neg","GS","GSnew","3","category3/GS2.png","-45","targets/33.png","direct","",""
"","image-slider-response","103","372086","0.0-8.0-0.13","9fgt8h1wkv","many_one","0","direct_first","1","ia4la122","0","23","1","1","3","1","","0","1","0","1502.4700001813471","","","","","neg","GS","GSold","3","category3/CS2.png","-34","targets/18.png","direct","",""
"","image-slider-response","104","373656","0.0-8.0-0.14","9fgt8h1wkv","many_one","0","direct_first","1","ia4la122","0","23","1","1","3","1","","0","1","0","1568.3949999511242","","","","","neg","CS","CS","4","category4/CS6.png","-64","targets/42.png","direct","",""
"","image-slider-response","105","375232","0.0-8.0-0.15","9fgt8h1wkv","many_one","0","direct_first","1","ia4la122","0","23","1","1","3","1","","0","1","0","1574.9949999153614","","","","","pos","GS","GSold","1","category1/CS2.png","30","targets/45.png","direct","",""
"","image-slider-response","106","377404","0.0-8.0-0.16","9fgt8h1wkv","many_one","0","direct_first","1","ia4la122","0","23","1","1","3","1","","0","1","0","2170.864999992773","","","","","pos","CS","CS","2","category2/CS1.png","25","targets/4.png","direct","",""
"","image-slider-response","107","378876","0.0-8.0-0.17","9fgt8h1wkv","many_one","0","direct_first","1","ia4la122","0","23","1","1","3","1","","0","1","0","1470.3000001609325","","","","","neg","GS","GSold","4","category4/CS3.png","25","targets/30.png","direct","",""
"","image-slider-response","108","380918","0.0-8.0-0.18","9fgt8h1wkv","many_one","0","direct_first","1","ia4la122","0","23","1","1","3","1","","0","1","0","2040.7149998936802","","","","","neg","CS","CS","3","category3/CS9.png","-61","targets/46.png","direct","",""
"","image-slider-response","109","382483","0.0-8.0-0.19","9fgt8h1wkv","many_one","0","direct_first","1","ia4la122","0","23","1","1","3","1","","0","1","0","1562.9799999296665","","","","","neg","CS","CS","4","category4/CS9.png","-52","targets/17.png","direct","",""
"","image-slider-response","110","383930","0.0-8.0-0.20","9fgt8h1wkv","many_one","0","direct_first","1","ia4la122","0","23","1","1","3","1","","0","1","0","1445.4449999611825","","","","","neg","CS","CS","4","category4/CS4.png","-38","targets/35.png","direct","",""
"","image-slider-response","111","385526","0.0-8.0-0.21","9fgt8h1wkv","many_one","0","direct_first","1","ia4la122","0","23","1","1","3","1","","0","1","0","1594.844999955967","","","","","pos","GS","GSold","1","category1/CS10.png","-33","targets/14.png","direct","",""
"","image-slider-response","112","386846","0.0-8.0-0.22","9fgt8h1wkv","many_one","0","direct_first","1","ia4la122","0","23","1","1","3","1","","0","1","0","1318.5400001239032","","","","","pos","CS","CS","1","category1/CS8.png","33","targets/7.png","direct","",""
"","image-slider-response","113","387792","0.0-8.0-0.23","9fgt8h1wkv","many_one","0","direct_first","1","ia4la122","0","23","1","1","3","1","","0","1","0","944.920000154525","","","","","pos","CS","CS","1","category1/CS6.png","15","targets/13.png","direct","",""
"","image-slider-response","114","390684","0.0-8.0-0.24","9fgt8h1wkv","many_one","0","direct_first","1","ia4la122","0","23","1","1","3","1","","0","1","0","2890.485000098124","","","","","pos","GS","GSold","2","category2/CS7.png","17","targets/22.png","direct","",""
"","image-slider-response","115","391800","0.0-8.0-0.25","9fgt8h1wkv","many_one","0","direct_first","1","ia4la122","0","23","1","1","3","1","","0","1","0","1115.0050000287592","","","","","pos","GS","GSnew","2","category2/GS1.png","22","targets/29.png","direct","",""
"","image-slider-response","116","394168","0.0-8.0-0.26","9fgt8h1wkv","many_one","0","direct_first","1","ia4la122","0","23","1","1","3","1","","0","1","0","2366.6350001003593","","","","","pos","CS","CS","1","category1/CS7.png","-64","targets/43.png","direct","",""
"","image-slider-response","117","395678","0.0-8.0-0.27","9fgt8h1wkv","many_one","0","direct_first","1","ia4la122","0","23","1","1","3","1","","0","1","0","1508.6450001690537","","","","","neg","CS","CS","3","category3/CS7.png","-47","targets/9.png","direct","",""
"","image-slider-response","118","397398","0.0-8.0-0.28","9fgt8h1wkv","many_one","0","direct_first","1","ia4la122","0","23","1","1","3","1","","0","1","0","1718.4500000439584","","","","","pos","CS","CS","2","category2/CS8.png","-48","targets/20.png","direct","",""
"","image-slider-response","119","399410","0.0-8.0-0.29","9fgt8h1wkv","many_one","0","direct_first","1","ia4la122","0","23","1","1","3","1","","0","1","0","2010.7950000092387","","","","","neg","GS","GSold","3","category3/CS8.png","-63","targets/6.png","direct","",""
"","image-slider-response","120","400710","0.0-8.0-0.30","9fgt8h1wkv","many_one","0","direct_first","1","ia4la122","0","23","1","1","3","1","","0","1","0","1298.6699999310076","","","","","neg","CS","CS","3","category3/CS1.png","-58","targets/31.png","direct","",""
"","image-slider-response","121","402056","0.0-8.0-0.31","9fgt8h1wkv","many_one","0","direct_first","1","ia4la122","0","23","1","1","3","1","","0","1","0","1344.8099999222904","","","","","neg","GS","GSnew","4","category4/GS1.png","-56","targets/41.png","direct","",""
"","image-slider-response","122","403800","0.0-8.0-0.32","9fgt8h1wkv","many_one","0","direct_first","1","ia4la122","0","23","1","1","3","1","","0","1","0","1742.704999865964","","","","","pos","CS","CS","2","category2/CS3.png","-48","targets/47.png","direct","",""
"","image-slider-response","123","405012","0.0-8.0-0.33","9fgt8h1wkv","many_one","0","direct_first","1","ia4la122","0","23","1","1","3","1","","0","1","0","1210.81000007689","","","","","neg","GS","abstract","4","category4/lin.png","17","targets/44.png","direct","",""
"","image-slider-response","124","406532","0.0-8.0-0.34","9fgt8h1wkv","many_one","0","direct_first","1","ia4la122","0","23","1","1","3","1","","0","1","0","1518.7299998942763","","","","","neg","GS","GSold","3","category3/CS6.png","-57","targets/21.png","direct","",""
"","image-slider-response","125","408036","0.0-8.0-0.35","9fgt8h1wkv","many_one","0","direct_first","1","ia4la122","0","23","1","1","3","1","","0","1","0","1502.9349999967963","","","","","pos","GS","GSnew","2","category2/GS3.png","32","targets/38.png","direct","",""
"","image-slider-response","126","409264","0.0-8.0-0.36","9fgt8h1wkv","many_one","0","direct_first","1","ia4la122","0","23","1","1","3","1","","0","1","0","1226.7449998762459","","","","","pos","CS","CS","1","category1/CS3.png","-38","targets/27.png","direct","",""
"","image-slider-response","127","410326","0.0-8.0-0.37","9fgt8h1wkv","many_one","0","direct_first","1","ia4la122","0","23","1","1","3","1","","0","1","0","1060.3549999650568","","","","","pos","CS","CS","2","category2/CS9.png","-43","targets/34.png","direct","",""
"","image-slider-response","128","412042","0.0-8.0-0.38","9fgt8h1wkv","many_one","0","direct_first","1","ia4la122","0","23","1","1","3","1","","0","1","0","1714.3749999813735","","","","","neg","GS","GSnew","4","category4/GS3.png","-52","targets/48.png","direct","",""
"","image-slider-response","129","414810","0.0-8.0-0.39","9fgt8h1wkv","many_one","0","direct_first","1","ia4la122","0","23","1","1","3","1","","0","1","0","2766.7449999134988","","","","","neg","GS","GSold","4","category4/CS7.png","-54","targets/10.png","direct","",""
"","image-slider-response","130","416326","0.0-8.0-0.40","9fgt8h1wkv","many_one","0","direct_first","1","ia4la122","0","23","1","1","3","1","","0","1","0","1514.729999937117","","","","","pos","GS","GSnew","2","category2/GS2.png","35","targets/3.png","direct","",""
"","image-slider-response","131","417884","0.0-8.0-0.41","9fgt8h1wkv","many_one","0","direct_first","1","ia4la122","0","23","1","1","3","1","","0","1","0","1556.2700000591576","","","","","neg","CS","CS","3","category3/CS3.png","-38","targets/19.png","direct","",""
"","image-slider-response","132","419464","0.0-8.0-0.42","9fgt8h1wkv","many_one","0","direct_first","1","ia4la122","0","23","1","1","3","1","","0","1","0","1578.7400000263005","","","","","neg","CS","CS","3","category3/CS4.png","-44","targets/11.png","direct","",""
"","image-slider-response","133","421040","0.0-8.0-0.43","9fgt8h1wkv","many_one","0","direct_first","1","ia4la122","0","23","1","1","3","1","","0","1","0","1574.2450000252575","","","","","pos","GS","abstract","2","category2/men.png","35","targets/24.png","direct","",""
"","image-slider-response","134","422812","0.0-8.0-0.44","9fgt8h1wkv","many_one","0","direct_first","1","ia4la122","0","23","1","1","3","1","","0","1","0","1771.0549999028444","","","","","pos","CS","CS","2","category2/CS10.png","-44","targets/32.png","direct","",""
"","image-slider-response","135","424810","0.0-8.0-0.45","9fgt8h1wkv","many_one","0","direct_first","1","ia4la122","0","23","1","1","3","1","","0","1","0","1996.8349998816848","","","","","pos","GS","GSnew","1","category1/GS1.png","-59","targets/25.png","direct","",""
"","image-slider-response","136","426302","0.0-8.0-0.46","9fgt8h1wkv","many_one","0","direct_first","1","ia4la122","0","23","1","1","3","1","","0","1","0","1490.9850000403821","","","","","pos","GS","abstract","1","category1/ma.png","-40","targets/40.png","direct","",""
"","image-slider-response","137","427674","0.0-8.0-0.47","9fgt8h1wkv","many_one","0","direct_first","1","ia4la122","0","23","1","1","3","1","","0","1","0","1370.6600000150502","","","","","pos","GS","GSnew","1","category1/GS2.png","-55","targets/8.png","direct","",""
"","html-keyboard-response","138","442650","0.0-9.0","9fgt8h1wkv","many_one","0","direct_first","1","ia4la122","0","23","1","1","3","1","","0","1","0","14975.855000084266","","","<p>Sie sehen nun die chinesischen Zeichen nur ganz kurz. Danach sehen Sie die jeweilige Aussprache der Zeichen als Silbe auf dem Bildschrim. Ihre Aufgabe ist es, für jede Silbe anzugeben, ob diese etwas angenehmes, oder unangenehmes bedeuten könnte. Verlassen Sie sich hier vor allem auf Ihre Intuition.<br><br>Die Zeichen werden nur zur Orientierung dargestellt, beachten Sie sie deshalb nicht. Konzentrieren Sie sich vor allem auf die Silben. <br>Reagieren Sie mit folgenden zwei Tasten: <br><br><b>'D' </b> wenn die Silbe etwas <b>unangenehmes</b> bedeuten könnte. <br><b>'K'</b> wenn die Silbe etwas <b>angenehmes</b> bedeuten könnte. <br><br>Bitte legen Sie nun den Zeigefinger der linken Hand auf die Taste 'D' und den Zeigefinger der rechten Hand auf die Taste 'K'. <br>Reagieren Sie auf jede Silbe so schnell wie möglich. Uns interessiert Ihre spontane Reaktion. <br> <br> <br>Drücken Sie 'D' oder 'K', um die nächste Aufgabe zu starten. </p>","68","","","","","","","","","",""
"","html-keyboard-response","139","445656","0.0-10.0-0.0","9fgt8h1wkv","many_one","0","direct_first","1","ia4la122","0","23","1","1","3","1","","0","1","0","null","","","<div style=""font-size:60px;"">+</div>","null","","","","","","","","","",""
"","html-keyboard-response","140","445749","0.0-10.0-1.0","9fgt8h1wkv","many_one","0","direct_first","1","ia4la122","0","23","1","1","3","1","","0","1","0","null","","","<img src = 'category2/CS9.png' width = '100%;'>","null","","","","","","","","","",""
"","html-keyboard-response","141","446016","0.0-10.0-2.0","9fgt8h1wkv","many_one","0","direct_first","1","ia4la122","0","23","1","1","3","1","","0","1","0","null","","","<img src = 'targets/34.png' width = '100%;'>","null","","","","","","","","","",""
"","html-keyboard-response","142","447062","0.0-10.0-3.0","9fgt8h1wkv","many_one","0","direct_first","1","ia4la122","0","23","1","1","3","1","","0","1","0","1045.1299999840558","","","<img src = 'targets/mask.png' width = '100%;'>","68","pos","CS","CS","2","category2/CS9.png","","targets/34.png","indirect","0","0"
"","html-keyboard-response","143","448568","0.0-10.0-0.1","9fgt8h1wkv","many_one","0","direct_first","1","ia4la122","0","23","1","1","3","1","","0","1","0","null","","","<div style=""font-size:60px;"">+</div>","null","","","","","","","","","",""
"","html-keyboard-response","144","448664","0.0-10.0-1.1","9fgt8h1wkv","many_one","0","direct_first","1","ia4la122","0","23","1","1","3","1","","0","1","0","null","","","<img src = 'category2/CS1.png' width = '100%;'>","null","","","","","","","","","",""
"","html-keyboard-response","145","448917","0.0-10.0-2.1","9fgt8h1wkv","many_one","0","direct_first","1","ia4la122","0","23","1","1","3","1","","0","1","0","null","","","<img src = 'targets/4.png' width = '100%;'>","null","","","","","","","","","",""
"","html-keyboard-response","146","449810","0.0-10.0-3.1","9fgt8h1wkv","many_one","0","direct_first","1","ia4la122","0","23","1","1","3","1","","0","1","0","892.2549998387694","","","<img src = 'targets/mask.png' width = '100%;'>","75","pos","CS","CS","2","category2/CS1.png","","targets/4.png","indirect","1","1"
"","html-keyboard-response","147","451315","0.0-10.0-0.2","9fgt8h1wkv","many_one","0","direct_first","1","ia4la122","0","23","1","1","3","1","","0","1","0","null","","","<div style=""font-size:60px;"">+</div>","null","","","","","","","","","",""
"","html-keyboard-response","148","451408","0.0-10.0-1.2","9fgt8h1wkv","many_one","0","direct_first","1","ia4la122","0","23","1","1","3","1","","0","1","0","null","","","<img src = 'category2/CS8.png' width = '100%;'>","null","","","","","","","","","",""
"","html-keyboard-response","149","451661","0.0-10.0-2.2","9fgt8h1wkv","many_one","0","direct_first","1","ia4la122","0","23","1","1","3","1","","0","1","0","null","","","<img src = 'targets/20.png' width = '100%;'>","null","","","","","","","","","",""
"","html-keyboard-response","150","452229","0.0-10.0-3.2","9fgt8h1wkv","many_one","0","direct_first","1","ia4la122","0","23","1","1","3","1","","0","1","0","567.4799999687821","","","<img src = 'targets/mask.png' width = '100%;'>","75","pos","CS","CS","2","category2/CS8.png","","targets/20.png","indirect","1","2"
"","html-keyboard-response","151","453747","0.0-10.0-0.3","9fgt8h1wkv","many_one","0","direct_first","1","ia4la122","0","23","1","1","3","1","","0","1","0","null","","","<div style=""font-size:60px;"">+</div>","null","","","","","","","","","",""
"","html-keyboard-response","152","453848","0.0-10.0-1.3","9fgt8h1wkv","many_one","0","direct_first","1","ia4la122","0","23","1","1","3","1","","0","1","0","null","","","<img src = 'category3/CS4.png' width = '100%;'>","null","","","","","","","","","",""
"","html-keyboard-response","153","454100","0.0-10.0-2.3","9fgt8h1wkv","many_one","0","direct_first","1","ia4la122","0","23","1","1","3","1","","0","1","0","null","","","<img src = 'targets/11.png' width = '100%;'>","null","","","","","","","","","",""
"","html-keyboard-response","154","454726","0.0-10.0-3.3","9fgt8h1wkv","many_one","0","direct_first","1","ia4la122","0","23","1","1","3","1","","0","1","0","624.7250000014901","","","<img src = 'targets/mask.png' width = '100%;'>","75","neg","CS","CS","3","category3/CS4.png","","targets/11.png","indirect","1","3"
"","html-keyboard-response","155","456242","0.0-10.0-0.4","9fgt8h1wkv","many_one","0","direct_first","1","ia4la122","0","23","1","1","3","1","","0","1","0","null","","","<div style=""font-size:60px;"">+</div>","null","","","","","","","","","",""
"","html-keyboard-response","156","456334","0.0-10.0-1.4","9fgt8h1wkv","many_one","0","direct_first","1","ia4la122","0","23","1","1","3","1","","0","1","0","null","","","<img src = 'category4/CS2.png' width = '100%;'>","null","","","","","","","","","",""
"","html-keyboard-response","157","456587","0.0-10.0-2.4","9fgt8h1wkv","many_one","0","direct_first","1","ia4la122","0","23","1","1","3","1","","0","1","0","null","","","<img src = 'targets/16.png' width = '100%;'>","null","","","","","","","","","",""
"","html-keyboard-response","158","457149","0.0-10.0-3.4","9fgt8h1wkv","many_one","0","direct_first","1","ia4la122","0","23","1","1","3","1","","0","1","0","560.6800001114607","","","<img src = 'targets/mask.png' width = '100%;'>","68","neg","GS","GSold","4","category4/CS2.png","","targets/16.png","indirect","0","4"
"","html-keyboard-response","159","458660","0.0-10.0-0.5","9fgt8h1wkv","many_one","0","direct_first","1","ia4la122","0","23","1","1","3","1","","0","1","0","null","","","<div style=""font-size:60px;"">+</div>","null","","","","","","","","","",""
"","html-keyboard-response","160","458752","0.0-10.0-1.5","9fgt8h1wkv","many_one","0","direct_first","1","ia4la122","0","23","1","1","3","1","","0","1","0","null","","","<img src = 'category3/CS7.png' width = '100%;'>","null","","","","","","","","","",""
"","html-keyboard-response","161","459009","0.0-10.0-2.5","9fgt8h1wkv","many_one","0","direct_first","1","ia4la122","0","23","1","1","3","1","","0","1","0","null","","","<img src = 'targets/9.png' width = '100%;'>","null","","","","","","","","","",""
"","html-keyboard-response","162","459386","0.0-10.0-3.5","9fgt8h1wkv","many_one","0","direct_first","1","ia4la122","0","23","1","1","3","1","","0","1","0","375.53499988280237","","","<img src = 'targets/mask.png' width = '100%;'>","75","neg","CS","CS","3","category3/CS7.png","","targets/9.png","indirect","1","5"
"","html-keyboard-response","163","460903","0.0-10.0-0.6","9fgt8h1wkv","many_one","0","direct_first","1","ia4la122","0","23","1","1","3","1","","0","1","0","null","","","<div style=""font-size:60px;"">+</div>","null","","","","","","","","","",""
"","html-keyboard-response","164","460995","0.0-10.0-1.6","9fgt8h1wkv","many_one","0","direct_first","1","ia4la122","0","23","1","1","3","1","","0","1","0","null","","","<img src = 'category1/CS6.png' width = '100%;'>","null","","","","","","","","","",""
"","html-keyboard-response","165","461248","0.0-10.0-2.6","9fgt8h1wkv","many_one","0","direct_first","1","ia4la122","0","23","1","1","3","1","","0","1","0","null","","","<img src = 'targets/13.png' width = '100%;'>","null","","","","","","","","","",""
"","html-keyboard-response","166","461721","0.0-10.0-3.6","9fgt8h1wkv","many_one","0","direct_first","1","ia4la122","0","23","1","1","3","1","","0","1","0","471.87500004656613","","","<img src = 'targets/mask.png' width = '100%;'>","75","pos","CS","CS","1","category1/CS6.png","","targets/13.png","indirect","1","6"
"","html-keyboard-response","167","463237","0.0-10.0-0.7","9fgt8h1wkv","many_one","0","direct_first","1","ia4la122","0","23","1","1","3","1","","0","1","0","null","","","<div style=""font-size:60px;"">+</div>","null","","","","","","","","","",""
"","html-keyboard-response","168","463328","0.0-10.0-1.7","9fgt8h1wkv","many_one","0","direct_first","1","ia4la122","0","23","1","1","3","1","","0","1","0","null","","","<img src = 'category2/CS10.png' width = '100%;'>","null","","","","","","","","","",""
"","html-keyboard-response","169","463582","0.0-10.0-2.7","9fgt8h1wkv","many_one","0","direct_first","1","ia4la122","0","23","1","1","3","1","","0","1","0","null","","","<img src = 'targets/32.png' width = '100%;'>","null","","","","","","","","","",""
"","html-keyboard-response","170","463934","0.0-10.0-3.7","9fgt8h1wkv","many_one","0","direct_first","1","ia4la122","0","23","1","1","3","1","","0","1","0","351.6549998894334","","","<img src = 'targets/mask.png' width = '100%;'>","68","pos","CS","CS","2","category2/CS10.png","","targets/32.png","indirect","0","7"
"","html-keyboard-response","171","465447","0.0-10.0-0.8","9fgt8h1wkv","many_one","0","direct_first","1","ia4la122","0","23","1","1","3","1","","0","1","0","null","","","<div style=""font-size:60px;"">+</div>","null","","","","","","","","","",""
"","html-keyboard-response","172","465538","0.0-10.0-1.8","9fgt8h1wkv","many_one","0","direct_first","1","ia4la122","0","23","1","1","3","1","","0","1","0","null","","","<img src = 'category1/CS3.png' width = '100%;'>","null","","","","","","","","","",""
"","html-keyboard-response","173","465796","0.0-10.0-2.8","9fgt8h1wkv","many_one","0","direct_first","1","ia4la122","0","23","1","1","3","1","","0","1","0","null","","","<img src = 'targets/27.png' width = '100%;'>","null","","","","","","","","","",""
"","html-keyboard-response","174","466167","0.0-10.0-3.8","9fgt8h1wkv","many_one","0","direct_first","1","ia4la122","0","23","1","1","3","1","","0","1","0","369.6149999741465","","","<img src = 'targets/mask.png' width = '100%;'>","75","pos","CS","CS","1","category1/CS3.png","","targets/27.png","indirect","1","8"
"","html-keyboard-response","175","467675","0.0-10.0-0.9","9fgt8h1wkv","many_one","0","direct_first","1","ia4la122","0","23","1","1","3","1","","0","1","0","null","","","<div style=""font-size:60px;"">+</div>","null","","","","","","","","","",""
"","html-keyboard-response","176","467766","0.0-10.0-1.9","9fgt8h1wkv","many_one","0","direct_first","1","ia4la122","0","23","1","1","3","1","","0","1","0","null","","","<img src = 'category4/CS9.png' width = '100%;'>","null","","","","","","","","","",""
"","html-keyboard-response","177","468019","0.0-10.0-2.9","9fgt8h1wkv","many_one","0","direct_first","1","ia4la122","0","23","1","1","3","1","","0","1","0","null","","","<img src = 'targets/17.png' width = '100%;'>","null","","","","","","","","","",""
"","html-keyboard-response","178","468526","0.0-10.0-3.9","9fgt8h1wkv","many_one","0","direct_first","1","ia4la122","0","23","1","1","3","1","","0","1","0","506.56000012531877","","","<img src = 'targets/mask.png' width = '100%;'>","75","neg","CS","CS","4","category4/CS9.png","","targets/17.png","indirect","1","9"
"","html-keyboard-response","179","470046","0.0-10.0-0.10","9fgt8h1wkv","many_one","0","direct_first","1","ia4la122","0","23","1","1","3","1","","0","1","0","null","","","<div style=""font-size:60px;"">+</div>","null","","","","","","","","","",""
"","html-keyboard-response","180","470138","0.0-10.0-1.10","9fgt8h1wkv","many_one","0","direct_first","1","ia4la122","0","23","1","1","3","1","","0","1","0","null","","","<img src = 'category4/CS8.png' width = '100%;'>","null","","","","","","","","","",""
"","html-keyboard-response","181","470390","0.0-10.0-2.10","9fgt8h1wkv","many_one","0","direct_first","1","ia4la122","0","23","1","1","3","1","","0","1","0","null","","","<img src = 'targets/15.png' width = '100%;'>","null","","","","","","","","","",""
"","html-keyboard-response","182","470848","0.0-10.0-3.10","9fgt8h1wkv","many_one","0","direct_first","1","ia4la122","0","23","1","1","3","1","","0","1","0","456.96499990299344","","","<img src = 'targets/mask.png' width = '100%;'>","68","neg","CS","CS","4","category4/CS8.png","","targets/15.png","indirect","0","10"
"","html-keyboard-response","183","472352","0.0-10.0-0.11","9fgt8h1wkv","many_one","0","direct_first","1","ia4la122","0","23","1","1","3","1","","0","1","0","null","","","<div style=""font-size:60px;"">+</div>","null","","","","","","","","","",""
"","html-keyboard-response","184","472444","0.0-10.0-1.11","9fgt8h1wkv","many_one","0","direct_first","1","ia4la122","0","23","1","1","3","1","","0","1","0","null","","","<img src = 'category3/CS1.png' width = '100%;'>","null","","","","","","","","","",""
"","html-keyboard-response","185","472701","0.0-10.0-2.11","9fgt8h1wkv","many_one","0","direct_first","1","ia4la122","0","23","1","1","3","1","","0","1","0","null","","","<img src = 'targets/31.png' width = '100%;'>","null","","","","","","","","","",""
"","html-keyboard-response","186","473204","0.0-10.0-3.11","9fgt8h1wkv","many_one","0","direct_first","1","ia4la122","0","23","1","1","3","1","","0","1","0","501.3950001448393","","","<img src = 'targets/mask.png' width = '100%;'>","75","neg","CS","CS","3","category3/CS1.png","","targets/31.png","indirect","1","11"
"","html-keyboard-response","187","474731","0.0-10.0-0.12","9fgt8h1wkv","many_one","0","direct_first","1","ia4la122","0","23","1","1","3","1","","0","1","0","null","","","<div style=""font-size:60px;"">+</div>","null","","","","","","","","","",""
"","html-keyboard-response","188","474825","0.0-10.0-1.12","9fgt8h1wkv","many_one","0","direct_first","1","ia4la122","0","23","1","1","3","1","","0","1","0","null","","","<img src = 'category3/CS3.png' width = '100%;'>","null","","","","","","","","","",""
"","html-keyboard-response","189","475077","0.0-10.0-2.12","9fgt8h1wkv","many_one","0","direct_first","1","ia4la122","0","23","1","1","3","1","","0","1","0","null","","","<img src = 'targets/19.png' width = '100%;'>","null","","","","","","","","","",""
"","html-keyboard-response","190","475582","0.0-10.0-3.12","9fgt8h1wkv","many_one","0","direct_first","1","ia4la122","0","23","1","1","3","1","","0","1","0","504.0100000333041","","","<img src = 'targets/mask.png' width = '100%;'>","68","neg","CS","CS","3","category3/CS3.png","","targets/19.png","indirect","0","12"
"","html-keyboard-response","191","477097","0.0-10.0-0.13","9fgt8h1wkv","many_one","0","direct_first","1","ia4la122","0","23","1","1","3","1","","0","1","0","null","","","<div style=""font-size:60px;"">+</div>","null","","","","","","","","","",""
"","html-keyboard-response","192","477188","0.0-10.0-1.13","9fgt8h1wkv","many_one","0","direct_first","1","ia4la122","0","23","1","1","3","1","","0","1","0","null","","","<img src = 'category4/CS6.png' width = '100%;'>","null","","","","","","","","","",""
"","html-keyboard-response","193","477442","0.0-10.0-2.13","9fgt8h1wkv","many_one","0","direct_first","1","ia4la122","0","23","1","1","3","1","","0","1","0","null","","","<img src = 'targets/42.png' width = '100%;'>","null","","","","","","","","","",""
"","html-keyboard-response","194","477684","0.0-10.0-3.13","9fgt8h1wkv","many_one","0","direct_first","1","ia4la122","0","23","1","1","3","1","","0","1","0","241.36999994516373","","","<img src = 'targets/mask.png' width = '100%;'>","75","neg","CS","CS","4","category4/CS6.png","","targets/42.png","indirect","1","13"
"","html-keyboard-response","195","479193","0.0-10.0-0.14","9fgt8h1wkv","many_one","0","direct_first","1","ia4la122","0","23","1","1","3","1","","0","1","0","null","","","<div style=""font-size:60px;"">+</div>","null","","","","","","","","","",""
"","html-keyboard-response","196","479287","0.0-10.0-1.14","9fgt8h1wkv","many_one","0","direct_first","1","ia4la122","0","23","1","1","3","1","","0","1","0","null","","","<img src = 'category4/CS7.png' width = '100%;'>","null","","","","","","","","","",""
"","html-keyboard-response","197","479541","0.0-10.0-2.14","9fgt8h1wkv","many_one","0","direct_first","1","ia4la122","0","23","1","1","3","1","","0","1","0","null","","","<img src = 'targets/10.png' width = '100%;'>","null","","","","","","","","","",""
"","html-keyboard-response","198","480175","0.0-10.0-3.14","9fgt8h1wkv","many_one","0","direct_first","1","ia4la122","0","23","1","1","3","1","","0","1","0","632.4000000022352","","","<img src = 'targets/mask.png' width = '100%;'>","68","neg","GS","GSold","4","category4/CS7.png","","targets/10.png","indirect","0","14"
"","html-keyboard-response","199","481693","0.0-10.0-0.15","9fgt8h1wkv","many_one","0","direct_first","1","ia4la122","0","23","1","1","3","1","","0","1","0","null","","","<div style=""font-size:60px;"">+</div>","null","","","","","","","","","",""
"","html-keyboard-response","200","481787","0.0-10.0-1.15","9fgt8h1wkv","many_one","0","direct_first","1","ia4la122","0","23","1","1","3","1","","0","1","0","null","","","<img src = 'category4/CS3.png' width = '100%;'>","null","","","","","","","","","",""
"","html-keyboard-response","201","482053","0.0-10.0-2.15","9fgt8h1wkv","many_one","0","direct_first","1","ia4la122","0","23","1","1","3","1","","0","1","0","null","","","<img src = 'targets/30.png' width = '100%;'>","null","","","","","","","","","",""
"","html-keyboard-response","202","482425","0.0-10.0-3.15","9fgt8h1wkv","many_one","0","direct_first","1","ia4la122","0","23","1","1","3","1","","0","1","0","371.02999980561435","","","<img src = 'targets/mask.png' width = '100%;'>","75","neg","GS","GSold","4","category4/CS3.png","","targets/30.png","indirect","1","15"
"","html-keyboard-response","203","483932","0.0-10.0-0.16","9fgt8h1wkv","many_one","0","direct_first","1","ia4la122","0","23","1","1","3","1","","0","1","0","null","","","<div style=""font-size:60px;"">+</div>","null","","","","","","","","","",""
"","html-keyboard-response","204","484024","0.0-10.0-1.16","9fgt8h1wkv","many_one","0","direct_first","1","ia4la122","0","23","1","1","3","1","","0","1","0","null","","","<img src = 'category1/CS7.png' width = '100%;'>","null","","","","","","","","","",""
"","html-keyboard-response","205","484278","0.0-10.0-2.16","9fgt8h1wkv","many_one","0","direct_first","1","ia4la122","0","23","1","1","3","1","","0","1","0","null","","","<img src = 'targets/43.png' width = '100%;'>","null","","","","","","","","","",""
"","html-keyboard-response","206","484970","0.0-10.0-3.16","9fgt8h1wkv","many_one","0","direct_first","1","ia4la122","0","23","1","1","3","1","","0","1","0","689.8550000041723","","","<img src = 'targets/mask.png' width = '100%;'>","68","pos","CS","CS","1","category1/CS7.png","","targets/43.png","indirect","0","16"
"","html-keyboard-response","207","486483","0.0-10.0-0.17","9fgt8h1wkv","many_one","0","direct_first","1","ia4la122","0","23","1","1","3","1","","0","1","0","null","","","<div style=""font-size:60px;"">+</div>","null","","","","","","","","","",""
"","html-keyboard-response","208","486575","0.0-10.0-1.17","9fgt8h1wkv","many_one","0","direct_first","1","ia4la122","0","23","1","1","3","1","","0","1","0","null","","","<img src = 'category2/CS5.png' width = '100%;'>","null","","","","","","","","","",""
"","html-keyboard-response","209","486827","0.0-10.0-2.17","9fgt8h1wkv","many_one","0","direct_first","1","ia4la122","0","23","1","1","3","1","","0","1","0","null","","","<img src = 'targets/23.png' width = '100%;'>","null","","","","","","","","","",""
"","html-keyboard-response","210","487164","0.0-10.0-3.17","9fgt8h1wkv","many_one","0","direct_first","1","ia4la122","0","23","1","1","3","1","","0","1","0","335.3150000330061","","","<img src = 'targets/mask.png' width = '100%;'>","75","pos","GS","GSold","2","category2/CS5.png","","targets/23.png","indirect","1","17"
"","html-keyboard-response","211","488683","0.0-10.0-0.18","9fgt8h1wkv","many_one","0","direct_first","1","ia4la122","0","23","1","1","3","1","","0","1","0","null","","","<div style=""font-size:60px;"">+</div>","null","","","","","","","","","",""
"","html-keyboard-response","212","488775","0.0-10.0-1.18","9fgt8h1wkv","many_one","0","direct_first","1","ia4la122","0","23","1","1","3","1","","0","1","0","null","","","<img src = 'category3/CS9.png' width = '100%;'>","null","","","","","","","","","",""
"","html-keyboard-response","213","489031","0.0-10.0-2.18","9fgt8h1wkv","many_one","0","direct_first","1","ia4la122","0","23","1","1","3","1","","0","1","0","null","","","<img src = 'targets/46.png' width = '100%;'>","null","","","","","","","","","",""
"","html-keyboard-response","214","489499","0.0-10.0-3.18","9fgt8h1wkv","many_one","0","direct_first","1","ia4la122","0","23","1","1","3","1","","0","1","0","466.61999984644353","","","<img src = 'targets/mask.png' width = '100%;'>","75","neg","CS","CS","3","category3/CS9.png","","targets/46.png","indirect","1","18"
"","html-keyboard-response","215","491003","0.0-10.0-0.19","9fgt8h1wkv","many_one","0","direct_first","1","ia4la122","0","23","1","1","3","1","","0","1","0","null","","","<div style=""font-size:60px;"">+</div>","null","","","","","","","","","",""
"","html-keyboard-response","216","491095","0.0-10.0-1.19","9fgt8h1wkv","many_one","0","direct_first","1","ia4la122","0","23","1","1","3","1","","0","1","0","null","","","<img src = 'category4/CS4.png' width = '100%;'>","null","","","","","","","","","",""
"","html-keyboard-response","217","491346","0.0-10.0-2.19","9fgt8h1wkv","many_one","0","direct_first","1","ia4la122","0","23","1","1","3","1","","0","1","0","null","","","<img src = 'targets/35.png' width = '100%;'>","null","","","","","","","","","",""
"","html-keyboard-response","218","491698","0.0-10.0-3.19","9fgt8h1wkv","many_one","0","direct_first","1","ia4la122","0","23","1","1","3","1","","0","1","0","350.25999997742474","","","<img src = 'targets/mask.png' width = '100%;'>","75","neg","CS","CS","4","category4/CS4.png","","targets/35.png","indirect","1","19"
"","html-keyboard-response","219","493212","0.0-10.0-0.20","9fgt8h1wkv","many_one","0","direct_first","1","ia4la122","0","23","1","1","3","1","","0","1","0","null","","","<div style=""font-size:60px;"">+</div>","null","","","","","","","","","",""
"","html-keyboard-response","220","493304","0.0-10.0-1.20","9fgt8h1wkv","many_one","0","direct_first","1","ia4la122","0","23","1","1","3","1","","0","1","0","null","","","<img src = 'category1/CS1.png' width = '100%;'>","null","","","","","","","","","",""
"","html-keyboard-response","221","493557","0.0-10.0-2.20","9fgt8h1wkv","many_one","0","direct_first","1","ia4la122","0","23","1","1","3","1","","0","1","0","null","","","<img src = 'targets/12.png' width = '100%;'>","null","","","","","","","","","",""
"","html-keyboard-response","222","493927","0.0-10.0-3.20","9fgt8h1wkv","many_one","0","direct_first","1","ia4la122","0","23","1","1","3","1","","0","1","0","368.8799999654293","","","<img src = 'targets/mask.png' width = '100%;'>","75","pos","CS","CS","1","category1/CS1.png","","targets/12.png","indirect","1","20"
"","html-keyboard-response","223","495432","0.0-10.0-0.21","9fgt8h1wkv","many_one","0","direct_first","1","ia4la122","0","23","1","1","3","1","","0","1","0","null","","","<div style=""font-size:60px;"">+</div>","null","","","","","","","","","",""
"","html-keyboard-response","224","495525","0.0-10.0-1.21","9fgt8h1wkv","many_one","0","direct_first","1","ia4la122","0","23","1","1","3","1","","0","1","0","null","","","<img src = 'category4/CS10.png' width = '100%;'>","null","","","","","","","","","",""
"","html-keyboard-response","225","495777","0.0-10.0-2.21","9fgt8h1wkv","many_one","0","direct_first","1","ia4la122","0","23","1","1","3","1","","0","1","0","null","","","<img src = 'targets/5.png' width = '100%;'>","null","","","","","","","","","",""
"","html-keyboard-response","226","496036","0.0-10.0-3.21","9fgt8h1wkv","many_one","0","direct_first","1","ia4la122","0","23","1","1","3","1","","0","1","0","257.4599999934435","","","<img src = 'targets/mask.png' width = '100%;'>","75","neg","CS","CS","4","category4/CS10.png","","targets/5.png","indirect","1","21"
"","html-keyboard-response","227","497548","0.0-10.0-0.22","9fgt8h1wkv","many_one","0","direct_first","1","ia4la122","0","23","1","1","3","1","","0","1","0","null","","","<div style=""font-size:60px;"">+</div>","null","","","","","","","","","",""
"","html-keyboard-response","228","497639","0.0-10.0-1.22","9fgt8h1wkv","many_one","0","direct_first","1","ia4la122","0","23","1","1","3","1","","0","1","0","null","","","<img src = 'category1/CS8.png' width = '100%;'>","null","","","","","","","","","",""
"","html-keyboard-response","229","497892","0.0-10.0-2.22","9fgt8h1wkv","many_one","0","direct_first","1","ia4la122","0","23","1","1","3","1","","0","1","0","null","","","<img src = 'targets/7.png' width = '100%;'>","null","","","","","","","","","",""
"","html-keyboard-response","230","498122","0.0-10.0-3.22","9fgt8h1wkv","many_one","0","direct_first","1","ia4la122","0","23","1","1","3","1","","0","1","0","229.20999978668988","","","<img src = 'targets/mask.png' width = '100%;'>","68","pos","CS","CS","1","category1/CS8.png","","targets/7.png","indirect","0","22"
"","html-keyboard-response","231","499632","0.0-10.0-0.23","9fgt8h1wkv","many_one","0","direct_first","1","ia4la122","0","23","1","1","3","1","","0","1","0","null","","","<div style=""font-size:60px;"">+</div>","null","","","","","","","","","",""
"","html-keyboard-response","232","499724","0.0-10.0-1.23","9fgt8h1wkv","many_one","0","direct_first","1","ia4la122","0","23","1","1","3","1","","0","1","0","null","","","<img src = 'category2/CS3.png' width = '100%;'>","null","","","","","","","","","",""
"","html-keyboard-response","233","499981","0.0-10.0-2.23","9fgt8h1wkv","many_one","0","direct_first","1","ia4la122","0","23","1","1","3","1","","0","1","0","null","","","<img src = 'targets/47.png' width = '100%;'>","null","","","","","","","","","",""
"","html-keyboard-response","234","500419","0.0-10.0-3.23","9fgt8h1wkv","many_one","0","direct_first","1","ia4la122","0","23","1","1","3","1","","0","1","0","436.29999994300306","","","<img src = 'targets/mask.png' width = '100%;'>","75","pos","CS","CS","2","category2/CS3.png","","targets/47.png","indirect","1","23"
"","survey-html-form","235","503006","0.0-11.0","9fgt8h1wkv","many_one","0","direct_first","1","ia4la122","0","23","1","1","3","1","","0","1","0","2084.5749999862164","","{}","","","","","","","","","","","",""
"","html-keyboard-response","236","506012","0.0-12.0-0.0","9fgt8h1wkv","many_one","0","direct_first","1","ia4la122","0","23","1","1","3","1","","0","1","0","null","","","<div style=""font-size:60px;"">+</div>","null","","","","","","","","","",""
"","html-keyboard-response","237","506104","0.0-12.0-1.0","9fgt8h1wkv","many_one","0","direct_first","1","ia4la122","0","23","1","1","3","1","","0","1","0","null","","","<img src = 'category2/GS3.png' width = '100%;'>","null","","","","","","","","","",""
"","html-keyboard-response","238","506356","0.0-12.0-2.0","9fgt8h1wkv","many_one","0","direct_first","1","ia4la122","0","23","1","1","3","1","","0","1","0","null","","","<img src = 'targets/38.png' width = '100%;'>","null","","","","","","","","","",""
"","html-keyboard-response","239","506765","0.0-12.0-3.0","9fgt8h1wkv","many_one","0","direct_first","1","ia4la122","0","23","1","1","3","1","","0","1","0","406.99000004678965","","","<img src = 'targets/mask.png' width = '100%;'>","75","pos","GS","GSnew","2","category2/GS3.png","","targets/38.png","indirect","1","24"
"","html-keyboard-response","240","508270","0.0-12.0-0.1","9fgt8h1wkv","many_one","0","direct_first","1","ia4la122","0","23","1","1","3","1","","0","1","0","null","","","<div style=""font-size:60px;"">+</div>","null","","","","","","","","","",""
"","html-keyboard-response","241","508363","0.0-12.0-1.1","9fgt8h1wkv","many_one","0","direct_first","1","ia4la122","0","23","1","1","3","1","","0","1","0","null","","","<img src = 'category4/GS3.png' width = '100%;'>","null","","","","","","","","","",""
"","html-keyboard-response","242","508619","0.0-12.0-2.1","9fgt8h1wkv","many_one","0","direct_first","1","ia4la122","0","23","1","1","3","1","","0","1","0","null","","","<img src = 'targets/48.png' width = '100%;'>","null","","","","","","","","","",""
"","html-keyboard-response","243","508886","0.0-12.0-3.1","9fgt8h1wkv","many_one","0","direct_first","1","ia4la122","0","23","1","1","3","1","","0","1","0","265.5500001274049","","","<img src = 'targets/mask.png' width = '100%;'>","68","neg","GS","GSnew","4","category4/GS3.png","","targets/48.png","indirect","0","25"
"","html-keyboard-response","244","510398","0.0-12.0-0.2","9fgt8h1wkv","many_one","0","direct_first","1","ia4la122","0","23","1","1","3","1","","0","1","0","null","","","<div style=""font-size:60px;"">+</div>","null","","","","","","","","","",""
"","html-keyboard-response","245","510490","0.0-12.0-1.2","9fgt8h1wkv","many_one","0","direct_first","1","ia4la122","0","23","1","1","3","1","","0","1","0","null","","","<img src = 'category4/GS1.png' width = '100%;'>","null","","","","","","","","","",""
"","html-keyboard-response","246","510746","0.0-12.0-2.2","9fgt8h1wkv","many_one","0","direct_first","1","ia4la122","0","23","1","1","3","1","","0","1","0","null","","","<img src = 'targets/41.png' width = '100%;'>","null","","","","","","","","","",""
"","html-keyboard-response","247","511053","0.0-12.0-3.2","9fgt8h1wkv","many_one","0","direct_first","1","ia4la122","0","23","1","1","3","1","","0","1","0","306.0699999332428","","","<img src = 'targets/mask.png' width = '100%;'>","75","neg","GS","GSnew","4","category4/GS1.png","","targets/41.png","indirect","1","26"
"","html-keyboard-response","248","512563","0.0-12.0-0.3","9fgt8h1wkv","many_one","0","direct_first","1","ia4la122","0","23","1","1","3","1","","0","1","0","null","","","<div style=""font-size:60px;"">+</div>","null","","","","","","","","","",""
"","html-keyboard-response","249","512654","0.0-12.0-1.3","9fgt8h1wkv","many_one","0","direct_first","1","ia4la122","0","23","1","1","3","1","","0","1","0","null","","","<img src = 'category1/ma.png' width = '100%;'>","null","","","","","","","","","",""
"","html-keyboard-response","250","512913","0.0-12.0-2.3","9fgt8h1wkv","many_one","0","direct_first","1","ia4la122","0","23","1","1","3","1","","0","1","0","null","","","<img src = 'targets/40.png' width = '100%;'>","null","","","","","","","","","",""
"","html-keyboard-response","251","513269","0.0-12.0-3.3","9fgt8h1wkv","many_one","0","direct_first","1","ia4la122","0","23","1","1","3","1","","0","1","0","355.05999997258186","","","<img src = 'targets/mask.png' width = '100%;'>","68","pos","GS","abstract","1","category1/ma.png","","targets/40.png","indirect","0","27"
"","html-keyboard-response","252","514791","0.0-12.0-0.4","9fgt8h1wkv","many_one","0","direct_first","1","ia4la122","0","23","1","1","3","1","","0","1","0","null","","","<div style=""font-size:60px;"">+</div>","null","","","","","","","","","",""
"","html-keyboard-response","253","514882","0.0-12.0-1.4","9fgt8h1wkv","many_one","0","direct_first","1","ia4la122","0","23","1","1","3","1","","0","1","0","null","","","<img src = 'category1/CS10.png' width = '100%;'>","null","","","","","","","","","",""
"","html-keyboard-response","254","515139","0.0-12.0-2.4","9fgt8h1wkv","many_one","0","direct_first","1","ia4la122","0","23","1","1","3","1","","0","1","0","null","","","<img src = 'targets/14.png' width = '100%;'>","null","","","","","","","","","",""
"","html-keyboard-response","255","515301","0.0-12.0-3.4","9fgt8h1wkv","many_one","0","direct_first","1","ia4la122","0","23","1","1","3","1","","0","1","0","160.9749998897314","","","<img src = 'targets/mask.png' width = '100%;'>","68","pos","GS","GSold","1","category1/CS10.png","","targets/14.png","indirect","0","28"
"","html-keyboard-response","256","516810","0.0-12.0-0.5","9fgt8h1wkv","many_one","0","direct_first","1","ia4la122","0","23","1","1","3","1","","0","1","0","null","","","<div style=""font-size:60px;"">+</div>","null","","","","","","","","","",""
"","html-keyboard-response","257","516902","0.0-12.0-1.5","9fgt8h1wkv","many_one","0","direct_first","1","ia4la122","0","23","1","1","3","1","","0","1","0","null","","","<img src = 'category4/GS2.png' width = '100%;'>","null","","","","","","","","","",""
"","html-keyboard-response","258","517161","0.0-12.0-2.5","9fgt8h1wkv","many_one","0","direct_first","1","ia4la122","0","23","1","1","3","1","","0","1","0","null","","","<img src = 'targets/26.png' width = '100%;'>","null","","","","","","","","","",""
"","html-keyboard-response","259","517292","0.0-12.0-3.5","9fgt8h1wkv","many_one","0","direct_first","1","ia4la122","0","23","1","1","3","1","","0","1","0","129.2350001167506","","","<img src = 'targets/mask.png' width = '100%;'>","68","neg","GS","GSnew","4","category4/GS2.png","","targets/26.png","indirect","0","29"
"","html-keyboard-response","260","518799","0.0-12.0-0.6","9fgt8h1wkv","many_one","0","direct_first","1","ia4la122","0","23","1","1","3","1","","0","1","0","null","","","<div style=""font-size:60px;"">+</div>","null","","","","","","","","","",""
"","html-keyboard-response","261","518891","0.0-12.0-1.6","9fgt8h1wkv","many_one","0","direct_first","1","ia4la122","0","23","1","1","3","1","","0","1","0","null","","","<img src = 'category4/lin.png' width = '100%;'>","null","","","","","","","","","",""
"","html-keyboard-response","262","519146","0.0-12.0-2.6","9fgt8h1wkv","many_one","0","direct_first","1","ia4la122","0","23","1","1","3","1","","0","1","0","null","","","<img src = 'targets/44.png' width = '100%;'>","null","","","","","","","","","",""
"","html-keyboard-response","263","519154","0.0-12.0-3.6","9fgt8h1wkv","many_one","0","direct_first","1","ia4la122","0","23","1","1","3","1","","0","1","0","6.624999921768904","","","<img src = 'targets/mask.png' width = '100%;'>","75","neg","GS","abstract","4","category4/lin.png","","targets/44.png","indirect","1","30"
"","html-keyboard-response","264","520670","0.0-12.0-0.7","9fgt8h1wkv","many_one","0","direct_first","1","ia4la122","0","23","1","1","3","1","","0","1","0","null","","","<div style=""font-size:60px;"">+</div>","null","","","","","","","","","",""
"","html-keyboard-response","265","520762","0.0-12.0-1.7","9fgt8h1wkv","many_one","0","direct_first","1","ia4la122","0","23","1","1","3","1","","0","1","0","null","","","<img src = 'category3/CS2.png' width = '100%;'>","null","","","","","","","","","",""
"","html-keyboard-response","266","521018","0.0-12.0-2.7","9fgt8h1wkv","many_one","0","direct_first","1","ia4la122","0","23","1","1","3","1","","0","1","0","null","","","<img src = 'targets/18.png' width = '100%;'>","null","","","","","","","","","",""
"","html-keyboard-response","267","521168","0.0-12.0-3.7","9fgt8h1wkv","many_one","0","direct_first","1","ia4la122","0","23","1","1","3","1","","0","1","0","148.44999997876585","","","<img src = 'targets/mask.png' width = '100%;'>","75","neg","GS","GSold","3","category3/CS2.png","","targets/18.png","indirect","1","31"
"","html-keyboard-response","268","522678","0.0-12.0-0.8","9fgt8h1wkv","many_one","0","direct_first","1","ia4la122","0","23","1","1","3","1","","0","1","0","null","","","<div style=""font-size:60px;"">+</div>","null","","","","","","","","","",""
"","html-keyboard-response","269","522769","0.0-12.0-1.8","9fgt8h1wkv","many_one","0","direct_first","1","ia4la122","0","23","1","1","3","1","","0","1","0","null","","","<img src = 'category2/GS2.png' width = '100%;'>","null","","","","","","","","","",""
"","html-keyboard-response","270","523022","0.0-12.0-2.8","9fgt8h1wkv","many_one","0","direct_first","1","ia4la122","0","23","1","1","3","1","","0","1","0","null","","","<img src = 'targets/3.png' width = '100%;'>","null","","","","","","","","","",""
"","html-keyboard-response","271","523270","0.0-12.0-3.8","9fgt8h1wkv","many_one","0","direct_first","1","ia4la122","0","23","1","1","3","1","","0","1","0","247.20999994315207","","","<img src = 'targets/mask.png' width = '100%;'>","68","pos","GS","GSnew","2","category2/GS2.png","","targets/3.png","indirect","0","32"
"","html-keyboard-response","272","524790","0.0-12.0-0.9","9fgt8h1wkv","many_one","0","direct_first","1","ia4la122","0","23","1","1","3","1","","0","1","0","null","","","<div style=""font-size:60px;"">+</div>","null","","","","","","","","","",""
"","html-keyboard-response","273","524886","0.0-12.0-1.9","9fgt8h1wkv","many_one","0","direct_first","1","ia4la122","0","23","1","1","3","1","","0","1","0","null","","","<img src = 'category3/GS2.png' width = '100%;'>","null","","","","","","","","","",""
"","html-keyboard-response","274","525141","0.0-12.0-2.9","9fgt8h1wkv","many_one","0","direct_first","1","ia4la122","0","23","1","1","3","1","","0","1","0","null","","","<img src = 'targets/33.png' width = '100%;'>","null","","","","","","","","","",""
"","html-keyboard-response","275","525573","0.0-12.0-3.9","9fgt8h1wkv","many_one","0","direct_first","1","ia4la122","0","23","1","1","3","1","","0","1","0","431.01499998010695","","","<img src = 'targets/mask.png' width = '100%;'>","75","neg","GS","GSnew","3","category3/GS2.png","","targets/33.png","indirect","1","33"
"","html-keyboard-response","276","527078","0.0-12.0-0.10","9fgt8h1wkv","many_one","0","direct_first","1","ia4la122","0","23","1","1","3","1","","0","1","0","null","","","<div style=""font-size:60px;"">+</div>","null","","","","","","","","","",""
"","html-keyboard-response","277","527170","0.0-12.0-1.10","9fgt8h1wkv","many_one","0","direct_first","1","ia4la122","0","23","1","1","3","1","","0","1","0","null","","","<img src = 'category3/CS6.png' width = '100%;'>","null","","","","","","","","","",""
"","html-keyboard-response","278","527437","0.0-12.0-2.10","9fgt8h1wkv","many_one","0","direct_first","1","ia4la122","0","23","1","1","3","1","","0","1","0","null","","","<img src = 'targets/21.png' width = '100%;'>","null","","","","","","","","","",""
"","html-keyboard-response","279","527777","0.0-12.0-3.10","9fgt8h1wkv","many_one","0","direct_first","1","ia4la122","0","23","1","1","3","1","","0","1","0","339.32500006631017","","","<img src = 'targets/mask.png' width = '100%;'>","75","neg","GS","GSold","3","category3/CS6.png","","targets/21.png","indirect","1","34"
"","html-keyboard-response","280","529292","0.0-12.0-0.11","9fgt8h1wkv","many_one","0","direct_first","1","ia4la122","0","23","1","1","3","1","","0","1","0","null","","","<div style=""font-size:60px;"">+</div>","null","","","","","","","","","",""
"","html-keyboard-response","281","529384","0.0-12.0-1.11","9fgt8h1wkv","many_one","0","direct_first","1","ia4la122","0","23","1","1","3","1","","0","1","0","null","","","<img src = 'category3/wang.png' width = '100%;'>","null","","","","","","","","","",""
"","html-keyboard-response","282","529637","0.0-12.0-2.11","9fgt8h1wkv","many_one","0","direct_first","1","ia4la122","0","23","1","1","3","1","","0","1","0","null","","","<img src = 'targets/39.png' width = '100%;'>","null","","","","","","","","","",""
"","html-keyboard-response","283","529862","0.0-12.0-3.11","9fgt8h1wkv","many_one","0","direct_first","1","ia4la122","0","23","1","1","3","1","","0","1","0","224.0650001913309","","","<img src = 'targets/mask.png' width = '100%;'>","68","neg","GS","abstract","3","category3/wang.png","","targets/39.png","indirect","0","35"
"","html-keyboard-response","284","531366","0.0-12.0-0.12","9fgt8h1wkv","many_one","0","direct_first","1","ia4la122","0","23","1","1","3","1","","0","1","0","null","","","<div style=""font-size:60px;"">+</div>","null","","","","","","","","","",""
"","html-keyboard-response","285","531457","0.0-12.0-1.12","9fgt8h1wkv","many_one","0","direct_first","1","ia4la122","0","23","1","1","3","1","","0","1","0","null","","","<img src = 'category2/CS7.png' width = '100%;'>","null","","","","","","","","","",""
"","html-keyboard-response","286","531710","0.0-12.0-2.12","9fgt8h1wkv","many_one","0","direct_first","1","ia4la122","0","23","1","1","3","1","","0","1","0","null","","","<img src = 'targets/22.png' width = '100%;'>","null","","","","","","","","","",""
"","html-keyboard-response","287","531971","0.0-12.0-3.12","9fgt8h1wkv","many_one","0","direct_first","1","ia4la122","0","23","1","1","3","1","","0","1","0","259.87999979406595","","","<img src = 'targets/mask.png' width = '100%;'>","75","pos","GS","GSold","2","category2/CS7.png","","targets/22.png","indirect","1","36"
"","html-keyboard-response","288","533489","0.0-12.0-0.13","9fgt8h1wkv","many_one","0","direct_first","1","ia4la122","0","23","1","1","3","1","","0","1","0","null","","","<div style=""font-size:60px;"">+</div>","null","","","","","","","","","",""
"","html-keyboard-response","289","533596","0.0-12.0-1.13","9fgt8h1wkv","many_one","0","direct_first","1","ia4la122","0","23","1","1","3","1","","0","1","0","null","","","<img src = 'category1/GS1.png' width = '100%;'>","null","","","","","","","","","",""
"","html-keyboard-response","290","533874","0.0-12.0-2.13","9fgt8h1wkv","many_one","0","direct_first","1","ia4la122","0","23","1","1","3","1","","0","1","0","null","","","<img src = 'targets/25.png' width = '100%;'>","null","","","","","","","","","",""
"","html-keyboard-response","291","534219","0.0-12.0-3.13","9fgt8h1wkv","many_one","0","direct_first","1","ia4la122","0","23","1","1","3","1","","0","1","0","344.6949999779463","","","<img src = 'targets/mask.png' width = '100%;'>","75","pos","GS","GSnew","1","category1/GS1.png","","targets/25.png","indirect","1","37"
"","html-keyboard-response","292","535753","0.0-12.0-0.14","9fgt8h1wkv","many_one","0","direct_first","1","ia4la122","0","23","1","1","3","1","","0","1","0","null","","","<div style=""font-size:60px;"">+</div>","null","","","","","","","","","",""
"","html-keyboard-response","293","535846","0.0-12.0-1.14","9fgt8h1wkv","many_one","0","direct_first","1","ia4la122","0","23","1","1","3","1","","0","1","0","null","","","<img src = 'category1/CS2.png' width = '100%;'>","null","","","","","","","","","",""
"","html-keyboard-response","294","536098","0.0-12.0-2.14","9fgt8h1wkv","many_one","0","direct_first","1","ia4la122","0","23","1","1","3","1","","0","1","0","null","","","<img src = 'targets/45.png' width = '100%;'>","null","","","","","","","","","",""
"","html-keyboard-response","295","536256","0.0-12.0-3.14","9fgt8h1wkv","many_one","0","direct_first","1","ia4la122","0","23","1","1","3","1","","0","1","0","156.7700000014156","","","<img src = 'targets/mask.png' width = '100%;'>","75","pos","GS","GSold","1","category1/CS2.png","","targets/45.png","indirect","1","38"
"","html-keyboard-response","296","537780","0.0-12.0-0.15","9fgt8h1wkv","many_one","0","direct_first","1","ia4la122","0","23","1","1","3","1","","0","1","0","null","","","<div style=""font-size:60px;"">+</div>","null","","","","","","","","","",""
"","html-keyboard-response","297","537872","0.0-12.0-1.15","9fgt8h1wkv","many_one","0","direct_first","1","ia4la122","0","23","1","1","3","1","","0","1","0","null","","","<img src = 'category1/CS4.png' width = '100%;'>","null","","","","","","","","","",""
"","html-keyboard-response","298","538133","0.0-12.0-2.15","9fgt8h1wkv","many_one","0","direct_first","1","ia4la122","0","23","1","1","3","1","","0","1","0","null","","","<img src = 'targets/36.png' width = '100%;'>","null","","","","","","","","","",""
"","html-keyboard-response","299","538219","0.0-12.0-3.15","9fgt8h1wkv","many_one","0","direct_first","1","ia4la122","0","23","1","1","3","1","","0","1","0","84.35500017367303","","","<img src = 'targets/mask.png' width = '100%;'>","75","pos","GS","GSold","1","category1/CS4.png","","targets/36.png","indirect","1","39"
"","html-keyboard-response","300","539734","0.0-12.0-0.16","9fgt8h1wkv","many_one","0","direct_first","1","ia4la122","0","23","1","1","3","1","","0","1","0","null","","","<div style=""font-size:60px;"">+</div>","null","","","","","","","","","",""
"","html-keyboard-response","301","539826","0.0-12.0-1.16","9fgt8h1wkv","many_one","0","direct_first","1","ia4la122","0","23","1","1","3","1","","0","1","0","null","","","<img src = 'category1/GS3.png' width = '100%;'>","null","","","","","","","","","",""
"","html-keyboard-response","302","540108","0.0-12.0-2.16","9fgt8h1wkv","many_one","0","direct_first","1","ia4la122","0","23","1","1","3","1","","0","1","0","null","","","<img src = 'targets/37.png' width = '100%;'>","null","","","","","","","","","",""
"","html-keyboard-response","303","540493","0.0-12.0-3.16","9fgt8h1wkv","many_one","0","direct_first","1","ia4la122","0","23","1","1","3","1","","0","1","0","383.7500000372529","","","<img src = 'targets/mask.png' width = '100%;'>","68","pos","GS","GSnew","1","category1/GS3.png","","targets/37.png","indirect","0","40"
"","html-keyboard-response","304","542009","0.0-12.0-0.17","9fgt8h1wkv","many_one","0","direct_first","1","ia4la122","0","23","1","1","3","1","","0","1","0","null","","","<div style=""font-size:60px;"">+</div>","null","","","","","","","","","",""
"","html-keyboard-response","305","542101","0.0-12.0-1.17","9fgt8h1wkv","many_one","0","direct_first","1","ia4la122","0","23","1","1","3","1","","0","1","0","null","","","<img src = 'category1/GS2.png' width = '100%;'>","null","","","","","","","","","",""
"","html-keyboard-response","306","542356","0.0-12.0-2.17","9fgt8h1wkv","many_one","0","direct_first","1","ia4la122","0","23","1","1","3","1","","0","1","0","null","","","<img src = 'targets/8.png' width = '100%;'>","null","","","","","","","","","",""
"","html-keyboard-response","307","542519","0.0-12.0-3.17","9fgt8h1wkv","many_one","0","direct_first","1","ia4la122","0","23","1","1","3","1","","0","1","0","161.85500007122755","","","<img src = 'targets/mask.png' width = '100%;'>","75","pos","GS","GSnew","1","category1/GS2.png","","targets/8.png","indirect","1","41"
"","html-keyboard-response","308","544025","0.0-12.0-0.18","9fgt8h1wkv","many_one","0","direct_first","1","ia4la122","0","23","1","1","3","1","","0","1","0","null","","","<div style=""font-size:60px;"">+</div>","null","","","","","","","","","",""
"","html-keyboard-response","309","544117","0.0-12.0-1.18","9fgt8h1wkv","many_one","0","direct_first","1","ia4la122","0","23","1","1","3","1","","0","1","0","null","","","<img src = 'category3/CS8.png' width = '100%;'>","null","","","","","","","","","",""
"","html-keyboard-response","310","544382","0.0-12.0-2.18","9fgt8h1wkv","many_one","0","direct_first","1","ia4la122","0","23","1","1","3","1","","0","1","0","null","","","<img src = 'targets/6.png' width = '100%;'>","null","","","","","","","","","",""
"","html-keyboard-response","311","544736","0.0-12.0-3.18","9fgt8h1wkv","many_one","0","direct_first","1","ia4la122","0","23","1","1","3","1","","0","1","0","353.18499989807606","","","<img src = 'targets/mask.png' width = '100%;'>","75","neg","GS","GSold","3","category3/CS8.png","","targets/6.png","indirect","1","42"
"","html-keyboard-response","312","546252","0.0-12.0-0.19","9fgt8h1wkv","many_one","0","direct_first","1","ia4la122","0","23","1","1","3","1","","0","1","0","null","","","<div style=""font-size:60px;"">+</div>","null","","","","","","","","","",""
"","html-keyboard-response","313","546343","0.0-12.0-1.19","9fgt8h1wkv","many_one","0","direct_first","1","ia4la122","0","23","1","1","3","1","","0","1","0","null","","","<img src = 'category2/CS4.png' width = '100%;'>","null","","","","","","","","","",""
"","html-keyboard-response","314","546597","0.0-12.0-2.19","9fgt8h1wkv","many_one","0","direct_first","1","ia4la122","0","23","1","1","3","1","","0","1","0","null","","","<img src = 'targets/1.png' width = '100%;'>","null","","","","","","","","","",""
"","html-keyboard-response","315","547201","0.0-12.0-3.19","9fgt8h1wkv","many_one","0","direct_first","1","ia4la122","0","23","1","1","3","1","","0","1","0","603.2300000078976","","","<img src = 'targets/mask.png' width = '100%;'>","75","pos","GS","GSold","2","category2/CS4.png","","targets/1.png","indirect","1","43"
"","html-keyboard-response","316","548708","0.0-12.0-0.20","9fgt8h1wkv","many_one","0","direct_first","1","ia4la122","0","23","1","1","3","1","","0","1","0","null","","","<div style=""font-size:60px;"">+</div>","null","","","","","","","","","",""
"","html-keyboard-response","317","548800","0.0-12.0-1.20","9fgt8h1wkv","many_one","0","direct_first","1","ia4la122","0","23","1","1","3","1","","0","1","0","null","","","<img src = 'category2/GS1.png' width = '100%;'>","null","","","","","","","","","",""
"","html-keyboard-response","318","549053","0.0-12.0-2.20","9fgt8h1wkv","many_one","0","direct_first","1","ia4la122","0","23","1","1","3","1","","0","1","0","null","","","<img src = 'targets/29.png' width = '100%;'>","null","","","","","","","","","",""
"","html-keyboard-response","319","549410","0.0-12.0-3.20","9fgt8h1wkv","many_one","0","direct_first","1","ia4la122","0","23","1","1","3","1","","0","1","0","355.18499999307096","","","<img src = 'targets/mask.png' width = '100%;'>","68","pos","GS","GSnew","2","category2/GS1.png","","targets/29.png","indirect","0","44"
"","html-keyboard-response","320","550934","0.0-12.0-0.21","9fgt8h1wkv","many_one","0","direct_first","1","ia4la122","0","23","1","1","3","1","","0","1","0","null","","","<div style=""font-size:60px;"">+</div>","null","","","","","","","","","",""
"","html-keyboard-response","321","551029","0.0-12.0-1.21","9fgt8h1wkv","many_one","0","direct_first","1","ia4la122","0","23","1","1","3","1","","0","1","0","null","","","<img src = 'category3/GS3.png' width = '100%;'>","null","","","","","","","","","",""
"","html-keyboard-response","322","551296","0.0-12.0-2.21","9fgt8h1wkv","many_one","0","direct_first","1","ia4la122","0","23","1","1","3","1","","0","1","0","null","","","<img src = 'targets/28.png' width = '100%;'>","null","","","","","","","","","",""
"","html-keyboard-response","323","551770","0.0-12.0-3.21","9fgt8h1wkv","many_one","0","direct_first","1","ia4la122","0","23","1","1","3","1","","0","1","0","472.4250000435859","","","<img src = 'targets/mask.png' width = '100%;'>","68","neg","GS","GSnew","3","category3/GS3.png","","targets/28.png","indirect","0","45"
"","html-keyboard-response","324","553292","0.0-12.0-0.22","9fgt8h1wkv","many_one","0","direct_first","1","ia4la122","0","23","1","1","3","1","","0","1","0","null","","","<div style=""font-size:60px;"">+</div>","null","","","","","","","","","",""
"","html-keyboard-response","325","553384","0.0-12.0-1.22","9fgt8h1wkv","many_one","0","direct_first","1","ia4la122","0","23","1","1","3","1","","0","1","0","null","","","<img src = 'category3/GS1.png' width = '100%;'>","null","","","","","","","","","",""
"","html-keyboard-response","326","553637","0.0-12.0-2.22","9fgt8h1wkv","many_one","0","direct_first","1","ia4la122","0","23","1","1","3","1","","0","1","0","null","","","<img src = 'targets/2.png' width = '100%;'>","null","","","","","","","","","",""
