"success","trial_type","trial_index","time_elapsed","internal_node_id","subject","condition","condition_code","measure","measure_code","codeword","gender","age","education","chinese","fach","handedness","comment","hinschauen","ablenkung","gewissenhaft","rt","url","responses","stimulus","key_press","val","type","type_specific","category","cs_selected","target","indirect","task","nr_pres","response"
"true","fullscreen","0","10901","0.0-0.0","o48wdkw8c2","one_one","1","indirect_first","0","er04rd16","0","23","1","1","3","1","","0","1","0","","","","","","","","","","","","","","",""
"","external-html","1","41035","0.0-1.0","o48wdkw8c2","one_one","1","indirect_first","0","er04rd16","0","23","1","1","3","1","","0","1","0","29886.58999998006","text/information.html","","","","","","","","","","","","",""
"","external-html","2","56957","0.0-2.0","o48wdkw8c2","one_one","1","indirect_first","0","er04rd16","0","23","1","1","3","1","","0","1","0","15866.464999999152","text/consent.html","","","","","","","","","","","","",""
"","survey-html-form","3","86714","0.0-3.0","o48wdkw8c2","one_one","1","indirect_first","0","er04rd16","0","23","1","1","3","1","","0","1","0","29752.59499999811","","{""codeword_enter"":""er04rd16""}","","","","","","","","","","","",""
"","survey-html-form","4","103201","0.0-4.0","o48wdkw8c2","one_one","1","indirect_first","0","er04rd16","0","23","1","1","3","1","","0","1","0","16481.774999992922","","{""age"":""23"",""education"":""1"",""subject"":""3"",""gender"":""0"",""handedness"":""1"",""chinese"":""1""}","","","","","","","","","","","",""
"","survey-html-form","5","115265","0.0-5.0","o48wdkw8c2","one_one","1","indirect_first","0","er04rd16","0","23","1","1","3","1","","0","1","0","12060.995000007097","","{}","","","","","","","","","","","",""
"","html-keyboard-response","6","119273","0.0-6.0-0.0-0.0","o48wdkw8c2","one_one","1","indirect_first","0","er04rd16","0","23","1","1","3","1","","0","1","0","null","","","<div class = 'row'><div class = 'column'><img src = 'uspos/5470.bmp' width = '100%;'></div><div class = 'column'><img src = 'category2/CS1.png' width = '70%;'></div></div>","null","pos","CS","CS","2","category2/CS1.png","","","","",""
"","html-keyboard-response","7","121784","0.0-6.0-0.0-0.1","o48wdkw8c2","one_one","1","indirect_first","0","er04rd16","0","23","1","1","3","1","","0","1","0","null","","","<div class = 'row'><div class = 'column'><img src = 'usneg/8485.bmp' width = '100%;'></div><div class = 'column'><img src = 'category1/CS2.png' width = '70%;'></div></div>","null","neg","CS","CS","1","category1/CS2.png","","","","",""
"","html-keyboard-response","8","124293","0.0-6.0-0.0-0.2","o48wdkw8c2","one_one","1","indirect_first","0","er04rd16","0","23","1","1","3","1","","0","1","0","null","","","<div class = 'row'><div class = 'column'><img src = 'category4/CS7.png' width = '70%;'></div><div class = 'column'><img src = 'uspos/5760.bmp' width = '100%;'></div></div>","null","pos","CS","CS","4","category4/CS7.png","","","","",""
"","html-keyboard-response","9","126803","0.0-6.0-0.0-0.3","o48wdkw8c2","one_one","1","indirect_first","0","er04rd16","0","23","1","1","3","1","","0","1","0","null","","","<div class = 'row'><div class = 'column'><img src = 'category2/CS1.png' width = '70%;'></div><div class = 'column'><img src = 'uspos/5470.bmp' width = '100%;'></div></div>","null","pos","CS","CS","2","category2/CS1.png","","","","",""
"","html-keyboard-response","10","129315","0.0-6.0-0.0-0.4","o48wdkw8c2","one_one","1","indirect_first","0","er04rd16","0","23","1","1","3","1","","0","1","0","null","","","<div class = 'row'><div class = 'column'><img src = 'usneg/9280.bmp' width = '100%;'></div><div class = 'column'><img src = 'category3/CS9.png' width = '70%;'></div></div>","null","neg","CS","CS","3","category3/CS9.png","","","","",""
"","html-keyboard-response","11","131825","0.0-6.0-0.0-0.5","o48wdkw8c2","one_one","1","indirect_first","0","er04rd16","0","23","1","1","3","1","","0","1","0","null","","","<div class = 'row'><div class = 'column'><img src = 'category4/CS7.png' width = '70%;'></div><div class = 'column'><img src = 'uspos/5760.bmp' width = '100%;'></div></div>","null","pos","CS","CS","4","category4/CS7.png","","","","",""
"","html-keyboard-response","12","134334","0.0-6.0-0.0-0.6","o48wdkw8c2","one_one","1","indirect_first","0","er04rd16","0","23","1","1","3","1","","0","1","0","null","","","<div class = 'row'><div class = 'column'><img src = 'uspos/5470.bmp' width = '100%;'></div><div class = 'column'><img src = 'category2/CS1.png' width = '70%;'></div></div>","null","pos","CS","CS","2","category2/CS1.png","","","","",""
"","html-keyboard-response","13","136845","0.0-6.0-0.0-0.7","o48wdkw8c2","one_one","1","indirect_first","0","er04rd16","0","23","1","1","3","1","","0","1","0","null","","","<div class = 'row'><div class = 'column'><img src = 'usneg/8485.bmp' width = '100%;'></div><div class = 'column'><img src = 'category1/CS2.png' width = '70%;'></div></div>","null","neg","CS","CS","1","category1/CS2.png","","","","",""
"","html-keyboard-response","14","139357","0.0-6.0-0.0-0.8","o48wdkw8c2","one_one","1","indirect_first","0","er04rd16","0","23","1","1","3","1","","0","1","0","null","","","<div class = 'row'><div class = 'column'><img src = 'uspos/5470.bmp' width = '100%;'></div><div class = 'column'><img src = 'category2/CS1.png' width = '70%;'></div></div>","null","pos","CS","CS","2","category2/CS1.png","","","","",""
"","html-keyboard-response","15","141867","0.0-6.0-0.0-0.9","o48wdkw8c2","one_one","1","indirect_first","0","er04rd16","0","23","1","1","3","1","","0","1","0","null","","","<div class = 'row'><div class = 'column'><img src = 'category3/CS9.png' width = '70%;'></div><div class = 'column'><img src = 'usneg/9280.bmp' width = '100%;'></div></div>","null","neg","CS","CS","3","category3/CS9.png","","","","",""
"","html-keyboard-response","16","144376","0.0-6.0-0.0-0.10","o48wdkw8c2","one_one","1","indirect_first","0","er04rd16","0","23","1","1","3","1","","0","1","0","null","","","<div class = 'row'><div class = 'column'><img src = 'category4/CS7.png' width = '70%;'></div><div class = 'column'><img src = 'uspos/5760.bmp' width = '100%;'></div></div>","null","pos","CS","CS","4","category4/CS7.png","","","","",""
"","html-keyboard-response","17","146888","0.0-6.0-0.0-0.11","o48wdkw8c2","one_one","1","indirect_first","0","er04rd16","0","23","1","1","3","1","","0","1","0","null","","","<div class = 'row'><div class = 'column'><img src = 'usneg/9280.bmp' width = '100%;'></div><div class = 'column'><img src = 'category3/CS9.png' width = '70%;'></div></div>","null","neg","CS","CS","3","category3/CS9.png","","","","",""
"","html-keyboard-response","18","149397","0.0-6.0-0.0-0.12","o48wdkw8c2","one_one","1","indirect_first","0","er04rd16","0","23","1","1","3","1","","0","1","0","null","","","<div class = 'row'><div class = 'column'><img src = 'usneg/8485.bmp' width = '100%;'></div><div class = 'column'><img src = 'category1/CS2.png' width = '70%;'></div></div>","null","neg","CS","CS","1","category1/CS2.png","","","","",""
"","html-keyboard-response","19","151906","0.0-6.0-0.0-0.13","o48wdkw8c2","one_one","1","indirect_first","0","er04rd16","0","23","1","1","3","1","","0","1","0","null","","","<div class = 'row'><div class = 'column'><img src = 'category4/CS7.png' width = '70%;'></div><div class = 'column'><img src = 'uspos/5760.bmp' width = '100%;'></div></div>","null","pos","CS","CS","4","category4/CS7.png","","","","",""
"","html-keyboard-response","20","154415","0.0-6.0-0.0-0.14","o48wdkw8c2","one_one","1","indirect_first","0","er04rd16","0","23","1","1","3","1","","0","1","0","null","","","<div class = 'row'><div class = 'column'><img src = 'category2/CS1.png' width = '70%;'></div><div class = 'column'><img src = 'uspos/5470.bmp' width = '100%;'></div></div>","null","pos","CS","CS","2","category2/CS1.png","","","","",""
"","html-keyboard-response","21","156920","0.0-6.0-0.0-0.15","o48wdkw8c2","one_one","1","indirect_first","0","er04rd16","0","23","1","1","3","1","","0","1","0","null","","","<div class = 'row'><div class = 'column'><img src = 'category4/CS7.png' width = '70%;'></div><div class = 'column'><img src = 'uspos/5760.bmp' width = '100%;'></div></div>","null","pos","CS","CS","4","category4/CS7.png","","","","",""
"","html-keyboard-response","22","159432","0.0-6.0-0.0-0.16","o48wdkw8c2","one_one","1","indirect_first","0","er04rd16","0","23","1","1","3","1","","0","1","0","null","","","<div class = 'row'><div class = 'column'><img src = 'usneg/8485.bmp' width = '100%;'></div><div class = 'column'><img src = 'category1/CS2.png' width = '70%;'></div></div>","null","neg","CS","CS","1","category1/CS2.png","","","","",""
"","html-keyboard-response","23","161939","0.0-6.0-0.0-0.17","o48wdkw8c2","one_one","1","indirect_first","0","er04rd16","0","23","1","1","3","1","","0","1","0","null","","","<div class = 'row'><div class = 'column'><img src = 'category3/CS9.png' width = '70%;'></div><div class = 'column'><img src = 'usneg/9280.bmp' width = '100%;'></div></div>","null","neg","CS","CS","3","category3/CS9.png","","","","",""
"","html-keyboard-response","24","164445","0.0-6.0-0.0-0.18","o48wdkw8c2","one_one","1","indirect_first","0","er04rd16","0","23","1","1","3","1","","0","1","0","null","","","<div class = 'row'><div class = 'column'><img src = 'category1/CS2.png' width = '70%;'></div><div class = 'column'><img src = 'usneg/8485.bmp' width = '100%;'></div></div>","null","neg","CS","CS","1","category1/CS2.png","","","","",""
"","html-keyboard-response","25","166954","0.0-6.0-0.0-0.19","o48wdkw8c2","one_one","1","indirect_first","0","er04rd16","0","23","1","1","3","1","","0","1","0","null","","","<div class = 'row'><div class = 'column'><img src = 'category3/CS9.png' width = '70%;'></div><div class = 'column'><img src = 'usneg/9280.bmp' width = '100%;'></div></div>","null","neg","CS","CS","3","category3/CS9.png","","","","",""
"","survey-html-form","26","169692","0.0-6.0-1.0","o48wdkw8c2","one_one","1","indirect_first","0","er04rd16","0","23","1","1","3","1","","0","1","0","2230.7650000147987","","{}","","","","","","","","","","","",""
"","html-keyboard-response","27","173704","0.0-6.0-2.0-0.0","o48wdkw8c2","one_one","1","indirect_first","0","er04rd16","0","23","1","1","3","1","","0","1","0","null","","","<div class = 'row'><div class = 'column'><img src = 'usneg/8485.bmp' width = '100%;'></div><div class = 'column'><img src = 'category1/CS2.png' width = '70%;'></div></div>","null","neg","CS","CS","1","category1/CS2.png","","","","",""
"","html-keyboard-response","28","176210","0.0-6.0-2.0-0.1","o48wdkw8c2","one_one","1","indirect_first","0","er04rd16","0","23","1","1","3","1","","0","1","0","null","","","<div class = 'row'><div class = 'column'><img src = 'usneg/9280.bmp' width = '100%;'></div><div class = 'column'><img src = 'category3/CS9.png' width = '70%;'></div></div>","null","neg","CS","CS","3","category3/CS9.png","","","","",""
"","html-keyboard-response","29","178717","0.0-6.0-2.0-0.2","o48wdkw8c2","one_one","1","indirect_first","0","er04rd16","0","23","1","1","3","1","","0","1","0","null","","","<div class = 'row'><div class = 'column'><img src = 'usneg/8485.bmp' width = '100%;'></div><div class = 'column'><img src = 'category1/CS2.png' width = '70%;'></div></div>","null","neg","CS","CS","1","category1/CS2.png","","","","",""
"","html-keyboard-response","30","181224","0.0-6.0-2.0-0.3","o48wdkw8c2","one_one","1","indirect_first","0","er04rd16","0","23","1","1","3","1","","0","1","0","null","","","<div class = 'row'><div class = 'column'><img src = 'uspos/5470.bmp' width = '100%;'></div><div class = 'column'><img src = 'category2/CS1.png' width = '70%;'></div></div>","null","pos","CS","CS","2","category2/CS1.png","","","","",""
"","html-keyboard-response","31","183736","0.0-6.0-2.0-0.4","o48wdkw8c2","one_one","1","indirect_first","0","er04rd16","0","23","1","1","3","1","","0","1","0","null","","","<div class = 'row'><div class = 'column'><img src = 'uspos/5760.bmp' width = '100%;'></div><div class = 'column'><img src = 'category4/CS7.png' width = '70%;'></div></div>","null","pos","CS","CS","4","category4/CS7.png","","","","",""
"","html-keyboard-response","32","186248","0.0-6.0-2.0-0.5","o48wdkw8c2","one_one","1","indirect_first","0","er04rd16","0","23","1","1","3","1","","0","1","0","null","","","<div class = 'row'><div class = 'column'><img src = 'category2/CS1.png' width = '70%;'></div><div class = 'column'><img src = 'uspos/5470.bmp' width = '100%;'></div></div>","null","pos","CS","CS","2","category2/CS1.png","","","","",""
"","html-keyboard-response","33","188755","0.0-6.0-2.0-0.6","o48wdkw8c2","one_one","1","indirect_first","0","er04rd16","0","23","1","1","3","1","","0","1","0","null","","","<div class = 'row'><div class = 'column'><img src = 'category3/CS9.png' width = '70%;'></div><div class = 'column'><img src = 'usneg/9280.bmp' width = '100%;'></div></div>","null","neg","CS","CS","3","category3/CS9.png","","","","",""
"","html-keyboard-response","34","191266","0.0-6.0-2.0-0.7","o48wdkw8c2","one_one","1","indirect_first","0","er04rd16","0","23","1","1","3","1","","0","1","0","null","","","<div class = 'row'><div class = 'column'><img src = 'uspos/5760.bmp' width = '100%;'></div><div class = 'column'><img src = 'category4/CS7.png' width = '70%;'></div></div>","null","pos","CS","CS","4","category4/CS7.png","","","","",""
"","html-keyboard-response","35","193780","0.0-6.0-2.0-0.8","o48wdkw8c2","one_one","1","indirect_first","0","er04rd16","0","23","1","1","3","1","","0","1","0","null","","","<div class = 'row'><div class = 'column'><img src = 'usneg/9280.bmp' width = '100%;'></div><div class = 'column'><img src = 'category3/CS9.png' width = '70%;'></div></div>","null","neg","CS","CS","3","category3/CS9.png","","","","",""
"","html-keyboard-response","36","196283","0.0-6.0-2.0-0.9","o48wdkw8c2","one_one","1","indirect_first","0","er04rd16","0","23","1","1","3","1","","0","1","0","null","","","<div class = 'row'><div class = 'column'><img src = 'category4/CS7.png' width = '70%;'></div><div class = 'column'><img src = 'uspos/5760.bmp' width = '100%;'></div></div>","null","pos","CS","CS","4","category4/CS7.png","","","","",""
"","html-keyboard-response","37","198791","0.0-6.0-2.0-0.10","o48wdkw8c2","one_one","1","indirect_first","0","er04rd16","0","23","1","1","3","1","","0","1","0","null","","","<div class = 'row'><div class = 'column'><img src = 'category2/CS1.png' width = '70%;'></div><div class = 'column'><img src = 'uspos/5470.bmp' width = '100%;'></div></div>","null","pos","CS","CS","2","category2/CS1.png","","","","",""
"","html-keyboard-response","38","201298","0.0-6.0-2.0-0.11","o48wdkw8c2","one_one","1","indirect_first","0","er04rd16","0","23","1","1","3","1","","0","1","0","null","","","<div class = 'row'><div class = 'column'><img src = 'category4/CS7.png' width = '70%;'></div><div class = 'column'><img src = 'uspos/5760.bmp' width = '100%;'></div></div>","null","pos","CS","CS","4","category4/CS7.png","","","","",""
"","html-keyboard-response","39","203812","0.0-6.0-2.0-0.12","o48wdkw8c2","one_one","1","indirect_first","0","er04rd16","0","23","1","1","3","1","","0","1","0","null","","","<div class = 'row'><div class = 'column'><img src = 'usneg/8485.bmp' width = '100%;'></div><div class = 'column'><img src = 'category1/CS2.png' width = '70%;'></div></div>","null","neg","CS","CS","1","category1/CS2.png","","","","",""
"","html-keyboard-response","40","206322","0.0-6.0-2.0-0.13","o48wdkw8c2","one_one","1","indirect_first","0","er04rd16","0","23","1","1","3","1","","0","1","0","null","","","<div class = 'row'><div class = 'column'><img src = 'category3/CS9.png' width = '70%;'></div><div class = 'column'><img src = 'usneg/9280.bmp' width = '100%;'></div></div>","null","neg","CS","CS","3","category3/CS9.png","","","","",""
"","html-keyboard-response","41","208829","0.0-6.0-2.0-0.14","o48wdkw8c2","one_one","1","indirect_first","0","er04rd16","0","23","1","1","3","1","","0","1","0","null","","","<div class = 'row'><div class = 'column'><img src = 'category4/CS7.png' width = '70%;'></div><div class = 'column'><img src = 'uspos/5760.bmp' width = '100%;'></div></div>","null","pos","CS","CS","4","category4/CS7.png","","","","",""
"","html-keyboard-response","42","211338","0.0-6.0-2.0-0.15","o48wdkw8c2","one_one","1","indirect_first","0","er04rd16","0","23","1","1","3","1","","0","1","0","null","","","<div class = 'row'><div class = 'column'><img src = 'usneg/9280.bmp' width = '100%;'></div><div class = 'column'><img src = 'category3/CS9.png' width = '70%;'></div></div>","null","neg","CS","CS","3","category3/CS9.png","","","","",""
"","html-keyboard-response","43","213842","0.0-6.0-2.0-0.16","o48wdkw8c2","one_one","1","indirect_first","0","er04rd16","0","23","1","1","3","1","","0","1","0","null","","","<div class = 'row'><div class = 'column'><img src = 'category2/CS1.png' width = '70%;'></div><div class = 'column'><img src = 'uspos/5470.bmp' width = '100%;'></div></div>","null","pos","CS","CS","2","category2/CS1.png","","","","",""
"","html-keyboard-response","44","216346","0.0-6.0-2.0-0.17","o48wdkw8c2","one_one","1","indirect_first","0","er04rd16","0","23","1","1","3","1","","0","1","0","null","","","<div class = 'row'><div class = 'column'><img src = 'usneg/8485.bmp' width = '100%;'></div><div class = 'column'><img src = 'category1/CS2.png' width = '70%;'></div></div>","null","neg","CS","CS","1","category1/CS2.png","","","","",""
"","html-keyboard-response","45","218853","0.0-6.0-2.0-0.18","o48wdkw8c2","one_one","1","indirect_first","0","er04rd16","0","23","1","1","3","1","","0","1","0","null","","","<div class = 'row'><div class = 'column'><img src = 'category2/CS1.png' width = '70%;'></div><div class = 'column'><img src = 'uspos/5470.bmp' width = '100%;'></div></div>","null","pos","CS","CS","2","category2/CS1.png","","","","",""
"","html-keyboard-response","46","221359","0.0-6.0-2.0-0.19","o48wdkw8c2","one_one","1","indirect_first","0","er04rd16","0","23","1","1","3","1","","0","1","0","null","","","<div class = 'row'><div class = 'column'><img src = 'category1/CS2.png' width = '70%;'></div><div class = 'column'><img src = 'usneg/8485.bmp' width = '100%;'></div></div>","null","neg","CS","CS","1","category1/CS2.png","","","","",""
"","survey-html-form","47","224845","0.0-6.0-3.0","o48wdkw8c2","one_one","1","indirect_first","0","er04rd16","0","23","1","1","3","1","","0","1","0","2980.9450000175275","","{}","","","","","","","","","","","",""
"","html-keyboard-response","48","228854","0.0-6.0-4.0-0.0","o48wdkw8c2","one_one","1","indirect_first","0","er04rd16","0","23","1","1","3","1","","0","1","0","null","","","<div class = 'row'><div class = 'column'><img src = 'category4/CS7.png' width = '70%;'></div><div class = 'column'><img src = 'uspos/5760.bmp' width = '100%;'></div></div>","null","pos","CS","CS","4","category4/CS7.png","","","","",""
"","html-keyboard-response","49","231363","0.0-6.0-4.0-0.1","o48wdkw8c2","one_one","1","indirect_first","0","er04rd16","0","23","1","1","3","1","","0","1","0","null","","","<div class = 'row'><div class = 'column'><img src = 'category3/CS9.png' width = '70%;'></div><div class = 'column'><img src = 'usneg/9280.bmp' width = '100%;'></div></div>","null","neg","CS","CS","3","category3/CS9.png","","","","",""
"","html-keyboard-response","50","233875","0.0-6.0-4.0-0.2","o48wdkw8c2","one_one","1","indirect_first","0","er04rd16","0","23","1","1","3","1","","0","1","0","null","","","<div class = 'row'><div class = 'column'><img src = 'uspos/5470.bmp' width = '100%;'></div><div class = 'column'><img src = 'category2/CS1.png' width = '70%;'></div></div>","null","pos","CS","CS","2","category2/CS1.png","","","","",""
"","html-keyboard-response","51","236385","0.0-6.0-4.0-0.3","o48wdkw8c2","one_one","1","indirect_first","0","er04rd16","0","23","1","1","3","1","","0","1","0","null","","","<div class = 'row'><div class = 'column'><img src = 'usneg/8485.bmp' width = '100%;'></div><div class = 'column'><img src = 'category1/CS2.png' width = '70%;'></div></div>","null","neg","CS","CS","1","category1/CS2.png","","","","",""
"","html-keyboard-response","52","238891","0.0-6.0-4.0-0.4","o48wdkw8c2","one_one","1","indirect_first","0","er04rd16","0","23","1","1","3","1","","0","1","0","null","","","<div class = 'row'><div class = 'column'><img src = 'category4/CS7.png' width = '70%;'></div><div class = 'column'><img src = 'uspos/5760.bmp' width = '100%;'></div></div>","null","pos","CS","CS","4","category4/CS7.png","","","","",""
"","html-keyboard-response","53","241396","0.0-6.0-4.0-0.5","o48wdkw8c2","one_one","1","indirect_first","0","er04rd16","0","23","1","1","3","1","","0","1","0","null","","","<div class = 'row'><div class = 'column'><img src = 'usneg/8485.bmp' width = '100%;'></div><div class = 'column'><img src = 'category1/CS2.png' width = '70%;'></div></div>","null","neg","CS","CS","1","category1/CS2.png","","","","",""
"","html-keyboard-response","54","243902","0.0-6.0-4.0-0.6","o48wdkw8c2","one_one","1","indirect_first","0","er04rd16","0","23","1","1","3","1","","0","1","0","null","","","<div class = 'row'><div class = 'column'><img src = 'category2/CS1.png' width = '70%;'></div><div class = 'column'><img src = 'uspos/5470.bmp' width = '100%;'></div></div>","null","pos","CS","CS","2","category2/CS1.png","","","","",""
"","html-keyboard-response","55","246407","0.0-6.0-4.0-0.7","o48wdkw8c2","one_one","1","indirect_first","0","er04rd16","0","23","1","1","3","1","","0","1","0","null","","","<div class = 'row'><div class = 'column'><img src = 'category3/CS9.png' width = '70%;'></div><div class = 'column'><img src = 'usneg/9280.bmp' width = '100%;'></div></div>","null","neg","CS","CS","3","category3/CS9.png","","","","",""
"","html-keyboard-response","56","248914","0.0-6.0-4.0-0.8","o48wdkw8c2","one_one","1","indirect_first","0","er04rd16","0","23","1","1","3","1","","0","1","0","null","","","<div class = 'row'><div class = 'column'><img src = 'category1/CS2.png' width = '70%;'></div><div class = 'column'><img src = 'usneg/8485.bmp' width = '100%;'></div></div>","null","neg","CS","CS","1","category1/CS2.png","","","","",""
"","html-keyboard-response","57","251425","0.0-6.0-4.0-0.9","o48wdkw8c2","one_one","1","indirect_first","0","er04rd16","0","23","1","1","3","1","","0","1","0","null","","","<div class = 'row'><div class = 'column'><img src = 'uspos/5470.bmp' width = '100%;'></div><div class = 'column'><img src = 'category2/CS1.png' width = '70%;'></div></div>","null","pos","CS","CS","2","category2/CS1.png","","","","",""
"","html-keyboard-response","58","253938","0.0-6.0-4.0-0.10","o48wdkw8c2","one_one","1","indirect_first","0","er04rd16","0","23","1","1","3","1","","0","1","0","null","","","<div class = 'row'><div class = 'column'><img src = 'usneg/9280.bmp' width = '100%;'></div><div class = 'column'><img src = 'category3/CS9.png' width = '70%;'></div></div>","null","neg","CS","CS","3","category3/CS9.png","","","","",""
"","html-keyboard-response","59","256444","0.0-6.0-4.0-0.11","o48wdkw8c2","one_one","1","indirect_first","0","er04rd16","0","23","1","1","3","1","","0","1","0","null","","","<div class = 'row'><div class = 'column'><img src = 'category4/CS7.png' width = '70%;'></div><div class = 'column'><img src = 'uspos/5760.bmp' width = '100%;'></div></div>","null","pos","CS","CS","4","category4/CS7.png","","","","",""
"","html-keyboard-response","60","258956","0.0-6.0-4.0-0.12","o48wdkw8c2","one_one","1","indirect_first","0","er04rd16","0","23","1","1","3","1","","0","1","0","null","","","<div class = 'row'><div class = 'column'><img src = 'usneg/8485.bmp' width = '100%;'></div><div class = 'column'><img src = 'category1/CS2.png' width = '70%;'></div></div>","null","neg","CS","CS","1","category1/CS2.png","","","","",""
"","html-keyboard-response","61","261463","0.0-6.0-4.0-0.13","o48wdkw8c2","one_one","1","indirect_first","0","er04rd16","0","23","1","1","3","1","","0","1","0","null","","","<div class = 'row'><div class = 'column'><img src = 'category4/CS7.png' width = '70%;'></div><div class = 'column'><img src = 'uspos/5760.bmp' width = '100%;'></div></div>","null","pos","CS","CS","4","category4/CS7.png","","","","",""
"","html-keyboard-response","62","263969","0.0-6.0-4.0-0.14","o48wdkw8c2","one_one","1","indirect_first","0","er04rd16","0","23","1","1","3","1","","0","1","0","null","","","<div class = 'row'><div class = 'column'><img src = 'usneg/9280.bmp' width = '100%;'></div><div class = 'column'><img src = 'category3/CS9.png' width = '70%;'></div></div>","null","neg","CS","CS","3","category3/CS9.png","","","","",""
"","html-keyboard-response","63","266480","0.0-6.0-4.0-0.15","o48wdkw8c2","one_one","1","indirect_first","0","er04rd16","0","23","1","1","3","1","","0","1","0","null","","","<div class = 'row'><div class = 'column'><img src = 'category4/CS7.png' width = '70%;'></div><div class = 'column'><img src = 'uspos/5760.bmp' width = '100%;'></div></div>","null","pos","CS","CS","4","category4/CS7.png","","","","",""
"","html-keyboard-response","64","268989","0.0-6.0-4.0-0.16","o48wdkw8c2","one_one","1","indirect_first","0","er04rd16","0","23","1","1","3","1","","0","1","0","null","","","<div class = 'row'><div class = 'column'><img src = 'category2/CS1.png' width = '70%;'></div><div class = 'column'><img src = 'uspos/5470.bmp' width = '100%;'></div></div>","null","pos","CS","CS","2","category2/CS1.png","","","","",""
"","html-keyboard-response","65","271499","0.0-6.0-4.0-0.17","o48wdkw8c2","one_one","1","indirect_first","0","er04rd16","0","23","1","1","3","1","","0","1","0","null","","","<div class = 'row'><div class = 'column'><img src = 'usneg/8485.bmp' width = '100%;'></div><div class = 'column'><img src = 'category1/CS2.png' width = '70%;'></div></div>","null","neg","CS","CS","1","category1/CS2.png","","","","",""
"","html-keyboard-response","66","274009","0.0-6.0-4.0-0.18","o48wdkw8c2","one_one","1","indirect_first","0","er04rd16","0","23","1","1","3","1","","0","1","0","null","","","<div class = 'row'><div class = 'column'><img src = 'category3/CS9.png' width = '70%;'></div><div class = 'column'><img src = 'usneg/9280.bmp' width = '100%;'></div></div>","null","neg","CS","CS","3","category3/CS9.png","","","","",""
"","html-keyboard-response","67","276517","0.0-6.0-4.0-0.19","o48wdkw8c2","one_one","1","indirect_first","0","er04rd16","0","23","1","1","3","1","","0","1","0","null","","","<div class = 'row'><div class = 'column'><img src = 'uspos/5470.bmp' width = '100%;'></div><div class = 'column'><img src = 'category2/CS1.png' width = '70%;'></div></div>","null","pos","CS","CS","2","category2/CS1.png","","","","",""
"","survey-html-form","68","278554","0.0-6.0-5.0","o48wdkw8c2","one_one","1","indirect_first","0","er04rd16","0","23","1","1","3","1","","0","1","0","1533.5900000063702","","{}","","","","","","","","","","","",""
"","html-keyboard-response","69","282570","0.0-6.0-6.0-0.0","o48wdkw8c2","one_one","1","indirect_first","0","er04rd16","0","23","1","1","3","1","","0","1","0","null","","","<div class = 'row'><div class = 'column'><img src = 'category4/CS7.png' width = '70%;'></div><div class = 'column'><img src = 'uspos/5760.bmp' width = '100%;'></div></div>","null","pos","CS","CS","4","category4/CS7.png","","","","",""
"","html-keyboard-response","70","285081","0.0-6.0-6.0-0.1","o48wdkw8c2","one_one","1","indirect_first","0","er04rd16","0","23","1","1","3","1","","0","1","0","null","","","<div class = 'row'><div class = 'column'><img src = 'category1/CS2.png' width = '70%;'></div><div class = 'column'><img src = 'usneg/8485.bmp' width = '100%;'></div></div>","null","neg","CS","CS","1","category1/CS2.png","","","","",""
"","html-keyboard-response","71","287590","0.0-6.0-6.0-0.2","o48wdkw8c2","one_one","1","indirect_first","0","er04rd16","0","23","1","1","3","1","","0","1","0","null","","","<div class = 'row'><div class = 'column'><img src = 'category3/CS9.png' width = '70%;'></div><div class = 'column'><img src = 'usneg/9280.bmp' width = '100%;'></div></div>","null","neg","CS","CS","3","category3/CS9.png","","","","",""
"","html-keyboard-response","72","290099","0.0-6.0-6.0-0.3","o48wdkw8c2","one_one","1","indirect_first","0","er04rd16","0","23","1","1","3","1","","0","1","0","null","","","<div class = 'row'><div class = 'column'><img src = 'usneg/8485.bmp' width = '100%;'></div><div class = 'column'><img src = 'category1/CS2.png' width = '70%;'></div></div>","null","neg","CS","CS","1","category1/CS2.png","","","","",""
"","html-keyboard-response","73","292604","0.0-6.0-6.0-0.4","o48wdkw8c2","one_one","1","indirect_first","0","er04rd16","0","23","1","1","3","1","","0","1","0","null","","","<div class = 'row'><div class = 'column'><img src = 'category2/CS1.png' width = '70%;'></div><div class = 'column'><img src = 'uspos/5470.bmp' width = '100%;'></div></div>","null","pos","CS","CS","2","category2/CS1.png","","","","",""
"","html-keyboard-response","74","295115","0.0-6.0-6.0-0.5","o48wdkw8c2","one_one","1","indirect_first","0","er04rd16","0","23","1","1","3","1","","0","1","0","null","","","<div class = 'row'><div class = 'column'><img src = 'usneg/8485.bmp' width = '100%;'></div><div class = 'column'><img src = 'category1/CS2.png' width = '70%;'></div></div>","null","neg","CS","CS","1","category1/CS2.png","","","","",""
"","html-keyboard-response","75","297621","0.0-6.0-6.0-0.6","o48wdkw8c2","one_one","1","indirect_first","0","er04rd16","0","23","1","1","3","1","","0","1","0","null","","","<div class = 'row'><div class = 'column'><img src = 'category2/CS1.png' width = '70%;'></div><div class = 'column'><img src = 'uspos/5470.bmp' width = '100%;'></div></div>","null","pos","CS","CS","2","category2/CS1.png","","","","",""
"","html-keyboard-response","76","300129","0.0-6.0-6.0-0.7","o48wdkw8c2","one_one","1","indirect_first","0","er04rd16","0","23","1","1","3","1","","0","1","0","null","","","<div class = 'row'><div class = 'column'><img src = 'uspos/5760.bmp' width = '100%;'></div><div class = 'column'><img src = 'category4/CS7.png' width = '70%;'></div></div>","null","pos","CS","CS","4","category4/CS7.png","","","","",""
"","html-keyboard-response","77","302635","0.0-6.0-6.0-0.8","o48wdkw8c2","one_one","1","indirect_first","0","er04rd16","0","23","1","1","3","1","","0","1","0","null","","","<div class = 'row'><div class = 'column'><img src = 'usneg/9280.bmp' width = '100%;'></div><div class = 'column'><img src = 'category3/CS9.png' width = '70%;'></div></div>","null","neg","CS","CS","3","category3/CS9.png","","","","",""
"","html-keyboard-response","78","305142","0.0-6.0-6.0-0.9","o48wdkw8c2","one_one","1","indirect_first","0","er04rd16","0","23","1","1","3","1","","0","1","0","null","","","<div class = 'row'><div class = 'column'><img src = 'usneg/8485.bmp' width = '100%;'></div><div class = 'column'><img src = 'category1/CS2.png' width = '70%;'></div></div>","null","neg","CS","CS","1","category1/CS2.png","","","","",""
"","html-keyboard-response","79","307654","0.0-6.0-6.0-0.10","o48wdkw8c2","one_one","1","indirect_first","0","er04rd16","0","23","1","1","3","1","","0","1","0","null","","","<div class = 'row'><div class = 'column'><img src = 'category3/CS9.png' width = '70%;'></div><div class = 'column'><img src = 'usneg/9280.bmp' width = '100%;'></div></div>","null","neg","CS","CS","3","category3/CS9.png","","","","",""
"","html-keyboard-response","80","310164","0.0-6.0-6.0-0.11","o48wdkw8c2","one_one","1","indirect_first","0","er04rd16","0","23","1","1","3","1","","0","1","0","null","","","<div class = 'row'><div class = 'column'><img src = 'uspos/5470.bmp' width = '100%;'></div><div class = 'column'><img src = 'category2/CS1.png' width = '70%;'></div></div>","null","pos","CS","CS","2","category2/CS1.png","","","","",""
"","html-keyboard-response","81","312674","0.0-6.0-6.0-0.12","o48wdkw8c2","one_one","1","indirect_first","0","er04rd16","0","23","1","1","3","1","","0","1","0","null","","","<div class = 'row'><div class = 'column'><img src = 'uspos/5760.bmp' width = '100%;'></div><div class = 'column'><img src = 'category4/CS7.png' width = '70%;'></div></div>","null","pos","CS","CS","4","category4/CS7.png","","","","",""
"","html-keyboard-response","82","315183","0.0-6.0-6.0-0.13","o48wdkw8c2","one_one","1","indirect_first","0","er04rd16","0","23","1","1","3","1","","0","1","0","null","","","<div class = 'row'><div class = 'column'><img src = 'category2/CS1.png' width = '70%;'></div><div class = 'column'><img src = 'uspos/5470.bmp' width = '100%;'></div></div>","null","pos","CS","CS","2","category2/CS1.png","","","","",""
"","html-keyboard-response","83","317692","0.0-6.0-6.0-0.14","o48wdkw8c2","one_one","1","indirect_first","0","er04rd16","0","23","1","1","3","1","","0","1","0","null","","","<div class = 'row'><div class = 'column'><img src = 'category3/CS9.png' width = '70%;'></div><div class = 'column'><img src = 'usneg/9280.bmp' width = '100%;'></div></div>","null","neg","CS","CS","3","category3/CS9.png","","","","",""
"","html-keyboard-response","84","320203","0.0-6.0-6.0-0.15","o48wdkw8c2","one_one","1","indirect_first","0","er04rd16","0","23","1","1","3","1","","0","1","0","null","","","<div class = 'row'><div class = 'column'><img src = 'uspos/5760.bmp' width = '100%;'></div><div class = 'column'><img src = 'category4/CS7.png' width = '70%;'></div></div>","null","pos","CS","CS","4","category4/CS7.png","","","","",""
"","html-keyboard-response","85","322713","0.0-6.0-6.0-0.16","o48wdkw8c2","one_one","1","indirect_first","0","er04rd16","0","23","1","1","3","1","","0","1","0","null","","","<div class = 'row'><div class = 'column'><img src = 'usneg/9280.bmp' width = '100%;'></div><div class = 'column'><img src = 'category3/CS9.png' width = '70%;'></div></div>","null","neg","CS","CS","3","category3/CS9.png","","","","",""
"","html-keyboard-response","86","325222","0.0-6.0-6.0-0.17","o48wdkw8c2","one_one","1","indirect_first","0","er04rd16","0","23","1","1","3","1","","0","1","0","null","","","<div class = 'row'><div class = 'column'><img src = 'uspos/5470.bmp' width = '100%;'></div><div class = 'column'><img src = 'category2/CS1.png' width = '70%;'></div></div>","null","pos","CS","CS","2","category2/CS1.png","","","","",""
"","html-keyboard-response","87","327729","0.0-6.0-6.0-0.18","o48wdkw8c2","one_one","1","indirect_first","0","er04rd16","0","23","1","1","3","1","","0","1","0","null","","","<div class = 'row'><div class = 'column'><img src = 'uspos/5760.bmp' width = '100%;'></div><div class = 'column'><img src = 'category4/CS7.png' width = '70%;'></div></div>","null","pos","CS","CS","4","category4/CS7.png","","","","",""
"","html-keyboard-response","88","330235","0.0-6.0-6.0-0.19","o48wdkw8c2","one_one","1","indirect_first","0","er04rd16","0","23","1","1","3","1","","0","1","0","null","","","<div class = 'row'><div class = 'column'><img src = 'category1/CS2.png' width = '70%;'></div><div class = 'column'><img src = 'usneg/8485.bmp' width = '100%;'></div></div>","null","neg","CS","CS","1","category1/CS2.png","","","","",""
"","html-keyboard-response","89","361391","0.0-7.0","o48wdkw8c2","one_one","1","indirect_first","0","er04rd16","0","23","1","1","3","1","","0","1","0","30648.520000017015","","","<p>Sie sehen nun die chinesischen Zeichen nur ganz kurz. Danach sehen Sie die jeweilige Aussprache der Zeichen als Silbe auf dem Bildschrim. Ihre Aufgabe ist es, für jede Silbe anzugeben, ob diese etwas angenehmes, oder unangenehmes bedeuten könnte. Verlassen Sie sich hier vor allem auf Ihre Intuition.<br><br>Die Zeichen werden nur zur Orientierung dargestellt, beachten Sie sie deshalb nicht. Konzentrieren Sie sich vor allem auf die Silben. <br>Reagieren Sie mit folgenden zwei Tasten: <br><br><b>'D' </b> wenn die Silbe etwas <b>unangenehmes</b> bedeuten könnte. <br><b>'K'</b> wenn die Silbe etwas <b>angenehmes</b> bedeuten könnte. <br><br>Bitte legen Sie nun den Zeigefinger der linken Hand auf die Taste 'D' und den Zeigefinger der rechten Hand auf die Taste 'K'. <br>Reagieren Sie auf jede Silbe so schnell wie möglich. Uns interessiert Ihre spontane Reaktion. <br> <br> <br>Drücken Sie 'D' oder 'K', um die nächste Aufgabe zu starten. </p>","75","","","","","","","","","",""
"","html-keyboard-response","90","364400","0.0-8.0-0.0","o48wdkw8c2","one_one","1","indirect_first","0","er04rd16","0","23","1","1","3","1","","0","1","0","null","","","<div style=""font-size:60px;"">+</div>","null","","","","","","","","","",""
"","html-keyboard-response","91","364492","0.0-8.0-1.0","o48wdkw8c2","one_one","1","indirect_first","0","er04rd16","0","23","1","1","3","1","","0","1","0","null","","","<img src = 'category4/CS7.png' width = '100%;'>","null","","","","","","","","","",""
"","html-keyboard-response","92","364752","0.0-8.0-2.0","o48wdkw8c2","one_one","1","indirect_first","0","er04rd16","0","23","1","1","3","1","","0","1","0","null","","","<img src = 'targets/12.png' width = '100%;'>","null","","","","","","","","","",""
"","html-keyboard-response","93","369304","0.0-8.0-3.0","o48wdkw8c2","one_one","1","indirect_first","0","er04rd16","0","23","1","1","3","1","","0","1","0","4550.970000011148","","","<img src = 'targets/mask.png' width = '100%;'>","75","pos","CS","CS","4","category4/CS7.png","targets/12.png","1","indirect","0",""
"","html-keyboard-response","94","370811","0.0-8.0-0.1","o48wdkw8c2","one_one","1","indirect_first","0","er04rd16","0","23","1","1","3","1","","0","1","0","null","","","<div style=""font-size:60px;"">+</div>","null","","","","","","","","","",""
"","html-keyboard-response","95","370907","0.0-8.0-1.1","o48wdkw8c2","one_one","1","indirect_first","0","er04rd16","0","23","1","1","3","1","","0","1","0","null","","","<img src = 'category3/CS6.png' width = '100%;'>","null","","","","","","","","","",""
"","html-keyboard-response","96","371164","0.0-8.0-2.1","o48wdkw8c2","one_one","1","indirect_first","0","er04rd16","0","23","1","1","3","1","","0","1","0","null","","","<img src = 'targets/31.png' width = '100%;'>","null","","","","","","","","","",""
"","html-keyboard-response","97","372767","0.0-8.0-3.1","o48wdkw8c2","one_one","1","indirect_first","0","er04rd16","0","23","1","1","3","1","","0","1","0","1601.8699999840464","","","<img src = 'targets/mask.png' width = '100%;'>","75","neg","GS","GSold","3","category3/CS6.png","targets/31.png","1","indirect","1",""
"","html-keyboard-response","98","374274","0.0-8.0-0.2","o48wdkw8c2","one_one","1","indirect_first","0","er04rd16","0","23","1","1","3","1","","0","1","0","null","","","<div style=""font-size:60px;"">+</div>","null","","","","","","","","","",""
"","html-keyboard-response","99","374367","0.0-8.0-1.2","o48wdkw8c2","one_one","1","indirect_first","0","er04rd16","0","23","1","1","3","1","","0","1","0","null","","","<img src = 'category4/CS5.png' width = '100%;'>","null","","","","","","","","","",""
"","html-keyboard-response","100","374624","0.0-8.0-2.2","o48wdkw8c2","one_one","1","indirect_first","0","er04rd16","0","23","1","1","3","1","","0","1","0","null","","","<img src = 'targets/33.png' width = '100%;'>","null","","","","","","","","","",""
"","html-keyboard-response","101","376239","0.0-8.0-3.2","o48wdkw8c2","one_one","1","indirect_first","0","er04rd16","0","23","1","1","3","1","","0","1","0","1612.1500000008382","","","<img src = 'targets/mask.png' width = '100%;'>","75","pos","GS","GSold","4","category4/CS5.png","targets/33.png","1","indirect","2",""
"","html-keyboard-response","102","377746","0.0-8.0-0.3","o48wdkw8c2","one_one","1","indirect_first","0","er04rd16","0","23","1","1","3","1","","0","1","0","null","","","<div style=""font-size:60px;"">+</div>","null","","","","","","","","","",""
"","html-keyboard-response","103","377840","0.0-8.0-1.3","o48wdkw8c2","one_one","1","indirect_first","0","er04rd16","0","23","1","1","3","1","","0","1","0","null","","","<img src = 'category3/CS9.png' width = '100%;'>","null","","","","","","","","","",""
"","html-keyboard-response","104","378096","0.0-8.0-2.3","o48wdkw8c2","one_one","1","indirect_first","0","er04rd16","0","23","1","1","3","1","","0","1","0","null","","","<img src = 'targets/43.png' width = '100%;'>","null","","","","","","","","","",""
"","html-keyboard-response","105","379047","0.0-8.0-3.3","o48wdkw8c2","one_one","1","indirect_first","0","er04rd16","0","23","1","1","3","1","","0","1","0","948.5299999942072","","","<img src = 'targets/mask.png' width = '100%;'>","68","neg","CS","CS","3","category3/CS9.png","targets/43.png","0","indirect","3",""
"","html-keyboard-response","106","380554","0.0-8.0-0.4","o48wdkw8c2","one_one","1","indirect_first","0","er04rd16","0","23","1","1","3","1","","0","1","0","null","","","<div style=""font-size:60px;"">+</div>","null","","","","","","","","","",""
"","html-keyboard-response","107","380651","0.0-8.0-1.4","o48wdkw8c2","one_one","1","indirect_first","0","er04rd16","0","23","1","1","3","1","","0","1","0","null","","","<img src = 'category1/CS2.png' width = '100%;'>","null","","","","","","","","","",""
"","html-keyboard-response","108","380908","0.0-8.0-2.4","o48wdkw8c2","one_one","1","indirect_first","0","er04rd16","0","23","1","1","3","1","","0","1","0","null","","","<img src = 'targets/40.png' width = '100%;'>","null","","","","","","","","","",""
"","html-keyboard-response","109","381897","0.0-8.0-3.4","o48wdkw8c2","one_one","1","indirect_first","0","er04rd16","0","23","1","1","3","1","","0","1","0","987.9549999895971","","","<img src = 'targets/mask.png' width = '100%;'>","68","neg","CS","CS","1","category1/CS2.png","targets/40.png","0","indirect","4",""
"","html-keyboard-response","110","383403","0.0-8.0-0.5","o48wdkw8c2","one_one","1","indirect_first","0","er04rd16","0","23","1","1","3","1","","0","1","0","null","","","<div style=""font-size:60px;"">+</div>","null","","","","","","","","","",""
"","html-keyboard-response","111","383498","0.0-8.0-1.5","o48wdkw8c2","one_one","1","indirect_first","0","er04rd16","0","23","1","1","3","1","","0","1","0","null","","","<img src = 'category1/CS10.png' width = '100%;'>","null","","","","","","","","","",""
"","html-keyboard-response","112","383754","0.0-8.0-2.5","o48wdkw8c2","one_one","1","indirect_first","0","er04rd16","0","23","1","1","3","1","","0","1","0","null","","","<img src = 'targets/14.png' width = '100%;'>","null","","","","","","","","","",""
"","html-keyboard-response","113","384384","0.0-8.0-3.5","o48wdkw8c2","one_one","1","indirect_first","0","er04rd16","0","23","1","1","3","1","","0","1","0","628.0550000083167","","","<img src = 'targets/mask.png' width = '100%;'>","75","neg","GS","GSold","1","category1/CS10.png","targets/14.png","1","indirect","5",""
"","html-keyboard-response","114","385888","0.0-8.0-0.6","o48wdkw8c2","one_one","1","indirect_first","0","er04rd16","0","23","1","1","3","1","","0","1","0","null","","","<div style=""font-size:60px;"">+</div>","null","","","","","","","","","",""
"","html-keyboard-response","115","385984","0.0-8.0-1.6","o48wdkw8c2","one_one","1","indirect_first","0","er04rd16","0","23","1","1","3","1","","0","1","0","null","","","<img src = 'category3/CS10.png' width = '100%;'>","null","","","","","","","","","",""
"","html-keyboard-response","116","386241","0.0-8.0-2.6","o48wdkw8c2","one_one","1","indirect_first","0","er04rd16","0","23","1","1","3","1","","0","1","0","null","","","<img src = 'targets/16.png' width = '100%;'>","null","","","","","","","","","",""
"","html-keyboard-response","117","386650","0.0-8.0-3.6","o48wdkw8c2","one_one","1","indirect_first","0","er04rd16","0","23","1","1","3","1","","0","1","0","407.73500001523644","","","<img src = 'targets/mask.png' width = '100%;'>","75","neg","GS","GSold","3","category3/CS10.png","targets/16.png","1","indirect","6",""
"","html-keyboard-response","118","388157","0.0-8.0-0.7","o48wdkw8c2","one_one","1","indirect_first","0","er04rd16","0","23","1","1","3","1","","0","1","0","null","","","<div style=""font-size:60px;"">+</div>","null","","","","","","","","","",""
"","html-keyboard-response","119","388251","0.0-8.0-1.7","o48wdkw8c2","one_one","1","indirect_first","0","er04rd16","0","23","1","1","3","1","","0","1","0","null","","","<img src = 'category4/CS1.png' width = '100%;'>","null","","","","","","","","","",""
"","html-keyboard-response","120","388507","0.0-8.0-2.7","o48wdkw8c2","one_one","1","indirect_first","0","er04rd16","0","23","1","1","3","1","","0","1","0","null","","","<img src = 'targets/2.png' width = '100%;'>","null","","","","","","","","","",""
"","html-keyboard-response","121","389012","0.0-8.0-3.7","o48wdkw8c2","one_one","1","indirect_first","0","er04rd16","0","23","1","1","3","1","","0","1","0","502.9799999902025","","","<img src = 'targets/mask.png' width = '100%;'>","68","pos","GS","GSold","4","category4/CS1.png","targets/2.png","0","indirect","7",""
"","html-keyboard-response","122","390518","0.0-8.0-0.8","o48wdkw8c2","one_one","1","indirect_first","0","er04rd16","0","23","1","1","3","1","","0","1","0","null","","","<div style=""font-size:60px;"">+</div>","null","","","","","","","","","",""
"","html-keyboard-response","123","390611","0.0-8.0-1.8","o48wdkw8c2","one_one","1","indirect_first","0","er04rd16","0","23","1","1","3","1","","0","1","0","null","","","<img src = 'category2/CS5.png' width = '100%;'>","null","","","","","","","","","",""
"","html-keyboard-response","124","390864","0.0-8.0-2.8","o48wdkw8c2","one_one","1","indirect_first","0","er04rd16","0","23","1","1","3","1","","0","1","0","null","","","<img src = 'targets/29.png' width = '100%;'>","null","","","","","","","","","",""
"","html-keyboard-response","125","391616","0.0-8.0-3.8","o48wdkw8c2","one_one","1","indirect_first","0","er04rd16","0","23","1","1","3","1","","0","1","0","750.8899999957066","","","<img src = 'targets/mask.png' width = '100%;'>","68","pos","GS","GSold","2","category2/CS5.png","targets/29.png","0","indirect","8",""
"","html-keyboard-response","126","393125","0.0-8.0-0.9","o48wdkw8c2","one_one","1","indirect_first","0","er04rd16","0","23","1","1","3","1","","0","1","0","null","","","<div style=""font-size:60px;"">+</div>","null","","","","","","","","","",""
"","html-keyboard-response","127","393221","0.0-8.0-1.9","o48wdkw8c2","one_one","1","indirect_first","0","er04rd16","0","23","1","1","3","1","","0","1","0","null","","","<img src = 'category2/CS2.png' width = '100%;'>","null","","","","","","","","","",""
"","html-keyboard-response","128","393482","0.0-8.0-2.9","o48wdkw8c2","one_one","1","indirect_first","0","er04rd16","0","23","1","1","3","1","","0","1","0","null","","","<img src = 'targets/9.png' width = '100%;'>","null","","","","","","","","","",""
"","html-keyboard-response","129","393834","0.0-8.0-3.9","o48wdkw8c2","one_one","1","indirect_first","0","er04rd16","0","23","1","1","3","1","","0","1","0","349.1650000214577","","","<img src = 'targets/mask.png' width = '100%;'>","75","pos","GS","GSold","2","category2/CS2.png","targets/9.png","1","indirect","9",""
"","html-keyboard-response","130","395338","0.0-8.0-0.10","o48wdkw8c2","one_one","1","indirect_first","0","er04rd16","0","23","1","1","3","1","","0","1","0","null","","","<div style=""font-size:60px;"">+</div>","null","","","","","","","","","",""
"","html-keyboard-response","131","395433","0.0-8.0-1.10","o48wdkw8c2","one_one","1","indirect_first","0","er04rd16","0","23","1","1","3","1","","0","1","0","null","","","<img src = 'category1/CS1.png' width = '100%;'>","null","","","","","","","","","",""
"","html-keyboard-response","132","395691","0.0-8.0-2.10","o48wdkw8c2","one_one","1","indirect_first","0","er04rd16","0","23","1","1","3","1","","0","1","0","null","","","<img src = 'targets/44.png' width = '100%;'>","null","","","","","","","","","",""
"","html-keyboard-response","133","396115","0.0-8.0-3.10","o48wdkw8c2","one_one","1","indirect_first","0","er04rd16","0","23","1","1","3","1","","0","1","0","422.6599999819882","","","<img src = 'targets/mask.png' width = '100%;'>","75","neg","GS","GSold","1","category1/CS1.png","targets/44.png","1","indirect","10",""
"","html-keyboard-response","134","397622","0.0-8.0-0.11","o48wdkw8c2","one_one","1","indirect_first","0","er04rd16","0","23","1","1","3","1","","0","1","0","null","","","<div style=""font-size:60px;"">+</div>","null","","","","","","","","","",""
"","html-keyboard-response","135","397718","0.0-8.0-1.11","o48wdkw8c2","one_one","1","indirect_first","0","er04rd16","0","23","1","1","3","1","","0","1","0","null","","","<img src = 'category3/CS8.png' width = '100%;'>","null","","","","","","","","","",""
"","html-keyboard-response","136","397978","0.0-8.0-2.11","o48wdkw8c2","one_one","1","indirect_first","0","er04rd16","0","23","1","1","3","1","","0","1","0","null","","","<img src = 'targets/35.png' width = '100%;'>","null","","","","","","","","","",""
"","html-keyboard-response","137","398442","0.0-8.0-3.11","o48wdkw8c2","one_one","1","indirect_first","0","er04rd16","0","23","1","1","3","1","","0","1","0","462.4399999738671","","","<img src = 'targets/mask.png' width = '100%;'>","75","neg","GS","GSold","3","category3/CS8.png","targets/35.png","1","indirect","11",""
"","html-keyboard-response","138","399948","0.0-8.0-0.12","o48wdkw8c2","one_one","1","indirect_first","0","er04rd16","0","23","1","1","3","1","","0","1","0","null","","","<div style=""font-size:60px;"">+</div>","null","","","","","","","","","",""
"","html-keyboard-response","139","400043","0.0-8.0-1.12","o48wdkw8c2","one_one","1","indirect_first","0","er04rd16","0","23","1","1","3","1","","0","1","0","null","","","<img src = 'category2/CS3.png' width = '100%;'>","null","","","","","","","","","",""
"","html-keyboard-response","140","400299","0.0-8.0-2.12","o48wdkw8c2","one_one","1","indirect_first","0","er04rd16","0","23","1","1","3","1","","0","1","0","null","","","<img src = 'targets/41.png' width = '100%;'>","null","","","","","","","","","",""
"","html-keyboard-response","141","400538","0.0-8.0-3.12","o48wdkw8c2","one_one","1","indirect_first","0","er04rd16","0","23","1","1","3","1","","0","1","0","237.82500001834705","","","<img src = 'targets/mask.png' width = '100%;'>","68","pos","GS","GSold","2","category2/CS3.png","targets/41.png","0","indirect","12",""
"","html-keyboard-response","142","402045","0.0-8.0-0.13","o48wdkw8c2","one_one","1","indirect_first","0","er04rd16","0","23","1","1","3","1","","0","1","0","null","","","<div style=""font-size:60px;"">+</div>","null","","","","","","","","","",""
"","html-keyboard-response","143","402138","0.0-8.0-1.13","o48wdkw8c2","one_one","1","indirect_first","0","er04rd16","0","23","1","1","3","1","","0","1","0","null","","","<img src = 'category2/CS1.png' width = '100%;'>","null","","","","","","","","","",""
"","html-keyboard-response","144","402399","0.0-8.0-2.13","o48wdkw8c2","one_one","1","indirect_first","0","er04rd16","0","23","1","1","3","1","","0","1","0","null","","","<img src = 'targets/28.png' width = '100%;'>","null","","","","","","","","","",""
"","html-keyboard-response","145","402888","0.0-8.0-3.13","o48wdkw8c2","one_one","1","indirect_first","0","er04rd16","0","23","1","1","3","1","","0","1","0","487.6100000110455","","","<img src = 'targets/mask.png' width = '100%;'>","68","pos","CS","CS","2","category2/CS1.png","targets/28.png","0","indirect","13",""
"","html-keyboard-response","146","404398","0.0-8.0-0.14","o48wdkw8c2","one_one","1","indirect_first","0","er04rd16","0","23","1","1","3","1","","0","1","0","null","","","<div style=""font-size:60px;"">+</div>","null","","","","","","","","","",""
"","html-keyboard-response","147","404492","0.0-8.0-1.14","o48wdkw8c2","one_one","1","indirect_first","0","er04rd16","0","23","1","1","3","1","","0","1","0","null","","","<img src = 'category1/CS5.png' width = '100%;'>","null","","","","","","","","","",""
"","html-keyboard-response","148","404747","0.0-8.0-2.14","o48wdkw8c2","one_one","1","indirect_first","0","er04rd16","0","23","1","1","3","1","","0","1","0","null","","","<img src = 'targets/15.png' width = '100%;'>","null","","","","","","","","","",""
"","html-keyboard-response","149","405397","0.0-8.0-3.14","o48wdkw8c2","one_one","1","indirect_first","0","er04rd16","0","23","1","1","3","1","","0","1","0","648.1999999959953","","","<img src = 'targets/mask.png' width = '100%;'>","68","neg","GS","GSold","1","category1/CS5.png","targets/15.png","0","indirect","14",""
"","html-keyboard-response","150","406900","0.0-8.0-0.15","o48wdkw8c2","one_one","1","indirect_first","0","er04rd16","0","23","1","1","3","1","","0","1","0","null","","","<div style=""font-size:60px;"">+</div>","null","","","","","","","","","",""
"","html-keyboard-response","151","406997","0.0-8.0-1.15","o48wdkw8c2","one_one","1","indirect_first","0","er04rd16","0","23","1","1","3","1","","0","1","0","null","","","<img src = 'category4/CS6.png' width = '100%;'>","null","","","","","","","","","",""
"","html-keyboard-response","152","407257","0.0-8.0-2.15","o48wdkw8c2","one_one","1","indirect_first","0","er04rd16","0","23","1","1","3","1","","0","1","0","null","","","<img src = 'targets/11.png' width = '100%;'>","null","","","","","","","","","",""
"","html-keyboard-response","153","407882","0.0-8.0-3.15","o48wdkw8c2","one_one","1","indirect_first","0","er04rd16","0","23","1","1","3","1","","0","1","0","622.6949999982025","","","<img src = 'targets/mask.png' width = '100%;'>","75","pos","GS","GSold","4","category4/CS6.png","targets/11.png","1","indirect","15",""
"","survey-html-form","154","411287","0.0-9.0","o48wdkw8c2","one_one","1","indirect_first","0","er04rd16","0","23","1","1","3","1","","0","1","0","2903.664999990724","","{}","","","","","","","","","","","",""
"","html-keyboard-response","155","414298","0.0-10.0-0.0","o48wdkw8c2","one_one","1","indirect_first","0","er04rd16","0","23","1","1","3","1","","0","1","0","null","","","<div style=""font-size:60px;"">+</div>","null","","","","","","","","","",""
"","html-keyboard-response","156","414394","0.0-10.0-1.0","o48wdkw8c2","one_one","1","indirect_first","0","er04rd16","0","23","1","1","3","1","","0","1","0","null","","","<img src = 'category1/GS1.png' width = '100%;'>","null","","","","","","","","","",""
"","html-keyboard-response","157","414653","0.0-10.0-2.0","o48wdkw8c2","one_one","1","indirect_first","0","er04rd16","0","23","1","1","3","1","","0","1","0","null","","","<img src = 'targets/10.png' width = '100%;'>","null","","","","","","","","","",""
"","html-keyboard-response","158","415499","0.0-10.0-3.0","o48wdkw8c2","one_one","1","indirect_first","0","er04rd16","0","23","1","1","3","1","","0","1","0","843.5199999948964","","","<img src = 'targets/mask.png' width = '100%;'>","68","neg","GS","GSnew","1","category1/GS1.png","targets/10.png","0","indirect","16",""
"","html-keyboard-response","159","417002","0.0-10.0-0.1","o48wdkw8c2","one_one","1","indirect_first","0","er04rd16","0","23","1","1","3","1","","0","1","0","null","","","<div style=""font-size:60px;"">+</div>","null","","","","","","","","","",""
"","html-keyboard-response","160","417098","0.0-10.0-1.1","o48wdkw8c2","one_one","1","indirect_first","0","er04rd16","0","23","1","1","3","1","","0","1","0","null","","","<img src = 'category2/GS3.png' width = '100%;'>","null","","","","","","","","","",""
"","html-keyboard-response","161","417355","0.0-10.0-2.1","o48wdkw8c2","one_one","1","indirect_first","0","er04rd16","0","23","1","1","3","1","","0","1","0","null","","","<img src = 'targets/1.png' width = '100%;'>","null","","","","","","","","","",""
"","html-keyboard-response","162","418064","0.0-10.0-3.1","o48wdkw8c2","one_one","1","indirect_first","0","er04rd16","0","23","1","1","3","1","","0","1","0","707.1149999974295","","","<img src = 'targets/mask.png' width = '100%;'>","68","pos","GS","GSnew","2","category2/GS3.png","targets/1.png","0","indirect","17",""
"","html-keyboard-response","163","419572","0.0-10.0-0.2","o48wdkw8c2","one_one","1","indirect_first","0","er04rd16","0","23","1","1","3","1","","0","1","0","null","","","<div style=""font-size:60px;"">+</div>","null","","","","","","","","","",""
"","html-keyboard-response","164","419666","0.0-10.0-1.2","o48wdkw8c2","one_one","1","indirect_first","0","er04rd16","0","23","1","1","3","1","","0","1","0","null","","","<img src = 'category2/GS1.png' width = '100%;'>","null","","","","","","","","","",""
"","html-keyboard-response","165","419920","0.0-10.0-2.2","o48wdkw8c2","one_one","1","indirect_first","0","er04rd16","0","23","1","1","3","1","","0","1","0","null","","","<img src = 'targets/5.png' width = '100%;'>","null","","","","","","","","","",""
"","html-keyboard-response","166","420223","0.0-10.0-3.2","o48wdkw8c2","one_one","1","indirect_first","0","er04rd16","0","23","1","1","3","1","","0","1","0","301.6150000039488","","","<img src = 'targets/mask.png' width = '100%;'>","75","pos","GS","GSnew","2","category2/GS1.png","targets/5.png","1","indirect","18",""
"","html-keyboard-response","167","421726","0.0-10.0-0.3","o48wdkw8c2","one_one","1","indirect_first","0","er04rd16","0","23","1","1","3","1","","0","1","0","null","","","<div style=""font-size:60px;"">+</div>","null","","","","","","","","","",""
"","html-keyboard-response","168","421818","0.0-10.0-1.3","o48wdkw8c2","one_one","1","indirect_first","0","er04rd16","0","23","1","1","3","1","","0","1","0","null","","","<img src = 'category2/GS2.png' width = '100%;'>","null","","","","","","","","","",""
"","html-keyboard-response","169","422074","0.0-10.0-2.3","o48wdkw8c2","one_one","1","indirect_first","0","er04rd16","0","23","1","1","3","1","","0","1","0","null","","","<img src = 'targets/13.png' width = '100%;'>","null","","","","","","","","","",""
"","html-keyboard-response","170","422483","0.0-10.0-3.3","o48wdkw8c2","one_one","1","indirect_first","0","er04rd16","0","23","1","1","3","1","","0","1","0","407.6700000150595","","","<img src = 'targets/mask.png' width = '100%;'>","75","pos","GS","GSnew","2","category2/GS2.png","targets/13.png","1","indirect","19",""
"","html-keyboard-response","171","423988","0.0-10.0-0.4","o48wdkw8c2","one_one","1","indirect_first","0","er04rd16","0","23","1","1","3","1","","0","1","0","null","","","<div style=""font-size:60px;"">+</div>","null","","","","","","","","","",""
"","html-keyboard-response","172","424081","0.0-10.0-1.4","o48wdkw8c2","one_one","1","indirect_first","0","er04rd16","0","23","1","1","3","1","","0","1","0","null","","","<img src = 'category2/men.png' width = '100%;'>","null","","","","","","","","","",""
"","html-keyboard-response","173","424334","0.0-10.0-2.4","o48wdkw8c2","one_one","1","indirect_first","0","er04rd16","0","23","1","1","3","1","","0","1","0","null","","","<img src = 'targets/37.png' width = '100%;'>","null","","","","","","","","","",""
"","html-keyboard-response","174","424754","0.0-10.0-3.4","o48wdkw8c2","one_one","1","indirect_first","0","er04rd16","0","23","1","1","3","1","","0","1","0","418.62499999115244","","","<img src = 'targets/mask.png' width = '100%;'>","68","pos","GS","abstract","2","category2/men.png","targets/37.png","0","indirect","20",""
"","html-keyboard-response","175","426258","0.0-10.0-0.5","o48wdkw8c2","one_one","1","indirect_first","0","er04rd16","0","23","1","1","3","1","","0","1","0","null","","","<div style=""font-size:60px;"">+</div>","null","","","","","","","","","",""
"","html-keyboard-response","176","426353","0.0-10.0-1.5","o48wdkw8c2","one_one","1","indirect_first","0","er04rd16","0","23","1","1","3","1","","0","1","0","null","","","<img src = 'category4/GS1.png' width = '100%;'>","null","","","","","","","","","",""
"","html-keyboard-response","177","426607","0.0-10.0-2.5","o48wdkw8c2","one_one","1","indirect_first","0","er04rd16","0","23","1","1","3","1","","0","1","0","null","","","<img src = 'targets/42.png' width = '100%;'>","null","","","","","","","","","",""
"","html-keyboard-response","178","427392","0.0-10.0-3.5","o48wdkw8c2","one_one","1","indirect_first","0","er04rd16","0","23","1","1","3","1","","0","1","0","783.4100000036415","","","<img src = 'targets/mask.png' width = '100%;'>","75","pos","GS","GSnew","4","category4/GS1.png","targets/42.png","1","indirect","21",""
"","html-keyboard-response","179","428901","0.0-10.0-0.6","o48wdkw8c2","one_one","1","indirect_first","0","er04rd16","0","23","1","1","3","1","","0","1","0","null","","","<div style=""font-size:60px;"">+</div>","null","","","","","","","","","",""
"","html-keyboard-response","180","428997","0.0-10.0-1.6","o48wdkw8c2","one_one","1","indirect_first","0","er04rd16","0","23","1","1","3","1","","0","1","0","null","","","<img src = 'category3/GS3.png' width = '100%;'>","null","","","","","","","","","",""
"","html-keyboard-response","181","429253","0.0-10.0-2.6","o48wdkw8c2","one_one","1","indirect_first","0","er04rd16","0","23","1","1","3","1","","0","1","0","null","","","<img src = 'targets/27.png' width = '100%;'>","null","","","","","","","","","",""
"","html-keyboard-response","182","429901","0.0-10.0-3.6","o48wdkw8c2","one_one","1","indirect_first","0","er04rd16","0","23","1","1","3","1","","0","1","0","645.924999989802","","","<img src = 'targets/mask.png' width = '100%;'>","68","neg","GS","GSnew","3","category3/GS3.png","targets/27.png","0","indirect","22",""
"","html-keyboard-response","183","431407","0.0-10.0-0.7","o48wdkw8c2","one_one","1","indirect_first","0","er04rd16","0","23","1","1","3","1","","0","1","0","null","","","<div style=""font-size:60px;"">+</div>","null","","","","","","","","","",""
"","html-keyboard-response","184","431504","0.0-10.0-1.7","o48wdkw8c2","one_one","1","indirect_first","0","er04rd16","0","23","1","1","3","1","","0","1","0","null","","","<img src = 'category3/GS1.png' width = '100%;'>","null","","","","","","","","","",""
"","html-keyboard-response","185","431761","0.0-10.0-2.7","o48wdkw8c2","one_one","1","indirect_first","0","er04rd16","0","23","1","1","3","1","","0","1","0","null","","","<img src = 'targets/48.png' width = '100%;'>","null","","","","","","","","","",""
"","html-keyboard-response","186","433079","0.0-10.0-3.7","o48wdkw8c2","one_one","1","indirect_first","0","er04rd16","0","23","1","1","3","1","","0","1","0","1316.4899999974295","","","<img src = 'targets/mask.png' width = '100%;'>","68","neg","GS","GSnew","3","category3/GS1.png","targets/48.png","0","indirect","23",""
"","html-keyboard-response","187","434586","0.0-10.0-0.8","o48wdkw8c2","one_one","1","indirect_first","0","er04rd16","0","23","1","1","3","1","","0","1","0","null","","","<div style=""font-size:60px;"">+</div>","null","","","","","","","","","",""
"","html-keyboard-response","188","434682","0.0-10.0-1.8","o48wdkw8c2","one_one","1","indirect_first","0","er04rd16","0","23","1","1","3","1","","0","1","0","null","","","<img src = 'category4/GS3.png' width = '100%;'>","null","","","","","","","","","",""
"","html-keyboard-response","189","434938","0.0-10.0-2.8","o48wdkw8c2","one_one","1","indirect_first","0","er04rd16","0","23","1","1","3","1","","0","1","0","null","","","<img src = 'targets/18.png' width = '100%;'>","null","","","","","","","","","",""
"","html-keyboard-response","190","435517","0.0-10.0-3.8","o48wdkw8c2","one_one","1","indirect_first","0","er04rd16","0","23","1","1","3","1","","0","1","0","575.5749999952968","","","<img src = 'targets/mask.png' width = '100%;'>","68","pos","GS","GSnew","4","category4/GS3.png","targets/18.png","0","indirect","24",""
"","html-keyboard-response","191","437023","0.0-10.0-0.9","o48wdkw8c2","one_one","1","indirect_first","0","er04rd16","0","23","1","1","3","1","","0","1","0","null","","","<div style=""font-size:60px;"">+</div>","null","","","","","","","","","",""
"","html-keyboard-response","192","437117","0.0-10.0-1.9","o48wdkw8c2","one_one","1","indirect_first","0","er04rd16","0","23","1","1","3","1","","0","1","0","null","","","<img src = 'category1/ma.png' width = '100%;'>","null","","","","","","","","","",""
"","html-keyboard-response","193","437374","0.0-10.0-2.9","o48wdkw8c2","one_one","1","indirect_first","0","er04rd16","0","23","1","1","3","1","","0","1","0","null","","","<img src = 'targets/23.png' width = '100%;'>","null","","","","","","","","","",""
"","html-keyboard-response","194","437916","0.0-10.0-3.9","o48wdkw8c2","one_one","1","indirect_first","0","er04rd16","0","23","1","1","3","1","","0","1","0","540.6050000165123","","","<img src = 'targets/mask.png' width = '100%;'>","68","neg","GS","abstract","1","category1/ma.png","targets/23.png","0","indirect","25",""
"","html-keyboard-response","195","439423","0.0-10.0-0.10","o48wdkw8c2","one_one","1","indirect_first","0","er04rd16","0","23","1","1","3","1","","0","1","0","null","","","<div style=""font-size:60px;"">+</div>","null","","","","","","","","","",""
"","html-keyboard-response","196","439519","0.0-10.0-1.10","o48wdkw8c2","one_one","1","indirect_first","0","er04rd16","0","23","1","1","3","1","","0","1","0","null","","","<img src = 'category3/GS2.png' width = '100%;'>","null","","","","","","","","","",""
"","html-keyboard-response","197","439775","0.0-10.0-2.10","o48wdkw8c2","one_one","1","indirect_first","0","er04rd16","0","23","1","1","3","1","","0","1","0","null","","","<img src = 'targets/38.png' width = '100%;'>","null","","","","","","","","","",""
"","html-keyboard-response","198","439994","0.0-10.0-3.10","o48wdkw8c2","one_one","1","indirect_first","0","er04rd16","0","23","1","1","3","1","","0","1","0","217.58999998564832","","","<img src = 'targets/mask.png' width = '100%;'>","75","neg","GS","GSnew","3","category3/GS2.png","targets/38.png","1","indirect","26",""
"","html-keyboard-response","199","441498","0.0-10.0-0.11","o48wdkw8c2","one_one","1","indirect_first","0","er04rd16","0","23","1","1","3","1","","0","1","0","null","","","<div style=""font-size:60px;"">+</div>","null","","","","","","","","","",""
"","html-keyboard-response","200","441594","0.0-10.0-1.11","o48wdkw8c2","one_one","1","indirect_first","0","er04rd16","0","23","1","1","3","1","","0","1","0","null","","","<img src = 'category3/wang.png' width = '100%;'>","null","","","","","","","","","",""
"","html-keyboard-response","201","441850","0.0-10.0-2.11","o48wdkw8c2","one_one","1","indirect_first","0","er04rd16","0","23","1","1","3","1","","0","1","0","null","","","<img src = 'targets/36.png' width = '100%;'>","null","","","","","","","","","",""
"","html-keyboard-response","202","442574","0.0-10.0-3.11","o48wdkw8c2","one_one","1","indirect_first","0","er04rd16","0","23","1","1","3","1","","0","1","0","722.7399999974295","","","<img src = 'targets/mask.png' width = '100%;'>","68","neg","GS","abstract","3","category3/wang.png","targets/36.png","0","indirect","27",""
"","html-keyboard-response","203","444081","0.0-10.0-0.12","o48wdkw8c2","one_one","1","indirect_first","0","er04rd16","0","23","1","1","3","1","","0","1","0","null","","","<div style=""font-size:60px;"">+</div>","null","","","","","","","","","",""
"","html-keyboard-response","204","444175","0.0-10.0-1.12","o48wdkw8c2","one_one","1","indirect_first","0","er04rd16","0","23","1","1","3","1","","0","1","0","null","","","<img src = 'category1/GS2.png' width = '100%;'>","null","","","","","","","","","",""
"","html-keyboard-response","205","444431","0.0-10.0-2.12","o48wdkw8c2","one_one","1","indirect_first","0","er04rd16","0","23","1","1","3","1","","0","1","0","null","","","<img src = 'targets/25.png' width = '100%;'>","null","","","","","","","","","",""
"","html-keyboard-response","206","444817","0.0-10.0-3.12","o48wdkw8c2","one_one","1","indirect_first","0","er04rd16","0","23","1","1","3","1","","0","1","0","384.54499997897074","","","<img src = 'targets/mask.png' width = '100%;'>","75","neg","GS","GSnew","1","category1/GS2.png","targets/25.png","1","indirect","28",""
"","html-keyboard-response","207","446319","0.0-10.0-0.13","o48wdkw8c2","one_one","1","indirect_first","0","er04rd16","0","23","1","1","3","1","","0","1","0","null","","","<div style=""font-size:60px;"">+</div>","null","","","","","","","","","",""
"","html-keyboard-response","208","446415","0.0-10.0-1.13","o48wdkw8c2","one_one","1","indirect_first","0","er04rd16","0","23","1","1","3","1","","0","1","0","null","","","<img src = 'category4/lin.png' width = '100%;'>","null","","","","","","","","","",""
"","html-keyboard-response","209","446676","0.0-10.0-2.13","o48wdkw8c2","one_one","1","indirect_first","0","er04rd16","0","23","1","1","3","1","","0","1","0","null","","","<img src = 'targets/45.png' width = '100%;'>","null","","","","","","","","","",""
"","html-keyboard-response","210","447291","0.0-10.0-3.13","o48wdkw8c2","one_one","1","indirect_first","0","er04rd16","0","23","1","1","3","1","","0","1","0","613.2999999972526","","","<img src = 'targets/mask.png' width = '100%;'>","75","pos","GS","abstract","4","category4/lin.png","targets/45.png","1","indirect","29",""
"","html-keyboard-response","211","448799","0.0-10.0-0.14","o48wdkw8c2","one_one","1","indirect_first","0","er04rd16","0","23","1","1","3","1","","0","1","0","null","","","<div style=""font-size:60px;"">+</div>","null","","","","","","","","","",""
"","html-keyboard-response","212","448895","0.0-10.0-1.14","o48wdkw8c2","one_one","1","indirect_first","0","er04rd16","0","23","1","1","3","1","","0","1","0","null","","","<img src = 'category4/GS2.png' width = '100%;'>","null","","","","","","","","","",""
"","html-keyboard-response","213","449152","0.0-10.0-2.14","o48wdkw8c2","one_one","1","indirect_first","0","er04rd16","0","23","1","1","3","1","","0","1","0","null","","","<img src = 'targets/21.png' width = '100%;'>","null","","","","","","","","","",""
"","html-keyboard-response","214","449622","0.0-10.0-3.14","o48wdkw8c2","one_one","1","indirect_first","0","er04rd16","0","23","1","1","3","1","","0","1","0","467.9750000068452","","","<img src = 'targets/mask.png' width = '100%;'>","75","pos","GS","GSnew","4","category4/GS2.png","targets/21.png","1","indirect","30",""
"","html-keyboard-response","215","451124","0.0-10.0-0.15","o48wdkw8c2","one_one","1","indirect_first","0","er04rd16","0","23","1","1","3","1","","0","1","0","null","","","<div style=""font-size:60px;"">+</div>","null","","","","","","","","","",""
"","html-keyboard-response","216","451219","0.0-10.0-1.15","o48wdkw8c2","one_one","1","indirect_first","0","er04rd16","0","23","1","1","3","1","","0","1","0","null","","","<img src = 'category1/GS3.png' width = '100%;'>","null","","","","","","","","","",""
"","html-keyboard-response","217","451476","0.0-10.0-2.15","o48wdkw8c2","one_one","1","indirect_first","0","er04rd16","0","23","1","1","3","1","","0","1","0","null","","","<img src = 'targets/30.png' width = '100%;'>","null","","","","","","","","","",""
"","html-keyboard-response","218","452342","0.0-10.0-3.15","o48wdkw8c2","one_one","1","indirect_first","0","er04rd16","0","23","1","1","3","1","","0","1","0","864.3250000022817","","","<img src = 'targets/mask.png' width = '100%;'>","75","neg","GS","GSnew","1","category1/GS3.png","targets/30.png","1","indirect","31",""
"","survey-html-form","219","459785","0.0-11.0","o48wdkw8c2","one_one","1","indirect_first","0","er04rd16","0","23","1","1","3","1","","0","1","0","6942.424999986542","","{}","","","","","","","","","","","",""
"","image-slider-response","220","468179","0.0-12.0-0.0","o48wdkw8c2","one_one","1","indirect_first","0","er04rd16","0","23","1","1","3","1","","0","1","0","6390.885000000708","","","","","neg","GS","GSnew","3","category3/GS1.png","targets/48.png","","direct","","-51"
"","image-slider-response","221","472813","0.0-12.0-0.1","o48wdkw8c2","one_one","1","indirect_first","0","er04rd16","0","23","1","1","3","1","","0","1","0","4632.889999978943","","","","","pos","GS","GSnew","2","category2/GS3.png","targets/1.png","","direct","","65"
"","image-slider-response","222","476808","0.0-12.0-0.2","o48wdkw8c2","one_one","1","indirect_first","0","er04rd16","0","23","1","1","3","1","","0","1","0","3993.7150000187103","","","","","pos","GS","GSnew","4","category4/GS2.png","targets/21.png","","direct","","-54"
"","image-slider-response","223","478937","0.0-12.0-0.3","o48wdkw8c2","one_one","1","indirect_first","0","er04rd16","0","23","1","1","3","1","","0","1","0","2127.61500000488","","","","","pos","GS","GSnew","4","category4/GS3.png","targets/18.png","","direct","","70"
"","image-slider-response","224","482751","0.0-12.0-0.4","o48wdkw8c2","one_one","1","indirect_first","0","er04rd16","0","23","1","1","3","1","","0","1","0","3812.8150000120513","","","","","pos","GS","GSold","4","category4/CS6.png","targets/11.png","","direct","","100"
"","image-slider-response","225","486035","0.0-12.0-0.5","o48wdkw8c2","one_one","1","indirect_first","0","er04rd16","0","23","1","1","3","1","","0","1","0","3282.774999999674","","","","","neg","GS","GSnew","1","category1/GS2.png","targets/25.png","","direct","","-48"
"","image-slider-response","226","488552","0.0-12.0-0.6","o48wdkw8c2","one_one","1","indirect_first","0","er04rd16","0","23","1","1","3","1","","0","1","0","2516.0949999990407","","","","","neg","GS","GSnew","1","category1/GS1.png","targets/10.png","","direct","","-54"
"","image-slider-response","227","491260","0.0-12.0-0.7","o48wdkw8c2","one_one","1","indirect_first","0","er04rd16","0","23","1","1","3","1","","0","1","0","2706.975000008242","","","","","pos","GS","GSnew","4","category4/GS1.png","targets/42.png","","direct","","65"
"","image-slider-response","228","493876","0.0-12.0-0.8","o48wdkw8c2","one_one","1","indirect_first","0","er04rd16","0","23","1","1","3","1","","0","1","0","2614.6850000077393","","","","","neg","GS","GSold","1","category1/CS5.png","targets/15.png","","direct","","47"
"","image-slider-response","229","495837","0.0-12.0-0.9","o48wdkw8c2","one_one","1","indirect_first","0","er04rd16","0","23","1","1","3","1","","0","1","0","1960.2949999971315","","","","","neg","GS","GSold","1","category1/CS10.png","targets/14.png","","direct","","47"
"","image-slider-response","230","499491","0.0-12.0-0.10","o48wdkw8c2","one_one","1","indirect_first","0","er04rd16","0","23","1","1","3","1","","0","1","0","3653.03999997559","","","","","neg","GS","GSnew","3","category3/GS2.png","targets/38.png","","direct","","-77"
"","image-slider-response","231","502384","0.0-12.0-0.11","o48wdkw8c2","one_one","1","indirect_first","0","er04rd16","0","23","1","1","3","1","","0","1","0","2891.9999999925494","","","","","pos","GS","GSold","2","category2/CS2.png","targets/9.png","","direct","","74"
"","image-slider-response","232","504756","0.0-12.0-0.12","o48wdkw8c2","one_one","1","indirect_first","0","er04rd16","0","23","1","1","3","1","","0","1","0","2370.8950000000186","","","","","neg","GS","GSold","3","category3/CS10.png","targets/16.png","","direct","","-65"
"","image-slider-response","233","508382","0.0-12.0-0.13","o48wdkw8c2","one_one","1","indirect_first","0","er04rd16","0","23","1","1","3","1","","0","1","0","3625.354999996489","","","","","neg","GS","abstract","3","category3/wang.png","targets/36.png","","direct","","-43"
"","image-slider-response","234","510364","0.0-12.0-0.14","o48wdkw8c2","one_one","1","indirect_first","0","er04rd16","0","23","1","1","3","1","","0","1","0","1980.1649999863002","","","","","pos","GS","abstract","4","category4/lin.png","targets/45.png","","direct","","81"
"","image-slider-response","235","512531","0.0-12.0-0.15","o48wdkw8c2","one_one","1","indirect_first","0","er04rd16","0","23","1","1","3","1","","0","1","0","2166.2650000071153","","","","","neg","GS","GSold","3","category3/CS8.png","targets/35.png","","direct","","-46"
"","image-slider-response","236","514853","0.0-12.0-0.16","o48wdkw8c2","one_one","1","indirect_first","0","er04rd16","0","23","1","1","3","1","","0","1","0","2321.4500000176486","","","","","neg","GS","abstract","1","category1/ma.png","targets/23.png","","direct","","65"
"","image-slider-response","237","517842","0.0-12.0-0.17","o48wdkw8c2","one_one","1","indirect_first","0","er04rd16","0","23","1","1","3","1","","0","1","0","2987.280000001192","","","","","pos","GS","GSold","2","category2/CS3.png","targets/41.png","","direct","","-38"
"","image-slider-response","238","520437","0.0-12.0-0.18","o48wdkw8c2","one_one","1","indirect_first","0","er04rd16","0","23","1","1","3","1","","0","1","0","2593.989999993937","","","","","pos","GS","GSold","2","category2/CS5.png","targets/29.png","","direct","","-50"
"","image-slider-response","239","522507","0.0-12.0-0.19","o48wdkw8c2","one_one","1","indirect_first","0","er04rd16","0","23","1","1","3","1","","0","1","0","2069.4899999944028","","","","","pos","GS","GSnew","2","category2/GS1.png","targets/5.png","","direct","","75"
"","image-slider-response","240","524642","0.0-12.0-0.20","o48wdkw8c2","one_one","1","indirect_first","0","er04rd16","0","23","1","1","3","1","","0","1","0","2133.6949999968056","","","","","neg","CS","CS","3","category3/CS9.png","targets/43.png","","direct","","-54"
"","image-slider-response","241","526850","0.0-12.0-0.21","o48wdkw8c2","one_one","1","indirect_first","0","er04rd16","0","23","1","1","3","1","","0","1","0","2207.524999976158","","","","","pos","GS","GSold","4","category4/CS1.png","targets/2.png","","direct","","67"
"","image-slider-response","242","529622","0.0-12.0-0.22","o48wdkw8c2","one_one","1","indirect_first","0","er04rd16","0","23","1","1","3","1","","0","1","0","2770.6300000136252","","","","","neg","GS","GSold","3","category3/CS6.png","targets/31.png","","direct","","-78"
"","image-slider-response","243","532017","0.0-12.0-0.23","o48wdkw8c2","one_one","1","indirect_first","0","er04rd16","0","23","1","1","3","1","","0","1","0","2393.945000017993","","","","","pos","CS","CS","2","category2/CS1.png","targets/28.png","","direct","","74"
"","image-slider-response","244","534561","0.0-12.0-0.24","o48wdkw8c2","one_one","1","indirect_first","0","er04rd16","0","23","1","1","3","1","","0","1","0","2543.4649999951944","","","","","pos","GS","GSnew","2","category2/GS2.png","targets/13.png","","direct","","76"
"","image-slider-response","245","537063","0.0-12.0-0.25","o48wdkw8c2","one_one","1","indirect_first","0","er04rd16","0","23","1","1","3","1","","0","1","0","2500.430000014603","","","","","pos","CS","CS","4","category4/CS7.png","targets/12.png","","direct","","80"
"","image-slider-response","246","541854","0.0-12.0-0.26","o48wdkw8c2","one_one","1","indirect_first","0","er04rd16","0","23","1","1","3","1","","0","1","0","4789.809999987483","","","","","neg","GS","GSnew","1","category1/GS3.png","targets/30.png","","direct","","23"
"","image-slider-response","247","544080","0.0-12.0-0.27","o48wdkw8c2","one_one","1","indirect_first","0","er04rd16","0","23","1","1","3","1","","0","1","0","2225.0049999856856","","","","","neg","GS","GSnew","3","category3/GS3.png","targets/27.png","","direct","","-62"
"","image-slider-response","248","547708","0.0-12.0-0.28","o48wdkw8c2","one_one","1","indirect_first","0","er04rd16","0","23","1","1","3","1","","0","1","0","3627.3849999997765","","","","","neg","GS","GSold","1","category1/CS1.png","targets/44.png","","direct","","-31"
"","image-slider-response","249","549462","0.0-12.0-0.29","o48wdkw8c2","one_one","1","indirect_first","0","er04rd16","0","23","1","1","3","1","","0","1","0","1751.9949999987148","","","","","pos","GS","GSold","4","category4/CS5.png","targets/33.png","","direct","","69"
"","image-slider-response","250","553423","0.0-12.0-0.30","o48wdkw8c2","one_one","1","indirect_first","0","er04rd16","0","23","1","1","3","1","","0","1","0","3958.9950000226963","","","","","pos","GS","abstract","2","category2/men.png","targets/37.png","","direct","","40"
"","image-slider-response","251","555888","0.0-12.0-0.31","o48wdkw8c2","one_one","1","indirect_first","0","er04rd16","0","23","1","1","3","1","","0","1","0","2462.7800000016578","","","","","neg","CS","CS","1","category1/CS2.png","targets/40.png","","direct","","-65"
"","survey-html-form","252","559683","0.0-13.0","o48wdkw8c2","one_one","1","indirect_first","0","er04rd16","0","23","1","1","3","1","","0","1","0","3793.409999983851","","{}","","","","","","","","","","","",""
"","image-slider-response","253","563699","0.0-14.0-0.0","o48wdkw8c2","one_one","1","indirect_first","0","er04rd16","0","23","1","1","3","1","","0","1","0","3010.115000011865","","","","","pos","All","all","4","category4/lin_all.png","","","all","","77"
"","image-slider-response","254","569187","0.0-14.0-0.1","o48wdkw8c2","one_one","1","indirect_first","0","er04rd16","0","23","1","1","3","1","","0","1","0","5487.125000014203","","","","","pos","All","all","2","category2/men_all.png","","","all","","-13"
"","image-slider-response","255","571352","0.0-14.0-0.2","o48wdkw8c2","one_one","1","indirect_first","0","er04rd16","0","23","1","1","3","1","","0","1","0","2162.7900000021327","","","","","neg","All","all","3","category3/wang_all.png","","","all","","-42"
"","image-slider-response","256","573937","0.0-14.0-0.3","o48wdkw8c2","one_one","1","indirect_first","0","er04rd16","0","23","1","1","3","1","","0","1","0","2583.13499999349","","","","","neg","All","all","1","category1/ma_all.png","","","all","","70"
"","survey-text","257","577646","0.0-15.0","o48wdkw8c2","one_one","1","indirect_first","0","er04rd16","0","23","1","1","3","1","","0","1","0","3678.905000007944","","{""comment"":""""}","","","","","","","","","","","",""
"","survey-html-form","258","587038","0.0-16.0","o48wdkw8c2","one_one","1","indirect_first","0","er04rd16","0","23","1","1","3","1","","0","1","0","9387.770000001183","","{""hinschauen"":""0"",""ablenkung"":""1"",""gewissenhaft"":""0""}","","","","","","","","","","","",""
