"success","trial_type","trial_index","time_elapsed","internal_node_id","subject","condition","condition_code","measure","measure_code","codeword","gender","age","education","chinese","fach","handedness","comment","hinschauen","ablenkung","gewissenhaft","rt","url","responses","stimulus","key_press","val","type","type_specific","category","cs_selected","response","target","task","indirect","nr_pres"
"true","fullscreen","0","20305","0.0-0.0","o9vyrz7fr9","many_one","0","direct_first","1","ER04AS20","0","25","1","1","3","1","","0","1","0","","","","","","","","","","","","","","",""
"","external-html","1","39680","0.0-1.0","o9vyrz7fr9","many_one","0","direct_first","1","ER04AS20","0","25","1","1","3","1","","0","1","0","19294.69500000414","text/information.html","","","","","","","","","","","","",""
"","external-html","2","58215","0.0-2.0","o9vyrz7fr9","many_one","0","direct_first","1","ER04AS20","0","25","1","1","3","1","","0","1","0","18458.07000000059","text/consent.html","","","","","","","","","","","","",""
"","survey-html-form","3","123818","0.0-3.0","o9vyrz7fr9","many_one","0","direct_first","1","ER04AS20","0","25","1","1","3","1","","0","1","0","65598.66499999771","","{""codeword_enter"":""ER04AS20""}","","","","","","","","","","","",""
"","survey-html-form","4","143524","0.0-4.0","o9vyrz7fr9","many_one","0","direct_first","1","ER04AS20","0","25","1","1","3","1","","0","1","0","19702.8599999976","","{""age"":""25"",""education"":""1"",""subject"":""3"",""gender"":""0"",""handedness"":""1"",""chinese"":""1""}","","","","","","","","","","","",""
"","survey-html-form","5","154495","0.0-5.0","o9vyrz7fr9","many_one","0","direct_first","1","ER04AS20","0","25","1","1","3","1","","0","1","0","10967.544999999518","","{}","","","","","","","","","","","",""
"","html-keyboard-response","6","158501","0.0-6.0-0.0-0.0","o9vyrz7fr9","many_one","0","direct_first","1","ER04AS20","0","25","1","1","3","1","","0","1","0","null","","","<div class = 'row'><div class = 'column'><img src = 'category4/CS1.png' width = '70%;'></div><div class = 'column'><img src = 'uspos/2311.bmp' width = '100%;'></div></div>","null","pos","CS","CS","4","category4/CS1.png","","","","",""
"","html-keyboard-response","7","161009","0.0-6.0-0.0-0.1","o9vyrz7fr9","many_one","0","direct_first","1","ER04AS20","0","25","1","1","3","1","","0","1","0","null","","","<div class = 'row'><div class = 'column'><img src = 'uspos/4599.bmp' width = '100%;'></div><div class = 'column'><img src = 'category4/CS3.png' width = '70%;'></div></div>","null","pos","CS","CS","4","category4/CS3.png","","","","",""
"","html-keyboard-response","8","163518","0.0-6.0-0.0-0.2","o9vyrz7fr9","many_one","0","direct_first","1","ER04AS20","0","25","1","1","3","1","","0","1","0","null","","","<div class = 'row'><div class = 'column'><img src = 'usneg/9330.bmp' width = '100%;'></div><div class = 'column'><img src = 'category3/CS8.png' width = '70%;'></div></div>","null","neg","CS","CS","3","category3/CS8.png","","","","",""
"","html-keyboard-response","9","166027","0.0-6.0-0.0-0.3","o9vyrz7fr9","many_one","0","direct_first","1","ER04AS20","0","25","1","1","3","1","","0","1","0","null","","","<div class = 'row'><div class = 'column'><img src = 'usneg/9435.bmp' width = '100%;'></div><div class = 'column'><img src = 'category1/CS7.png' width = '70%;'></div></div>","null","neg","CS","CS","1","category1/CS7.png","","","","",""
"","html-keyboard-response","10","168535","0.0-6.0-0.0-0.4","o9vyrz7fr9","many_one","0","direct_first","1","ER04AS20","0","25","1","1","3","1","","0","1","0","null","","","<div class = 'row'><div class = 'column'><img src = 'usneg/9050.bmp' width = '100%;'></div><div class = 'column'><img src = 'category1/CS8.png' width = '70%;'></div></div>","null","neg","CS","CS","1","category1/CS8.png","","","","",""
"","html-keyboard-response","11","171040","0.0-6.0-0.0-0.5","o9vyrz7fr9","many_one","0","direct_first","1","ER04AS20","0","25","1","1","3","1","","0","1","0","null","","","<div class = 'row'><div class = 'column'><img src = 'category2/CS1.png' width = '70%;'></div><div class = 'column'><img src = 'uspos/2040.bmp' width = '100%;'></div></div>","null","pos","CS","CS","2","category2/CS1.png","","","","",""
"","html-keyboard-response","12","173552","0.0-6.0-0.0-0.6","o9vyrz7fr9","many_one","0","direct_first","1","ER04AS20","0","25","1","1","3","1","","0","1","0","null","","","<div class = 'row'><div class = 'column'><img src = 'category4/CS7.png' width = '70%;'></div><div class = 'column'><img src = 'uspos/8540.bmp' width = '100%;'></div></div>","null","pos","CS","CS","4","category4/CS7.png","","","","",""
"","html-keyboard-response","13","176056","0.0-6.0-0.0-0.7","o9vyrz7fr9","many_one","0","direct_first","1","ER04AS20","0","25","1","1","3","1","","0","1","0","null","","","<div class = 'row'><div class = 'column'><img src = 'uspos/5621.bmp' width = '100%;'></div><div class = 'column'><img src = 'category2/CS3.png' width = '70%;'></div></div>","null","pos","CS","CS","2","category2/CS3.png","","","","",""
"","html-keyboard-response","14","178567","0.0-6.0-0.0-0.8","o9vyrz7fr9","many_one","0","direct_first","1","ER04AS20","0","25","1","1","3","1","","0","1","0","null","","","<div class = 'row'><div class = 'column'><img src = 'usneg/1280.bmp' width = '100%;'></div><div class = 'column'><img src = 'category3/CS9.png' width = '70%;'></div></div>","null","neg","CS","CS","3","category3/CS9.png","","","","",""
"","html-keyboard-response","15","181073","0.0-6.0-0.0-0.9","o9vyrz7fr9","many_one","0","direct_first","1","ER04AS20","0","25","1","1","3","1","","0","1","0","null","","","<div class = 'row'><div class = 'column'><img src = 'category3/CS1.png' width = '70%;'></div><div class = 'column'><img src = 'usneg/9181.bmp' width = '100%;'></div></div>","null","neg","CS","CS","3","category3/CS1.png","","","","",""
"","html-keyboard-response","16","183585","0.0-6.0-0.0-0.10","o9vyrz7fr9","many_one","0","direct_first","1","ER04AS20","0","25","1","1","3","1","","0","1","0","null","","","<div class = 'row'><div class = 'column'><img src = 'category3/CS2.png' width = '70%;'></div><div class = 'column'><img src = 'usneg/2900.bmp' width = '100%;'></div></div>","null","neg","CS","CS","3","category3/CS2.png","","","","",""
"","html-keyboard-response","17","186090","0.0-6.0-0.0-0.11","o9vyrz7fr9","many_one","0","direct_first","1","ER04AS20","0","25","1","1","3","1","","0","1","0","null","","","<div class = 'row'><div class = 'column'><img src = 'uspos/2030.bmp' width = '100%;'></div><div class = 'column'><img src = 'category2/CS2.png' width = '70%;'></div></div>","null","pos","CS","CS","2","category2/CS2.png","","","","",""
"","html-keyboard-response","18","188599","0.0-6.0-0.0-0.12","o9vyrz7fr9","many_one","0","direct_first","1","ER04AS20","0","25","1","1","3","1","","0","1","0","null","","","<div class = 'row'><div class = 'column'><img src = 'category4/CS4.png' width = '70%;'></div><div class = 'column'><img src = 'uspos/2057.bmp' width = '100%;'></div></div>","null","pos","CS","CS","4","category4/CS4.png","","","","",""
"","html-keyboard-response","19","191111","0.0-6.0-0.0-0.13","o9vyrz7fr9","many_one","0","direct_first","1","ER04AS20","0","25","1","1","3","1","","0","1","0","null","","","<div class = 'row'><div class = 'column'><img src = 'uspos/1460.bmp' width = '100%;'></div><div class = 'column'><img src = 'category4/CS9.png' width = '70%;'></div></div>","null","pos","CS","CS","4","category4/CS9.png","","","","",""
"","html-keyboard-response","20","193621","0.0-6.0-0.0-0.14","o9vyrz7fr9","many_one","0","direct_first","1","ER04AS20","0","25","1","1","3","1","","0","1","0","null","","","<div class = 'row'><div class = 'column'><img src = 'category1/CS10.png' width = '70%;'></div><div class = 'column'><img src = 'usneg/9560.bmp' width = '100%;'></div></div>","null","neg","CS","CS","1","category1/CS10.png","","","","",""
"","html-keyboard-response","21","196132","0.0-6.0-0.0-0.15","o9vyrz7fr9","many_one","0","direct_first","1","ER04AS20","0","25","1","1","3","1","","0","1","0","null","","","<div class = 'row'><div class = 'column'><img src = 'usneg/9290.bmp' width = '100%;'></div><div class = 'column'><img src = 'category3/CS10.png' width = '70%;'></div></div>","null","neg","CS","CS","3","category3/CS10.png","","","","",""
"","html-keyboard-response","22","198645","0.0-6.0-0.0-0.16","o9vyrz7fr9","many_one","0","direct_first","1","ER04AS20","0","25","1","1","3","1","","0","1","0","null","","","<div class = 'row'><div class = 'column'><img src = 'usneg/9584.bmp' width = '100%;'></div><div class = 'column'><img src = 'category1/CS2.png' width = '70%;'></div></div>","null","neg","CS","CS","1","category1/CS2.png","","","","",""
"","html-keyboard-response","23","201154","0.0-6.0-0.0-0.17","o9vyrz7fr9","many_one","0","direct_first","1","ER04AS20","0","25","1","1","3","1","","0","1","0","null","","","<div class = 'row'><div class = 'column'><img src = 'uspos/5629.bmp' width = '100%;'></div><div class = 'column'><img src = 'category2/CS8.png' width = '70%;'></div></div>","null","pos","CS","CS","2","category2/CS8.png","","","","",""
"","html-keyboard-response","24","203662","0.0-6.0-0.0-0.18","o9vyrz7fr9","many_one","0","direct_first","1","ER04AS20","0","25","1","1","3","1","","0","1","0","null","","","<div class = 'row'><div class = 'column'><img src = 'uspos/2208.bmp' width = '100%;'></div><div class = 'column'><img src = 'category2/CS4.png' width = '70%;'></div></div>","null","pos","CS","CS","2","category2/CS4.png","","","","",""
"","html-keyboard-response","25","206172","0.0-6.0-0.0-0.19","o9vyrz7fr9","many_one","0","direct_first","1","ER04AS20","0","25","1","1","3","1","","0","1","0","null","","","<div class = 'row'><div class = 'column'><img src = 'category1/CS4.png' width = '70%;'></div><div class = 'column'><img src = 'usneg/9421.bmp' width = '100%;'></div></div>","null","neg","CS","CS","1","category1/CS4.png","","","","",""
"","survey-html-form","26","215451","0.0-6.0-1.0","o9vyrz7fr9","many_one","0","direct_first","1","ER04AS20","0","25","1","1","3","1","","0","1","0","8772.08999999857","","{}","","","","","","","","","","","",""
"","html-keyboard-response","27","219463","0.0-6.0-2.0-0.0","o9vyrz7fr9","many_one","0","direct_first","1","ER04AS20","0","25","1","1","3","1","","0","1","0","null","","","<div class = 'row'><div class = 'column'><img src = 'category1/CS7.png' width = '70%;'></div><div class = 'column'><img src = 'usneg/9435.bmp' width = '100%;'></div></div>","null","neg","CS","CS","1","category1/CS7.png","","","","",""
"","html-keyboard-response","28","221974","0.0-6.0-2.0-0.1","o9vyrz7fr9","many_one","0","direct_first","1","ER04AS20","0","25","1","1","3","1","","0","1","0","null","","","<div class = 'row'><div class = 'column'><img src = 'uspos/2311.bmp' width = '100%;'></div><div class = 'column'><img src = 'category4/CS1.png' width = '70%;'></div></div>","null","pos","CS","CS","4","category4/CS1.png","","","","",""
"","html-keyboard-response","29","224486","0.0-6.0-2.0-0.2","o9vyrz7fr9","many_one","0","direct_first","1","ER04AS20","0","25","1","1","3","1","","0","1","0","null","","","<div class = 'row'><div class = 'column'><img src = 'uspos/2030.bmp' width = '100%;'></div><div class = 'column'><img src = 'category2/CS2.png' width = '70%;'></div></div>","null","pos","CS","CS","2","category2/CS2.png","","","","",""
"","html-keyboard-response","30","226997","0.0-6.0-2.0-0.3","o9vyrz7fr9","many_one","0","direct_first","1","ER04AS20","0","25","1","1","3","1","","0","1","0","null","","","<div class = 'row'><div class = 'column'><img src = 'uspos/8540.bmp' width = '100%;'></div><div class = 'column'><img src = 'category4/CS7.png' width = '70%;'></div></div>","null","pos","CS","CS","4","category4/CS7.png","","","","",""
"","html-keyboard-response","31","229508","0.0-6.0-2.0-0.4","o9vyrz7fr9","many_one","0","direct_first","1","ER04AS20","0","25","1","1","3","1","","0","1","0","null","","","<div class = 'row'><div class = 'column'><img src = 'uspos/4599.bmp' width = '100%;'></div><div class = 'column'><img src = 'category4/CS3.png' width = '70%;'></div></div>","null","pos","CS","CS","4","category4/CS3.png","","","","",""
"","html-keyboard-response","32","232020","0.0-6.0-2.0-0.5","o9vyrz7fr9","many_one","0","direct_first","1","ER04AS20","0","25","1","1","3","1","","0","1","0","null","","","<div class = 'row'><div class = 'column'><img src = 'category1/CS10.png' width = '70%;'></div><div class = 'column'><img src = 'usneg/9560.bmp' width = '100%;'></div></div>","null","neg","CS","CS","1","category1/CS10.png","","","","",""
"","html-keyboard-response","33","234532","0.0-6.0-2.0-0.6","o9vyrz7fr9","many_one","0","direct_first","1","ER04AS20","0","25","1","1","3","1","","0","1","0","null","","","<div class = 'row'><div class = 'column'><img src = 'category3/CS9.png' width = '70%;'></div><div class = 'column'><img src = 'usneg/1280.bmp' width = '100%;'></div></div>","null","neg","CS","CS","3","category3/CS9.png","","","","",""
"","html-keyboard-response","34","237041","0.0-6.0-2.0-0.7","o9vyrz7fr9","many_one","0","direct_first","1","ER04AS20","0","25","1","1","3","1","","0","1","0","null","","","<div class = 'row'><div class = 'column'><img src = 'usneg/9421.bmp' width = '100%;'></div><div class = 'column'><img src = 'category1/CS4.png' width = '70%;'></div></div>","null","neg","CS","CS","1","category1/CS4.png","","","","",""
"","html-keyboard-response","35","239549","0.0-6.0-2.0-0.8","o9vyrz7fr9","many_one","0","direct_first","1","ER04AS20","0","25","1","1","3","1","","0","1","0","null","","","<div class = 'row'><div class = 'column'><img src = 'uspos/5621.bmp' width = '100%;'></div><div class = 'column'><img src = 'category2/CS3.png' width = '70%;'></div></div>","null","pos","CS","CS","2","category2/CS3.png","","","","",""
"","html-keyboard-response","36","242059","0.0-6.0-2.0-0.9","o9vyrz7fr9","many_one","0","direct_first","1","ER04AS20","0","25","1","1","3","1","","0","1","0","null","","","<div class = 'row'><div class = 'column'><img src = 'category3/CS2.png' width = '70%;'></div><div class = 'column'><img src = 'usneg/2900.bmp' width = '100%;'></div></div>","null","neg","CS","CS","3","category3/CS2.png","","","","",""
"","html-keyboard-response","37","244571","0.0-6.0-2.0-0.10","o9vyrz7fr9","many_one","0","direct_first","1","ER04AS20","0","25","1","1","3","1","","0","1","0","null","","","<div class = 'row'><div class = 'column'><img src = 'category3/CS1.png' width = '70%;'></div><div class = 'column'><img src = 'usneg/9181.bmp' width = '100%;'></div></div>","null","neg","CS","CS","3","category3/CS1.png","","","","",""
"","html-keyboard-response","38","247083","0.0-6.0-2.0-0.11","o9vyrz7fr9","many_one","0","direct_first","1","ER04AS20","0","25","1","1","3","1","","0","1","0","null","","","<div class = 'row'><div class = 'column'><img src = 'uspos/2208.bmp' width = '100%;'></div><div class = 'column'><img src = 'category2/CS4.png' width = '70%;'></div></div>","null","pos","CS","CS","2","category2/CS4.png","","","","",""
"","html-keyboard-response","39","249593","0.0-6.0-2.0-0.12","o9vyrz7fr9","many_one","0","direct_first","1","ER04AS20","0","25","1","1","3","1","","0","1","0","null","","","<div class = 'row'><div class = 'column'><img src = 'category3/CS8.png' width = '70%;'></div><div class = 'column'><img src = 'usneg/9330.bmp' width = '100%;'></div></div>","null","neg","CS","CS","3","category3/CS8.png","","","","",""
"","html-keyboard-response","40","252100","0.0-6.0-2.0-0.13","o9vyrz7fr9","many_one","0","direct_first","1","ER04AS20","0","25","1","1","3","1","","0","1","0","null","","","<div class = 'row'><div class = 'column'><img src = 'usneg/9584.bmp' width = '100%;'></div><div class = 'column'><img src = 'category1/CS2.png' width = '70%;'></div></div>","null","neg","CS","CS","1","category1/CS2.png","","","","",""
"","html-keyboard-response","41","254610","0.0-6.0-2.0-0.14","o9vyrz7fr9","many_one","0","direct_first","1","ER04AS20","0","25","1","1","3","1","","0","1","0","null","","","<div class = 'row'><div class = 'column'><img src = 'category4/CS9.png' width = '70%;'></div><div class = 'column'><img src = 'uspos/1460.bmp' width = '100%;'></div></div>","null","pos","CS","CS","4","category4/CS9.png","","","","",""
"","html-keyboard-response","42","257119","0.0-6.0-2.0-0.15","o9vyrz7fr9","many_one","0","direct_first","1","ER04AS20","0","25","1","1","3","1","","0","1","0","null","","","<div class = 'row'><div class = 'column'><img src = 'usneg/9050.bmp' width = '100%;'></div><div class = 'column'><img src = 'category1/CS8.png' width = '70%;'></div></div>","null","neg","CS","CS","1","category1/CS8.png","","","","",""
"","html-keyboard-response","43","259627","0.0-6.0-2.0-0.16","o9vyrz7fr9","many_one","0","direct_first","1","ER04AS20","0","25","1","1","3","1","","0","1","0","null","","","<div class = 'row'><div class = 'column'><img src = 'uspos/5629.bmp' width = '100%;'></div><div class = 'column'><img src = 'category2/CS8.png' width = '70%;'></div></div>","null","pos","CS","CS","2","category2/CS8.png","","","","",""
"","html-keyboard-response","44","262140","0.0-6.0-2.0-0.17","o9vyrz7fr9","many_one","0","direct_first","1","ER04AS20","0","25","1","1","3","1","","0","1","0","null","","","<div class = 'row'><div class = 'column'><img src = 'category2/CS1.png' width = '70%;'></div><div class = 'column'><img src = 'uspos/2040.bmp' width = '100%;'></div></div>","null","pos","CS","CS","2","category2/CS1.png","","","","",""
"","html-keyboard-response","45","264651","0.0-6.0-2.0-0.18","o9vyrz7fr9","many_one","0","direct_first","1","ER04AS20","0","25","1","1","3","1","","0","1","0","null","","","<div class = 'row'><div class = 'column'><img src = 'category3/CS10.png' width = '70%;'></div><div class = 'column'><img src = 'usneg/9290.bmp' width = '100%;'></div></div>","null","neg","CS","CS","3","category3/CS10.png","","","","",""
"","html-keyboard-response","46","267159","0.0-6.0-2.0-0.19","o9vyrz7fr9","many_one","0","direct_first","1","ER04AS20","0","25","1","1","3","1","","0","1","0","null","","","<div class = 'row'><div class = 'column'><img src = 'uspos/2057.bmp' width = '100%;'></div><div class = 'column'><img src = 'category4/CS4.png' width = '70%;'></div></div>","null","pos","CS","CS","4","category4/CS4.png","","","","",""
"","survey-html-form","47","269380","0.0-6.0-3.0","o9vyrz7fr9","many_one","0","direct_first","1","ER04AS20","0","25","1","1","3","1","","0","1","0","1717.624999997497","","{}","","","","","","","","","","","",""
"","html-keyboard-response","48","273393","0.0-6.0-4.0-0.0","o9vyrz7fr9","many_one","0","direct_first","1","ER04AS20","0","25","1","1","3","1","","0","1","0","null","","","<div class = 'row'><div class = 'column'><img src = 'uspos/2311.bmp' width = '100%;'></div><div class = 'column'><img src = 'category4/CS1.png' width = '70%;'></div></div>","null","pos","CS","CS","4","category4/CS1.png","","","","",""
"","html-keyboard-response","49","275903","0.0-6.0-4.0-0.1","o9vyrz7fr9","many_one","0","direct_first","1","ER04AS20","0","25","1","1","3","1","","0","1","0","null","","","<div class = 'row'><div class = 'column'><img src = 'uspos/5629.bmp' width = '100%;'></div><div class = 'column'><img src = 'category2/CS8.png' width = '70%;'></div></div>","null","pos","CS","CS","2","category2/CS8.png","","","","",""
"","html-keyboard-response","50","278413","0.0-6.0-4.0-0.2","o9vyrz7fr9","many_one","0","direct_first","1","ER04AS20","0","25","1","1","3","1","","0","1","0","null","","","<div class = 'row'><div class = 'column'><img src = 'uspos/2040.bmp' width = '100%;'></div><div class = 'column'><img src = 'category2/CS1.png' width = '70%;'></div></div>","null","pos","CS","CS","2","category2/CS1.png","","","","",""
"","html-keyboard-response","51","280925","0.0-6.0-4.0-0.3","o9vyrz7fr9","many_one","0","direct_first","1","ER04AS20","0","25","1","1","3","1","","0","1","0","null","","","<div class = 'row'><div class = 'column'><img src = 'uspos/8540.bmp' width = '100%;'></div><div class = 'column'><img src = 'category4/CS7.png' width = '70%;'></div></div>","null","pos","CS","CS","4","category4/CS7.png","","","","",""
"","html-keyboard-response","52","283436","0.0-6.0-4.0-0.4","o9vyrz7fr9","many_one","0","direct_first","1","ER04AS20","0","25","1","1","3","1","","0","1","0","null","","","<div class = 'row'><div class = 'column'><img src = 'category1/CS2.png' width = '70%;'></div><div class = 'column'><img src = 'usneg/9584.bmp' width = '100%;'></div></div>","null","neg","CS","CS","1","category1/CS2.png","","","","",""
"","html-keyboard-response","53","285945","0.0-6.0-4.0-0.5","o9vyrz7fr9","many_one","0","direct_first","1","ER04AS20","0","25","1","1","3","1","","0","1","0","null","","","<div class = 'row'><div class = 'column'><img src = 'usneg/2900.bmp' width = '100%;'></div><div class = 'column'><img src = 'category3/CS2.png' width = '70%;'></div></div>","null","neg","CS","CS","3","category3/CS2.png","","","","",""
"","html-keyboard-response","54","288453","0.0-6.0-4.0-0.6","o9vyrz7fr9","many_one","0","direct_first","1","ER04AS20","0","25","1","1","3","1","","0","1","0","null","","","<div class = 'row'><div class = 'column'><img src = 'category3/CS10.png' width = '70%;'></div><div class = 'column'><img src = 'usneg/9290.bmp' width = '100%;'></div></div>","null","neg","CS","CS","3","category3/CS10.png","","","","",""
"","html-keyboard-response","55","290964","0.0-6.0-4.0-0.7","o9vyrz7fr9","many_one","0","direct_first","1","ER04AS20","0","25","1","1","3","1","","0","1","0","null","","","<div class = 'row'><div class = 'column'><img src = 'uspos/1460.bmp' width = '100%;'></div><div class = 'column'><img src = 'category4/CS9.png' width = '70%;'></div></div>","null","pos","CS","CS","4","category4/CS9.png","","","","",""
"","html-keyboard-response","56","293474","0.0-6.0-4.0-0.8","o9vyrz7fr9","many_one","0","direct_first","1","ER04AS20","0","25","1","1","3","1","","0","1","0","null","","","<div class = 'row'><div class = 'column'><img src = 'category1/CS7.png' width = '70%;'></div><div class = 'column'><img src = 'usneg/9435.bmp' width = '100%;'></div></div>","null","neg","CS","CS","1","category1/CS7.png","","","","",""
"","html-keyboard-response","57","295987","0.0-6.0-4.0-0.9","o9vyrz7fr9","many_one","0","direct_first","1","ER04AS20","0","25","1","1","3","1","","0","1","0","null","","","<div class = 'row'><div class = 'column'><img src = 'category1/CS8.png' width = '70%;'></div><div class = 'column'><img src = 'usneg/9050.bmp' width = '100%;'></div></div>","null","neg","CS","CS","1","category1/CS8.png","","","","",""
"","html-keyboard-response","58","298500","0.0-6.0-4.0-0.10","o9vyrz7fr9","many_one","0","direct_first","1","ER04AS20","0","25","1","1","3","1","","0","1","0","null","","","<div class = 'row'><div class = 'column'><img src = 'uspos/5621.bmp' width = '100%;'></div><div class = 'column'><img src = 'category2/CS3.png' width = '70%;'></div></div>","null","pos","CS","CS","2","category2/CS3.png","","","","",""
"","html-keyboard-response","59","301008","0.0-6.0-4.0-0.11","o9vyrz7fr9","many_one","0","direct_first","1","ER04AS20","0","25","1","1","3","1","","0","1","0","null","","","<div class = 'row'><div class = 'column'><img src = 'uspos/2057.bmp' width = '100%;'></div><div class = 'column'><img src = 'category4/CS4.png' width = '70%;'></div></div>","null","pos","CS","CS","4","category4/CS4.png","","","","",""
"","html-keyboard-response","60","303521","0.0-6.0-4.0-0.12","o9vyrz7fr9","many_one","0","direct_first","1","ER04AS20","0","25","1","1","3","1","","0","1","0","null","","","<div class = 'row'><div class = 'column'><img src = 'uspos/2208.bmp' width = '100%;'></div><div class = 'column'><img src = 'category2/CS4.png' width = '70%;'></div></div>","null","pos","CS","CS","2","category2/CS4.png","","","","",""
"","html-keyboard-response","61","306030","0.0-6.0-4.0-0.13","o9vyrz7fr9","many_one","0","direct_first","1","ER04AS20","0","25","1","1","3","1","","0","1","0","null","","","<div class = 'row'><div class = 'column'><img src = 'category2/CS2.png' width = '70%;'></div><div class = 'column'><img src = 'uspos/2030.bmp' width = '100%;'></div></div>","null","pos","CS","CS","2","category2/CS2.png","","","","",""
"","html-keyboard-response","62","308539","0.0-6.0-4.0-0.14","o9vyrz7fr9","many_one","0","direct_first","1","ER04AS20","0","25","1","1","3","1","","0","1","0","null","","","<div class = 'row'><div class = 'column'><img src = 'category3/CS1.png' width = '70%;'></div><div class = 'column'><img src = 'usneg/9181.bmp' width = '100%;'></div></div>","null","neg","CS","CS","3","category3/CS1.png","","","","",""
"","html-keyboard-response","63","311049","0.0-6.0-4.0-0.15","o9vyrz7fr9","many_one","0","direct_first","1","ER04AS20","0","25","1","1","3","1","","0","1","0","null","","","<div class = 'row'><div class = 'column'><img src = 'category3/CS8.png' width = '70%;'></div><div class = 'column'><img src = 'usneg/9330.bmp' width = '100%;'></div></div>","null","neg","CS","CS","3","category3/CS8.png","","","","",""
"","html-keyboard-response","64","313558","0.0-6.0-4.0-0.16","o9vyrz7fr9","many_one","0","direct_first","1","ER04AS20","0","25","1","1","3","1","","0","1","0","null","","","<div class = 'row'><div class = 'column'><img src = 'uspos/4599.bmp' width = '100%;'></div><div class = 'column'><img src = 'category4/CS3.png' width = '70%;'></div></div>","null","pos","CS","CS","4","category4/CS3.png","","","","",""
"","html-keyboard-response","65","316066","0.0-6.0-4.0-0.17","o9vyrz7fr9","many_one","0","direct_first","1","ER04AS20","0","25","1","1","3","1","","0","1","0","null","","","<div class = 'row'><div class = 'column'><img src = 'usneg/9560.bmp' width = '100%;'></div><div class = 'column'><img src = 'category1/CS10.png' width = '70%;'></div></div>","null","neg","CS","CS","1","category1/CS10.png","","","","",""
"","html-keyboard-response","66","318573","0.0-6.0-4.0-0.18","o9vyrz7fr9","many_one","0","direct_first","1","ER04AS20","0","25","1","1","3","1","","0","1","0","null","","","<div class = 'row'><div class = 'column'><img src = 'usneg/9421.bmp' width = '100%;'></div><div class = 'column'><img src = 'category1/CS4.png' width = '70%;'></div></div>","null","neg","CS","CS","1","category1/CS4.png","","","","",""
"","html-keyboard-response","67","321082","0.0-6.0-4.0-0.19","o9vyrz7fr9","many_one","0","direct_first","1","ER04AS20","0","25","1","1","3","1","","0","1","0","null","","","<div class = 'row'><div class = 'column'><img src = 'category3/CS9.png' width = '70%;'></div><div class = 'column'><img src = 'usneg/1280.bmp' width = '100%;'></div></div>","null","neg","CS","CS","3","category3/CS9.png","","","","",""
"","survey-html-form","68","323269","0.0-6.0-5.0","o9vyrz7fr9","many_one","0","direct_first","1","ER04AS20","0","25","1","1","3","1","","0","1","0","1685.7250000030035","","{}","","","","","","","","","","","",""
"","html-keyboard-response","69","327284","0.0-6.0-6.0-0.0","o9vyrz7fr9","many_one","0","direct_first","1","ER04AS20","0","25","1","1","3","1","","0","1","0","null","","","<div class = 'row'><div class = 'column'><img src = 'category1/CS8.png' width = '70%;'></div><div class = 'column'><img src = 'usneg/9050.bmp' width = '100%;'></div></div>","null","neg","CS","CS","1","category1/CS8.png","","","","",""
"","html-keyboard-response","70","329797","0.0-6.0-6.0-0.1","o9vyrz7fr9","many_one","0","direct_first","1","ER04AS20","0","25","1","1","3","1","","0","1","0","null","","","<div class = 'row'><div class = 'column'><img src = 'category2/CS2.png' width = '70%;'></div><div class = 'column'><img src = 'uspos/2030.bmp' width = '100%;'></div></div>","null","pos","CS","CS","2","category2/CS2.png","","","","",""
"","html-keyboard-response","71","332305","0.0-6.0-6.0-0.2","o9vyrz7fr9","many_one","0","direct_first","1","ER04AS20","0","25","1","1","3","1","","0","1","0","null","","","<div class = 'row'><div class = 'column'><img src = 'category1/CS10.png' width = '70%;'></div><div class = 'column'><img src = 'usneg/9560.bmp' width = '100%;'></div></div>","null","neg","CS","CS","1","category1/CS10.png","","","","",""
"","html-keyboard-response","72","334817","0.0-6.0-6.0-0.3","o9vyrz7fr9","many_one","0","direct_first","1","ER04AS20","0","25","1","1","3","1","","0","1","0","null","","","<div class = 'row'><div class = 'column'><img src = 'category2/CS3.png' width = '70%;'></div><div class = 'column'><img src = 'uspos/5621.bmp' width = '100%;'></div></div>","null","pos","CS","CS","2","category2/CS3.png","","","","",""
"","html-keyboard-response","73","337327","0.0-6.0-6.0-0.4","o9vyrz7fr9","many_one","0","direct_first","1","ER04AS20","0","25","1","1","3","1","","0","1","0","null","","","<div class = 'row'><div class = 'column'><img src = 'category1/CS7.png' width = '70%;'></div><div class = 'column'><img src = 'usneg/9435.bmp' width = '100%;'></div></div>","null","neg","CS","CS","1","category1/CS7.png","","","","",""
"","html-keyboard-response","74","339835","0.0-6.0-6.0-0.5","o9vyrz7fr9","many_one","0","direct_first","1","ER04AS20","0","25","1","1","3","1","","0","1","0","null","","","<div class = 'row'><div class = 'column'><img src = 'uspos/2057.bmp' width = '100%;'></div><div class = 'column'><img src = 'category4/CS4.png' width = '70%;'></div></div>","null","pos","CS","CS","4","category4/CS4.png","","","","",""
"","html-keyboard-response","75","342347","0.0-6.0-6.0-0.6","o9vyrz7fr9","many_one","0","direct_first","1","ER04AS20","0","25","1","1","3","1","","0","1","0","null","","","<div class = 'row'><div class = 'column'><img src = 'category4/CS9.png' width = '70%;'></div><div class = 'column'><img src = 'uspos/1460.bmp' width = '100%;'></div></div>","null","pos","CS","CS","4","category4/CS9.png","","","","",""
"","html-keyboard-response","76","344859","0.0-6.0-6.0-0.7","o9vyrz7fr9","many_one","0","direct_first","1","ER04AS20","0","25","1","1","3","1","","0","1","0","null","","","<div class = 'row'><div class = 'column'><img src = 'category2/CS1.png' width = '70%;'></div><div class = 'column'><img src = 'uspos/2040.bmp' width = '100%;'></div></div>","null","pos","CS","CS","2","category2/CS1.png","","","","",""
"","html-keyboard-response","77","347369","0.0-6.0-6.0-0.8","o9vyrz7fr9","many_one","0","direct_first","1","ER04AS20","0","25","1","1","3","1","","0","1","0","null","","","<div class = 'row'><div class = 'column'><img src = 'category3/CS10.png' width = '70%;'></div><div class = 'column'><img src = 'usneg/9290.bmp' width = '100%;'></div></div>","null","neg","CS","CS","3","category3/CS10.png","","","","",""
"","html-keyboard-response","78","349882","0.0-6.0-6.0-0.9","o9vyrz7fr9","many_one","0","direct_first","1","ER04AS20","0","25","1","1","3","1","","0","1","0","null","","","<div class = 'row'><div class = 'column'><img src = 'usneg/9330.bmp' width = '100%;'></div><div class = 'column'><img src = 'category3/CS8.png' width = '70%;'></div></div>","null","neg","CS","CS","3","category3/CS8.png","","","","",""
"","html-keyboard-response","79","352393","0.0-6.0-6.0-0.10","o9vyrz7fr9","many_one","0","direct_first","1","ER04AS20","0","25","1","1","3","1","","0","1","0","null","","","<div class = 'row'><div class = 'column'><img src = 'category2/CS4.png' width = '70%;'></div><div class = 'column'><img src = 'uspos/2208.bmp' width = '100%;'></div></div>","null","pos","CS","CS","2","category2/CS4.png","","","","",""
"","html-keyboard-response","80","354903","0.0-6.0-6.0-0.11","o9vyrz7fr9","many_one","0","direct_first","1","ER04AS20","0","25","1","1","3","1","","0","1","0","null","","","<div class = 'row'><div class = 'column'><img src = 'uspos/4599.bmp' width = '100%;'></div><div class = 'column'><img src = 'category4/CS3.png' width = '70%;'></div></div>","null","pos","CS","CS","4","category4/CS3.png","","","","",""
"","html-keyboard-response","81","357416","0.0-6.0-6.0-0.12","o9vyrz7fr9","many_one","0","direct_first","1","ER04AS20","0","25","1","1","3","1","","0","1","0","null","","","<div class = 'row'><div class = 'column'><img src = 'category1/CS4.png' width = '70%;'></div><div class = 'column'><img src = 'usneg/9421.bmp' width = '100%;'></div></div>","null","neg","CS","CS","1","category1/CS4.png","","","","",""
"","html-keyboard-response","82","359923","0.0-6.0-6.0-0.13","o9vyrz7fr9","many_one","0","direct_first","1","ER04AS20","0","25","1","1","3","1","","0","1","0","null","","","<div class = 'row'><div class = 'column'><img src = 'usneg/9181.bmp' width = '100%;'></div><div class = 'column'><img src = 'category3/CS1.png' width = '70%;'></div></div>","null","neg","CS","CS","3","category3/CS1.png","","","","",""
"","html-keyboard-response","83","362436","0.0-6.0-6.0-0.14","o9vyrz7fr9","many_one","0","direct_first","1","ER04AS20","0","25","1","1","3","1","","0","1","0","null","","","<div class = 'row'><div class = 'column'><img src = 'uspos/5629.bmp' width = '100%;'></div><div class = 'column'><img src = 'category2/CS8.png' width = '70%;'></div></div>","null","pos","CS","CS","2","category2/CS8.png","","","","",""
"","html-keyboard-response","84","364944","0.0-6.0-6.0-0.15","o9vyrz7fr9","many_one","0","direct_first","1","ER04AS20","0","25","1","1","3","1","","0","1","0","null","","","<div class = 'row'><div class = 'column'><img src = 'category3/CS9.png' width = '70%;'></div><div class = 'column'><img src = 'usneg/1280.bmp' width = '100%;'></div></div>","null","neg","CS","CS","3","category3/CS9.png","","","","",""
"","html-keyboard-response","85","367455","0.0-6.0-6.0-0.16","o9vyrz7fr9","many_one","0","direct_first","1","ER04AS20","0","25","1","1","3","1","","0","1","0","null","","","<div class = 'row'><div class = 'column'><img src = 'uspos/2311.bmp' width = '100%;'></div><div class = 'column'><img src = 'category4/CS1.png' width = '70%;'></div></div>","null","pos","CS","CS","4","category4/CS1.png","","","","",""
"","html-keyboard-response","86","369965","0.0-6.0-6.0-0.17","o9vyrz7fr9","many_one","0","direct_first","1","ER04AS20","0","25","1","1","3","1","","0","1","0","null","","","<div class = 'row'><div class = 'column'><img src = 'uspos/8540.bmp' width = '100%;'></div><div class = 'column'><img src = 'category4/CS7.png' width = '70%;'></div></div>","null","pos","CS","CS","4","category4/CS7.png","","","","",""
"","html-keyboard-response","87","372475","0.0-6.0-6.0-0.18","o9vyrz7fr9","many_one","0","direct_first","1","ER04AS20","0","25","1","1","3","1","","0","1","0","null","","","<div class = 'row'><div class = 'column'><img src = 'category3/CS2.png' width = '70%;'></div><div class = 'column'><img src = 'usneg/2900.bmp' width = '100%;'></div></div>","null","neg","CS","CS","3","category3/CS2.png","","","","",""
"","html-keyboard-response","88","374983","0.0-6.0-6.0-0.19","o9vyrz7fr9","many_one","0","direct_first","1","ER04AS20","0","25","1","1","3","1","","0","1","0","null","","","<div class = 'row'><div class = 'column'><img src = 'category1/CS2.png' width = '70%;'></div><div class = 'column'><img src = 'usneg/9584.bmp' width = '100%;'></div></div>","null","neg","CS","CS","1","category1/CS2.png","","","","",""
"","survey-html-form","89","391032","0.0-7.0","o9vyrz7fr9","many_one","0","direct_first","1","ER04AS20","0","25","1","1","3","1","","0","1","0","15542.094999997062","","{}","","","","","","","","","","","",""
"","image-slider-response","90","398589","0.0-8.0-0.0","o9vyrz7fr9","many_one","0","direct_first","1","ER04AS20","0","25","1","1","3","1","","0","1","0","5548.884999996517","","","","","neg","GS","GSnew","3","category3/GS3.png","-26","targets/35.png","direct","",""
"","image-slider-response","91","402123","0.0-8.0-0.1","o9vyrz7fr9","many_one","0","direct_first","1","ER04AS20","0","25","1","1","3","1","","0","1","0","3532.4449999970966","","","","","pos","CS","CS","2","category2/CS4.png","34","targets/20.png","direct","",""
"","image-slider-response","92","406315","0.0-8.0-0.2","o9vyrz7fr9","many_one","0","direct_first","1","ER04AS20","0","25","1","1","3","1","","0","1","0","4189.409999999043","","","","","neg","CS","CS","1","category1/CS7.png","-41","targets/39.png","direct","",""
"","image-slider-response","93","410466","0.0-8.0-0.3","o9vyrz7fr9","many_one","0","direct_first","1","ER04AS20","0","25","1","1","3","1","","0","1","0","4148.6300000033225","","","","","neg","CS","CS","3","category3/CS1.png","-55","targets/6.png","direct","",""
"","image-slider-response","94","413584","0.0-8.0-0.4","o9vyrz7fr9","many_one","0","direct_first","1","ER04AS20","0","25","1","1","3","1","","0","1","0","3116.119999998773","","","","","neg","CS","CS","1","category1/CS4.png","46","targets/24.png","direct","",""
"","image-slider-response","95","416762","0.0-8.0-0.5","o9vyrz7fr9","many_one","0","direct_first","1","ER04AS20","0","25","1","1","3","1","","0","1","0","3176.369999993767","","","","","neg","CS","CS","3","category3/CS9.png","29","targets/19.png","direct","",""
"","image-slider-response","96","420457","0.0-8.0-0.6","o9vyrz7fr9","many_one","0","direct_first","1","ER04AS20","0","25","1","1","3","1","","0","1","0","3692.06000000122","","","","","neg","CS","CS","3","category3/CS10.png","-81","targets/11.png","direct","",""
"","image-slider-response","97","423271","0.0-8.0-0.7","o9vyrz7fr9","many_one","0","direct_first","1","ER04AS20","0","25","1","1","3","1","","0","1","0","2812.680000002729","","","","","pos","CS","CS","2","category2/CS8.png","58","targets/7.png","direct","",""
"","image-slider-response","98","425593","0.0-8.0-0.8","o9vyrz7fr9","many_one","0","direct_first","1","ER04AS20","0","25","1","1","3","1","","0","1","0","2319.4450000009965","","","","","pos","GS","GSold","4","category4/CS5.png","87","targets/37.png","direct","",""
"","image-slider-response","99","428735","0.0-8.0-0.9","o9vyrz7fr9","many_one","0","direct_first","1","ER04AS20","0","25","1","1","3","1","","0","1","0","3140.6849999984843","","","","","pos","GS","abstract","2","category2/men.png","-76","targets/17.png","direct","",""
"","image-slider-response","100","431517","0.0-8.0-0.10","o9vyrz7fr9","many_one","0","direct_first","1","ER04AS20","0","25","1","1","3","1","","0","1","0","2780.6599999967148","","","","","pos","CS","CS","2","category2/CS1.png","-58","targets/3.png","direct","",""
"","image-slider-response","101","433999","0.0-8.0-0.11","o9vyrz7fr9","many_one","0","direct_first","1","ER04AS20","0","25","1","1","3","1","","0","1","0","2479.409999999916","","","","","pos","GS","GSold","2","category2/CS9.png","50","targets/2.png","direct","",""
"","image-slider-response","102","437093","0.0-8.0-0.12","o9vyrz7fr9","many_one","0","direct_first","1","ER04AS20","0","25","1","1","3","1","","0","1","0","3092.114999999467","","","","","pos","CS","CS","2","category2/CS2.png","-40","targets/36.png","direct","",""
"","image-slider-response","103","439362","0.0-8.0-0.13","o9vyrz7fr9","many_one","0","direct_first","1","ER04AS20","0","25","1","1","3","1","","0","1","0","2266.970000004221","","","","","neg","GS","GSold","1","category1/CS1.png","-41","targets/10.png","direct","",""
"","image-slider-response","104","441491","0.0-8.0-0.14","o9vyrz7fr9","many_one","0","direct_first","1","ER04AS20","0","25","1","1","3","1","","0","1","0","2127.5749999986147","","","","","pos","GS","GSnew","4","category4/GS2.png","21","targets/22.png","direct","",""
"","image-slider-response","105","443641","0.0-8.0-0.15","o9vyrz7fr9","many_one","0","direct_first","1","ER04AS20","0","25","1","1","3","1","","0","1","0","2148.025000002235","","","","","neg","GS","GSold","3","category3/CS3.png","57","targets/45.png","direct","",""
"","image-slider-response","106","445458","0.0-8.0-0.16","o9vyrz7fr9","many_one","0","direct_first","1","ER04AS20","0","25","1","1","3","1","","0","1","0","1815.3400000010151","","","","","neg","GS","GSnew","1","category1/GS1.png","-68","targets/34.png","direct","",""
"","image-slider-response","107","447887","0.0-8.0-0.17","o9vyrz7fr9","many_one","0","direct_first","1","ER04AS20","0","25","1","1","3","1","","0","1","0","2427.560000003723","","","","","neg","GS","GSnew","3","category3/GS2.png","-52","targets/14.png","direct","",""
"","image-slider-response","108","450386","0.0-8.0-0.18","o9vyrz7fr9","many_one","0","direct_first","1","ER04AS20","0","25","1","1","3","1","","0","1","0","2497.029999998631","","","","","pos","GS","abstract","4","category4/lin.png","53","targets/48.png","direct","",""
"","image-slider-response","109","454280","0.0-8.0-0.19","o9vyrz7fr9","many_one","0","direct_first","1","ER04AS20","0","25","1","1","3","1","","0","1","0","3892.87499999773","","","","","pos","GS","GSnew","2","category2/GS2.png","72","targets/9.png","direct","",""
"","image-slider-response","110","456822","0.0-8.0-0.20","o9vyrz7fr9","many_one","0","direct_first","1","ER04AS20","0","25","1","1","3","1","","0","1","0","2539.5150000040303","","","","","pos","GS","GSnew","4","category4/GS3.png","-61","targets/29.png","direct","",""
"","image-slider-response","111","458863","0.0-8.0-0.21","o9vyrz7fr9","many_one","0","direct_first","1","ER04AS20","0","25","1","1","3","1","","0","1","0","2039.4100000048638","","","","","neg","CS","CS","3","category3/CS8.png","-66","targets/18.png","direct","",""
"","image-slider-response","112","460601","0.0-8.0-0.22","o9vyrz7fr9","many_one","0","direct_first","1","ER04AS20","0","25","1","1","3","1","","0","1","0","1734.7049999953015","","","","","neg","CS","CS","3","category3/CS2.png","65","targets/15.png","direct","",""
"","image-slider-response","113","462291","0.0-8.0-0.23","o9vyrz7fr9","many_one","0","direct_first","1","ER04AS20","0","25","1","1","3","1","","0","1","0","1687.7650000024005","","","","","pos","GS","GSnew","2","category2/GS3.png","-63","targets/30.png","direct","",""
"","image-slider-response","114","464030","0.0-8.0-0.24","o9vyrz7fr9","many_one","0","direct_first","1","ER04AS20","0","25","1","1","3","1","","0","1","0","1738.1200000017998","","","","","pos","GS","GSnew","4","category4/GS1.png","55","targets/1.png","direct","",""
"","image-slider-response","115","466548","0.0-8.0-0.25","o9vyrz7fr9","many_one","0","direct_first","1","ER04AS20","0","25","1","1","3","1","","0","1","0","2516.5150000029826","","","","","pos","CS","CS","4","category4/CS9.png","-85","targets/43.png","direct","",""
"","image-slider-response","116","469403","0.0-8.0-0.26","o9vyrz7fr9","many_one","0","direct_first","1","ER04AS20","0","25","1","1","3","1","","0","1","0","2852.25999999966","","","","","pos","CS","CS","2","category2/CS3.png","-73","targets/16.png","direct","",""
"","image-slider-response","117","471468","0.0-8.0-0.27","o9vyrz7fr9","many_one","0","direct_first","1","ER04AS20","0","25","1","1","3","1","","0","1","0","2062.615000002552","","","","","neg","GS","GSold","1","category1/CS9.png","55","targets/12.png","direct","",""
"","image-slider-response","118","473308","0.0-8.0-0.28","o9vyrz7fr9","many_one","0","direct_first","1","ER04AS20","0","25","1","1","3","1","","0","1","0","1838.6049999971874","","","","","pos","CS","CS","4","category4/CS4.png","24","targets/26.png","direct","",""
"","image-slider-response","119","476395","0.0-8.0-0.29","o9vyrz7fr9","many_one","0","direct_first","1","ER04AS20","0","25","1","1","3","1","","0","1","0","3085.1350000011735","","","","","pos","GS","GSold","2","category2/CS6.png","85","targets/4.png","direct","",""
"","image-slider-response","120","482893","0.0-8.0-0.30","o9vyrz7fr9","many_one","0","direct_first","1","ER04AS20","0","25","1","1","3","1","","0","1","0","6496.715000001132","","","","","neg","GS","GSnew","1","category1/GS3.png","62","targets/28.png","direct","",""
"","image-slider-response","121","485465","0.0-8.0-0.31","o9vyrz7fr9","many_one","0","direct_first","1","ER04AS20","0","25","1","1","3","1","","0","1","0","2569.8800000027404","","","","","neg","GS","abstract","3","category3/wang.png","66","targets/31.png","direct","",""
"","image-slider-response","122","488111","0.0-8.0-0.32","o9vyrz7fr9","many_one","0","direct_first","1","ER04AS20","0","25","1","1","3","1","","0","1","0","2644.0999999977066","","","","","neg","GS","GSold","1","category1/CS5.png","24","targets/41.png","direct","",""
"","image-slider-response","123","490476","0.0-8.0-0.33","o9vyrz7fr9","many_one","0","direct_first","1","ER04AS20","0","25","1","1","3","1","","0","1","0","2363.2649999999558","","","","","neg","GS","GSold","3","category3/CS4.png","-39","targets/47.png","direct","",""
"","image-slider-response","124","492926","0.0-8.0-0.34","o9vyrz7fr9","many_one","0","direct_first","1","ER04AS20","0","25","1","1","3","1","","0","1","0","2447.540000001027","","","","","pos","GS","GSold","4","category4/CS2.png","-61","targets/21.png","direct","",""
"","image-slider-response","125","494698","0.0-8.0-0.35","o9vyrz7fr9","many_one","0","direct_first","1","ER04AS20","0","25","1","1","3","1","","0","1","0","1771.0149999985006","","","","","neg","GS","GSnew","3","category3/GS1.png","54","targets/33.png","direct","",""
"","image-slider-response","126","498180","0.0-8.0-0.36","o9vyrz7fr9","many_one","0","direct_first","1","ER04AS20","0","25","1","1","3","1","","0","1","0","3479.740000002552","","","","","pos","CS","CS","4","category4/CS7.png","55","targets/8.png","direct","",""
"","image-slider-response","127","500730","0.0-8.0-0.37","o9vyrz7fr9","many_one","0","direct_first","1","ER04AS20","0","25","1","1","3","1","","0","1","0","2548.894999999902","","","","","pos","GS","GSold","2","category2/CS10.png","67","targets/13.png","direct","",""
"","image-slider-response","128","503680","0.0-8.0-0.38","o9vyrz7fr9","many_one","0","direct_first","1","ER04AS20","0","25","1","1","3","1","","0","1","0","2948.3799999944167","","","","","neg","GS","GSnew","1","category1/GS2.png","63","targets/40.png","direct","",""
"","image-slider-response","129","506386","0.0-8.0-0.39","o9vyrz7fr9","many_one","0","direct_first","1","ER04AS20","0","25","1","1","3","1","","0","1","0","2703.5649999961024","","","","","neg","GS","GSold","3","category3/CS6.png","45","targets/38.png","direct","",""
"","image-slider-response","130","508792","0.0-8.0-0.40","o9vyrz7fr9","many_one","0","direct_first","1","ER04AS20","0","25","1","1","3","1","","0","1","0","2403.9549999942537","","","","","neg","CS","CS","1","category1/CS2.png","-45","targets/23.png","direct","",""
"","image-slider-response","131","512525","0.0-8.0-0.41","o9vyrz7fr9","many_one","0","direct_first","1","ER04AS20","0","25","1","1","3","1","","0","1","0","3732.0650000039022","","","","","pos","CS","CS","4","category4/CS3.png","52","targets/27.png","direct","",""
"","image-slider-response","132","515481","0.0-8.0-0.42","o9vyrz7fr9","many_one","0","direct_first","1","ER04AS20","0","25","1","1","3","1","","0","1","0","2953.8549999997485","","","","","pos","GS","GSnew","2","category2/GS1.png","-46","targets/32.png","direct","",""
"","image-slider-response","133","517627","0.0-8.0-0.43","o9vyrz7fr9","many_one","0","direct_first","1","ER04AS20","0","25","1","1","3","1","","0","1","0","2144.4850000042934","","","","","neg","CS","CS","1","category1/CS8.png","-32","targets/44.png","direct","",""
"","image-slider-response","134","519880","0.0-8.0-0.44","o9vyrz7fr9","many_one","0","direct_first","1","ER04AS20","0","25","1","1","3","1","","0","1","0","2251.1900000026217","","","","","neg","GS","abstract","1","category1/ma.png","45","targets/5.png","direct","",""
"","image-slider-response","135","522274","0.0-8.0-0.45","o9vyrz7fr9","many_one","0","direct_first","1","ER04AS20","0","25","1","1","3","1","","0","1","0","2390.2000000016997","","","","","neg","CS","CS","1","category1/CS10.png","49","targets/46.png","direct","",""
"","image-slider-response","136","524735","0.0-8.0-0.46","o9vyrz7fr9","many_one","0","direct_first","1","ER04AS20","0","25","1","1","3","1","","0","1","0","2459.499999997206","","","","","pos","CS","CS","4","category4/CS1.png","49","targets/25.png","direct","",""
"","image-slider-response","137","527257","0.0-8.0-0.47","o9vyrz7fr9","many_one","0","direct_first","1","ER04AS20","0","25","1","1","3","1","","0","1","0","2519.7599999955855","","","","","pos","GS","GSold","4","category4/CS6.png","67","targets/42.png","direct","",""
"","html-keyboard-response","138","564900","0.0-9.0","o9vyrz7fr9","many_one","0","direct_first","1","ER04AS20","0","25","1","1","3","1","","0","1","0","37639.51999999699","","","<p>Sie sehen nun die chinesischen Zeichen nur ganz kurz. Danach sehen Sie die jeweilige Aussprache der Zeichen als Silbe auf dem Bildschrim. Ihre Aufgabe ist es, für jede Silbe anzugeben, ob diese etwas angenehmes, oder unangenehmes bedeuten könnte. Verlassen Sie sich hier vor allem auf Ihre Intuition.<br><br>Die Zeichen werden nur zur Orientierung dargestellt, beachten Sie sie deshalb nicht. Konzentrieren Sie sich vor allem auf die Silben. <br>Reagieren Sie mit folgenden zwei Tasten: <br><br><b>'D' </b> wenn die Silbe etwas <b>unangenehmes</b> bedeuten könnte. <br><b>'K'</b> wenn die Silbe etwas <b>angenehmes</b> bedeuten könnte. <br><br>Bitte legen Sie nun den Zeigefinger der linken Hand auf die Taste 'D' und den Zeigefinger der rechten Hand auf die Taste 'K'. <br>Reagieren Sie auf jede Silbe so schnell wie möglich. Uns interessiert Ihre spontane Reaktion. <br> <br> <br>Drücken Sie 'D' oder 'K', um die nächste Aufgabe zu starten. </p>","75","","","","","","","","","",""
"","html-keyboard-response","139","567907","0.0-10.0-0.0","o9vyrz7fr9","many_one","0","direct_first","1","ER04AS20","0","25","1","1","3","1","","0","1","0","null","","","<div style=""font-size:60px;"">+</div>","null","","","","","","","","","",""
"","html-keyboard-response","140","568004","0.0-10.0-1.0","o9vyrz7fr9","many_one","0","direct_first","1","ER04AS20","0","25","1","1","3","1","","0","1","0","null","","","<img src = 'category1/CS7.png' width = '100%;'>","null","","","","","","","","","",""
"","html-keyboard-response","141","568265","0.0-10.0-2.0","o9vyrz7fr9","many_one","0","direct_first","1","ER04AS20","0","25","1","1","3","1","","0","1","0","null","","","<img src = 'targets/39.png' width = '100%;'>","null","","","","","","","","","",""
"","html-keyboard-response","142","570190","0.0-10.0-3.0","o9vyrz7fr9","many_one","0","direct_first","1","ER04AS20","0","25","1","1","3","1","","0","1","0","1924.2850000010803","","","<img src = 'targets/mask.png' width = '100%;'>","68","neg","CS","CS","1","category1/CS7.png","","targets/39.png","indirect","0","0"
"","html-keyboard-response","143","571696","0.0-10.0-0.1","o9vyrz7fr9","many_one","0","direct_first","1","ER04AS20","0","25","1","1","3","1","","0","1","0","null","","","<div style=""font-size:60px;"">+</div>","null","","","","","","","","","",""
"","html-keyboard-response","144","571791","0.0-10.0-1.1","o9vyrz7fr9","many_one","0","direct_first","1","ER04AS20","0","25","1","1","3","1","","0","1","0","null","","","<img src = 'category2/CS8.png' width = '100%;'>","null","","","","","","","","","",""
"","html-keyboard-response","145","572052","0.0-10.0-2.1","o9vyrz7fr9","many_one","0","direct_first","1","ER04AS20","0","25","1","1","3","1","","0","1","0","null","","","<img src = 'targets/7.png' width = '100%;'>","null","","","","","","","","","",""
"","html-keyboard-response","146","572429","0.0-10.0-3.1","o9vyrz7fr9","many_one","0","direct_first","1","ER04AS20","0","25","1","1","3","1","","0","1","0","375.7850000038743","","","<img src = 'targets/mask.png' width = '100%;'>","75","pos","CS","CS","2","category2/CS8.png","","targets/7.png","indirect","1","1"
"","html-keyboard-response","147","573935","0.0-10.0-0.2","o9vyrz7fr9","many_one","0","direct_first","1","ER04AS20","0","25","1","1","3","1","","0","1","0","null","","","<div style=""font-size:60px;"">+</div>","null","","","","","","","","","",""
"","html-keyboard-response","148","574031","0.0-10.0-1.2","o9vyrz7fr9","many_one","0","direct_first","1","ER04AS20","0","25","1","1","3","1","","0","1","0","null","","","<img src = 'category4/CS6.png' width = '100%;'>","null","","","","","","","","","",""
"","html-keyboard-response","149","574286","0.0-10.0-2.2","o9vyrz7fr9","many_one","0","direct_first","1","ER04AS20","0","25","1","1","3","1","","0","1","0","null","","","<img src = 'targets/42.png' width = '100%;'>","null","","","","","","","","","",""
"","html-keyboard-response","150","574635","0.0-10.0-3.2","o9vyrz7fr9","many_one","0","direct_first","1","ER04AS20","0","25","1","1","3","1","","0","1","0","347.77500000200234","","","<img src = 'targets/mask.png' width = '100%;'>","68","pos","GS","GSold","4","category4/CS6.png","","targets/42.png","indirect","0","2"
"","html-keyboard-response","151","576142","0.0-10.0-0.3","o9vyrz7fr9","many_one","0","direct_first","1","ER04AS20","0","25","1","1","3","1","","0","1","0","null","","","<div style=""font-size:60px;"">+</div>","null","","","","","","","","","",""
"","html-keyboard-response","152","576238","0.0-10.0-1.3","o9vyrz7fr9","many_one","0","direct_first","1","ER04AS20","0","25","1","1","3","1","","0","1","0","null","","","<img src = 'category4/CS7.png' width = '100%;'>","null","","","","","","","","","",""
"","html-keyboard-response","153","576499","0.0-10.0-2.3","o9vyrz7fr9","many_one","0","direct_first","1","ER04AS20","0","25","1","1","3","1","","0","1","0","null","","","<img src = 'targets/8.png' width = '100%;'>","null","","","","","","","","","",""
"","html-keyboard-response","154","576776","0.0-10.0-3.3","o9vyrz7fr9","many_one","0","direct_first","1","ER04AS20","0","25","1","1","3","1","","0","1","0","275.93999999947846","","","<img src = 'targets/mask.png' width = '100%;'>","75","pos","CS","CS","4","category4/CS7.png","","targets/8.png","indirect","1","3"
"","html-keyboard-response","155","578280","0.0-10.0-0.4","o9vyrz7fr9","many_one","0","direct_first","1","ER04AS20","0","25","1","1","3","1","","0","1","0","null","","","<div style=""font-size:60px;"">+</div>","null","","","","","","","","","",""
"","html-keyboard-response","156","578375","0.0-10.0-1.4","o9vyrz7fr9","many_one","0","direct_first","1","ER04AS20","0","25","1","1","3","1","","0","1","0","null","","","<img src = 'category3/CS10.png' width = '100%;'>","null","","","","","","","","","",""
"","html-keyboard-response","157","578636","0.0-10.0-2.4","o9vyrz7fr9","many_one","0","direct_first","1","ER04AS20","0","25","1","1","3","1","","0","1","0","null","","","<img src = 'targets/11.png' width = '100%;'>","null","","","","","","","","","",""
"","html-keyboard-response","158","579008","0.0-10.0-3.4","o9vyrz7fr9","many_one","0","direct_first","1","ER04AS20","0","25","1","1","3","1","","0","1","0","370.4149999974761","","","<img src = 'targets/mask.png' width = '100%;'>","68","neg","CS","CS","3","category3/CS10.png","","targets/11.png","indirect","0","4"
"","html-keyboard-response","159","580513","0.0-10.0-0.5","o9vyrz7fr9","many_one","0","direct_first","1","ER04AS20","0","25","1","1","3","1","","0","1","0","null","","","<div style=""font-size:60px;"">+</div>","null","","","","","","","","","",""
"","html-keyboard-response","160","580609","0.0-10.0-1.5","o9vyrz7fr9","many_one","0","direct_first","1","ER04AS20","0","25","1","1","3","1","","0","1","0","null","","","<img src = 'category2/CS2.png' width = '100%;'>","null","","","","","","","","","",""
"","html-keyboard-response","161","580862","0.0-10.0-2.5","o9vyrz7fr9","many_one","0","direct_first","1","ER04AS20","0","25","1","1","3","1","","0","1","0","null","","","<img src = 'targets/36.png' width = '100%;'>","null","","","","","","","","","",""
"","html-keyboard-response","162","582020","0.0-10.0-3.5","o9vyrz7fr9","many_one","0","direct_first","1","ER04AS20","0","25","1","1","3","1","","0","1","0","1157.0349999965401","","","<img src = 'targets/mask.png' width = '100%;'>","75","pos","CS","CS","2","category2/CS2.png","","targets/36.png","indirect","1","5"
"","html-keyboard-response","163","583530","0.0-10.0-0.6","o9vyrz7fr9","many_one","0","direct_first","1","ER04AS20","0","25","1","1","3","1","","0","1","0","null","","","<div style=""font-size:60px;"">+</div>","null","","","","","","","","","",""
"","html-keyboard-response","164","583626","0.0-10.0-1.6","o9vyrz7fr9","many_one","0","direct_first","1","ER04AS20","0","25","1","1","3","1","","0","1","0","null","","","<img src = 'category1/CS8.png' width = '100%;'>","null","","","","","","","","","",""
"","html-keyboard-response","165","583884","0.0-10.0-2.6","o9vyrz7fr9","many_one","0","direct_first","1","ER04AS20","0","25","1","1","3","1","","0","1","0","null","","","<img src = 'targets/44.png' width = '100%;'>","null","","","","","","","","","",""
"","html-keyboard-response","166","585358","0.0-10.0-3.6","o9vyrz7fr9","many_one","0","direct_first","1","ER04AS20","0","25","1","1","3","1","","0","1","0","1471.9650000042748","","","<img src = 'targets/mask.png' width = '100%;'>","68","neg","CS","CS","1","category1/CS8.png","","targets/44.png","indirect","0","6"
"","html-keyboard-response","167","586864","0.0-10.0-0.7","o9vyrz7fr9","many_one","0","direct_first","1","ER04AS20","0","25","1","1","3","1","","0","1","0","null","","","<div style=""font-size:60px;"">+</div>","null","","","","","","","","","",""
"","html-keyboard-response","168","586959","0.0-10.0-1.7","o9vyrz7fr9","many_one","0","direct_first","1","ER04AS20","0","25","1","1","3","1","","0","1","0","null","","","<img src = 'category1/CS10.png' width = '100%;'>","null","","","","","","","","","",""
"","html-keyboard-response","169","587217","0.0-10.0-2.7","o9vyrz7fr9","many_one","0","direct_first","1","ER04AS20","0","25","1","1","3","1","","0","1","0","null","","","<img src = 'targets/46.png' width = '100%;'>","null","","","","","","","","","",""
"","html-keyboard-response","170","587872","0.0-10.0-3.7","o9vyrz7fr9","many_one","0","direct_first","1","ER04AS20","0","25","1","1","3","1","","0","1","0","652.3999999989755","","","<img src = 'targets/mask.png' width = '100%;'>","68","neg","CS","CS","1","category1/CS10.png","","targets/46.png","indirect","0","7"
"","html-keyboard-response","171","589382","0.0-10.0-0.8","o9vyrz7fr9","many_one","0","direct_first","1","ER04AS20","0","25","1","1","3","1","","0","1","0","null","","","<div style=""font-size:60px;"">+</div>","null","","","","","","","","","",""
"","html-keyboard-response","172","589476","0.0-10.0-1.8","o9vyrz7fr9","many_one","0","direct_first","1","ER04AS20","0","25","1","1","3","1","","0","1","0","null","","","<img src = 'category4/CS3.png' width = '100%;'>","null","","","","","","","","","",""
"","html-keyboard-response","173","589738","0.0-10.0-2.8","o9vyrz7fr9","many_one","0","direct_first","1","ER04AS20","0","25","1","1","3","1","","0","1","0","null","","","<img src = 'targets/27.png' width = '100%;'>","null","","","","","","","","","",""
"","html-keyboard-response","174","590150","0.0-10.0-3.8","o9vyrz7fr9","many_one","0","direct_first","1","ER04AS20","0","25","1","1","3","1","","0","1","0","411.95499999599997","","","<img src = 'targets/mask.png' width = '100%;'>","75","pos","CS","CS","4","category4/CS3.png","","targets/27.png","indirect","1","8"
"","html-keyboard-response","175","591660","0.0-10.0-0.9","o9vyrz7fr9","many_one","0","direct_first","1","ER04AS20","0","25","1","1","3","1","","0","1","0","null","","","<div style=""font-size:60px;"">+</div>","null","","","","","","","","","",""
"","html-keyboard-response","176","591756","0.0-10.0-1.9","o9vyrz7fr9","many_one","0","direct_first","1","ER04AS20","0","25","1","1","3","1","","0","1","0","null","","","<img src = 'category3/CS1.png' width = '100%;'>","null","","","","","","","","","",""
"","html-keyboard-response","177","592010","0.0-10.0-2.9","o9vyrz7fr9","many_one","0","direct_first","1","ER04AS20","0","25","1","1","3","1","","0","1","0","null","","","<img src = 'targets/6.png' width = '100%;'>","null","","","","","","","","","",""
"","html-keyboard-response","178","592484","0.0-10.0-3.9","o9vyrz7fr9","many_one","0","direct_first","1","ER04AS20","0","25","1","1","3","1","","0","1","0","473.07500000158325","","","<img src = 'targets/mask.png' width = '100%;'>","68","neg","CS","CS","3","category3/CS1.png","","targets/6.png","indirect","0","9"
"","html-keyboard-response","179","593993","0.0-10.0-0.10","o9vyrz7fr9","many_one","0","direct_first","1","ER04AS20","0","25","1","1","3","1","","0","1","0","null","","","<div style=""font-size:60px;"">+</div>","null","","","","","","","","","",""
"","html-keyboard-response","180","594089","0.0-10.0-1.10","o9vyrz7fr9","many_one","0","direct_first","1","ER04AS20","0","25","1","1","3","1","","0","1","0","null","","","<img src = 'category3/CS4.png' width = '100%;'>","null","","","","","","","","","",""
"","html-keyboard-response","181","594348","0.0-10.0-2.10","o9vyrz7fr9","many_one","0","direct_first","1","ER04AS20","0","25","1","1","3","1","","0","1","0","null","","","<img src = 'targets/47.png' width = '100%;'>","null","","","","","","","","","",""
"","html-keyboard-response","182","594466","0.0-10.0-3.10","o9vyrz7fr9","many_one","0","direct_first","1","ER04AS20","0","25","1","1","3","1","","0","1","0","117.160000001546","","","<img src = 'targets/mask.png' width = '100%;'>","75","neg","GS","GSold","3","category3/CS4.png","","targets/47.png","indirect","1","10"
"","html-keyboard-response","183","595977","0.0-10.0-0.11","o9vyrz7fr9","many_one","0","direct_first","1","ER04AS20","0","25","1","1","3","1","","0","1","0","null","","","<div style=""font-size:60px;"">+</div>","null","","","","","","","","","",""
"","html-keyboard-response","184","596073","0.0-10.0-1.11","o9vyrz7fr9","many_one","0","direct_first","1","ER04AS20","0","25","1","1","3","1","","0","1","0","null","","","<img src = 'category2/CS1.png' width = '100%;'>","null","","","","","","","","","",""
"","html-keyboard-response","185","596327","0.0-10.0-2.11","o9vyrz7fr9","many_one","0","direct_first","1","ER04AS20","0","25","1","1","3","1","","0","1","0","null","","","<img src = 'targets/3.png' width = '100%;'>","null","","","","","","","","","",""
"","html-keyboard-response","186","596895","0.0-10.0-3.11","o9vyrz7fr9","many_one","0","direct_first","1","ER04AS20","0","25","1","1","3","1","","0","1","0","567.599999994738","","","<img src = 'targets/mask.png' width = '100%;'>","68","pos","CS","CS","2","category2/CS1.png","","targets/3.png","indirect","0","11"
"","html-keyboard-response","187","598406","0.0-10.0-0.12","o9vyrz7fr9","many_one","0","direct_first","1","ER04AS20","0","25","1","1","3","1","","0","1","0","null","","","<div style=""font-size:60px;"">+</div>","null","","","","","","","","","",""
"","html-keyboard-response","188","598498","0.0-10.0-1.12","o9vyrz7fr9","many_one","0","direct_first","1","ER04AS20","0","25","1","1","3","1","","0","1","0","null","","","<img src = 'category4/CS1.png' width = '100%;'>","null","","","","","","","","","",""
"","html-keyboard-response","189","598758","0.0-10.0-2.12","o9vyrz7fr9","many_one","0","direct_first","1","ER04AS20","0","25","1","1","3","1","","0","1","0","null","","","<img src = 'targets/25.png' width = '100%;'>","null","","","","","","","","","",""
"","html-keyboard-response","190","599044","0.0-10.0-3.12","o9vyrz7fr9","many_one","0","direct_first","1","ER04AS20","0","25","1","1","3","1","","0","1","0","285.2899999998044","","","<img src = 'targets/mask.png' width = '100%;'>","75","pos","CS","CS","4","category4/CS1.png","","targets/25.png","indirect","1","12"
"","html-keyboard-response","191","600549","0.0-10.0-0.13","o9vyrz7fr9","many_one","0","direct_first","1","ER04AS20","0","25","1","1","3","1","","0","1","0","null","","","<div style=""font-size:60px;"">+</div>","null","","","","","","","","","",""
"","html-keyboard-response","192","600644","0.0-10.0-1.13","o9vyrz7fr9","many_one","0","direct_first","1","ER04AS20","0","25","1","1","3","1","","0","1","0","null","","","<img src = 'category2/CS4.png' width = '100%;'>","null","","","","","","","","","",""
"","html-keyboard-response","193","600903","0.0-10.0-2.13","o9vyrz7fr9","many_one","0","direct_first","1","ER04AS20","0","25","1","1","3","1","","0","1","0","null","","","<img src = 'targets/20.png' width = '100%;'>","null","","","","","","","","","",""
"","html-keyboard-response","194","601347","0.0-10.0-3.13","o9vyrz7fr9","many_one","0","direct_first","1","ER04AS20","0","25","1","1","3","1","","0","1","0","443.59999999869615","","","<img src = 'targets/mask.png' width = '100%;'>","68","pos","CS","CS","2","category2/CS4.png","","targets/20.png","indirect","0","13"
"","html-keyboard-response","195","602856","0.0-10.0-0.14","o9vyrz7fr9","many_one","0","direct_first","1","ER04AS20","0","25","1","1","3","1","","0","1","0","null","","","<div style=""font-size:60px;"">+</div>","null","","","","","","","","","",""
"","html-keyboard-response","196","602948","0.0-10.0-1.14","o9vyrz7fr9","many_one","0","direct_first","1","ER04AS20","0","25","1","1","3","1","","0","1","0","null","","","<img src = 'category3/CS8.png' width = '100%;'>","null","","","","","","","","","",""
"","html-keyboard-response","197","603208","0.0-10.0-2.14","o9vyrz7fr9","many_one","0","direct_first","1","ER04AS20","0","25","1","1","3","1","","0","1","0","null","","","<img src = 'targets/18.png' width = '100%;'>","null","","","","","","","","","",""
"","html-keyboard-response","198","603481","0.0-10.0-3.14","o9vyrz7fr9","many_one","0","direct_first","1","ER04AS20","0","25","1","1","3","1","","0","1","0","271.58999999659136","","","<img src = 'targets/mask.png' width = '100%;'>","68","neg","CS","CS","3","category3/CS8.png","","targets/18.png","indirect","0","14"
"","html-keyboard-response","199","604988","0.0-10.0-0.15","o9vyrz7fr9","many_one","0","direct_first","1","ER04AS20","0","25","1","1","3","1","","0","1","0","null","","","<div style=""font-size:60px;"">+</div>","null","","","","","","","","","",""
"","html-keyboard-response","200","605084","0.0-10.0-1.15","o9vyrz7fr9","many_one","0","direct_first","1","ER04AS20","0","25","1","1","3","1","","0","1","0","null","","","<img src = 'category1/CS4.png' width = '100%;'>","null","","","","","","","","","",""
"","html-keyboard-response","201","605342","0.0-10.0-2.15","o9vyrz7fr9","many_one","0","direct_first","1","ER04AS20","0","25","1","1","3","1","","0","1","0","null","","","<img src = 'targets/24.png' width = '100%;'>","null","","","","","","","","","",""
"","html-keyboard-response","202","605538","0.0-10.0-3.15","o9vyrz7fr9","many_one","0","direct_first","1","ER04AS20","0","25","1","1","3","1","","0","1","0","195.03499999688938","","","<img src = 'targets/mask.png' width = '100%;'>","68","neg","CS","CS","1","category1/CS4.png","","targets/24.png","indirect","0","15"
"","html-keyboard-response","203","607045","0.0-10.0-0.16","o9vyrz7fr9","many_one","0","direct_first","1","ER04AS20","0","25","1","1","3","1","","0","1","0","null","","","<div style=""font-size:60px;"">+</div>","null","","","","","","","","","",""
"","html-keyboard-response","204","607141","0.0-10.0-1.16","o9vyrz7fr9","many_one","0","direct_first","1","ER04AS20","0","25","1","1","3","1","","0","1","0","null","","","<img src = 'category3/CS6.png' width = '100%;'>","null","","","","","","","","","",""
"","html-keyboard-response","205","607399","0.0-10.0-2.16","o9vyrz7fr9","many_one","0","direct_first","1","ER04AS20","0","25","1","1","3","1","","0","1","0","null","","","<img src = 'targets/38.png' width = '100%;'>","null","","","","","","","","","",""
"","html-keyboard-response","206","607817","0.0-10.0-3.16","o9vyrz7fr9","many_one","0","direct_first","1","ER04AS20","0","25","1","1","3","1","","0","1","0","417.294999999227","","","<img src = 'targets/mask.png' width = '100%;'>","68","neg","GS","GSold","3","category3/CS6.png","","targets/38.png","indirect","0","16"
"","html-keyboard-response","207","609326","0.0-10.0-0.17","o9vyrz7fr9","many_one","0","direct_first","1","ER04AS20","0","25","1","1","3","1","","0","1","0","null","","","<div style=""font-size:60px;"">+</div>","null","","","","","","","","","",""
"","html-keyboard-response","208","609422","0.0-10.0-1.17","o9vyrz7fr9","many_one","0","direct_first","1","ER04AS20","0","25","1","1","3","1","","0","1","0","null","","","<img src = 'category4/CS4.png' width = '100%;'>","null","","","","","","","","","",""
"","html-keyboard-response","209","609678","0.0-10.0-2.17","o9vyrz7fr9","many_one","0","direct_first","1","ER04AS20","0","25","1","1","3","1","","0","1","0","null","","","<img src = 'targets/26.png' width = '100%;'>","null","","","","","","","","","",""
"","html-keyboard-response","210","610055","0.0-10.0-3.17","o9vyrz7fr9","many_one","0","direct_first","1","ER04AS20","0","25","1","1","3","1","","0","1","0","375.2650000023423","","","<img src = 'targets/mask.png' width = '100%;'>","75","pos","CS","CS","4","category4/CS4.png","","targets/26.png","indirect","1","17"
"","html-keyboard-response","211","611562","0.0-10.0-0.18","o9vyrz7fr9","many_one","0","direct_first","1","ER04AS20","0","25","1","1","3","1","","0","1","0","null","","","<div style=""font-size:60px;"">+</div>","null","","","","","","","","","",""
"","html-keyboard-response","212","611658","0.0-10.0-1.18","o9vyrz7fr9","many_one","0","direct_first","1","ER04AS20","0","25","1","1","3","1","","0","1","0","null","","","<img src = 'category2/CS3.png' width = '100%;'>","null","","","","","","","","","",""
"","html-keyboard-response","213","611919","0.0-10.0-2.18","o9vyrz7fr9","many_one","0","direct_first","1","ER04AS20","0","25","1","1","3","1","","0","1","0","null","","","<img src = 'targets/16.png' width = '100%;'>","null","","","","","","","","","",""
"","html-keyboard-response","214","612309","0.0-10.0-3.18","o9vyrz7fr9","many_one","0","direct_first","1","ER04AS20","0","25","1","1","3","1","","0","1","0","388.57999999891035","","","<img src = 'targets/mask.png' width = '100%;'>","68","pos","CS","CS","2","category2/CS3.png","","targets/16.png","indirect","0","18"
"","html-keyboard-response","215","613816","0.0-10.0-0.19","o9vyrz7fr9","many_one","0","direct_first","1","ER04AS20","0","25","1","1","3","1","","0","1","0","null","","","<div style=""font-size:60px;"">+</div>","null","","","","","","","","","",""
"","html-keyboard-response","216","613912","0.0-10.0-1.19","o9vyrz7fr9","many_one","0","direct_first","1","ER04AS20","0","25","1","1","3","1","","0","1","0","null","","","<img src = 'category1/CS2.png' width = '100%;'>","null","","","","","","","","","",""
"","html-keyboard-response","217","614173","0.0-10.0-2.19","o9vyrz7fr9","many_one","0","direct_first","1","ER04AS20","0","25","1","1","3","1","","0","1","0","null","","","<img src = 'targets/23.png' width = '100%;'>","null","","","","","","","","","",""
"","html-keyboard-response","218","614551","0.0-10.0-3.19","o9vyrz7fr9","many_one","0","direct_first","1","ER04AS20","0","25","1","1","3","1","","0","1","0","376.78500000038184","","","<img src = 'targets/mask.png' width = '100%;'>","68","neg","CS","CS","1","category1/CS2.png","","targets/23.png","indirect","0","19"
"","html-keyboard-response","219","616060","0.0-10.0-0.20","o9vyrz7fr9","many_one","0","direct_first","1","ER04AS20","0","25","1","1","3","1","","0","1","0","null","","","<div style=""font-size:60px;"">+</div>","null","","","","","","","","","",""
"","html-keyboard-response","220","616156","0.0-10.0-1.20","o9vyrz7fr9","many_one","0","direct_first","1","ER04AS20","0","25","1","1","3","1","","0","1","0","null","","","<img src = 'category3/CS3.png' width = '100%;'>","null","","","","","","","","","",""
"","html-keyboard-response","221","616412","0.0-10.0-2.20","o9vyrz7fr9","many_one","0","direct_first","1","ER04AS20","0","25","1","1","3","1","","0","1","0","null","","","<img src = 'targets/45.png' width = '100%;'>","null","","","","","","","","","",""
"","html-keyboard-response","222","616738","0.0-10.0-3.20","o9vyrz7fr9","many_one","0","direct_first","1","ER04AS20","0","25","1","1","3","1","","0","1","0","325.1550000059651","","","<img src = 'targets/mask.png' width = '100%;'>","68","neg","GS","GSold","3","category3/CS3.png","","targets/45.png","indirect","0","20"
"","html-keyboard-response","223","618246","0.0-10.0-0.21","o9vyrz7fr9","many_one","0","direct_first","1","ER04AS20","0","25","1","1","3","1","","0","1","0","null","","","<div style=""font-size:60px;"">+</div>","null","","","","","","","","","",""
"","html-keyboard-response","224","618337","0.0-10.0-1.21","o9vyrz7fr9","many_one","0","direct_first","1","ER04AS20","0","25","1","1","3","1","","0","1","0","null","","","<img src = 'category3/CS2.png' width = '100%;'>","null","","","","","","","","","",""
"","html-keyboard-response","225","618588","0.0-10.0-2.21","o9vyrz7fr9","many_one","0","direct_first","1","ER04AS20","0","25","1","1","3","1","","0","1","0","null","","","<img src = 'targets/15.png' width = '100%;'>","null","","","","","","","","","",""
"","html-keyboard-response","226","618806","0.0-10.0-3.21","o9vyrz7fr9","many_one","0","direct_first","1","ER04AS20","0","25","1","1","3","1","","0","1","0","217.3800000018673","","","<img src = 'targets/mask.png' width = '100%;'>","68","neg","CS","CS","3","category3/CS2.png","","targets/15.png","indirect","0","21"
"","html-keyboard-response","227","620313","0.0-10.0-0.22","o9vyrz7fr9","many_one","0","direct_first","1","ER04AS20","0","25","1","1","3","1","","0","1","0","null","","","<div style=""font-size:60px;"">+</div>","null","","","","","","","","","",""
"","html-keyboard-response","228","620409","0.0-10.0-1.22","o9vyrz7fr9","many_one","0","direct_first","1","ER04AS20","0","25","1","1","3","1","","0","1","0","null","","","<img src = 'category4/CS9.png' width = '100%;'>","null","","","","","","","","","",""
"","html-keyboard-response","229","620670","0.0-10.0-2.22","o9vyrz7fr9","many_one","0","direct_first","1","ER04AS20","0","25","1","1","3","1","","0","1","0","null","","","<img src = 'targets/43.png' width = '100%;'>","null","","","","","","","","","",""
"","html-keyboard-response","230","620999","0.0-10.0-3.22","o9vyrz7fr9","many_one","0","direct_first","1","ER04AS20","0","25","1","1","3","1","","0","1","0","328.36500000127126","","","<img src = 'targets/mask.png' width = '100%;'>","75","pos","CS","CS","4","category4/CS9.png","","targets/43.png","indirect","1","22"
"","html-keyboard-response","231","622509","0.0-10.0-0.23","o9vyrz7fr9","many_one","0","direct_first","1","ER04AS20","0","25","1","1","3","1","","0","1","0","null","","","<div style=""font-size:60px;"">+</div>","null","","","","","","","","","",""
"","html-keyboard-response","232","622605","0.0-10.0-1.23","o9vyrz7fr9","many_one","0","direct_first","1","ER04AS20","0","25","1","1","3","1","","0","1","0","null","","","<img src = 'category3/CS9.png' width = '100%;'>","null","","","","","","","","","",""
"","html-keyboard-response","233","622863","0.0-10.0-2.23","o9vyrz7fr9","many_one","0","direct_first","1","ER04AS20","0","25","1","1","3","1","","0","1","0","null","","","<img src = 'targets/19.png' width = '100%;'>","null","","","","","","","","","",""
"","html-keyboard-response","234","623133","0.0-10.0-3.23","o9vyrz7fr9","many_one","0","direct_first","1","ER04AS20","0","25","1","1","3","1","","0","1","0","269.4199999968987","","","<img src = 'targets/mask.png' width = '100%;'>","68","neg","CS","CS","3","category3/CS9.png","","targets/19.png","indirect","0","23"
"","survey-html-form","235","632363","0.0-11.0","o9vyrz7fr9","many_one","0","direct_first","1","ER04AS20","0","25","1","1","3","1","","0","1","0","8725.269999995362","","{}","","","","","","","","","","","",""
"","html-keyboard-response","236","635368","0.0-12.0-0.0","o9vyrz7fr9","many_one","0","direct_first","1","ER04AS20","0","25","1","1","3","1","","0","1","0","null","","","<div style=""font-size:60px;"">+</div>","null","","","","","","","","","",""
"","html-keyboard-response","237","635464","0.0-12.0-1.0","o9vyrz7fr9","many_one","0","direct_first","1","ER04AS20","0","25","1","1","3","1","","0","1","0","null","","","<img src = 'category1/GS2.png' width = '100%;'>","null","","","","","","","","","",""
"","html-keyboard-response","238","635720","0.0-12.0-2.0","o9vyrz7fr9","many_one","0","direct_first","1","ER04AS20","0","25","1","1","3","1","","0","1","0","null","","","<img src = 'targets/40.png' width = '100%;'>","null","","","","","","","","","",""
"","html-keyboard-response","239","636319","0.0-12.0-3.0","o9vyrz7fr9","many_one","0","direct_first","1","ER04AS20","0","25","1","1","3","1","","0","1","0","598.0149999959394","","","<img src = 'targets/mask.png' width = '100%;'>","68","neg","GS","GSnew","1","category1/GS2.png","","targets/40.png","indirect","0","24"
"","html-keyboard-response","240","637830","0.0-12.0-0.1","o9vyrz7fr9","many_one","0","direct_first","1","ER04AS20","0","25","1","1","3","1","","0","1","0","null","","","<div style=""font-size:60px;"">+</div>","null","","","","","","","","","",""
"","html-keyboard-response","241","637921","0.0-12.0-1.1","o9vyrz7fr9","many_one","0","direct_first","1","ER04AS20","0","25","1","1","3","1","","0","1","0","null","","","<img src = 'category4/lin.png' width = '100%;'>","null","","","","","","","","","",""
"","html-keyboard-response","242","638178","0.0-12.0-2.1","o9vyrz7fr9","many_one","0","direct_first","1","ER04AS20","0","25","1","1","3","1","","0","1","0","null","","","<img src = 'targets/48.png' width = '100%;'>","null","","","","","","","","","",""
"","html-keyboard-response","243","638456","0.0-12.0-3.1","o9vyrz7fr9","many_one","0","direct_first","1","ER04AS20","0","25","1","1","3","1","","0","1","0","276.5700000018114","","","<img src = 'targets/mask.png' width = '100%;'>","75","pos","GS","abstract","4","category4/lin.png","","targets/48.png","indirect","1","25"
"","html-keyboard-response","244","639964","0.0-12.0-0.2","o9vyrz7fr9","many_one","0","direct_first","1","ER04AS20","0","25","1","1","3","1","","0","1","0","null","","","<div style=""font-size:60px;"">+</div>","null","","","","","","","","","",""
"","html-keyboard-response","245","640060","0.0-12.0-1.2","o9vyrz7fr9","many_one","0","direct_first","1","ER04AS20","0","25","1","1","3","1","","0","1","0","null","","","<img src = 'category2/men.png' width = '100%;'>","null","","","","","","","","","",""
"","html-keyboard-response","246","640321","0.0-12.0-2.2","o9vyrz7fr9","many_one","0","direct_first","1","ER04AS20","0","25","1","1","3","1","","0","1","0","null","","","<img src = 'targets/17.png' width = '100%;'>","null","","","","","","","","","",""
"","html-keyboard-response","247","640546","0.0-12.0-3.2","o9vyrz7fr9","many_one","0","direct_first","1","ER04AS20","0","25","1","1","3","1","","0","1","0","224.26500000432134","","","<img src = 'targets/mask.png' width = '100%;'>","68","pos","GS","abstract","2","category2/men.png","","targets/17.png","indirect","0","26"
"","html-keyboard-response","248","642053","0.0-12.0-0.3","o9vyrz7fr9","many_one","0","direct_first","1","ER04AS20","0","25","1","1","3","1","","0","1","0","null","","","<div style=""font-size:60px;"">+</div>","null","","","","","","","","","",""
"","html-keyboard-response","249","642148","0.0-12.0-1.3","o9vyrz7fr9","many_one","0","direct_first","1","ER04AS20","0","25","1","1","3","1","","0","1","0","null","","","<img src = 'category1/ma.png' width = '100%;'>","null","","","","","","","","","",""
"","html-keyboard-response","250","642408","0.0-12.0-2.3","o9vyrz7fr9","many_one","0","direct_first","1","ER04AS20","0","25","1","1","3","1","","0","1","0","null","","","<img src = 'targets/5.png' width = '100%;'>","null","","","","","","","","","",""
"","html-keyboard-response","251","642961","0.0-12.0-3.3","o9vyrz7fr9","many_one","0","direct_first","1","ER04AS20","0","25","1","1","3","1","","0","1","0","552.1250000019791","","","<img src = 'targets/mask.png' width = '100%;'>","68","neg","GS","abstract","1","category1/ma.png","","targets/5.png","indirect","0","27"
"","html-keyboard-response","252","644470","0.0-12.0-0.4","o9vyrz7fr9","many_one","0","direct_first","1","ER04AS20","0","25","1","1","3","1","","0","1","0","null","","","<div style=""font-size:60px;"">+</div>","null","","","","","","","","","",""
"","html-keyboard-response","253","644565","0.0-12.0-1.4","o9vyrz7fr9","many_one","0","direct_first","1","ER04AS20","0","25","1","1","3","1","","0","1","0","null","","","<img src = 'category2/GS2.png' width = '100%;'>","null","","","","","","","","","",""
"","html-keyboard-response","254","644826","0.0-12.0-2.4","o9vyrz7fr9","many_one","0","direct_first","1","ER04AS20","0","25","1","1","3","1","","0","1","0","null","","","<img src = 'targets/9.png' width = '100%;'>","null","","","","","","","","","",""
"","html-keyboard-response","255","645355","0.0-12.0-3.4","o9vyrz7fr9","many_one","0","direct_first","1","ER04AS20","0","25","1","1","3","1","","0","1","0","527.5050000054762","","","<img src = 'targets/mask.png' width = '100%;'>","75","pos","GS","GSnew","2","category2/GS2.png","","targets/9.png","indirect","1","28"
"","html-keyboard-response","256","646865","0.0-12.0-0.5","o9vyrz7fr9","many_one","0","direct_first","1","ER04AS20","0","25","1","1","3","1","","0","1","0","null","","","<div style=""font-size:60px;"">+</div>","null","","","","","","","","","",""
"","html-keyboard-response","257","646961","0.0-12.0-1.5","o9vyrz7fr9","many_one","0","direct_first","1","ER04AS20","0","25","1","1","3","1","","0","1","0","null","","","<img src = 'category2/GS1.png' width = '100%;'>","null","","","","","","","","","",""
"","html-keyboard-response","258","647223","0.0-12.0-2.5","o9vyrz7fr9","many_one","0","direct_first","1","ER04AS20","0","25","1","1","3","1","","0","1","0","null","","","<img src = 'targets/32.png' width = '100%;'>","null","","","","","","","","","",""
"","html-keyboard-response","259","647646","0.0-12.0-3.5","o9vyrz7fr9","many_one","0","direct_first","1","ER04AS20","0","25","1","1","3","1","","0","1","0","422.07000000053085","","","<img src = 'targets/mask.png' width = '100%;'>","75","pos","GS","GSnew","2","category2/GS1.png","","targets/32.png","indirect","1","29"
"","html-keyboard-response","260","649154","0.0-12.0-0.6","o9vyrz7fr9","many_one","0","direct_first","1","ER04AS20","0","25","1","1","3","1","","0","1","0","null","","","<div style=""font-size:60px;"">+</div>","null","","","","","","","","","",""
"","html-keyboard-response","261","649249","0.0-12.0-1.6","o9vyrz7fr9","many_one","0","direct_first","1","ER04AS20","0","25","1","1","3","1","","0","1","0","null","","","<img src = 'category3/GS2.png' width = '100%;'>","null","","","","","","","","","",""
"","html-keyboard-response","262","649510","0.0-12.0-2.6","o9vyrz7fr9","many_one","0","direct_first","1","ER04AS20","0","25","1","1","3","1","","0","1","0","null","","","<img src = 'targets/14.png' width = '100%;'>","null","","","","","","","","","",""
"","html-keyboard-response","263","649845","0.0-12.0-3.6","o9vyrz7fr9","many_one","0","direct_first","1","ER04AS20","0","25","1","1","3","1","","0","1","0","333.5750000042608","","","<img src = 'targets/mask.png' width = '100%;'>","68","neg","GS","GSnew","3","category3/GS2.png","","targets/14.png","indirect","0","30"
"","html-keyboard-response","264","651354","0.0-12.0-0.7","o9vyrz7fr9","many_one","0","direct_first","1","ER04AS20","0","25","1","1","3","1","","0","1","0","null","","","<div style=""font-size:60px;"">+</div>","null","","","","","","","","","",""
"","html-keyboard-response","265","651449","0.0-12.0-1.7","o9vyrz7fr9","many_one","0","direct_first","1","ER04AS20","0","25","1","1","3","1","","0","1","0","null","","","<img src = 'category2/GS3.png' width = '100%;'>","null","","","","","","","","","",""
"","html-keyboard-response","266","651710","0.0-12.0-2.7","o9vyrz7fr9","many_one","0","direct_first","1","ER04AS20","0","25","1","1","3","1","","0","1","0","null","","","<img src = 'targets/30.png' width = '100%;'>","null","","","","","","","","","",""
"","html-keyboard-response","267","652127","0.0-12.0-3.7","o9vyrz7fr9","many_one","0","direct_first","1","ER04AS20","0","25","1","1","3","1","","0","1","0","415.28999999712687","","","<img src = 'targets/mask.png' width = '100%;'>","75","pos","GS","GSnew","2","category2/GS3.png","","targets/30.png","indirect","1","31"
"","html-keyboard-response","268","653632","0.0-12.0-0.8","o9vyrz7fr9","many_one","0","direct_first","1","ER04AS20","0","25","1","1","3","1","","0","1","0","null","","","<div style=""font-size:60px;"">+</div>","null","","","","","","","","","",""
"","html-keyboard-response","269","653729","0.0-12.0-1.8","o9vyrz7fr9","many_one","0","direct_first","1","ER04AS20","0","25","1","1","3","1","","0","1","0","null","","","<img src = 'category4/GS2.png' width = '100%;'>","null","","","","","","","","","",""
"","html-keyboard-response","270","653990","0.0-12.0-2.8","o9vyrz7fr9","many_one","0","direct_first","1","ER04AS20","0","25","1","1","3","1","","0","1","0","null","","","<img src = 'targets/22.png' width = '100%;'>","null","","","","","","","","","",""
"","html-keyboard-response","271","654245","0.0-12.0-3.8","o9vyrz7fr9","many_one","0","direct_first","1","ER04AS20","0","25","1","1","3","1","","0","1","0","253.2299999948591","","","<img src = 'targets/mask.png' width = '100%;'>","68","pos","GS","GSnew","4","category4/GS2.png","","targets/22.png","indirect","0","32"
"","html-keyboard-response","272","655749","0.0-12.0-0.9","o9vyrz7fr9","many_one","0","direct_first","1","ER04AS20","0","25","1","1","3","1","","0","1","0","null","","","<div style=""font-size:60px;"">+</div>","null","","","","","","","","","",""
"","html-keyboard-response","273","655845","0.0-12.0-1.9","o9vyrz7fr9","many_one","0","direct_first","1","ER04AS20","0","25","1","1","3","1","","0","1","0","null","","","<img src = 'category3/GS1.png' width = '100%;'>","null","","","","","","","","","",""
"","html-keyboard-response","274","656107","0.0-12.0-2.9","o9vyrz7fr9","many_one","0","direct_first","1","ER04AS20","0","25","1","1","3","1","","0","1","0","null","","","<img src = 'targets/33.png' width = '100%;'>","null","","","","","","","","","",""
"","html-keyboard-response","275","656302","0.0-12.0-3.9","o9vyrz7fr9","many_one","0","direct_first","1","ER04AS20","0","25","1","1","3","1","","0","1","0","194.5800000031013","","","<img src = 'targets/mask.png' width = '100%;'>","68","neg","GS","GSnew","3","category3/GS1.png","","targets/33.png","indirect","0","33"
"","html-keyboard-response","276","657812","0.0-12.0-0.10","o9vyrz7fr9","many_one","0","direct_first","1","ER04AS20","0","25","1","1","3","1","","0","1","0","null","","","<div style=""font-size:60px;"">+</div>","null","","","","","","","","","",""
"","html-keyboard-response","277","657908","0.0-12.0-1.10","o9vyrz7fr9","many_one","0","direct_first","1","ER04AS20","0","25","1","1","3","1","","0","1","0","null","","","<img src = 'category1/CS5.png' width = '100%;'>","null","","","","","","","","","",""
"","html-keyboard-response","278","658165","0.0-12.0-2.10","o9vyrz7fr9","many_one","0","direct_first","1","ER04AS20","0","25","1","1","3","1","","0","1","0","null","","","<img src = 'targets/41.png' width = '100%;'>","null","","","","","","","","","",""
"","html-keyboard-response","279","658347","0.0-12.0-3.10","o9vyrz7fr9","many_one","0","direct_first","1","ER04AS20","0","25","1","1","3","1","","0","1","0","180.980000004638","","","<img src = 'targets/mask.png' width = '100%;'>","68","neg","GS","GSold","1","category1/CS5.png","","targets/41.png","indirect","0","34"
"","html-keyboard-response","280","659855","0.0-12.0-0.11","o9vyrz7fr9","many_one","0","direct_first","1","ER04AS20","0","25","1","1","3","1","","0","1","0","null","","","<div style=""font-size:60px;"">+</div>","null","","","","","","","","","",""
"","html-keyboard-response","281","659950","0.0-12.0-1.11","o9vyrz7fr9","many_one","0","direct_first","1","ER04AS20","0","25","1","1","3","1","","0","1","0","null","","","<img src = 'category1/CS1.png' width = '100%;'>","null","","","","","","","","","",""
"","html-keyboard-response","282","660206","0.0-12.0-2.11","o9vyrz7fr9","many_one","0","direct_first","1","ER04AS20","0","25","1","1","3","1","","0","1","0","null","","","<img src = 'targets/10.png' width = '100%;'>","null","","","","","","","","","",""
"","html-keyboard-response","283","660210","0.0-12.0-3.11","o9vyrz7fr9","many_one","0","direct_first","1","ER04AS20","0","25","1","1","3","1","","0","1","0","2.0999999979976565","","","<img src = 'targets/mask.png' width = '100%;'>","68","neg","GS","GSold","1","category1/CS1.png","","targets/10.png","indirect","0","35"
"","html-keyboard-response","284","661717","0.0-12.0-0.12","o9vyrz7fr9","many_one","0","direct_first","1","ER04AS20","0","25","1","1","3","1","","0","1","0","null","","","<div style=""font-size:60px;"">+</div>","null","","","","","","","","","",""
"","html-keyboard-response","285","661813","0.0-12.0-1.12","o9vyrz7fr9","many_one","0","direct_first","1","ER04AS20","0","25","1","1","3","1","","0","1","0","null","","","<img src = 'category4/CS2.png' width = '100%;'>","null","","","","","","","","","",""
"","html-keyboard-response","286","662067","0.0-12.0-2.12","o9vyrz7fr9","many_one","0","direct_first","1","ER04AS20","0","25","1","1","3","1","","0","1","0","null","","","<img src = 'targets/21.png' width = '100%;'>","null","","","","","","","","","",""
"","html-keyboard-response","287","662759","0.0-12.0-3.12","o9vyrz7fr9","many_one","0","direct_first","1","ER04AS20","0","25","1","1","3","1","","0","1","0","691.469999997993","","","<img src = 'targets/mask.png' width = '100%;'>","75","pos","GS","GSold","4","category4/CS2.png","","targets/21.png","indirect","1","36"
"","html-keyboard-response","288","664267","0.0-12.0-0.13","o9vyrz7fr9","many_one","0","direct_first","1","ER04AS20","0","25","1","1","3","1","","0","1","0","null","","","<div style=""font-size:60px;"">+</div>","null","","","","","","","","","",""
"","html-keyboard-response","289","664363","0.0-12.0-1.13","o9vyrz7fr9","many_one","0","direct_first","1","ER04AS20","0","25","1","1","3","1","","0","1","0","null","","","<img src = 'category1/CS9.png' width = '100%;'>","null","","","","","","","","","",""
"","html-keyboard-response","290","664624","0.0-12.0-2.13","o9vyrz7fr9","many_one","0","direct_first","1","ER04AS20","0","25","1","1","3","1","","0","1","0","null","","","<img src = 'targets/12.png' width = '100%;'>","null","","","","","","","","","",""
"","html-keyboard-response","291","665026","0.0-12.0-3.13","o9vyrz7fr9","many_one","0","direct_first","1","ER04AS20","0","25","1","1","3","1","","0","1","0","400.3949999968754","","","<img src = 'targets/mask.png' width = '100%;'>","68","neg","GS","GSold","1","category1/CS9.png","","targets/12.png","indirect","0","37"
"","html-keyboard-response","292","666532","0.0-12.0-0.14","o9vyrz7fr9","many_one","0","direct_first","1","ER04AS20","0","25","1","1","3","1","","0","1","0","null","","","<div style=""font-size:60px;"">+</div>","null","","","","","","","","","",""
"","html-keyboard-response","293","666629","0.0-12.0-1.14","o9vyrz7fr9","many_one","0","direct_first","1","ER04AS20","0","25","1","1","3","1","","0","1","0","null","","","<img src = 'category1/GS1.png' width = '100%;'>","null","","","","","","","","","",""
"","html-keyboard-response","294","666884","0.0-12.0-2.14","o9vyrz7fr9","many_one","0","direct_first","1","ER04AS20","0","25","1","1","3","1","","0","1","0","null","","","<img src = 'targets/34.png' width = '100%;'>","null","","","","","","","","","",""
"","html-keyboard-response","295","667106","0.0-12.0-3.14","o9vyrz7fr9","many_one","0","direct_first","1","ER04AS20","0","25","1","1","3","1","","0","1","0","221.3950000004843","","","<img src = 'targets/mask.png' width = '100%;'>","68","neg","GS","GSnew","1","category1/GS1.png","","targets/34.png","indirect","0","38"
"","html-keyboard-response","296","668616","0.0-12.0-0.15","o9vyrz7fr9","many_one","0","direct_first","1","ER04AS20","0","25","1","1","3","1","","0","1","0","null","","","<div style=""font-size:60px;"">+</div>","null","","","","","","","","","",""
"","html-keyboard-response","297","668709","0.0-12.0-1.15","o9vyrz7fr9","many_one","0","direct_first","1","ER04AS20","0","25","1","1","3","1","","0","1","0","null","","","<img src = 'category2/CS9.png' width = '100%;'>","null","","","","","","","","","",""
"","html-keyboard-response","298","668967","0.0-12.0-2.15","o9vyrz7fr9","many_one","0","direct_first","1","ER04AS20","0","25","1","1","3","1","","0","1","0","null","","","<img src = 'targets/2.png' width = '100%;'>","null","","","","","","","","","",""
"","html-keyboard-response","299","669206","0.0-12.0-3.15","o9vyrz7fr9","many_one","0","direct_first","1","ER04AS20","0","25","1","1","3","1","","0","1","0","237.63000000326429","","","<img src = 'targets/mask.png' width = '100%;'>","68","pos","GS","GSold","2","category2/CS9.png","","targets/2.png","indirect","0","39"
"","html-keyboard-response","300","670716","0.0-12.0-0.16","o9vyrz7fr9","many_one","0","direct_first","1","ER04AS20","0","25","1","1","3","1","","0","1","0","null","","","<div style=""font-size:60px;"">+</div>","null","","","","","","","","","",""
"","html-keyboard-response","301","670812","0.0-12.0-1.16","o9vyrz7fr9","many_one","0","direct_first","1","ER04AS20","0","25","1","1","3","1","","0","1","0","null","","","<img src = 'category2/CS6.png' width = '100%;'>","null","","","","","","","","","",""
"","html-keyboard-response","302","671073","0.0-12.0-2.16","o9vyrz7fr9","many_one","0","direct_first","1","ER04AS20","0","25","1","1","3","1","","0","1","0","null","","","<img src = 'targets/4.png' width = '100%;'>","null","","","","","","","","","",""
"","html-keyboard-response","303","671254","0.0-12.0-3.16","o9vyrz7fr9","many_one","0","direct_first","1","ER04AS20","0","25","1","1","3","1","","0","1","0","179.69499999890104","","","<img src = 'targets/mask.png' width = '100%;'>","68","pos","GS","GSold","2","category2/CS6.png","","targets/4.png","indirect","0","40"
"","html-keyboard-response","304","672764","0.0-12.0-0.17","o9vyrz7fr9","many_one","0","direct_first","1","ER04AS20","0","25","1","1","3","1","","0","1","0","null","","","<div style=""font-size:60px;"">+</div>","null","","","","","","","","","",""
"","html-keyboard-response","305","672855","0.0-12.0-1.17","o9vyrz7fr9","many_one","0","direct_first","1","ER04AS20","0","25","1","1","3","1","","0","1","0","null","","","<img src = 'category4/GS1.png' width = '100%;'>","null","","","","","","","","","",""
"","html-keyboard-response","306","673115","0.0-12.0-2.17","o9vyrz7fr9","many_one","0","direct_first","1","ER04AS20","0","25","1","1","3","1","","0","1","0","null","","","<img src = 'targets/1.png' width = '100%;'>","null","","","","","","","","","",""
"","html-keyboard-response","307","673257","0.0-12.0-3.17","o9vyrz7fr9","many_one","0","direct_first","1","ER04AS20","0","25","1","1","3","1","","0","1","0","140.79499999945983","","","<img src = 'targets/mask.png' width = '100%;'>","75","pos","GS","GSnew","4","category4/GS1.png","","targets/1.png","indirect","1","41"
"","html-keyboard-response","308","674759","0.0-12.0-0.18","o9vyrz7fr9","many_one","0","direct_first","1","ER04AS20","0","25","1","1","3","1","","0","1","0","null","","","<div style=""font-size:60px;"">+</div>","null","","","","","","","","","",""
"","html-keyboard-response","309","674851","0.0-12.0-1.18","o9vyrz7fr9","many_one","0","direct_first","1","ER04AS20","0","25","1","1","3","1","","0","1","0","null","","","<img src = 'category4/GS3.png' width = '100%;'>","null","","","","","","","","","",""
"","html-keyboard-response","310","675113","0.0-12.0-2.18","o9vyrz7fr9","many_one","0","direct_first","1","ER04AS20","0","25","1","1","3","1","","0","1","0","null","","","<img src = 'targets/29.png' width = '100%;'>","null","","","","","","","","","",""
"","html-keyboard-response","311","675542","0.0-12.0-3.18","o9vyrz7fr9","many_one","0","direct_first","1","ER04AS20","0","25","1","1","3","1","","0","1","0","428.46000000287313","","","<img src = 'targets/mask.png' width = '100%;'>","75","pos","GS","GSnew","4","category4/GS3.png","","targets/29.png","indirect","1","42"
"","html-keyboard-response","312","677051","0.0-12.0-0.19","o9vyrz7fr9","many_one","0","direct_first","1","ER04AS20","0","25","1","1","3","1","","0","1","0","null","","","<div style=""font-size:60px;"">+</div>","null","","","","","","","","","",""
"","html-keyboard-response","313","677148","0.0-12.0-1.19","o9vyrz7fr9","many_one","0","direct_first","1","ER04AS20","0","25","1","1","3","1","","0","1","0","null","","","<img src = 'category1/GS3.png' width = '100%;'>","null","","","","","","","","","",""
"","html-keyboard-response","314","677406","0.0-12.0-2.19","o9vyrz7fr9","many_one","0","direct_first","1","ER04AS20","0","25","1","1","3","1","","0","1","0","null","","","<img src = 'targets/28.png' width = '100%;'>","null","","","","","","","","","",""
"","html-keyboard-response","315","677838","0.0-12.0-3.19","o9vyrz7fr9","many_one","0","direct_first","1","ER04AS20","0","25","1","1","3","1","","0","1","0","430.2349999997532","","","<img src = 'targets/mask.png' width = '100%;'>","75","neg","GS","GSnew","1","category1/GS3.png","","targets/28.png","indirect","1","43"
"","html-keyboard-response","316","679347","0.0-12.0-0.20","o9vyrz7fr9","many_one","0","direct_first","1","ER04AS20","0","25","1","1","3","1","","0","1","0","null","","","<div style=""font-size:60px;"">+</div>","null","","","","","","","","","",""
"","html-keyboard-response","317","679443","0.0-12.0-1.20","o9vyrz7fr9","many_one","0","direct_first","1","ER04AS20","0","25","1","1","3","1","","0","1","0","null","","","<img src = 'category3/GS3.png' width = '100%;'>","null","","","","","","","","","",""
"","html-keyboard-response","318","679702","0.0-12.0-2.20","o9vyrz7fr9","many_one","0","direct_first","1","ER04AS20","0","25","1","1","3","1","","0","1","0","null","","","<img src = 'targets/35.png' width = '100%;'>","null","","","","","","","","","",""
"","html-keyboard-response","319","680263","0.0-12.0-3.20","o9vyrz7fr9","many_one","0","direct_first","1","ER04AS20","0","25","1","1","3","1","","0","1","0","559.8349999999627","","","<img src = 'targets/mask.png' width = '100%;'>","75","neg","GS","GSnew","3","category3/GS3.png","","targets/35.png","indirect","1","44"
"","html-keyboard-response","320","681769","0.0-12.0-0.21","o9vyrz7fr9","many_one","0","direct_first","1","ER04AS20","0","25","1","1","3","1","","0","1","0","null","","","<div style=""font-size:60px;"">+</div>","null","","","","","","","","","",""
"","html-keyboard-response","321","681865","0.0-12.0-1.21","o9vyrz7fr9","many_one","0","direct_first","1","ER04AS20","0","25","1","1","3","1","","0","1","0","null","","","<img src = 'category4/CS5.png' width = '100%;'>","null","","","","","","","","","",""
"","html-keyboard-response","322","682126","0.0-12.0-2.21","o9vyrz7fr9","many_one","0","direct_first","1","ER04AS20","0","25","1","1","3","1","","0","1","0","null","","","<img src = 'targets/37.png' width = '100%;'>","null","","","","","","","","","",""
"","html-keyboard-response","323","682407","0.0-12.0-3.21","o9vyrz7fr9","many_one","0","direct_first","1","ER04AS20","0","25","1","1","3","1","","0","1","0","279.9400000004098","","","<img src = 'targets/mask.png' width = '100%;'>","68","pos","GS","GSold","4","category4/CS5.png","","targets/37.png","indirect","0","45"
"","html-keyboard-response","324","683917","0.0-12.0-0.22","o9vyrz7fr9","many_one","0","direct_first","1","ER04AS20","0","25","1","1","3","1","","0","1","0","null","","","<div style=""font-size:60px;"">+</div>","null","","","","","","","","","",""
"","html-keyboard-response","325","684014","0.0-12.0-1.22","o9vyrz7fr9","many_one","0","direct_first","1","ER04AS20","0","25","1","1","3","1","","0","1","0","null","","","<img src = 'category2/CS10.png' width = '100%;'>","null","","","","","","","","","",""
"","html-keyboard-response","326","684275","0.0-12.0-2.22","o9vyrz7fr9","many_one","0","direct_first","1","ER04AS20","0","25","1","1","3","1","","0","1","0","null","","","<img src = 'targets/13.png' width = '100%;'>","null","","","","","","","","","",""
"","html-keyboard-response","327","684662","0.0-12.0-3.22","o9vyrz7fr9","many_one","0","direct_first","1","ER04AS20","0","25","1","1","3","1","","0","1","0","386.4749999992782","","","<img src = 'targets/mask.png' width = '100%;'>","68","pos","GS","GSold","2","category2/CS10.png","","targets/13.png","indirect","0","46"
