"success","trial_type","trial_index","time_elapsed","internal_node_id","subject","condition","condition_code","measure","measure_code","codeword","gender","age","education","chinese","fach","handedness","comment","hinschauen","ablenkung","gewissenhaft","rt","url","responses","stimulus","key_press","val","type","type_specific","category","cs_selected","target","indirect","task","nr_pres","response"
"true","fullscreen","0","139517","0.0-0.0","18qvs185np","one_one","1","indirect_first","0","el07er09","0","22","1","1","1","1","","0","1","0","","","","","","","","","","","","","","",""
"","external-html","1","176322","0.0-1.0","18qvs185np","one_one","1","indirect_first","0","el07er09","0","22","1","1","1","1","","0","1","0","36764.09999999986","text/information.html","","","","","","","","","","","","",""
"","external-html","2","187325","0.0-2.0","18qvs185np","one_one","1","indirect_first","0","el07er09","0","22","1","1","1","1","","0","1","0","10958.2049999999","text/consent.html","","","","","","","","","","","","",""
"","survey-html-form","3","230434","0.0-3.0","18qvs185np","one_one","1","indirect_first","0","el07er09","0","22","1","1","1","1","","0","1","0","43098.605000000156","","{""codeword_enter"":""el07er09""}","","","","","","","","","","","",""
"","survey-html-form","4","247892","0.0-4.0","18qvs185np","one_one","1","indirect_first","0","el07er09","0","22","1","1","1","1","","0","1","0","17452.315000000002","","{""age"":""22"",""education"":""1"",""subject"":""1"",""gender"":""0"",""handedness"":""1"",""chinese"":""1""}","","","","","","","","","","","",""
"","survey-html-form","5","260211","0.0-5.0","18qvs185np","one_one","1","indirect_first","0","el07er09","0","22","1","1","1","1","","0","1","0","12313.90499999997","","{}","","","","","","","","","","","",""
"","html-keyboard-response","6","264231","0.0-6.0-0.0-0.0","18qvs185np","one_one","1","indirect_first","0","el07er09","0","22","1","1","1","1","","0","1","0","null","","","<div class = 'row'><div class = 'column'><img src = 'category3/CS5.png' width = '70%;'></div><div class = 'column'><img src = 'uspos/2340.bmp' width = '100%;'></div></div>","null","pos","CS","CS","3","category3/CS5.png","","","","",""
"","html-keyboard-response","7","266752","0.0-6.0-0.0-0.1","18qvs185np","one_one","1","indirect_first","0","el07er09","0","22","1","1","1","1","","0","1","0","null","","","<div class = 'row'><div class = 'column'><img src = 'usneg/9000.bmp' width = '100%;'></div><div class = 'column'><img src = 'category2/CS9.png' width = '70%;'></div></div>","null","neg","CS","CS","2","category2/CS9.png","","","","",""
"","html-keyboard-response","8","269277","0.0-6.0-0.0-0.2","18qvs185np","one_one","1","indirect_first","0","el07er09","0","22","1","1","1","1","","0","1","0","null","","","<div class = 'row'><div class = 'column'><img src = 'category4/CS4.png' width = '70%;'></div><div class = 'column'><img src = 'usneg/9050.bmp' width = '100%;'></div></div>","null","neg","CS","CS","4","category4/CS4.png","","","","",""
"","html-keyboard-response","9","271790","0.0-6.0-0.0-0.3","18qvs185np","one_one","1","indirect_first","0","el07er09","0","22","1","1","1","1","","0","1","0","null","","","<div class = 'row'><div class = 'column'><img src = 'usneg/9000.bmp' width = '100%;'></div><div class = 'column'><img src = 'category2/CS9.png' width = '70%;'></div></div>","null","neg","CS","CS","2","category2/CS9.png","","","","",""
"","html-keyboard-response","10","274311","0.0-6.0-0.0-0.4","18qvs185np","one_one","1","indirect_first","0","el07er09","0","22","1","1","1","1","","0","1","0","null","","","<div class = 'row'><div class = 'column'><img src = 'uspos/5831.bmp' width = '100%;'></div><div class = 'column'><img src = 'category1/CS5.png' width = '70%;'></div></div>","null","pos","CS","CS","1","category1/CS5.png","","","","",""
"","html-keyboard-response","11","276836","0.0-6.0-0.0-0.5","18qvs185np","one_one","1","indirect_first","0","el07er09","0","22","1","1","1","1","","0","1","0","null","","","<div class = 'row'><div class = 'column'><img src = 'category4/CS4.png' width = '70%;'></div><div class = 'column'><img src = 'usneg/9050.bmp' width = '100%;'></div></div>","null","neg","CS","CS","4","category4/CS4.png","","","","",""
"","html-keyboard-response","12","279351","0.0-6.0-0.0-0.6","18qvs185np","one_one","1","indirect_first","0","el07er09","0","22","1","1","1","1","","0","1","0","null","","","<div class = 'row'><div class = 'column'><img src = 'category2/CS9.png' width = '70%;'></div><div class = 'column'><img src = 'usneg/9000.bmp' width = '100%;'></div></div>","null","neg","CS","CS","2","category2/CS9.png","","","","",""
"","html-keyboard-response","13","281876","0.0-6.0-0.0-0.7","18qvs185np","one_one","1","indirect_first","0","el07er09","0","22","1","1","1","1","","0","1","0","null","","","<div class = 'row'><div class = 'column'><img src = 'category1/CS5.png' width = '70%;'></div><div class = 'column'><img src = 'uspos/5831.bmp' width = '100%;'></div></div>","null","pos","CS","CS","1","category1/CS5.png","","","","",""
"","html-keyboard-response","14","284391","0.0-6.0-0.0-0.8","18qvs185np","one_one","1","indirect_first","0","el07er09","0","22","1","1","1","1","","0","1","0","null","","","<div class = 'row'><div class = 'column'><img src = 'category3/CS5.png' width = '70%;'></div><div class = 'column'><img src = 'uspos/2340.bmp' width = '100%;'></div></div>","null","pos","CS","CS","3","category3/CS5.png","","","","",""
"","html-keyboard-response","15","286920","0.0-6.0-0.0-0.9","18qvs185np","one_one","1","indirect_first","0","el07er09","0","22","1","1","1","1","","0","1","0","null","","","<div class = 'row'><div class = 'column'><img src = 'uspos/5831.bmp' width = '100%;'></div><div class = 'column'><img src = 'category1/CS5.png' width = '70%;'></div></div>","null","pos","CS","CS","1","category1/CS5.png","","","","",""
"","html-keyboard-response","16","289430","0.0-6.0-0.0-0.10","18qvs185np","one_one","1","indirect_first","0","el07er09","0","22","1","1","1","1","","0","1","0","null","","","<div class = 'row'><div class = 'column'><img src = 'usneg/9050.bmp' width = '100%;'></div><div class = 'column'><img src = 'category4/CS4.png' width = '70%;'></div></div>","null","neg","CS","CS","4","category4/CS4.png","","","","",""
"","html-keyboard-response","17","291955","0.0-6.0-0.0-0.11","18qvs185np","one_one","1","indirect_first","0","el07er09","0","22","1","1","1","1","","0","1","0","null","","","<div class = 'row'><div class = 'column'><img src = 'category1/CS5.png' width = '70%;'></div><div class = 'column'><img src = 'uspos/5831.bmp' width = '100%;'></div></div>","null","pos","CS","CS","1","category1/CS5.png","","","","",""
"","html-keyboard-response","18","294469","0.0-6.0-0.0-0.12","18qvs185np","one_one","1","indirect_first","0","el07er09","0","22","1","1","1","1","","0","1","0","null","","","<div class = 'row'><div class = 'column'><img src = 'category3/CS5.png' width = '70%;'></div><div class = 'column'><img src = 'uspos/2340.bmp' width = '100%;'></div></div>","null","pos","CS","CS","3","category3/CS5.png","","","","",""
"","html-keyboard-response","19","296987","0.0-6.0-0.0-0.13","18qvs185np","one_one","1","indirect_first","0","el07er09","0","22","1","1","1","1","","0","1","0","null","","","<div class = 'row'><div class = 'column'><img src = 'usneg/9000.bmp' width = '100%;'></div><div class = 'column'><img src = 'category2/CS9.png' width = '70%;'></div></div>","null","neg","CS","CS","2","category2/CS9.png","","","","",""
"","html-keyboard-response","20","299504","0.0-6.0-0.0-0.14","18qvs185np","one_one","1","indirect_first","0","el07er09","0","22","1","1","1","1","","0","1","0","null","","","<div class = 'row'><div class = 'column'><img src = 'category4/CS4.png' width = '70%;'></div><div class = 'column'><img src = 'usneg/9050.bmp' width = '100%;'></div></div>","null","neg","CS","CS","4","category4/CS4.png","","","","",""
"","html-keyboard-response","21","302015","0.0-6.0-0.0-0.15","18qvs185np","one_one","1","indirect_first","0","el07er09","0","22","1","1","1","1","","0","1","0","null","","","<div class = 'row'><div class = 'column'><img src = 'uspos/5831.bmp' width = '100%;'></div><div class = 'column'><img src = 'category1/CS5.png' width = '70%;'></div></div>","null","pos","CS","CS","1","category1/CS5.png","","","","",""
"","html-keyboard-response","22","304530","0.0-6.0-0.0-0.16","18qvs185np","one_one","1","indirect_first","0","el07er09","0","22","1","1","1","1","","0","1","0","null","","","<div class = 'row'><div class = 'column'><img src = 'category3/CS5.png' width = '70%;'></div><div class = 'column'><img src = 'uspos/2340.bmp' width = '100%;'></div></div>","null","pos","CS","CS","3","category3/CS5.png","","","","",""
"","html-keyboard-response","23","307059","0.0-6.0-0.0-0.17","18qvs185np","one_one","1","indirect_first","0","el07er09","0","22","1","1","1","1","","0","1","0","null","","","<div class = 'row'><div class = 'column'><img src = 'category4/CS4.png' width = '70%;'></div><div class = 'column'><img src = 'usneg/9050.bmp' width = '100%;'></div></div>","null","neg","CS","CS","4","category4/CS4.png","","","","",""
"","html-keyboard-response","24","309579","0.0-6.0-0.0-0.18","18qvs185np","one_one","1","indirect_first","0","el07er09","0","22","1","1","1","1","","0","1","0","null","","","<div class = 'row'><div class = 'column'><img src = 'usneg/9000.bmp' width = '100%;'></div><div class = 'column'><img src = 'category2/CS9.png' width = '70%;'></div></div>","null","neg","CS","CS","2","category2/CS9.png","","","","",""
"","html-keyboard-response","25","312093","0.0-6.0-0.0-0.19","18qvs185np","one_one","1","indirect_first","0","el07er09","0","22","1","1","1","1","","0","1","0","null","","","<div class = 'row'><div class = 'column'><img src = 'category3/CS5.png' width = '70%;'></div><div class = 'column'><img src = 'uspos/2340.bmp' width = '100%;'></div></div>","null","pos","CS","CS","3","category3/CS5.png","","","","",""
"","survey-html-form","26","315832","0.0-6.0-1.0","18qvs185np","one_one","1","indirect_first","0","el07er09","0","22","1","1","1","1","","0","1","0","3236.405000000086","","{}","","","","","","","","","","","",""
"","html-keyboard-response","27","319858","0.0-6.0-2.0-0.0","18qvs185np","one_one","1","indirect_first","0","el07er09","0","22","1","1","1","1","","0","1","0","null","","","<div class = 'row'><div class = 'column'><img src = 'category1/CS5.png' width = '70%;'></div><div class = 'column'><img src = 'uspos/5831.bmp' width = '100%;'></div></div>","null","pos","CS","CS","1","category1/CS5.png","","","","",""
"","html-keyboard-response","28","322365","0.0-6.0-2.0-0.1","18qvs185np","one_one","1","indirect_first","0","el07er09","0","22","1","1","1","1","","0","1","0","null","","","<div class = 'row'><div class = 'column'><img src = 'category3/CS5.png' width = '70%;'></div><div class = 'column'><img src = 'uspos/2340.bmp' width = '100%;'></div></div>","null","pos","CS","CS","3","category3/CS5.png","","","","",""
"","html-keyboard-response","29","324888","0.0-6.0-2.0-0.2","18qvs185np","one_one","1","indirect_first","0","el07er09","0","22","1","1","1","1","","0","1","0","null","","","<div class = 'row'><div class = 'column'><img src = 'uspos/5831.bmp' width = '100%;'></div><div class = 'column'><img src = 'category1/CS5.png' width = '70%;'></div></div>","null","pos","CS","CS","1","category1/CS5.png","","","","",""
"","html-keyboard-response","30","327409","0.0-6.0-2.0-0.3","18qvs185np","one_one","1","indirect_first","0","el07er09","0","22","1","1","1","1","","0","1","0","null","","","<div class = 'row'><div class = 'column'><img src = 'category4/CS4.png' width = '70%;'></div><div class = 'column'><img src = 'usneg/9050.bmp' width = '100%;'></div></div>","null","neg","CS","CS","4","category4/CS4.png","","","","",""
"","html-keyboard-response","31","329933","0.0-6.0-2.0-0.4","18qvs185np","one_one","1","indirect_first","0","el07er09","0","22","1","1","1","1","","0","1","0","null","","","<div class = 'row'><div class = 'column'><img src = 'category3/CS5.png' width = '70%;'></div><div class = 'column'><img src = 'uspos/2340.bmp' width = '100%;'></div></div>","null","pos","CS","CS","3","category3/CS5.png","","","","",""
"","html-keyboard-response","32","332442","0.0-6.0-2.0-0.5","18qvs185np","one_one","1","indirect_first","0","el07er09","0","22","1","1","1","1","","0","1","0","null","","","<div class = 'row'><div class = 'column'><img src = 'usneg/9050.bmp' width = '100%;'></div><div class = 'column'><img src = 'category4/CS4.png' width = '70%;'></div></div>","null","neg","CS","CS","4","category4/CS4.png","","","","",""
"","html-keyboard-response","33","334946","0.0-6.0-2.0-0.6","18qvs185np","one_one","1","indirect_first","0","el07er09","0","22","1","1","1","1","","0","1","0","null","","","<div class = 'row'><div class = 'column'><img src = 'category2/CS9.png' width = '70%;'></div><div class = 'column'><img src = 'usneg/9000.bmp' width = '100%;'></div></div>","null","neg","CS","CS","2","category2/CS9.png","","","","",""
"","html-keyboard-response","34","337458","0.0-6.0-2.0-0.7","18qvs185np","one_one","1","indirect_first","0","el07er09","0","22","1","1","1","1","","0","1","0","null","","","<div class = 'row'><div class = 'column'><img src = 'uspos/5831.bmp' width = '100%;'></div><div class = 'column'><img src = 'category1/CS5.png' width = '70%;'></div></div>","null","pos","CS","CS","1","category1/CS5.png","","","","",""
"","html-keyboard-response","35","339967","0.0-6.0-2.0-0.8","18qvs185np","one_one","1","indirect_first","0","el07er09","0","22","1","1","1","1","","0","1","0","null","","","<div class = 'row'><div class = 'column'><img src = 'category2/CS9.png' width = '70%;'></div><div class = 'column'><img src = 'usneg/9000.bmp' width = '100%;'></div></div>","null","neg","CS","CS","2","category2/CS9.png","","","","",""
"","html-keyboard-response","36","342488","0.0-6.0-2.0-0.9","18qvs185np","one_one","1","indirect_first","0","el07er09","0","22","1","1","1","1","","0","1","0","null","","","<div class = 'row'><div class = 'column'><img src = 'category4/CS4.png' width = '70%;'></div><div class = 'column'><img src = 'usneg/9050.bmp' width = '100%;'></div></div>","null","neg","CS","CS","4","category4/CS4.png","","","","",""
"","html-keyboard-response","37","345003","0.0-6.0-2.0-0.10","18qvs185np","one_one","1","indirect_first","0","el07er09","0","22","1","1","1","1","","0","1","0","null","","","<div class = 'row'><div class = 'column'><img src = 'usneg/9000.bmp' width = '100%;'></div><div class = 'column'><img src = 'category2/CS9.png' width = '70%;'></div></div>","null","neg","CS","CS","2","category2/CS9.png","","","","",""
"","html-keyboard-response","38","347535","0.0-6.0-2.0-0.11","18qvs185np","one_one","1","indirect_first","0","el07er09","0","22","1","1","1","1","","0","1","0","null","","","<div class = 'row'><div class = 'column'><img src = 'category3/CS5.png' width = '70%;'></div><div class = 'column'><img src = 'uspos/2340.bmp' width = '100%;'></div></div>","null","pos","CS","CS","3","category3/CS5.png","","","","",""
"","html-keyboard-response","39","350062","0.0-6.0-2.0-0.12","18qvs185np","one_one","1","indirect_first","0","el07er09","0","22","1","1","1","1","","0","1","0","null","","","<div class = 'row'><div class = 'column'><img src = 'usneg/9000.bmp' width = '100%;'></div><div class = 'column'><img src = 'category2/CS9.png' width = '70%;'></div></div>","null","neg","CS","CS","2","category2/CS9.png","","","","",""
"","html-keyboard-response","40","352587","0.0-6.0-2.0-0.13","18qvs185np","one_one","1","indirect_first","0","el07er09","0","22","1","1","1","1","","0","1","0","null","","","<div class = 'row'><div class = 'column'><img src = 'category4/CS4.png' width = '70%;'></div><div class = 'column'><img src = 'usneg/9050.bmp' width = '100%;'></div></div>","null","neg","CS","CS","4","category4/CS4.png","","","","",""
"","html-keyboard-response","41","355116","0.0-6.0-2.0-0.14","18qvs185np","one_one","1","indirect_first","0","el07er09","0","22","1","1","1","1","","0","1","0","null","","","<div class = 'row'><div class = 'column'><img src = 'uspos/2340.bmp' width = '100%;'></div><div class = 'column'><img src = 'category3/CS5.png' width = '70%;'></div></div>","null","pos","CS","CS","3","category3/CS5.png","","","","",""
"","html-keyboard-response","42","357621","0.0-6.0-2.0-0.15","18qvs185np","one_one","1","indirect_first","0","el07er09","0","22","1","1","1","1","","0","1","0","null","","","<div class = 'row'><div class = 'column'><img src = 'category4/CS4.png' width = '70%;'></div><div class = 'column'><img src = 'usneg/9050.bmp' width = '100%;'></div></div>","null","neg","CS","CS","4","category4/CS4.png","","","","",""
"","html-keyboard-response","43","360145","0.0-6.0-2.0-0.16","18qvs185np","one_one","1","indirect_first","0","el07er09","0","22","1","1","1","1","","0","1","0","null","","","<div class = 'row'><div class = 'column'><img src = 'category1/CS5.png' width = '70%;'></div><div class = 'column'><img src = 'uspos/5831.bmp' width = '100%;'></div></div>","null","pos","CS","CS","1","category1/CS5.png","","","","",""
"","html-keyboard-response","44","362652","0.0-6.0-2.0-0.17","18qvs185np","one_one","1","indirect_first","0","el07er09","0","22","1","1","1","1","","0","1","0","null","","","<div class = 'row'><div class = 'column'><img src = 'category2/CS9.png' width = '70%;'></div><div class = 'column'><img src = 'usneg/9000.bmp' width = '100%;'></div></div>","null","neg","CS","CS","2","category2/CS9.png","","","","",""
"","html-keyboard-response","45","365163","0.0-6.0-2.0-0.18","18qvs185np","one_one","1","indirect_first","0","el07er09","0","22","1","1","1","1","","0","1","0","null","","","<div class = 'row'><div class = 'column'><img src = 'category3/CS5.png' width = '70%;'></div><div class = 'column'><img src = 'uspos/2340.bmp' width = '100%;'></div></div>","null","pos","CS","CS","3","category3/CS5.png","","","","",""
"","html-keyboard-response","46","367676","0.0-6.0-2.0-0.19","18qvs185np","one_one","1","indirect_first","0","el07er09","0","22","1","1","1","1","","0","1","0","null","","","<div class = 'row'><div class = 'column'><img src = 'category1/CS5.png' width = '70%;'></div><div class = 'column'><img src = 'uspos/5831.bmp' width = '100%;'></div></div>","null","pos","CS","CS","1","category1/CS5.png","","","","",""
"","survey-html-form","47","371726","0.0-6.0-3.0","18qvs185np","one_one","1","indirect_first","0","el07er09","0","22","1","1","1","1","","0","1","0","3545.8899999998393","","{}","","","","","","","","","","","",""
"","html-keyboard-response","48","375750","0.0-6.0-4.0-0.0","18qvs185np","one_one","1","indirect_first","0","el07er09","0","22","1","1","1","1","","0","1","0","null","","","<div class = 'row'><div class = 'column'><img src = 'category2/CS9.png' width = '70%;'></div><div class = 'column'><img src = 'usneg/9000.bmp' width = '100%;'></div></div>","null","neg","CS","CS","2","category2/CS9.png","","","","",""
"","html-keyboard-response","49","378266","0.0-6.0-4.0-0.1","18qvs185np","one_one","1","indirect_first","0","el07er09","0","22","1","1","1","1","","0","1","0","null","","","<div class = 'row'><div class = 'column'><img src = 'category1/CS5.png' width = '70%;'></div><div class = 'column'><img src = 'uspos/5831.bmp' width = '100%;'></div></div>","null","pos","CS","CS","1","category1/CS5.png","","","","",""
"","html-keyboard-response","50","380786","0.0-6.0-4.0-0.2","18qvs185np","one_one","1","indirect_first","0","el07er09","0","22","1","1","1","1","","0","1","0","null","","","<div class = 'row'><div class = 'column'><img src = 'usneg/9000.bmp' width = '100%;'></div><div class = 'column'><img src = 'category2/CS9.png' width = '70%;'></div></div>","null","neg","CS","CS","2","category2/CS9.png","","","","",""
"","html-keyboard-response","51","383297","0.0-6.0-4.0-0.3","18qvs185np","one_one","1","indirect_first","0","el07er09","0","22","1","1","1","1","","0","1","0","null","","","<div class = 'row'><div class = 'column'><img src = 'uspos/2340.bmp' width = '100%;'></div><div class = 'column'><img src = 'category3/CS5.png' width = '70%;'></div></div>","null","pos","CS","CS","3","category3/CS5.png","","","","",""
"","html-keyboard-response","52","385801","0.0-6.0-4.0-0.4","18qvs185np","one_one","1","indirect_first","0","el07er09","0","22","1","1","1","1","","0","1","0","null","","","<div class = 'row'><div class = 'column'><img src = 'category1/CS5.png' width = '70%;'></div><div class = 'column'><img src = 'uspos/5831.bmp' width = '100%;'></div></div>","null","pos","CS","CS","1","category1/CS5.png","","","","",""
"","html-keyboard-response","53","388314","0.0-6.0-4.0-0.5","18qvs185np","one_one","1","indirect_first","0","el07er09","0","22","1","1","1","1","","0","1","0","null","","","<div class = 'row'><div class = 'column'><img src = 'category4/CS4.png' width = '70%;'></div><div class = 'column'><img src = 'usneg/9050.bmp' width = '100%;'></div></div>","null","neg","CS","CS","4","category4/CS4.png","","","","",""
"","html-keyboard-response","54","390832","0.0-6.0-4.0-0.6","18qvs185np","one_one","1","indirect_first","0","el07er09","0","22","1","1","1","1","","0","1","0","null","","","<div class = 'row'><div class = 'column'><img src = 'uspos/2340.bmp' width = '100%;'></div><div class = 'column'><img src = 'category3/CS5.png' width = '70%;'></div></div>","null","pos","CS","CS","3","category3/CS5.png","","","","",""
"","html-keyboard-response","55","393355","0.0-6.0-4.0-0.7","18qvs185np","one_one","1","indirect_first","0","el07er09","0","22","1","1","1","1","","0","1","0","null","","","<div class = 'row'><div class = 'column'><img src = 'category2/CS9.png' width = '70%;'></div><div class = 'column'><img src = 'usneg/9000.bmp' width = '100%;'></div></div>","null","neg","CS","CS","2","category2/CS9.png","","","","",""
"","html-keyboard-response","56","395861","0.0-6.0-4.0-0.8","18qvs185np","one_one","1","indirect_first","0","el07er09","0","22","1","1","1","1","","0","1","0","null","","","<div class = 'row'><div class = 'column'><img src = 'category4/CS4.png' width = '70%;'></div><div class = 'column'><img src = 'usneg/9050.bmp' width = '100%;'></div></div>","null","neg","CS","CS","4","category4/CS4.png","","","","",""
"","html-keyboard-response","57","398389","0.0-6.0-4.0-0.9","18qvs185np","one_one","1","indirect_first","0","el07er09","0","22","1","1","1","1","","0","1","0","null","","","<div class = 'row'><div class = 'column'><img src = 'category3/CS5.png' width = '70%;'></div><div class = 'column'><img src = 'uspos/2340.bmp' width = '100%;'></div></div>","null","pos","CS","CS","3","category3/CS5.png","","","","",""
"","html-keyboard-response","58","400907","0.0-6.0-4.0-0.10","18qvs185np","one_one","1","indirect_first","0","el07er09","0","22","1","1","1","1","","0","1","0","null","","","<div class = 'row'><div class = 'column'><img src = 'usneg/9050.bmp' width = '100%;'></div><div class = 'column'><img src = 'category4/CS4.png' width = '70%;'></div></div>","null","neg","CS","CS","4","category4/CS4.png","","","","",""
"","html-keyboard-response","59","403426","0.0-6.0-4.0-0.11","18qvs185np","one_one","1","indirect_first","0","el07er09","0","22","1","1","1","1","","0","1","0","null","","","<div class = 'row'><div class = 'column'><img src = 'category3/CS5.png' width = '70%;'></div><div class = 'column'><img src = 'uspos/2340.bmp' width = '100%;'></div></div>","null","pos","CS","CS","3","category3/CS5.png","","","","",""
"","html-keyboard-response","60","405932","0.0-6.0-4.0-0.12","18qvs185np","one_one","1","indirect_first","0","el07er09","0","22","1","1","1","1","","0","1","0","null","","","<div class = 'row'><div class = 'column'><img src = 'usneg/9050.bmp' width = '100%;'></div><div class = 'column'><img src = 'category4/CS4.png' width = '70%;'></div></div>","null","neg","CS","CS","4","category4/CS4.png","","","","",""
"","html-keyboard-response","61","408446","0.0-6.0-4.0-0.13","18qvs185np","one_one","1","indirect_first","0","el07er09","0","22","1","1","1","1","","0","1","0","null","","","<div class = 'row'><div class = 'column'><img src = 'uspos/2340.bmp' width = '100%;'></div><div class = 'column'><img src = 'category3/CS5.png' width = '70%;'></div></div>","null","pos","CS","CS","3","category3/CS5.png","","","","",""
"","html-keyboard-response","62","410955","0.0-6.0-4.0-0.14","18qvs185np","one_one","1","indirect_first","0","el07er09","0","22","1","1","1","1","","0","1","0","null","","","<div class = 'row'><div class = 'column'><img src = 'category1/CS5.png' width = '70%;'></div><div class = 'column'><img src = 'uspos/5831.bmp' width = '100%;'></div></div>","null","pos","CS","CS","1","category1/CS5.png","","","","",""
"","html-keyboard-response","63","413459","0.0-6.0-4.0-0.15","18qvs185np","one_one","1","indirect_first","0","el07er09","0","22","1","1","1","1","","0","1","0","null","","","<div class = 'row'><div class = 'column'><img src = 'usneg/9050.bmp' width = '100%;'></div><div class = 'column'><img src = 'category4/CS4.png' width = '70%;'></div></div>","null","neg","CS","CS","4","category4/CS4.png","","","","",""
"","html-keyboard-response","64","415971","0.0-6.0-4.0-0.16","18qvs185np","one_one","1","indirect_first","0","el07er09","0","22","1","1","1","1","","0","1","0","null","","","<div class = 'row'><div class = 'column'><img src = 'category1/CS5.png' width = '70%;'></div><div class = 'column'><img src = 'uspos/5831.bmp' width = '100%;'></div></div>","null","pos","CS","CS","1","category1/CS5.png","","","","",""
"","html-keyboard-response","65","418492","0.0-6.0-4.0-0.17","18qvs185np","one_one","1","indirect_first","0","el07er09","0","22","1","1","1","1","","0","1","0","null","","","<div class = 'row'><div class = 'column'><img src = 'usneg/9000.bmp' width = '100%;'></div><div class = 'column'><img src = 'category2/CS9.png' width = '70%;'></div></div>","null","neg","CS","CS","2","category2/CS9.png","","","","",""
"","html-keyboard-response","66","421008","0.0-6.0-4.0-0.18","18qvs185np","one_one","1","indirect_first","0","el07er09","0","22","1","1","1","1","","0","1","0","null","","","<div class = 'row'><div class = 'column'><img src = 'category1/CS5.png' width = '70%;'></div><div class = 'column'><img src = 'uspos/5831.bmp' width = '100%;'></div></div>","null","pos","CS","CS","1","category1/CS5.png","","","","",""
"","html-keyboard-response","67","423525","0.0-6.0-4.0-0.19","18qvs185np","one_one","1","indirect_first","0","el07er09","0","22","1","1","1","1","","0","1","0","null","","","<div class = 'row'><div class = 'column'><img src = 'category2/CS9.png' width = '70%;'></div><div class = 'column'><img src = 'usneg/9000.bmp' width = '100%;'></div></div>","null","neg","CS","CS","2","category2/CS9.png","","","","",""
"","survey-html-form","68","438890","0.0-6.0-5.0","18qvs185np","one_one","1","indirect_first","0","el07er09","0","22","1","1","1","1","","0","1","0","14856.829999999725","","{}","","","","","","","","","","","",""
"","html-keyboard-response","69","442906","0.0-6.0-6.0-0.0","18qvs185np","one_one","1","indirect_first","0","el07er09","0","22","1","1","1","1","","0","1","0","null","","","<div class = 'row'><div class = 'column'><img src = 'uspos/5831.bmp' width = '100%;'></div><div class = 'column'><img src = 'category1/CS5.png' width = '70%;'></div></div>","null","pos","CS","CS","1","category1/CS5.png","","","","",""
"","html-keyboard-response","70","445431","0.0-6.0-6.0-0.1","18qvs185np","one_one","1","indirect_first","0","el07er09","0","22","1","1","1","1","","0","1","0","null","","","<div class = 'row'><div class = 'column'><img src = 'category2/CS9.png' width = '70%;'></div><div class = 'column'><img src = 'usneg/9000.bmp' width = '100%;'></div></div>","null","neg","CS","CS","2","category2/CS9.png","","","","",""
"","html-keyboard-response","71","447953","0.0-6.0-6.0-0.2","18qvs185np","one_one","1","indirect_first","0","el07er09","0","22","1","1","1","1","","0","1","0","null","","","<div class = 'row'><div class = 'column'><img src = 'category3/CS5.png' width = '70%;'></div><div class = 'column'><img src = 'uspos/2340.bmp' width = '100%;'></div></div>","null","pos","CS","CS","3","category3/CS5.png","","","","",""
"","html-keyboard-response","72","450478","0.0-6.0-6.0-0.3","18qvs185np","one_one","1","indirect_first","0","el07er09","0","22","1","1","1","1","","0","1","0","null","","","<div class = 'row'><div class = 'column'><img src = 'uspos/5831.bmp' width = '100%;'></div><div class = 'column'><img src = 'category1/CS5.png' width = '70%;'></div></div>","null","pos","CS","CS","1","category1/CS5.png","","","","",""
"","html-keyboard-response","73","452996","0.0-6.0-6.0-0.4","18qvs185np","one_one","1","indirect_first","0","el07er09","0","22","1","1","1","1","","0","1","0","null","","","<div class = 'row'><div class = 'column'><img src = 'category3/CS5.png' width = '70%;'></div><div class = 'column'><img src = 'uspos/2340.bmp' width = '100%;'></div></div>","null","pos","CS","CS","3","category3/CS5.png","","","","",""
"","html-keyboard-response","74","455505","0.0-6.0-6.0-0.5","18qvs185np","one_one","1","indirect_first","0","el07er09","0","22","1","1","1","1","","0","1","0","null","","","<div class = 'row'><div class = 'column'><img src = 'uspos/5831.bmp' width = '100%;'></div><div class = 'column'><img src = 'category1/CS5.png' width = '70%;'></div></div>","null","pos","CS","CS","1","category1/CS5.png","","","","",""
"","html-keyboard-response","75","458022","0.0-6.0-6.0-0.6","18qvs185np","one_one","1","indirect_first","0","el07er09","0","22","1","1","1","1","","0","1","0","null","","","<div class = 'row'><div class = 'column'><img src = 'category4/CS4.png' width = '70%;'></div><div class = 'column'><img src = 'usneg/9050.bmp' width = '100%;'></div></div>","null","neg","CS","CS","4","category4/CS4.png","","","","",""
"","html-keyboard-response","76","460552","0.0-6.0-6.0-0.7","18qvs185np","one_one","1","indirect_first","0","el07er09","0","22","1","1","1","1","","0","1","0","null","","","<div class = 'row'><div class = 'column'><img src = 'category3/CS5.png' width = '70%;'></div><div class = 'column'><img src = 'uspos/2340.bmp' width = '100%;'></div></div>","null","pos","CS","CS","3","category3/CS5.png","","","","",""
"","html-keyboard-response","77","463067","0.0-6.0-6.0-0.8","18qvs185np","one_one","1","indirect_first","0","el07er09","0","22","1","1","1","1","","0","1","0","null","","","<div class = 'row'><div class = 'column'><img src = 'usneg/9050.bmp' width = '100%;'></div><div class = 'column'><img src = 'category4/CS4.png' width = '70%;'></div></div>","null","neg","CS","CS","4","category4/CS4.png","","","","",""
"","html-keyboard-response","78","465582","0.0-6.0-6.0-0.9","18qvs185np","one_one","1","indirect_first","0","el07er09","0","22","1","1","1","1","","0","1","0","null","","","<div class = 'row'><div class = 'column'><img src = 'category2/CS9.png' width = '70%;'></div><div class = 'column'><img src = 'usneg/9000.bmp' width = '100%;'></div></div>","null","neg","CS","CS","2","category2/CS9.png","","","","",""
"","html-keyboard-response","79","468110","0.0-6.0-6.0-0.10","18qvs185np","one_one","1","indirect_first","0","el07er09","0","22","1","1","1","1","","0","1","0","null","","","<div class = 'row'><div class = 'column'><img src = 'category1/CS5.png' width = '70%;'></div><div class = 'column'><img src = 'uspos/5831.bmp' width = '100%;'></div></div>","null","pos","CS","CS","1","category1/CS5.png","","","","",""
"","html-keyboard-response","80","470624","0.0-6.0-6.0-0.11","18qvs185np","one_one","1","indirect_first","0","el07er09","0","22","1","1","1","1","","0","1","0","null","","","<div class = 'row'><div class = 'column'><img src = 'category3/CS5.png' width = '70%;'></div><div class = 'column'><img src = 'uspos/2340.bmp' width = '100%;'></div></div>","null","pos","CS","CS","3","category3/CS5.png","","","","",""
"","html-keyboard-response","81","473139","0.0-6.0-6.0-0.12","18qvs185np","one_one","1","indirect_first","0","el07er09","0","22","1","1","1","1","","0","1","0","null","","","<div class = 'row'><div class = 'column'><img src = 'category4/CS4.png' width = '70%;'></div><div class = 'column'><img src = 'usneg/9050.bmp' width = '100%;'></div></div>","null","neg","CS","CS","4","category4/CS4.png","","","","",""
"","html-keyboard-response","82","475645","0.0-6.0-6.0-0.13","18qvs185np","one_one","1","indirect_first","0","el07er09","0","22","1","1","1","1","","0","1","0","null","","","<div class = 'row'><div class = 'column'><img src = 'uspos/5831.bmp' width = '100%;'></div><div class = 'column'><img src = 'category1/CS5.png' width = '70%;'></div></div>","null","pos","CS","CS","1","category1/CS5.png","","","","",""
"","html-keyboard-response","83","478164","0.0-6.0-6.0-0.14","18qvs185np","one_one","1","indirect_first","0","el07er09","0","22","1","1","1","1","","0","1","0","null","","","<div class = 'row'><div class = 'column'><img src = 'category3/CS5.png' width = '70%;'></div><div class = 'column'><img src = 'uspos/2340.bmp' width = '100%;'></div></div>","null","pos","CS","CS","3","category3/CS5.png","","","","",""
"","html-keyboard-response","84","480675","0.0-6.0-6.0-0.15","18qvs185np","one_one","1","indirect_first","0","el07er09","0","22","1","1","1","1","","0","1","0","null","","","<div class = 'row'><div class = 'column'><img src = 'category2/CS9.png' width = '70%;'></div><div class = 'column'><img src = 'usneg/9000.bmp' width = '100%;'></div></div>","null","neg","CS","CS","2","category2/CS9.png","","","","",""
"","html-keyboard-response","85","483191","0.0-6.0-6.0-0.16","18qvs185np","one_one","1","indirect_first","0","el07er09","0","22","1","1","1","1","","0","1","0","null","","","<div class = 'row'><div class = 'column'><img src = 'category4/CS4.png' width = '70%;'></div><div class = 'column'><img src = 'usneg/9050.bmp' width = '100%;'></div></div>","null","neg","CS","CS","4","category4/CS4.png","","","","",""
"","html-keyboard-response","86","485709","0.0-6.0-6.0-0.17","18qvs185np","one_one","1","indirect_first","0","el07er09","0","22","1","1","1","1","","0","1","0","null","","","<div class = 'row'><div class = 'column'><img src = 'category2/CS9.png' width = '70%;'></div><div class = 'column'><img src = 'usneg/9000.bmp' width = '100%;'></div></div>","null","neg","CS","CS","2","category2/CS9.png","","","","",""
"","html-keyboard-response","87","488221","0.0-6.0-6.0-0.18","18qvs185np","one_one","1","indirect_first","0","el07er09","0","22","1","1","1","1","","0","1","0","null","","","<div class = 'row'><div class = 'column'><img src = 'usneg/9050.bmp' width = '100%;'></div><div class = 'column'><img src = 'category4/CS4.png' width = '70%;'></div></div>","null","neg","CS","CS","4","category4/CS4.png","","","","",""
"","html-keyboard-response","88","490730","0.0-6.0-6.0-0.19","18qvs185np","one_one","1","indirect_first","0","el07er09","0","22","1","1","1","1","","0","1","0","null","","","<div class = 'row'><div class = 'column'><img src = 'usneg/9000.bmp' width = '100%;'></div><div class = 'column'><img src = 'category2/CS9.png' width = '70%;'></div></div>","null","neg","CS","CS","2","category2/CS9.png","","","","",""
"","html-keyboard-response","89","522170","0.0-7.0","18qvs185np","one_one","1","indirect_first","0","el07er09","0","22","1","1","1","1","","0","1","0","30924.745000000228","","","<p>Sie sehen nun die chinesischen Zeichen nur ganz kurz. Danach sehen Sie die jeweilige Aussprache der Zeichen als Silbe auf dem Bildschrim. Ihre Aufgabe ist es, für jede Silbe anzugeben, ob diese etwas angenehmes, oder unangenehmes bedeuten könnte. Verlassen Sie sich hier vor allem auf Ihre Intuition.<br><br>Die Zeichen werden nur zur Orientierung dargestellt, beachten Sie sie deshalb nicht. Konzentrieren Sie sich vor allem auf die Silben. <br>Reagieren Sie mit folgenden zwei Tasten: <br><br><b>'D' </b> wenn die Silbe etwas <b>unangenehmes</b> bedeuten könnte. <br><b>'K'</b> wenn die Silbe etwas <b>angenehmes</b> bedeuten könnte. <br><br>Bitte legen Sie nun den Zeigefinger der linken Hand auf die Taste 'D' und den Zeigefinger der rechten Hand auf die Taste 'K'. <br>Reagieren Sie auf jede Silbe so schnell wie möglich. Uns interessiert Ihre spontane Reaktion. <br> <br> <br>Drücken Sie 'D' oder 'K', um die nächste Aufgabe zu starten. </p>","75","","","","","","","","","",""
"","html-keyboard-response","90","525189","0.0-8.0-0.0","18qvs185np","one_one","1","indirect_first","0","el07er09","0","22","1","1","1","1","","0","1","0","null","","","<div style=""font-size:60px;"">+</div>","null","","","","","","","","","",""
"","html-keyboard-response","91","525295","0.0-8.0-1.0","18qvs185np","one_one","1","indirect_first","0","el07er09","0","22","1","1","1","1","","0","1","0","null","","","<img src = 'category4/CS8.png' width = '100%;'>","null","","","","","","","","","",""
"","html-keyboard-response","92","525553","0.0-8.0-2.0","18qvs185np","one_one","1","indirect_first","0","el07er09","0","22","1","1","1","1","","0","1","0","null","","","<img src = 'targets/15.png' width = '100%;'>","null","","","","","","","","","",""
"","html-keyboard-response","93","528595","0.0-8.0-3.0","18qvs185np","one_one","1","indirect_first","0","el07er09","0","22","1","1","1","1","","0","1","0","3040.2749999997905","","","<img src = 'targets/mask.png' width = '100%;'>","75","neg","GS","GSold","4","category4/CS8.png","targets/15.png","1","indirect","0",""
"","html-keyboard-response","94","530111","0.0-8.0-0.1","18qvs185np","one_one","1","indirect_first","0","el07er09","0","22","1","1","1","1","","0","1","0","null","","","<div style=""font-size:60px;"">+</div>","null","","","","","","","","","",""
"","html-keyboard-response","95","530217","0.0-8.0-1.1","18qvs185np","one_one","1","indirect_first","0","el07er09","0","22","1","1","1","1","","0","1","0","null","","","<img src = 'category3/CS8.png' width = '100%;'>","null","","","","","","","","","",""
"","html-keyboard-response","96","530476","0.0-8.0-2.1","18qvs185np","one_one","1","indirect_first","0","el07er09","0","22","1","1","1","1","","0","1","0","null","","","<img src = 'targets/23.png' width = '100%;'>","null","","","","","","","","","",""
"","html-keyboard-response","97","531475","0.0-8.0-3.1","18qvs185np","one_one","1","indirect_first","0","el07er09","0","22","1","1","1","1","","0","1","0","996.9499999997206","","","<img src = 'targets/mask.png' width = '100%;'>","68","pos","GS","GSold","3","category3/CS8.png","targets/23.png","0","indirect","1",""
"","html-keyboard-response","98","533006","0.0-8.0-0.2","18qvs185np","one_one","1","indirect_first","0","el07er09","0","22","1","1","1","1","","0","1","0","null","","","<div style=""font-size:60px;"">+</div>","null","","","","","","","","","",""
"","html-keyboard-response","99","533101","0.0-8.0-1.2","18qvs185np","one_one","1","indirect_first","0","el07er09","0","22","1","1","1","1","","0","1","0","null","","","<img src = 'category1/CS5.png' width = '100%;'>","null","","","","","","","","","",""
"","html-keyboard-response","100","533367","0.0-8.0-2.2","18qvs185np","one_one","1","indirect_first","0","el07er09","0","22","1","1","1","1","","0","1","0","null","","","<img src = 'targets/47.png' width = '100%;'>","null","","","","","","","","","",""
"","html-keyboard-response","101","535345","0.0-8.0-3.2","18qvs185np","one_one","1","indirect_first","0","el07er09","0","22","1","1","1","1","","0","1","0","1975.3799999998882","","","<img src = 'targets/mask.png' width = '100%;'>","75","pos","CS","CS","1","category1/CS5.png","targets/47.png","1","indirect","2",""
"","html-keyboard-response","102","536865","0.0-8.0-0.3","18qvs185np","one_one","1","indirect_first","0","el07er09","0","22","1","1","1","1","","0","1","0","null","","","<div style=""font-size:60px;"">+</div>","null","","","","","","","","","",""
"","html-keyboard-response","103","536971","0.0-8.0-1.3","18qvs185np","one_one","1","indirect_first","0","el07er09","0","22","1","1","1","1","","0","1","0","null","","","<img src = 'category4/CS4.png' width = '100%;'>","null","","","","","","","","","",""
"","html-keyboard-response","104","537233","0.0-8.0-2.3","18qvs185np","one_one","1","indirect_first","0","el07er09","0","22","1","1","1","1","","0","1","0","null","","","<img src = 'targets/33.png' width = '100%;'>","null","","","","","","","","","",""
"","html-keyboard-response","105","538111","0.0-8.0-3.3","18qvs185np","one_one","1","indirect_first","0","el07er09","0","22","1","1","1","1","","0","1","0","875.2899999999208","","","<img src = 'targets/mask.png' width = '100%;'>","68","neg","CS","CS","4","category4/CS4.png","targets/33.png","0","indirect","3",""
"","html-keyboard-response","106","539641","0.0-8.0-0.4","18qvs185np","one_one","1","indirect_first","0","el07er09","0","22","1","1","1","1","","0","1","0","null","","","<div style=""font-size:60px;"">+</div>","null","","","","","","","","","",""
"","html-keyboard-response","107","539740","0.0-8.0-1.4","18qvs185np","one_one","1","indirect_first","0","el07er09","0","22","1","1","1","1","","0","1","0","null","","","<img src = 'category3/CS5.png' width = '100%;'>","null","","","","","","","","","",""
"","html-keyboard-response","108","540002","0.0-8.0-2.4","18qvs185np","one_one","1","indirect_first","0","el07er09","0","22","1","1","1","1","","0","1","0","null","","","<img src = 'targets/4.png' width = '100%;'>","null","","","","","","","","","",""
"","html-keyboard-response","109","541374","0.0-8.0-3.4","18qvs185np","one_one","1","indirect_first","0","el07er09","0","22","1","1","1","1","","0","1","0","1369.604999999865","","","<img src = 'targets/mask.png' width = '100%;'>","75","pos","CS","CS","3","category3/CS5.png","targets/4.png","1","indirect","4",""
"","html-keyboard-response","110","542886","0.0-8.0-0.5","18qvs185np","one_one","1","indirect_first","0","el07er09","0","22","1","1","1","1","","0","1","0","null","","","<div style=""font-size:60px;"">+</div>","null","","","","","","","","","",""
"","html-keyboard-response","111","542980","0.0-8.0-1.5","18qvs185np","one_one","1","indirect_first","0","el07er09","0","22","1","1","1","1","","0","1","0","null","","","<img src = 'category3/CS3.png' width = '100%;'>","null","","","","","","","","","",""
"","html-keyboard-response","112","543255","0.0-8.0-2.5","18qvs185np","one_one","1","indirect_first","0","el07er09","0","22","1","1","1","1","","0","1","0","null","","","<img src = 'targets/34.png' width = '100%;'>","null","","","","","","","","","",""
"","html-keyboard-response","113","544316","0.0-8.0-3.5","18qvs185np","one_one","1","indirect_first","0","el07er09","0","22","1","1","1","1","","0","1","0","1058.8100000000559","","","<img src = 'targets/mask.png' width = '100%;'>","68","pos","GS","GSold","3","category3/CS3.png","targets/34.png","0","indirect","5",""
"","html-keyboard-response","114","545842","0.0-8.0-0.6","18qvs185np","one_one","1","indirect_first","0","el07er09","0","22","1","1","1","1","","0","1","0","null","","","<div style=""font-size:60px;"">+</div>","null","","","","","","","","","",""
"","html-keyboard-response","115","545940","0.0-8.0-1.6","18qvs185np","one_one","1","indirect_first","0","el07er09","0","22","1","1","1","1","","0","1","0","null","","","<img src = 'category1/CS7.png' width = '100%;'>","null","","","","","","","","","",""
"","html-keyboard-response","116","546210","0.0-8.0-2.6","18qvs185np","one_one","1","indirect_first","0","el07er09","0","22","1","1","1","1","","0","1","0","null","","","<img src = 'targets/18.png' width = '100%;'>","null","","","","","","","","","",""
"","html-keyboard-response","117","547015","0.0-8.0-3.6","18qvs185np","one_one","1","indirect_first","0","el07er09","0","22","1","1","1","1","","0","1","0","802.8249999997206","","","<img src = 'targets/mask.png' width = '100%;'>","75","pos","GS","GSold","1","category1/CS7.png","targets/18.png","1","indirect","6",""
"","html-keyboard-response","118","548527","0.0-8.0-0.7","18qvs185np","one_one","1","indirect_first","0","el07er09","0","22","1","1","1","1","","0","1","0","null","","","<div style=""font-size:60px;"">+</div>","null","","","","","","","","","",""
"","html-keyboard-response","119","548627","0.0-8.0-1.7","18qvs185np","one_one","1","indirect_first","0","el07er09","0","22","1","1","1","1","","0","1","0","null","","","<img src = 'category1/CS8.png' width = '100%;'>","null","","","","","","","","","",""
"","html-keyboard-response","120","548897","0.0-8.0-2.7","18qvs185np","one_one","1","indirect_first","0","el07er09","0","22","1","1","1","1","","0","1","0","null","","","<img src = 'targets/44.png' width = '100%;'>","null","","","","","","","","","",""
"","html-keyboard-response","121","549511","0.0-8.0-3.7","18qvs185np","one_one","1","indirect_first","0","el07er09","0","22","1","1","1","1","","0","1","0","611.7400000003399","","","<img src = 'targets/mask.png' width = '100%;'>","68","pos","GS","GSold","1","category1/CS8.png","targets/44.png","0","indirect","7",""
"","html-keyboard-response","122","551015","0.0-8.0-0.8","18qvs185np","one_one","1","indirect_first","0","el07er09","0","22","1","1","1","1","","0","1","0","null","","","<div style=""font-size:60px;"">+</div>","null","","","","","","","","","",""
"","html-keyboard-response","123","551121","0.0-8.0-1.8","18qvs185np","one_one","1","indirect_first","0","el07er09","0","22","1","1","1","1","","0","1","0","null","","","<img src = 'category4/CS6.png' width = '100%;'>","null","","","","","","","","","",""
"","html-keyboard-response","124","551389","0.0-8.0-2.8","18qvs185np","one_one","1","indirect_first","0","el07er09","0","22","1","1","1","1","","0","1","0","null","","","<img src = 'targets/38.png' width = '100%;'>","null","","","","","","","","","",""
"","html-keyboard-response","125","551992","0.0-8.0-3.8","18qvs185np","one_one","1","indirect_first","0","el07er09","0","22","1","1","1","1","","0","1","0","600.9300000000512","","","<img src = 'targets/mask.png' width = '100%;'>","68","neg","GS","GSold","4","category4/CS6.png","targets/38.png","0","indirect","8",""
"","html-keyboard-response","126","553514","0.0-8.0-0.9","18qvs185np","one_one","1","indirect_first","0","el07er09","0","22","1","1","1","1","","0","1","0","null","","","<div style=""font-size:60px;"">+</div>","null","","","","","","","","","",""
"","html-keyboard-response","127","553611","0.0-8.0-1.9","18qvs185np","one_one","1","indirect_first","0","el07er09","0","22","1","1","1","1","","0","1","0","null","","","<img src = 'category1/CS2.png' width = '100%;'>","null","","","","","","","","","",""
"","html-keyboard-response","128","553887","0.0-8.0-2.9","18qvs185np","one_one","1","indirect_first","0","el07er09","0","22","1","1","1","1","","0","1","0","null","","","<img src = 'targets/27.png' width = '100%;'>","null","","","","","","","","","",""
"","html-keyboard-response","129","554596","0.0-8.0-3.9","18qvs185np","one_one","1","indirect_first","0","el07er09","0","22","1","1","1","1","","0","1","0","708.1550000002608","","","<img src = 'targets/mask.png' width = '100%;'>","75","pos","GS","GSold","1","category1/CS2.png","targets/27.png","1","indirect","9",""
"","html-keyboard-response","130","556116","0.0-8.0-0.10","18qvs185np","one_one","1","indirect_first","0","el07er09","0","22","1","1","1","1","","0","1","0","null","","","<div style=""font-size:60px;"">+</div>","null","","","","","","","","","",""
"","html-keyboard-response","131","556223","0.0-8.0-1.10","18qvs185np","one_one","1","indirect_first","0","el07er09","0","22","1","1","1","1","","0","1","0","null","","","<img src = 'category2/CS10.png' width = '100%;'>","null","","","","","","","","","",""
"","html-keyboard-response","132","556496","0.0-8.0-2.10","18qvs185np","one_one","1","indirect_first","0","el07er09","0","22","1","1","1","1","","0","1","0","null","","","<img src = 'targets/24.png' width = '100%;'>","null","","","","","","","","","",""
"","html-keyboard-response","133","557224","0.0-8.0-3.10","18qvs185np","one_one","1","indirect_first","0","el07er09","0","22","1","1","1","1","","0","1","0","725.9950000002282","","","<img src = 'targets/mask.png' width = '100%;'>","68","neg","GS","GSold","2","category2/CS10.png","targets/24.png","0","indirect","10",""
"","html-keyboard-response","134","558735","0.0-8.0-0.11","18qvs185np","one_one","1","indirect_first","0","el07er09","0","22","1","1","1","1","","0","1","0","null","","","<div style=""font-size:60px;"">+</div>","null","","","","","","","","","",""
"","html-keyboard-response","135","558840","0.0-8.0-1.11","18qvs185np","one_one","1","indirect_first","0","el07er09","0","22","1","1","1","1","","0","1","0","null","","","<img src = 'category2/CS3.png' width = '100%;'>","null","","","","","","","","","",""
"","html-keyboard-response","136","559105","0.0-8.0-2.11","18qvs185np","one_one","1","indirect_first","0","el07er09","0","22","1","1","1","1","","0","1","0","null","","","<img src = 'targets/40.png' width = '100%;'>","null","","","","","","","","","",""
"","html-keyboard-response","137","559696","0.0-8.0-3.11","18qvs185np","one_one","1","indirect_first","0","el07er09","0","22","1","1","1","1","","0","1","0","588.9049999995623","","","<img src = 'targets/mask.png' width = '100%;'>","75","neg","GS","GSold","2","category2/CS3.png","targets/40.png","1","indirect","11",""
"","html-keyboard-response","138","561205","0.0-8.0-0.12","18qvs185np","one_one","1","indirect_first","0","el07er09","0","22","1","1","1","1","","0","1","0","null","","","<div style=""font-size:60px;"">+</div>","null","","","","","","","","","",""
"","html-keyboard-response","139","561308","0.0-8.0-1.12","18qvs185np","one_one","1","indirect_first","0","el07er09","0","22","1","1","1","1","","0","1","0","null","","","<img src = 'category4/CS9.png' width = '100%;'>","null","","","","","","","","","",""
"","html-keyboard-response","140","561582","0.0-8.0-2.12","18qvs185np","one_one","1","indirect_first","0","el07er09","0","22","1","1","1","1","","0","1","0","null","","","<img src = 'targets/21.png' width = '100%;'>","null","","","","","","","","","",""
"","html-keyboard-response","141","562282","0.0-8.0-3.12","18qvs185np","one_one","1","indirect_first","0","el07er09","0","22","1","1","1","1","","0","1","0","698.7850000000326","","","<img src = 'targets/mask.png' width = '100%;'>","68","neg","GS","GSold","4","category4/CS9.png","targets/21.png","0","indirect","12",""
"","html-keyboard-response","142","563789","0.0-8.0-0.13","18qvs185np","one_one","1","indirect_first","0","el07er09","0","22","1","1","1","1","","0","1","0","null","","","<div style=""font-size:60px;"">+</div>","null","","","","","","","","","",""
"","html-keyboard-response","143","563893","0.0-8.0-1.13","18qvs185np","one_one","1","indirect_first","0","el07er09","0","22","1","1","1","1","","0","1","0","null","","","<img src = 'category2/CS1.png' width = '100%;'>","null","","","","","","","","","",""
"","html-keyboard-response","144","564198","0.0-8.0-2.13","18qvs185np","one_one","1","indirect_first","0","el07er09","0","22","1","1","1","1","","0","1","0","null","","","<img src = 'targets/30.png' width = '100%;'>","null","","","","","","","","","",""
"","html-keyboard-response","145","564698","0.0-8.0-3.13","18qvs185np","one_one","1","indirect_first","0","el07er09","0","22","1","1","1","1","","0","1","0","497.87000000011176","","","<img src = 'targets/mask.png' width = '100%;'>","75","neg","GS","GSold","2","category2/CS1.png","targets/30.png","1","indirect","13",""
"","html-keyboard-response","146","566222","0.0-8.0-0.14","18qvs185np","one_one","1","indirect_first","0","el07er09","0","22","1","1","1","1","","0","1","0","null","","","<div style=""font-size:60px;"">+</div>","null","","","","","","","","","",""
"","html-keyboard-response","147","566326","0.0-8.0-1.14","18qvs185np","one_one","1","indirect_first","0","el07er09","0","22","1","1","1","1","","0","1","0","null","","","<img src = 'category3/CS6.png' width = '100%;'>","null","","","","","","","","","",""
"","html-keyboard-response","148","566603","0.0-8.0-2.14","18qvs185np","one_one","1","indirect_first","0","el07er09","0","22","1","1","1","1","","0","1","0","null","","","<img src = 'targets/17.png' width = '100%;'>","null","","","","","","","","","",""
"","html-keyboard-response","149","567430","0.0-8.0-3.14","18qvs185np","one_one","1","indirect_first","0","el07er09","0","22","1","1","1","1","","0","1","0","824.0750000000698","","","<img src = 'targets/mask.png' width = '100%;'>","68","pos","GS","GSold","3","category3/CS6.png","targets/17.png","0","indirect","14",""
"","html-keyboard-response","150","568935","0.0-8.0-0.15","18qvs185np","one_one","1","indirect_first","0","el07er09","0","22","1","1","1","1","","0","1","0","null","","","<div style=""font-size:60px;"">+</div>","null","","","","","","","","","",""
"","html-keyboard-response","151","569030","0.0-8.0-1.15","18qvs185np","one_one","1","indirect_first","0","el07er09","0","22","1","1","1","1","","0","1","0","null","","","<img src = 'category2/CS9.png' width = '100%;'>","null","","","","","","","","","",""
"","html-keyboard-response","152","569283","0.0-8.0-2.15","18qvs185np","one_one","1","indirect_first","0","el07er09","0","22","1","1","1","1","","0","1","0","null","","","<img src = 'targets/2.png' width = '100%;'>","null","","","","","","","","","",""
"","html-keyboard-response","153","570120","0.0-8.0-3.15","18qvs185np","one_one","1","indirect_first","0","el07er09","0","22","1","1","1","1","","0","1","0","834.6499999997905","","","<img src = 'targets/mask.png' width = '100%;'>","68","neg","CS","CS","2","category2/CS9.png","targets/2.png","0","indirect","15",""
"","survey-html-form","154","574978","0.0-9.0","18qvs185np","one_one","1","indirect_first","0","el07er09","0","22","1","1","1","1","","0","1","0","4343.48499999987","","{}","","","","","","","","","","","",""
"","html-keyboard-response","155","577993","0.0-10.0-0.0","18qvs185np","one_one","1","indirect_first","0","el07er09","0","22","1","1","1","1","","0","1","0","null","","","<div style=""font-size:60px;"">+</div>","null","","","","","","","","","",""
"","html-keyboard-response","156","578098","0.0-10.0-1.0","18qvs185np","one_one","1","indirect_first","0","el07er09","0","22","1","1","1","1","","0","1","0","null","","","<img src = 'category4/GS2.png' width = '100%;'>","null","","","","","","","","","",""
"","html-keyboard-response","157","578374","0.0-10.0-2.0","18qvs185np","one_one","1","indirect_first","0","el07er09","0","22","1","1","1","1","","0","1","0","null","","","<img src = 'targets/48.png' width = '100%;'>","null","","","","","","","","","",""
"","html-keyboard-response","158","579153","0.0-10.0-3.0","18qvs185np","one_one","1","indirect_first","0","el07er09","0","22","1","1","1","1","","0","1","0","776.324999999837","","","<img src = 'targets/mask.png' width = '100%;'>","68","neg","GS","GSnew","4","category4/GS2.png","targets/48.png","0","indirect","16",""
"","html-keyboard-response","159","580657","0.0-10.0-0.1","18qvs185np","one_one","1","indirect_first","0","el07er09","0","22","1","1","1","1","","0","1","0","null","","","<div style=""font-size:60px;"">+</div>","null","","","","","","","","","",""
"","html-keyboard-response","160","580754","0.0-10.0-1.1","18qvs185np","one_one","1","indirect_first","0","el07er09","0","22","1","1","1","1","","0","1","0","null","","","<img src = 'category4/lin.png' width = '100%;'>","null","","","","","","","","","",""
"","html-keyboard-response","161","581019","0.0-10.0-2.1","18qvs185np","one_one","1","indirect_first","0","el07er09","0","22","1","1","1","1","","0","1","0","null","","","<img src = 'targets/29.png' width = '100%;'>","null","","","","","","","","","",""
"","html-keyboard-response","162","581518","0.0-10.0-3.1","18qvs185np","one_one","1","indirect_first","0","el07er09","0","22","1","1","1","1","","0","1","0","496.85499999986496","","","<img src = 'targets/mask.png' width = '100%;'>","75","neg","GS","abstract","4","category4/lin.png","targets/29.png","1","indirect","17",""
"","html-keyboard-response","163","583026","0.0-10.0-0.2","18qvs185np","one_one","1","indirect_first","0","el07er09","0","22","1","1","1","1","","0","1","0","null","","","<div style=""font-size:60px;"">+</div>","null","","","","","","","","","",""
"","html-keyboard-response","164","583127","0.0-10.0-1.2","18qvs185np","one_one","1","indirect_first","0","el07er09","0","22","1","1","1","1","","0","1","0","null","","","<img src = 'category3/GS1.png' width = '100%;'>","null","","","","","","","","","",""
"","html-keyboard-response","165","583379","0.0-10.0-2.2","18qvs185np","one_one","1","indirect_first","0","el07er09","0","22","1","1","1","1","","0","1","0","null","","","<img src = 'targets/26.png' width = '100%;'>","null","","","","","","","","","",""
"","html-keyboard-response","166","584125","0.0-10.0-3.2","18qvs185np","one_one","1","indirect_first","0","el07er09","0","22","1","1","1","1","","0","1","0","743.7500000001164","","","<img src = 'targets/mask.png' width = '100%;'>","68","pos","GS","GSnew","3","category3/GS1.png","targets/26.png","0","indirect","18",""
"","html-keyboard-response","167","585659","0.0-10.0-0.3","18qvs185np","one_one","1","indirect_first","0","el07er09","0","22","1","1","1","1","","0","1","0","null","","","<div style=""font-size:60px;"">+</div>","null","","","","","","","","","",""
"","html-keyboard-response","168","585758","0.0-10.0-1.3","18qvs185np","one_one","1","indirect_first","0","el07er09","0","22","1","1","1","1","","0","1","0","null","","","<img src = 'category1/GS1.png' width = '100%;'>","null","","","","","","","","","",""
"","html-keyboard-response","169","586022","0.0-10.0-2.3","18qvs185np","one_one","1","indirect_first","0","el07er09","0","22","1","1","1","1","","0","1","0","null","","","<img src = 'targets/28.png' width = '100%;'>","null","","","","","","","","","",""
"","html-keyboard-response","170","586638","0.0-10.0-3.3","18qvs185np","one_one","1","indirect_first","0","el07er09","0","22","1","1","1","1","","0","1","0","614.0600000002887","","","<img src = 'targets/mask.png' width = '100%;'>","68","pos","GS","GSnew","1","category1/GS1.png","targets/28.png","0","indirect","19",""
"","html-keyboard-response","171","588145","0.0-10.0-0.4","18qvs185np","one_one","1","indirect_first","0","el07er09","0","22","1","1","1","1","","0","1","0","null","","","<div style=""font-size:60px;"">+</div>","null","","","","","","","","","",""
"","html-keyboard-response","172","588242","0.0-10.0-1.4","18qvs185np","one_one","1","indirect_first","0","el07er09","0","22","1","1","1","1","","0","1","0","null","","","<img src = 'category1/ma.png' width = '100%;'>","null","","","","","","","","","",""
"","html-keyboard-response","173","588516","0.0-10.0-2.4","18qvs185np","one_one","1","indirect_first","0","el07er09","0","22","1","1","1","1","","0","1","0","null","","","<img src = 'targets/36.png' width = '100%;'>","null","","","","","","","","","",""
"","html-keyboard-response","174","589107","0.0-10.0-3.4","18qvs185np","one_one","1","indirect_first","0","el07er09","0","22","1","1","1","1","","0","1","0","587.9700000000885","","","<img src = 'targets/mask.png' width = '100%;'>","75","pos","GS","abstract","1","category1/ma.png","targets/36.png","1","indirect","20",""
"","html-keyboard-response","175","590615","0.0-10.0-0.5","18qvs185np","one_one","1","indirect_first","0","el07er09","0","22","1","1","1","1","","0","1","0","null","","","<div style=""font-size:60px;"">+</div>","null","","","","","","","","","",""
"","html-keyboard-response","176","590722","0.0-10.0-1.5","18qvs185np","one_one","1","indirect_first","0","el07er09","0","22","1","1","1","1","","0","1","0","null","","","<img src = 'category3/wang.png' width = '100%;'>","null","","","","","","","","","",""
"","html-keyboard-response","177","590988","0.0-10.0-2.5","18qvs185np","one_one","1","indirect_first","0","el07er09","0","22","1","1","1","1","","0","1","0","null","","","<img src = 'targets/46.png' width = '100%;'>","null","","","","","","","","","",""
"","html-keyboard-response","178","591669","0.0-10.0-3.5","18qvs185np","one_one","1","indirect_first","0","el07er09","0","22","1","1","1","1","","0","1","0","678.3550000000978","","","<img src = 'targets/mask.png' width = '100%;'>","75","pos","GS","abstract","3","category3/wang.png","targets/46.png","1","indirect","21",""
"","html-keyboard-response","179","593179","0.0-10.0-0.6","18qvs185np","one_one","1","indirect_first","0","el07er09","0","22","1","1","1","1","","0","1","0","null","","","<div style=""font-size:60px;"">+</div>","null","","","","","","","","","",""
"","html-keyboard-response","180","593271","0.0-10.0-1.6","18qvs185np","one_one","1","indirect_first","0","el07er09","0","22","1","1","1","1","","0","1","0","null","","","<img src = 'category1/GS3.png' width = '100%;'>","null","","","","","","","","","",""
"","html-keyboard-response","181","593541","0.0-10.0-2.6","18qvs185np","one_one","1","indirect_first","0","el07er09","0","22","1","1","1","1","","0","1","0","null","","","<img src = 'targets/6.png' width = '100%;'>","null","","","","","","","","","",""
"","html-keyboard-response","182","594318","0.0-10.0-3.6","18qvs185np","one_one","1","indirect_first","0","el07er09","0","22","1","1","1","1","","0","1","0","775.3449999999721","","","<img src = 'targets/mask.png' width = '100%;'>","68","pos","GS","GSnew","1","category1/GS3.png","targets/6.png","0","indirect","22",""
"","html-keyboard-response","183","595841","0.0-10.0-0.7","18qvs185np","one_one","1","indirect_first","0","el07er09","0","22","1","1","1","1","","0","1","0","null","","","<div style=""font-size:60px;"">+</div>","null","","","","","","","","","",""
"","html-keyboard-response","184","595946","0.0-10.0-1.7","18qvs185np","one_one","1","indirect_first","0","el07er09","0","22","1","1","1","1","","0","1","0","null","","","<img src = 'category4/GS1.png' width = '100%;'>","null","","","","","","","","","",""
"","html-keyboard-response","185","596212","0.0-10.0-2.7","18qvs185np","one_one","1","indirect_first","0","el07er09","0","22","1","1","1","1","","0","1","0","null","","","<img src = 'targets/43.png' width = '100%;'>","null","","","","","","","","","",""
"","html-keyboard-response","186","597112","0.0-10.0-3.7","18qvs185np","one_one","1","indirect_first","0","el07er09","0","22","1","1","1","1","","0","1","0","897.929999999702","","","<img src = 'targets/mask.png' width = '100%;'>","68","neg","GS","GSnew","4","category4/GS1.png","targets/43.png","0","indirect","23",""
"","html-keyboard-response","187","598619","0.0-10.0-0.8","18qvs185np","one_one","1","indirect_first","0","el07er09","0","22","1","1","1","1","","0","1","0","null","","","<div style=""font-size:60px;"">+</div>","null","","","","","","","","","",""
"","html-keyboard-response","188","598723","0.0-10.0-1.8","18qvs185np","one_one","1","indirect_first","0","el07er09","0","22","1","1","1","1","","0","1","0","null","","","<img src = 'category1/GS2.png' width = '100%;'>","null","","","","","","","","","",""
"","html-keyboard-response","189","598988","0.0-10.0-2.8","18qvs185np","one_one","1","indirect_first","0","el07er09","0","22","1","1","1","1","","0","1","0","null","","","<img src = 'targets/39.png' width = '100%;'>","null","","","","","","","","","",""
"","html-keyboard-response","190","599513","0.0-10.0-3.8","18qvs185np","one_one","1","indirect_first","0","el07er09","0","22","1","1","1","1","","0","1","0","521.9949999999953","","","<img src = 'targets/mask.png' width = '100%;'>","75","pos","GS","GSnew","1","category1/GS2.png","targets/39.png","1","indirect","24",""
"","html-keyboard-response","191","601026","0.0-10.0-0.9","18qvs185np","one_one","1","indirect_first","0","el07er09","0","22","1","1","1","1","","0","1","0","null","","","<div style=""font-size:60px;"">+</div>","null","","","","","","","","","",""
"","html-keyboard-response","192","601124","0.0-10.0-1.9","18qvs185np","one_one","1","indirect_first","0","el07er09","0","22","1","1","1","1","","0","1","0","null","","","<img src = 'category2/GS3.png' width = '100%;'>","null","","","","","","","","","",""
"","html-keyboard-response","193","601396","0.0-10.0-2.9","18qvs185np","one_one","1","indirect_first","0","el07er09","0","22","1","1","1","1","","0","1","0","null","","","<img src = 'targets/9.png' width = '100%;'>","null","","","","","","","","","",""
"","html-keyboard-response","194","601983","0.0-10.0-3.9","18qvs185np","one_one","1","indirect_first","0","el07er09","0","22","1","1","1","1","","0","1","0","585.4949999998789","","","<img src = 'targets/mask.png' width = '100%;'>","75","neg","GS","GSnew","2","category2/GS3.png","targets/9.png","1","indirect","25",""
"","html-keyboard-response","195","603498","0.0-10.0-0.10","18qvs185np","one_one","1","indirect_first","0","el07er09","0","22","1","1","1","1","","0","1","0","null","","","<div style=""font-size:60px;"">+</div>","null","","","","","","","","","",""
"","html-keyboard-response","196","603592","0.0-10.0-1.10","18qvs185np","one_one","1","indirect_first","0","el07er09","0","22","1","1","1","1","","0","1","0","null","","","<img src = 'category2/men.png' width = '100%;'>","null","","","","","","","","","",""
"","html-keyboard-response","197","603876","0.0-10.0-2.10","18qvs185np","one_one","1","indirect_first","0","el07er09","0","22","1","1","1","1","","0","1","0","null","","","<img src = 'targets/37.png' width = '100%;'>","null","","","","","","","","","",""
"","html-keyboard-response","198","604350","0.0-10.0-3.10","18qvs185np","one_one","1","indirect_first","0","el07er09","0","22","1","1","1","1","","0","1","0","472.3499999999767","","","<img src = 'targets/mask.png' width = '100%;'>","75","neg","GS","abstract","2","category2/men.png","targets/37.png","1","indirect","26",""
"","html-keyboard-response","199","605863","0.0-10.0-0.11","18qvs185np","one_one","1","indirect_first","0","el07er09","0","22","1","1","1","1","","0","1","0","null","","","<div style=""font-size:60px;"">+</div>","null","","","","","","","","","",""
"","html-keyboard-response","200","605955","0.0-10.0-1.11","18qvs185np","one_one","1","indirect_first","0","el07er09","0","22","1","1","1","1","","0","1","0","null","","","<img src = 'category2/GS2.png' width = '100%;'>","null","","","","","","","","","",""
"","html-keyboard-response","201","606232","0.0-10.0-2.11","18qvs185np","one_one","1","indirect_first","0","el07er09","0","22","1","1","1","1","","0","1","0","null","","","<img src = 'targets/7.png' width = '100%;'>","null","","","","","","","","","",""
"","html-keyboard-response","202","606474","0.0-10.0-3.11","18qvs185np","one_one","1","indirect_first","0","el07er09","0","22","1","1","1","1","","0","1","0","239.7799999997951","","","<img src = 'targets/mask.png' width = '100%;'>","68","neg","GS","GSnew","2","category2/GS2.png","targets/7.png","0","indirect","27",""
"","html-keyboard-response","203","607985","0.0-10.0-0.12","18qvs185np","one_one","1","indirect_first","0","el07er09","0","22","1","1","1","1","","0","1","0","null","","","<div style=""font-size:60px;"">+</div>","null","","","","","","","","","",""
"","html-keyboard-response","204","608084","0.0-10.0-1.12","18qvs185np","one_one","1","indirect_first","0","el07er09","0","22","1","1","1","1","","0","1","0","null","","","<img src = 'category3/GS2.png' width = '100%;'>","null","","","","","","","","","",""
"","html-keyboard-response","205","608357","0.0-10.0-2.12","18qvs185np","one_one","1","indirect_first","0","el07er09","0","22","1","1","1","1","","0","1","0","null","","","<img src = 'targets/12.png' width = '100%;'>","null","","","","","","","","","",""
"","html-keyboard-response","206","609168","0.0-10.0-3.12","18qvs185np","one_one","1","indirect_first","0","el07er09","0","22","1","1","1","1","","0","1","0","809.4599999998463","","","<img src = 'targets/mask.png' width = '100%;'>","75","pos","GS","GSnew","3","category3/GS2.png","targets/12.png","1","indirect","28",""
"","html-keyboard-response","207","610673","0.0-10.0-0.13","18qvs185np","one_one","1","indirect_first","0","el07er09","0","22","1","1","1","1","","0","1","0","null","","","<div style=""font-size:60px;"">+</div>","null","","","","","","","","","",""
"","html-keyboard-response","208","610777","0.0-10.0-1.13","18qvs185np","one_one","1","indirect_first","0","el07er09","0","22","1","1","1","1","","0","1","0","null","","","<img src = 'category3/GS3.png' width = '100%;'>","null","","","","","","","","","",""
"","html-keyboard-response","209","611044","0.0-10.0-2.13","18qvs185np","one_one","1","indirect_first","0","el07er09","0","22","1","1","1","1","","0","1","0","null","","","<img src = 'targets/11.png' width = '100%;'>","null","","","","","","","","","",""
"","html-keyboard-response","210","611843","0.0-10.0-3.13","18qvs185np","one_one","1","indirect_first","0","el07er09","0","22","1","1","1","1","","0","1","0","796.1949999998324","","","<img src = 'targets/mask.png' width = '100%;'>","75","pos","GS","GSnew","3","category3/GS3.png","targets/11.png","1","indirect","29",""
"","html-keyboard-response","211","613360","0.0-10.0-0.14","18qvs185np","one_one","1","indirect_first","0","el07er09","0","22","1","1","1","1","","0","1","0","null","","","<div style=""font-size:60px;"">+</div>","null","","","","","","","","","",""
"","html-keyboard-response","212","613453","0.0-10.0-1.14","18qvs185np","one_one","1","indirect_first","0","el07er09","0","22","1","1","1","1","","0","1","0","null","","","<img src = 'category2/GS1.png' width = '100%;'>","null","","","","","","","","","",""
"","html-keyboard-response","213","613731","0.0-10.0-2.14","18qvs185np","one_one","1","indirect_first","0","el07er09","0","22","1","1","1","1","","0","1","0","null","","","<img src = 'targets/22.png' width = '100%;'>","null","","","","","","","","","",""
"","html-keyboard-response","214","614356","0.0-10.0-3.14","18qvs185np","one_one","1","indirect_first","0","el07er09","0","22","1","1","1","1","","0","1","0","623.7750000000233","","","<img src = 'targets/mask.png' width = '100%;'>","68","neg","GS","GSnew","2","category2/GS1.png","targets/22.png","0","indirect","30",""
"","html-keyboard-response","215","615864","0.0-10.0-0.15","18qvs185np","one_one","1","indirect_first","0","el07er09","0","22","1","1","1","1","","0","1","0","null","","","<div style=""font-size:60px;"">+</div>","null","","","","","","","","","",""
"","html-keyboard-response","216","615971","0.0-10.0-1.15","18qvs185np","one_one","1","indirect_first","0","el07er09","0","22","1","1","1","1","","0","1","0","null","","","<img src = 'category4/GS3.png' width = '100%;'>","null","","","","","","","","","",""
"","html-keyboard-response","217","616243","0.0-10.0-2.15","18qvs185np","one_one","1","indirect_first","0","el07er09","0","22","1","1","1","1","","0","1","0","null","","","<img src = 'targets/31.png' width = '100%;'>","null","","","","","","","","","",""
"","html-keyboard-response","218","616868","0.0-10.0-3.15","18qvs185np","one_one","1","indirect_first","0","el07er09","0","22","1","1","1","1","","0","1","0","622.9299999999348","","","<img src = 'targets/mask.png' width = '100%;'>","68","neg","GS","GSnew","4","category4/GS3.png","targets/31.png","0","indirect","31",""
"","survey-html-form","219","626888","0.0-11.0","18qvs185np","one_one","1","indirect_first","0","el07er09","0","22","1","1","1","1","","0","1","0","9506.449999999837","","{}","","","","","","","","","","","",""
"","image-slider-response","220","636383","0.0-12.0-0.0","18qvs185np","one_one","1","indirect_first","0","el07er09","0","22","1","1","1","1","","0","1","0","7475.364999999758","","","","","pos","GS","GSold","3","category3/CS3.png","targets/34.png","","direct","","57"
"","image-slider-response","221","641808","0.0-12.0-0.1","18qvs185np","one_one","1","indirect_first","0","el07er09","0","22","1","1","1","1","","0","1","0","5421.554999999935","","","","","pos","GS","GSnew","1","category1/GS2.png","targets/39.png","","direct","","-17"
"","image-slider-response","222","645600","0.0-12.0-0.2","18qvs185np","one_one","1","indirect_first","0","el07er09","0","22","1","1","1","1","","0","1","0","3787.9900000002235","","","","","pos","GS","abstract","1","category1/ma.png","targets/36.png","","direct","","-13"
"","image-slider-response","223","650513","0.0-12.0-0.3","18qvs185np","one_one","1","indirect_first","0","el07er09","0","22","1","1","1","1","","0","1","0","4909.839999999735","","","","","neg","GS","GSold","4","category4/CS6.png","targets/38.png","","direct","","32"
"","image-slider-response","224","654492","0.0-12.0-0.4","18qvs185np","one_one","1","indirect_first","0","el07er09","0","22","1","1","1","1","","0","1","0","3976.2949999999255","","","","","neg","GS","GSnew","2","category2/GS1.png","targets/22.png","","direct","","24"
"","image-slider-response","225","658533","0.0-12.0-0.5","18qvs185np","one_one","1","indirect_first","0","el07er09","0","22","1","1","1","1","","0","1","0","4038.6549999999115","","","","","pos","GS","GSold","1","category1/CS7.png","targets/18.png","","direct","","-25"
"","image-slider-response","226","662099","0.0-12.0-0.6","18qvs185np","one_one","1","indirect_first","0","el07er09","0","22","1","1","1","1","","0","1","0","3562.4849999998696","","","","","neg","GS","GSnew","2","category2/GS3.png","targets/9.png","","direct","","32"
"","image-slider-response","227","665323","0.0-12.0-0.7","18qvs185np","one_one","1","indirect_first","0","el07er09","0","22","1","1","1","1","","0","1","0","3220.0999999999767","","","","","pos","GS","GSold","1","category1/CS8.png","targets/44.png","","direct","","12"
"","image-slider-response","228","668877","0.0-12.0-0.8","18qvs185np","one_one","1","indirect_first","0","el07er09","0","22","1","1","1","1","","0","1","0","3550.7050000000745","","","","","neg","GS","GSnew","4","category4/GS1.png","targets/43.png","","direct","","-32"
"","image-slider-response","229","673929","0.0-12.0-0.9","18qvs185np","one_one","1","indirect_first","0","el07er09","0","22","1","1","1","1","","0","1","0","5050.584999999963","","","","","neg","GS","GSold","2","category2/CS10.png","targets/24.png","","direct","","-71"
"","image-slider-response","230","677774","0.0-12.0-0.10","18qvs185np","one_one","1","indirect_first","0","el07er09","0","22","1","1","1","1","","0","1","0","3841.275000000256","","","","","neg","GS","abstract","4","category4/lin.png","targets/29.png","","direct","","-28"
"","image-slider-response","231","681468","0.0-12.0-0.11","18qvs185np","one_one","1","indirect_first","0","el07er09","0","22","1","1","1","1","","0","1","0","3691.5950000003213","","","","","neg","GS","GSnew","2","category2/GS2.png","targets/7.png","","direct","","48"
"","image-slider-response","232","687071","0.0-12.0-0.12","18qvs185np","one_one","1","indirect_first","0","el07er09","0","22","1","1","1","1","","0","1","0","5598.964999999618","","","","","neg","GS","abstract","2","category2/men.png","targets/37.png","","direct","","18"
"","image-slider-response","233","692380","0.0-12.0-0.13","18qvs185np","one_one","1","indirect_first","0","el07er09","0","22","1","1","1","1","","0","1","0","5306.109999999986","","","","","neg","GS","GSold","2","category2/CS3.png","targets/40.png","","direct","","-55"
"","image-slider-response","234","698842","0.0-12.0-0.14","18qvs185np","one_one","1","indirect_first","0","el07er09","0","22","1","1","1","1","","0","1","0","6458.054999999586","","","","","pos","GS","GSnew","3","category3/GS2.png","targets/12.png","","direct","","12"
"","image-slider-response","235","703864","0.0-12.0-0.15","18qvs185np","one_one","1","indirect_first","0","el07er09","0","22","1","1","1","1","","0","1","0","5019.749999999884","","","","","pos","GS","GSold","3","category3/CS6.png","targets/17.png","","direct","","15"
"","image-slider-response","236","707458","0.0-12.0-0.16","18qvs185np","one_one","1","indirect_first","0","el07er09","0","22","1","1","1","1","","0","1","0","3590.5849999999627","","","","","pos","GS","abstract","3","category3/wang.png","targets/46.png","","direct","","79"
"","image-slider-response","237","711416","0.0-12.0-0.17","18qvs185np","one_one","1","indirect_first","0","el07er09","0","22","1","1","1","1","","0","1","0","3955.335000000079","","","","","pos","GS","GSnew","1","category1/GS3.png","targets/6.png","","direct","","-36"
"","image-slider-response","238","714712","0.0-12.0-0.18","18qvs185np","one_one","1","indirect_first","0","el07er09","0","22","1","1","1","1","","0","1","0","3291.5950000000885","","","","","neg","GS","GSnew","4","category4/GS3.png","targets/31.png","","direct","","-73"
"","image-slider-response","239","719198","0.0-12.0-0.19","18qvs185np","one_one","1","indirect_first","0","el07er09","0","22","1","1","1","1","","0","1","0","4483.505000000121","","","","","neg","GS","GSold","4","category4/CS8.png","targets/15.png","","direct","","35"
"","image-slider-response","240","722684","0.0-12.0-0.20","18qvs185np","one_one","1","indirect_first","0","el07er09","0","22","1","1","1","1","","0","1","0","3482.6250000001164","","","","","pos","GS","GSnew","1","category1/GS1.png","targets/28.png","","direct","","-45"
"","image-slider-response","241","725839","0.0-12.0-0.21","18qvs185np","one_one","1","indirect_first","0","el07er09","0","22","1","1","1","1","","0","1","0","3152.0050000000047","","","","","neg","GS","GSnew","4","category4/GS2.png","targets/48.png","","direct","","-15"
"","image-slider-response","242","738035","0.0-12.0-0.22","18qvs185np","one_one","1","indirect_first","0","el07er09","0","22","1","1","1","1","","0","1","0","12192.710000000312","","","","","pos","GS","GSnew","3","category3/GS1.png","targets/26.png","","direct","","36"
"","image-slider-response","243","744721","0.0-12.0-0.23","18qvs185np","one_one","1","indirect_first","0","el07er09","0","22","1","1","1","1","","0","1","0","6683.285000000033","","","","","pos","CS","CS","1","category1/CS5.png","targets/47.png","","direct","","34"
"","image-slider-response","244","749458","0.0-12.0-0.24","18qvs185np","one_one","1","indirect_first","0","el07er09","0","22","1","1","1","1","","0","1","0","4732.850000000326","","","","","neg","GS","GSold","4","category4/CS9.png","targets/21.png","","direct","","-41"
"","image-slider-response","245","753848","0.0-12.0-0.25","18qvs185np","one_one","1","indirect_first","0","el07er09","0","22","1","1","1","1","","0","1","0","4387.000000000233","","","","","pos","GS","GSold","1","category1/CS2.png","targets/27.png","","direct","","-72"
"","image-slider-response","246","758094","0.0-12.0-0.26","18qvs185np","one_one","1","indirect_first","0","el07er09","0","22","1","1","1","1","","0","1","0","4242.484999999753","","","","","pos","GS","GSold","3","category3/CS8.png","targets/23.png","","direct","","51"
"","image-slider-response","247","761839","0.0-12.0-0.27","18qvs185np","one_one","1","indirect_first","0","el07er09","0","22","1","1","1","1","","0","1","0","3741.2199999998556","","","","","neg","GS","GSold","2","category2/CS1.png","targets/30.png","","direct","","15"
"","image-slider-response","248","765287","0.0-12.0-0.28","18qvs185np","one_one","1","indirect_first","0","el07er09","0","22","1","1","1","1","","0","1","0","3447.5350000002654","","","","","neg","CS","CS","4","category4/CS4.png","targets/33.png","","direct","","-47"
"","image-slider-response","249","769168","0.0-12.0-0.29","18qvs185np","one_one","1","indirect_first","0","el07er09","0","22","1","1","1","1","","0","1","0","3877.895000000135","","","","","pos","GS","GSnew","3","category3/GS3.png","targets/11.png","","direct","","62"
"","image-slider-response","250","772563","0.0-12.0-0.30","18qvs185np","one_one","1","indirect_first","0","el07er09","0","22","1","1","1","1","","0","1","0","3391.2949999999255","","","","","neg","CS","CS","2","category2/CS9.png","targets/2.png","","direct","","-48"
"","image-slider-response","251","776621","0.0-12.0-0.31","18qvs185np","one_one","1","indirect_first","0","el07er09","0","22","1","1","1","1","","0","1","0","4055.530000000028","","","","","pos","CS","CS","3","category3/CS5.png","targets/4.png","","direct","","100"
"","survey-html-form","252","782708","0.0-13.0","18qvs185np","one_one","1","indirect_first","0","el07er09","0","22","1","1","1","1","","0","1","0","6085.019999999902","","{}","","","","","","","","","","","",""
"","image-slider-response","253","791124","0.0-14.0-0.0","18qvs185np","one_one","1","indirect_first","0","el07er09","0","22","1","1","1","1","","0","1","0","7401.60999999987","","","","","neg","All","all","4","category4/lin_all.png","","","all","","-67"
"","image-slider-response","254","796062","0.0-14.0-0.1","18qvs185np","one_one","1","indirect_first","0","el07er09","0","22","1","1","1","1","","0","1","0","4934.769999999786","","","","","neg","All","all","2","category2/men_all.png","","","all","","-48"
"","image-slider-response","255","800264","0.0-14.0-0.2","18qvs185np","one_one","1","indirect_first","0","el07er09","0","22","1","1","1","1","","0","1","0","4198.47500000021","","","","","pos","All","all","3","category3/wang_all.png","","","all","","81"
"","image-slider-response","256","803898","0.0-14.0-0.3","18qvs185np","one_one","1","indirect_first","0","el07er09","0","22","1","1","1","1","","0","1","0","3629.8099999999395","","","","","pos","All","all","1","category1/ma_all.png","","","all","","-22"
"","survey-text","257","809605","0.0-15.0","18qvs185np","one_one","1","indirect_first","0","el07er09","0","22","1","1","1","1","","0","1","0","5685.745000000228","","{""comment"":""""}","","","","","","","","","","","",""
"","survey-html-form","258","823407","0.0-16.0","18qvs185np","one_one","1","indirect_first","0","el07er09","0","22","1","1","1","1","","0","1","0","13796.600000000093","","{""hinschauen"":""0"",""ablenkung"":""1"",""gewissenhaft"":""0""}","","","","","","","","","","","",""
