"success","trial_type","trial_index","time_elapsed","internal_node_id","subject","condition","condition_code","measure","measure_code","codeword","gender","age","education","chinese","fach","handedness","comment","hinschauen","ablenkung","gewissenhaft","rt","url","responses","stimulus","key_press","val","type","type_specific","category","cs_selected","response","target","task","indirect","nr_pres"
"true","fullscreen","0","12281","0.0-0.0","kz986kafc8","one_one","1","direct_first","1","th07rt16","0","27","1","0","3","1","","0","1","0","","","","","","","","","","","","","","",""
"","external-html","1","27402","0.0-1.0","kz986kafc8","one_one","1","direct_first","1","th07rt16","0","27","1","0","3","1","","0","1","0","15046","text/information.html","","","","","","","","","","","","",""
"","external-html","2","41524","0.0-2.0","kz986kafc8","one_one","1","direct_first","1","th07rt16","0","27","1","0","3","1","","0","1","0","14054","text/consent.html","","","","","","","","","","","","",""
"","survey-html-form","3","91515","0.0-3.0","kz986kafc8","one_one","1","direct_first","1","th07rt16","0","27","1","0","3","1","","0","1","0","49986","","{""codeword_enter"":""th07rt16""}","","","","","","","","","","","",""
"","survey-html-form","4","119749","0.0-4.0","kz986kafc8","one_one","1","direct_first","1","th07rt16","0","27","1","0","3","1","","0","1","0","28206","","{""age"":""27"",""education"":""1"",""subject"":""3"",""gender"":""0"",""handedness"":""1"",""chinese"":""0""}","","","","","","","","","","","",""
"","survey-html-form","5","131458","0.0-5.0","kz986kafc8","one_one","1","direct_first","1","th07rt16","0","27","1","0","3","1","","0","1","0","11707","","{}","","","","","","","","","","","",""
"","html-keyboard-response","6","135485","0.0-6.0-0.0-0.0","kz986kafc8","one_one","1","direct_first","1","th07rt16","0","27","1","0","3","1","","0","1","0","null","","","<div class = 'row'><div class = 'column'><img src = 'category1/CS5.png' width = '70%;'></div><div class = 'column'><img src = 'uspos/1463.bmp' width = '100%;'></div></div>","null","pos","CS","CS","1","category1/CS5.png","","","","",""
"","html-keyboard-response","7","138013","0.0-6.0-0.0-0.1","kz986kafc8","one_one","1","direct_first","1","th07rt16","0","27","1","0","3","1","","0","1","0","null","","","<div class = 'row'><div class = 'column'><img src = 'category3/CS8.png' width = '70%;'></div><div class = 'column'><img src = 'usneg/9340.bmp' width = '100%;'></div></div>","null","neg","CS","CS","3","category3/CS8.png","","","","",""
"","html-keyboard-response","8","140554","0.0-6.0-0.0-0.2","kz986kafc8","one_one","1","direct_first","1","th07rt16","0","27","1","0","3","1","","0","1","0","null","","","<div class = 'row'><div class = 'column'><img src = 'uspos/1463.bmp' width = '100%;'></div><div class = 'column'><img src = 'category1/CS5.png' width = '70%;'></div></div>","null","pos","CS","CS","1","category1/CS5.png","","","","",""
"","html-keyboard-response","9","143094","0.0-6.0-0.0-0.3","kz986kafc8","one_one","1","direct_first","1","th07rt16","0","27","1","0","3","1","","0","1","0","null","","","<div class = 'row'><div class = 'column'><img src = 'usneg/9340.bmp' width = '100%;'></div><div class = 'column'><img src = 'category3/CS8.png' width = '70%;'></div></div>","null","neg","CS","CS","3","category3/CS8.png","","","","",""
"","html-keyboard-response","10","145624","0.0-6.0-0.0-0.4","kz986kafc8","one_one","1","direct_first","1","th07rt16","0","27","1","0","3","1","","0","1","0","null","","","<div class = 'row'><div class = 'column'><img src = 'category4/CS4.png' width = '70%;'></div><div class = 'column'><img src = 'usneg/7380.bmp' width = '100%;'></div></div>","null","neg","CS","CS","4","category4/CS4.png","","","","",""
"","html-keyboard-response","11","148153","0.0-6.0-0.0-0.5","kz986kafc8","one_one","1","direct_first","1","th07rt16","0","27","1","0","3","1","","0","1","0","null","","","<div class = 'row'><div class = 'column'><img src = 'usneg/9340.bmp' width = '100%;'></div><div class = 'column'><img src = 'category3/CS8.png' width = '70%;'></div></div>","null","neg","CS","CS","3","category3/CS8.png","","","","",""
"","html-keyboard-response","12","150680","0.0-6.0-0.0-0.6","kz986kafc8","one_one","1","direct_first","1","th07rt16","0","27","1","0","3","1","","0","1","0","null","","","<div class = 'row'><div class = 'column'><img src = 'uspos/1463.bmp' width = '100%;'></div><div class = 'column'><img src = 'category1/CS5.png' width = '70%;'></div></div>","null","pos","CS","CS","1","category1/CS5.png","","","","",""
"","html-keyboard-response","13","153184","0.0-6.0-0.0-0.7","kz986kafc8","one_one","1","direct_first","1","th07rt16","0","27","1","0","3","1","","0","1","0","null","","","<div class = 'row'><div class = 'column'><img src = 'usneg/9340.bmp' width = '100%;'></div><div class = 'column'><img src = 'category3/CS8.png' width = '70%;'></div></div>","null","neg","CS","CS","3","category3/CS8.png","","","","",""
"","html-keyboard-response","14","155714","0.0-6.0-0.0-0.8","kz986kafc8","one_one","1","direct_first","1","th07rt16","0","27","1","0","3","1","","0","1","0","null","","","<div class = 'row'><div class = 'column'><img src = 'category2/CS6.png' width = '70%;'></div><div class = 'column'><img src = 'uspos/5760.bmp' width = '100%;'></div></div>","null","pos","CS","CS","2","category2/CS6.png","","","","",""
"","html-keyboard-response","15","158234","0.0-6.0-0.0-0.9","kz986kafc8","one_one","1","direct_first","1","th07rt16","0","27","1","0","3","1","","0","1","0","null","","","<div class = 'row'><div class = 'column'><img src = 'category4/CS4.png' width = '70%;'></div><div class = 'column'><img src = 'usneg/7380.bmp' width = '100%;'></div></div>","null","neg","CS","CS","4","category4/CS4.png","","","","",""
"","html-keyboard-response","16","160764","0.0-6.0-0.0-0.10","kz986kafc8","one_one","1","direct_first","1","th07rt16","0","27","1","0","3","1","","0","1","0","null","","","<div class = 'row'><div class = 'column'><img src = 'category3/CS8.png' width = '70%;'></div><div class = 'column'><img src = 'usneg/9340.bmp' width = '100%;'></div></div>","null","neg","CS","CS","3","category3/CS8.png","","","","",""
"","html-keyboard-response","17","163304","0.0-6.0-0.0-0.11","kz986kafc8","one_one","1","direct_first","1","th07rt16","0","27","1","0","3","1","","0","1","0","null","","","<div class = 'row'><div class = 'column'><img src = 'uspos/5760.bmp' width = '100%;'></div><div class = 'column'><img src = 'category2/CS6.png' width = '70%;'></div></div>","null","pos","CS","CS","2","category2/CS6.png","","","","",""
"","html-keyboard-response","18","165834","0.0-6.0-0.0-0.12","kz986kafc8","one_one","1","direct_first","1","th07rt16","0","27","1","0","3","1","","0","1","0","null","","","<div class = 'row'><div class = 'column'><img src = 'uspos/1463.bmp' width = '100%;'></div><div class = 'column'><img src = 'category1/CS5.png' width = '70%;'></div></div>","null","pos","CS","CS","1","category1/CS5.png","","","","",""
"","html-keyboard-response","19","168373","0.0-6.0-0.0-0.13","kz986kafc8","one_one","1","direct_first","1","th07rt16","0","27","1","0","3","1","","0","1","0","null","","","<div class = 'row'><div class = 'column'><img src = 'category4/CS4.png' width = '70%;'></div><div class = 'column'><img src = 'usneg/7380.bmp' width = '100%;'></div></div>","null","neg","CS","CS","4","category4/CS4.png","","","","",""
"","html-keyboard-response","20","170894","0.0-6.0-0.0-0.14","kz986kafc8","one_one","1","direct_first","1","th07rt16","0","27","1","0","3","1","","0","1","0","null","","","<div class = 'row'><div class = 'column'><img src = 'uspos/5760.bmp' width = '100%;'></div><div class = 'column'><img src = 'category2/CS6.png' width = '70%;'></div></div>","null","pos","CS","CS","2","category2/CS6.png","","","","",""
"","html-keyboard-response","21","173434","0.0-6.0-0.0-0.15","kz986kafc8","one_one","1","direct_first","1","th07rt16","0","27","1","0","3","1","","0","1","0","null","","","<div class = 'row'><div class = 'column'><img src = 'category4/CS4.png' width = '70%;'></div><div class = 'column'><img src = 'usneg/7380.bmp' width = '100%;'></div></div>","null","neg","CS","CS","4","category4/CS4.png","","","","",""
"","html-keyboard-response","22","175951","0.0-6.0-0.0-0.16","kz986kafc8","one_one","1","direct_first","1","th07rt16","0","27","1","0","3","1","","0","1","0","null","","","<div class = 'row'><div class = 'column'><img src = 'uspos/5760.bmp' width = '100%;'></div><div class = 'column'><img src = 'category2/CS6.png' width = '70%;'></div></div>","null","pos","CS","CS","2","category2/CS6.png","","","","",""
"","html-keyboard-response","23","178474","0.0-6.0-0.0-0.17","kz986kafc8","one_one","1","direct_first","1","th07rt16","0","27","1","0","3","1","","0","1","0","null","","","<div class = 'row'><div class = 'column'><img src = 'category1/CS5.png' width = '70%;'></div><div class = 'column'><img src = 'uspos/1463.bmp' width = '100%;'></div></div>","null","pos","CS","CS","1","category1/CS5.png","","","","",""
"","html-keyboard-response","24","181002","0.0-6.0-0.0-0.18","kz986kafc8","one_one","1","direct_first","1","th07rt16","0","27","1","0","3","1","","0","1","0","null","","","<div class = 'row'><div class = 'column'><img src = 'category2/CS6.png' width = '70%;'></div><div class = 'column'><img src = 'uspos/5760.bmp' width = '100%;'></div></div>","null","pos","CS","CS","2","category2/CS6.png","","","","",""
"","html-keyboard-response","25","183504","0.0-6.0-0.0-0.19","kz986kafc8","one_one","1","direct_first","1","th07rt16","0","27","1","0","3","1","","0","1","0","null","","","<div class = 'row'><div class = 'column'><img src = 'usneg/7380.bmp' width = '100%;'></div><div class = 'column'><img src = 'category4/CS4.png' width = '70%;'></div></div>","null","neg","CS","CS","4","category4/CS4.png","","","","",""
"","survey-html-form","26","186657","0.0-6.0-1.0","kz986kafc8","one_one","1","direct_first","1","th07rt16","0","27","1","0","3","1","","0","1","0","2634","","{}","","","","","","","","","","","",""
"","html-keyboard-response","27","190683","0.0-6.0-2.0-0.0","kz986kafc8","one_one","1","direct_first","1","th07rt16","0","27","1","0","3","1","","0","1","0","null","","","<div class = 'row'><div class = 'column'><img src = 'usneg/9340.bmp' width = '100%;'></div><div class = 'column'><img src = 'category3/CS8.png' width = '70%;'></div></div>","null","neg","CS","CS","3","category3/CS8.png","","","","",""
"","html-keyboard-response","28","193223","0.0-6.0-2.0-0.1","kz986kafc8","one_one","1","direct_first","1","th07rt16","0","27","1","0","3","1","","0","1","0","null","","","<div class = 'row'><div class = 'column'><img src = 'category1/CS5.png' width = '70%;'></div><div class = 'column'><img src = 'uspos/1463.bmp' width = '100%;'></div></div>","null","pos","CS","CS","1","category1/CS5.png","","","","",""
"","html-keyboard-response","29","195754","0.0-6.0-2.0-0.2","kz986kafc8","one_one","1","direct_first","1","th07rt16","0","27","1","0","3","1","","0","1","0","null","","","<div class = 'row'><div class = 'column'><img src = 'usneg/7380.bmp' width = '100%;'></div><div class = 'column'><img src = 'category4/CS4.png' width = '70%;'></div></div>","null","neg","CS","CS","4","category4/CS4.png","","","","",""
"","html-keyboard-response","30","198294","0.0-6.0-2.0-0.3","kz986kafc8","one_one","1","direct_first","1","th07rt16","0","27","1","0","3","1","","0","1","0","null","","","<div class = 'row'><div class = 'column'><img src = 'uspos/1463.bmp' width = '100%;'></div><div class = 'column'><img src = 'category1/CS5.png' width = '70%;'></div></div>","null","pos","CS","CS","1","category1/CS5.png","","","","",""
"","html-keyboard-response","31","200834","0.0-6.0-2.0-0.4","kz986kafc8","one_one","1","direct_first","1","th07rt16","0","27","1","0","3","1","","0","1","0","null","","","<div class = 'row'><div class = 'column'><img src = 'category2/CS6.png' width = '70%;'></div><div class = 'column'><img src = 'uspos/5760.bmp' width = '100%;'></div></div>","null","pos","CS","CS","2","category2/CS6.png","","","","",""
"","html-keyboard-response","32","203363","0.0-6.0-2.0-0.5","kz986kafc8","one_one","1","direct_first","1","th07rt16","0","27","1","0","3","1","","0","1","0","null","","","<div class = 'row'><div class = 'column'><img src = 'category1/CS5.png' width = '70%;'></div><div class = 'column'><img src = 'uspos/1463.bmp' width = '100%;'></div></div>","null","pos","CS","CS","1","category1/CS5.png","","","","",""
"","html-keyboard-response","33","205894","0.0-6.0-2.0-0.6","kz986kafc8","one_one","1","direct_first","1","th07rt16","0","27","1","0","3","1","","0","1","0","null","","","<div class = 'row'><div class = 'column'><img src = 'usneg/7380.bmp' width = '100%;'></div><div class = 'column'><img src = 'category4/CS4.png' width = '70%;'></div></div>","null","neg","CS","CS","4","category4/CS4.png","","","","",""
"","html-keyboard-response","34","208434","0.0-6.0-2.0-0.7","kz986kafc8","one_one","1","direct_first","1","th07rt16","0","27","1","0","3","1","","0","1","0","null","","","<div class = 'row'><div class = 'column'><img src = 'uspos/5760.bmp' width = '100%;'></div><div class = 'column'><img src = 'category2/CS6.png' width = '70%;'></div></div>","null","pos","CS","CS","2","category2/CS6.png","","","","",""
"","html-keyboard-response","35","210964","0.0-6.0-2.0-0.8","kz986kafc8","one_one","1","direct_first","1","th07rt16","0","27","1","0","3","1","","0","1","0","null","","","<div class = 'row'><div class = 'column'><img src = 'usneg/7380.bmp' width = '100%;'></div><div class = 'column'><img src = 'category4/CS4.png' width = '70%;'></div></div>","null","neg","CS","CS","4","category4/CS4.png","","","","",""
"","html-keyboard-response","36","213504","0.0-6.0-2.0-0.9","kz986kafc8","one_one","1","direct_first","1","th07rt16","0","27","1","0","3","1","","0","1","0","null","","","<div class = 'row'><div class = 'column'><img src = 'category1/CS5.png' width = '70%;'></div><div class = 'column'><img src = 'uspos/1463.bmp' width = '100%;'></div></div>","null","pos","CS","CS","1","category1/CS5.png","","","","",""
"","html-keyboard-response","37","216032","0.0-6.0-2.0-0.10","kz986kafc8","one_one","1","direct_first","1","th07rt16","0","27","1","0","3","1","","0","1","0","null","","","<div class = 'row'><div class = 'column'><img src = 'category3/CS8.png' width = '70%;'></div><div class = 'column'><img src = 'usneg/9340.bmp' width = '100%;'></div></div>","null","neg","CS","CS","3","category3/CS8.png","","","","",""
"","html-keyboard-response","38","218554","0.0-6.0-2.0-0.11","kz986kafc8","one_one","1","direct_first","1","th07rt16","0","27","1","0","3","1","","0","1","0","null","","","<div class = 'row'><div class = 'column'><img src = 'usneg/7380.bmp' width = '100%;'></div><div class = 'column'><img src = 'category4/CS4.png' width = '70%;'></div></div>","null","neg","CS","CS","4","category4/CS4.png","","","","",""
"","html-keyboard-response","39","221095","0.0-6.0-2.0-0.12","kz986kafc8","one_one","1","direct_first","1","th07rt16","0","27","1","0","3","1","","0","1","0","null","","","<div class = 'row'><div class = 'column'><img src = 'uspos/5760.bmp' width = '100%;'></div><div class = 'column'><img src = 'category2/CS6.png' width = '70%;'></div></div>","null","pos","CS","CS","2","category2/CS6.png","","","","",""
"","html-keyboard-response","40","223624","0.0-6.0-2.0-0.13","kz986kafc8","one_one","1","direct_first","1","th07rt16","0","27","1","0","3","1","","0","1","0","null","","","<div class = 'row'><div class = 'column'><img src = 'category3/CS8.png' width = '70%;'></div><div class = 'column'><img src = 'usneg/9340.bmp' width = '100%;'></div></div>","null","neg","CS","CS","3","category3/CS8.png","","","","",""
"","html-keyboard-response","41","226154","0.0-6.0-2.0-0.14","kz986kafc8","one_one","1","direct_first","1","th07rt16","0","27","1","0","3","1","","0","1","0","null","","","<div class = 'row'><div class = 'column'><img src = 'uspos/5760.bmp' width = '100%;'></div><div class = 'column'><img src = 'category2/CS6.png' width = '70%;'></div></div>","null","pos","CS","CS","2","category2/CS6.png","","","","",""
"","html-keyboard-response","42","228694","0.0-6.0-2.0-0.15","kz986kafc8","one_one","1","direct_first","1","th07rt16","0","27","1","0","3","1","","0","1","0","null","","","<div class = 'row'><div class = 'column'><img src = 'category3/CS8.png' width = '70%;'></div><div class = 'column'><img src = 'usneg/9340.bmp' width = '100%;'></div></div>","null","neg","CS","CS","3","category3/CS8.png","","","","",""
"","html-keyboard-response","43","231224","0.0-6.0-2.0-0.16","kz986kafc8","one_one","1","direct_first","1","th07rt16","0","27","1","0","3","1","","0","1","0","null","","","<div class = 'row'><div class = 'column'><img src = 'uspos/5760.bmp' width = '100%;'></div><div class = 'column'><img src = 'category2/CS6.png' width = '70%;'></div></div>","null","pos","CS","CS","2","category2/CS6.png","","","","",""
"","html-keyboard-response","44","233749","0.0-6.0-2.0-0.17","kz986kafc8","one_one","1","direct_first","1","th07rt16","0","27","1","0","3","1","","0","1","0","null","","","<div class = 'row'><div class = 'column'><img src = 'usneg/7380.bmp' width = '100%;'></div><div class = 'column'><img src = 'category4/CS4.png' width = '70%;'></div></div>","null","neg","CS","CS","4","category4/CS4.png","","","","",""
"","html-keyboard-response","45","236264","0.0-6.0-2.0-0.18","kz986kafc8","one_one","1","direct_first","1","th07rt16","0","27","1","0","3","1","","0","1","0","null","","","<div class = 'row'><div class = 'column'><img src = 'category3/CS8.png' width = '70%;'></div><div class = 'column'><img src = 'usneg/9340.bmp' width = '100%;'></div></div>","null","neg","CS","CS","3","category3/CS8.png","","","","",""
"","html-keyboard-response","46","238804","0.0-6.0-2.0-0.19","kz986kafc8","one_one","1","direct_first","1","th07rt16","0","27","1","0","3","1","","0","1","0","null","","","<div class = 'row'><div class = 'column'><img src = 'category1/CS5.png' width = '70%;'></div><div class = 'column'><img src = 'uspos/1463.bmp' width = '100%;'></div></div>","null","pos","CS","CS","1","category1/CS5.png","","","","",""
"","survey-html-form","47","240948","0.0-6.0-3.0","kz986kafc8","one_one","1","direct_first","1","th07rt16","0","27","1","0","3","1","","0","1","0","1633","","{}","","","","","","","","","","","",""
"","html-keyboard-response","48","244984","0.0-6.0-4.0-0.0","kz986kafc8","one_one","1","direct_first","1","th07rt16","0","27","1","0","3","1","","0","1","0","null","","","<div class = 'row'><div class = 'column'><img src = 'category3/CS8.png' width = '70%;'></div><div class = 'column'><img src = 'usneg/9340.bmp' width = '100%;'></div></div>","null","neg","CS","CS","3","category3/CS8.png","","","","",""
"","html-keyboard-response","49","247524","0.0-6.0-4.0-0.1","kz986kafc8","one_one","1","direct_first","1","th07rt16","0","27","1","0","3","1","","0","1","0","null","","","<div class = 'row'><div class = 'column'><img src = 'category1/CS5.png' width = '70%;'></div><div class = 'column'><img src = 'uspos/1463.bmp' width = '100%;'></div></div>","null","pos","CS","CS","1","category1/CS5.png","","","","",""
"","html-keyboard-response","50","250065","0.0-6.0-4.0-0.2","kz986kafc8","one_one","1","direct_first","1","th07rt16","0","27","1","0","3","1","","0","1","0","null","","","<div class = 'row'><div class = 'column'><img src = 'uspos/5760.bmp' width = '100%;'></div><div class = 'column'><img src = 'category2/CS6.png' width = '70%;'></div></div>","null","pos","CS","CS","2","category2/CS6.png","","","","",""
"","html-keyboard-response","51","252595","0.0-6.0-4.0-0.3","kz986kafc8","one_one","1","direct_first","1","th07rt16","0","27","1","0","3","1","","0","1","0","null","","","<div class = 'row'><div class = 'column'><img src = 'category4/CS4.png' width = '70%;'></div><div class = 'column'><img src = 'usneg/7380.bmp' width = '100%;'></div></div>","null","neg","CS","CS","4","category4/CS4.png","","","","",""
"","html-keyboard-response","52","255124","0.0-6.0-4.0-0.4","kz986kafc8","one_one","1","direct_first","1","th07rt16","0","27","1","0","3","1","","0","1","0","null","","","<div class = 'row'><div class = 'column'><img src = 'category2/CS6.png' width = '70%;'></div><div class = 'column'><img src = 'uspos/5760.bmp' width = '100%;'></div></div>","null","pos","CS","CS","2","category2/CS6.png","","","","",""
"","html-keyboard-response","53","257655","0.0-6.0-4.0-0.5","kz986kafc8","one_one","1","direct_first","1","th07rt16","0","27","1","0","3","1","","0","1","0","null","","","<div class = 'row'><div class = 'column'><img src = 'usneg/9340.bmp' width = '100%;'></div><div class = 'column'><img src = 'category3/CS8.png' width = '70%;'></div></div>","null","neg","CS","CS","3","category3/CS8.png","","","","",""
"","html-keyboard-response","54","260194","0.0-6.0-4.0-0.6","kz986kafc8","one_one","1","direct_first","1","th07rt16","0","27","1","0","3","1","","0","1","0","null","","","<div class = 'row'><div class = 'column'><img src = 'usneg/7380.bmp' width = '100%;'></div><div class = 'column'><img src = 'category4/CS4.png' width = '70%;'></div></div>","null","neg","CS","CS","4","category4/CS4.png","","","","",""
"","html-keyboard-response","55","262724","0.0-6.0-4.0-0.7","kz986kafc8","one_one","1","direct_first","1","th07rt16","0","27","1","0","3","1","","0","1","0","null","","","<div class = 'row'><div class = 'column'><img src = 'category2/CS6.png' width = '70%;'></div><div class = 'column'><img src = 'uspos/5760.bmp' width = '100%;'></div></div>","null","pos","CS","CS","2","category2/CS6.png","","","","",""
"","html-keyboard-response","56","265264","0.0-6.0-4.0-0.8","kz986kafc8","one_one","1","direct_first","1","th07rt16","0","27","1","0","3","1","","0","1","0","null","","","<div class = 'row'><div class = 'column'><img src = 'category3/CS8.png' width = '70%;'></div><div class = 'column'><img src = 'usneg/9340.bmp' width = '100%;'></div></div>","null","neg","CS","CS","3","category3/CS8.png","","","","",""
"","html-keyboard-response","57","267795","0.0-6.0-4.0-0.9","kz986kafc8","one_one","1","direct_first","1","th07rt16","0","27","1","0","3","1","","0","1","0","null","","","<div class = 'row'><div class = 'column'><img src = 'category1/CS5.png' width = '70%;'></div><div class = 'column'><img src = 'uspos/1463.bmp' width = '100%;'></div></div>","null","pos","CS","CS","1","category1/CS5.png","","","","",""
"","html-keyboard-response","58","270325","0.0-6.0-4.0-0.10","kz986kafc8","one_one","1","direct_first","1","th07rt16","0","27","1","0","3","1","","0","1","0","null","","","<div class = 'row'><div class = 'column'><img src = 'category4/CS4.png' width = '70%;'></div><div class = 'column'><img src = 'usneg/7380.bmp' width = '100%;'></div></div>","null","neg","CS","CS","4","category4/CS4.png","","","","",""
"","html-keyboard-response","59","272843","0.0-6.0-4.0-0.11","kz986kafc8","one_one","1","direct_first","1","th07rt16","0","27","1","0","3","1","","0","1","0","null","","","<div class = 'row'><div class = 'column'><img src = 'category3/CS8.png' width = '70%;'></div><div class = 'column'><img src = 'usneg/9340.bmp' width = '100%;'></div></div>","null","neg","CS","CS","3","category3/CS8.png","","","","",""
"","html-keyboard-response","60","275375","0.0-6.0-4.0-0.12","kz986kafc8","one_one","1","direct_first","1","th07rt16","0","27","1","0","3","1","","0","1","0","null","","","<div class = 'row'><div class = 'column'><img src = 'uspos/1463.bmp' width = '100%;'></div><div class = 'column'><img src = 'category1/CS5.png' width = '70%;'></div></div>","null","pos","CS","CS","1","category1/CS5.png","","","","",""
"","html-keyboard-response","61","277905","0.0-6.0-4.0-0.13","kz986kafc8","one_one","1","direct_first","1","th07rt16","0","27","1","0","3","1","","0","1","0","null","","","<div class = 'row'><div class = 'column'><img src = 'category2/CS6.png' width = '70%;'></div><div class = 'column'><img src = 'uspos/5760.bmp' width = '100%;'></div></div>","null","pos","CS","CS","2","category2/CS6.png","","","","",""
"","html-keyboard-response","62","280445","0.0-6.0-4.0-0.14","kz986kafc8","one_one","1","direct_first","1","th07rt16","0","27","1","0","3","1","","0","1","0","null","","","<div class = 'row'><div class = 'column'><img src = 'uspos/1463.bmp' width = '100%;'></div><div class = 'column'><img src = 'category1/CS5.png' width = '70%;'></div></div>","null","pos","CS","CS","1","category1/CS5.png","","","","",""
"","html-keyboard-response","63","282980","0.0-6.0-4.0-0.15","kz986kafc8","one_one","1","direct_first","1","th07rt16","0","27","1","0","3","1","","0","1","0","null","","","<div class = 'row'><div class = 'column'><img src = 'uspos/5760.bmp' width = '100%;'></div><div class = 'column'><img src = 'category2/CS6.png' width = '70%;'></div></div>","null","pos","CS","CS","2","category2/CS6.png","","","","",""
"","html-keyboard-response","64","285505","0.0-6.0-4.0-0.16","kz986kafc8","one_one","1","direct_first","1","th07rt16","0","27","1","0","3","1","","0","1","0","null","","","<div class = 'row'><div class = 'column'><img src = 'category4/CS4.png' width = '70%;'></div><div class = 'column'><img src = 'usneg/7380.bmp' width = '100%;'></div></div>","null","neg","CS","CS","4","category4/CS4.png","","","","",""
"","html-keyboard-response","65","288035","0.0-6.0-4.0-0.17","kz986kafc8","one_one","1","direct_first","1","th07rt16","0","27","1","0","3","1","","0","1","0","null","","","<div class = 'row'><div class = 'column'><img src = 'category3/CS8.png' width = '70%;'></div><div class = 'column'><img src = 'usneg/9340.bmp' width = '100%;'></div></div>","null","neg","CS","CS","3","category3/CS8.png","","","","",""
"","html-keyboard-response","66","290564","0.0-6.0-4.0-0.18","kz986kafc8","one_one","1","direct_first","1","th07rt16","0","27","1","0","3","1","","0","1","0","null","","","<div class = 'row'><div class = 'column'><img src = 'usneg/7380.bmp' width = '100%;'></div><div class = 'column'><img src = 'category4/CS4.png' width = '70%;'></div></div>","null","neg","CS","CS","4","category4/CS4.png","","","","",""
"","html-keyboard-response","67","293095","0.0-6.0-4.0-0.19","kz986kafc8","one_one","1","direct_first","1","th07rt16","0","27","1","0","3","1","","0","1","0","null","","","<div class = 'row'><div class = 'column'><img src = 'uspos/1463.bmp' width = '100%;'></div><div class = 'column'><img src = 'category1/CS5.png' width = '70%;'></div></div>","null","pos","CS","CS","1","category1/CS5.png","","","","",""
"","survey-html-form","68","294969","0.0-6.0-5.0","kz986kafc8","one_one","1","direct_first","1","th07rt16","0","27","1","0","3","1","","0","1","0","1353","","{}","","","","","","","","","","","",""
"","html-keyboard-response","69","298985","0.0-6.0-6.0-0.0","kz986kafc8","one_one","1","direct_first","1","th07rt16","0","27","1","0","3","1","","0","1","0","null","","","<div class = 'row'><div class = 'column'><img src = 'category3/CS8.png' width = '70%;'></div><div class = 'column'><img src = 'usneg/9340.bmp' width = '100%;'></div></div>","null","neg","CS","CS","3","category3/CS8.png","","","","",""
"","html-keyboard-response","70","301514","0.0-6.0-6.0-0.1","kz986kafc8","one_one","1","direct_first","1","th07rt16","0","27","1","0","3","1","","0","1","0","null","","","<div class = 'row'><div class = 'column'><img src = 'category1/CS5.png' width = '70%;'></div><div class = 'column'><img src = 'uspos/1463.bmp' width = '100%;'></div></div>","null","pos","CS","CS","1","category1/CS5.png","","","","",""
"","html-keyboard-response","71","304045","0.0-6.0-6.0-0.2","kz986kafc8","one_one","1","direct_first","1","th07rt16","0","27","1","0","3","1","","0","1","0","null","","","<div class = 'row'><div class = 'column'><img src = 'category2/CS6.png' width = '70%;'></div><div class = 'column'><img src = 'uspos/5760.bmp' width = '100%;'></div></div>","null","pos","CS","CS","2","category2/CS6.png","","","","",""
"","html-keyboard-response","72","306575","0.0-6.0-6.0-0.3","kz986kafc8","one_one","1","direct_first","1","th07rt16","0","27","1","0","3","1","","0","1","0","null","","","<div class = 'row'><div class = 'column'><img src = 'category1/CS5.png' width = '70%;'></div><div class = 'column'><img src = 'uspos/1463.bmp' width = '100%;'></div></div>","null","pos","CS","CS","1","category1/CS5.png","","","","",""
"","html-keyboard-response","73","309115","0.0-6.0-6.0-0.4","kz986kafc8","one_one","1","direct_first","1","th07rt16","0","27","1","0","3","1","","0","1","0","null","","","<div class = 'row'><div class = 'column'><img src = 'uspos/5760.bmp' width = '100%;'></div><div class = 'column'><img src = 'category2/CS6.png' width = '70%;'></div></div>","null","pos","CS","CS","2","category2/CS6.png","","","","",""
"","html-keyboard-response","74","311645","0.0-6.0-6.0-0.5","kz986kafc8","one_one","1","direct_first","1","th07rt16","0","27","1","0","3","1","","0","1","0","null","","","<div class = 'row'><div class = 'column'><img src = 'category3/CS8.png' width = '70%;'></div><div class = 'column'><img src = 'usneg/9340.bmp' width = '100%;'></div></div>","null","neg","CS","CS","3","category3/CS8.png","","","","",""
"","html-keyboard-response","75","314185","0.0-6.0-6.0-0.6","kz986kafc8","one_one","1","direct_first","1","th07rt16","0","27","1","0","3","1","","0","1","0","null","","","<div class = 'row'><div class = 'column'><img src = 'category1/CS5.png' width = '70%;'></div><div class = 'column'><img src = 'uspos/1463.bmp' width = '100%;'></div></div>","null","pos","CS","CS","1","category1/CS5.png","","","","",""
"","html-keyboard-response","76","316715","0.0-6.0-6.0-0.7","kz986kafc8","one_one","1","direct_first","1","th07rt16","0","27","1","0","3","1","","0","1","0","null","","","<div class = 'row'><div class = 'column'><img src = 'category4/CS4.png' width = '70%;'></div><div class = 'column'><img src = 'usneg/7380.bmp' width = '100%;'></div></div>","null","neg","CS","CS","4","category4/CS4.png","","","","",""
"","html-keyboard-response","77","319245","0.0-6.0-6.0-0.8","kz986kafc8","one_one","1","direct_first","1","th07rt16","0","27","1","0","3","1","","0","1","0","null","","","<div class = 'row'><div class = 'column'><img src = 'usneg/9340.bmp' width = '100%;'></div><div class = 'column'><img src = 'category3/CS8.png' width = '70%;'></div></div>","null","neg","CS","CS","3","category3/CS8.png","","","","",""
"","html-keyboard-response","78","321765","0.0-6.0-6.0-0.9","kz986kafc8","one_one","1","direct_first","1","th07rt16","0","27","1","0","3","1","","0","1","0","null","","","<div class = 'row'><div class = 'column'><img src = 'usneg/7380.bmp' width = '100%;'></div><div class = 'column'><img src = 'category4/CS4.png' width = '70%;'></div></div>","null","neg","CS","CS","4","category4/CS4.png","","","","",""
"","html-keyboard-response","79","324305","0.0-6.0-6.0-0.10","kz986kafc8","one_one","1","direct_first","1","th07rt16","0","27","1","0","3","1","","0","1","0","null","","","<div class = 'row'><div class = 'column'><img src = 'uspos/1463.bmp' width = '100%;'></div><div class = 'column'><img src = 'category1/CS5.png' width = '70%;'></div></div>","null","pos","CS","CS","1","category1/CS5.png","","","","",""
"","html-keyboard-response","80","326835","0.0-6.0-6.0-0.11","kz986kafc8","one_one","1","direct_first","1","th07rt16","0","27","1","0","3","1","","0","1","0","null","","","<div class = 'row'><div class = 'column'><img src = 'uspos/5760.bmp' width = '100%;'></div><div class = 'column'><img src = 'category2/CS6.png' width = '70%;'></div></div>","null","pos","CS","CS","2","category2/CS6.png","","","","",""
"","html-keyboard-response","81","329356","0.0-6.0-6.0-0.12","kz986kafc8","one_one","1","direct_first","1","th07rt16","0","27","1","0","3","1","","0","1","0","null","","","<div class = 'row'><div class = 'column'><img src = 'category4/CS4.png' width = '70%;'></div><div class = 'column'><img src = 'usneg/7380.bmp' width = '100%;'></div></div>","null","neg","CS","CS","4","category4/CS4.png","","","","",""
"","html-keyboard-response","82","331874","0.0-6.0-6.0-0.13","kz986kafc8","one_one","1","direct_first","1","th07rt16","0","27","1","0","3","1","","0","1","0","null","","","<div class = 'row'><div class = 'column'><img src = 'category2/CS6.png' width = '70%;'></div><div class = 'column'><img src = 'uspos/5760.bmp' width = '100%;'></div></div>","null","pos","CS","CS","2","category2/CS6.png","","","","",""
"","html-keyboard-response","83","334386","0.0-6.0-6.0-0.14","kz986kafc8","one_one","1","direct_first","1","th07rt16","0","27","1","0","3","1","","0","1","0","null","","","<div class = 'row'><div class = 'column'><img src = 'category3/CS8.png' width = '70%;'></div><div class = 'column'><img src = 'usneg/9340.bmp' width = '100%;'></div></div>","null","neg","CS","CS","3","category3/CS8.png","","","","",""
"","html-keyboard-response","84","336905","0.0-6.0-6.0-0.15","kz986kafc8","one_one","1","direct_first","1","th07rt16","0","27","1","0","3","1","","0","1","0","null","","","<div class = 'row'><div class = 'column'><img src = 'usneg/7380.bmp' width = '100%;'></div><div class = 'column'><img src = 'category4/CS4.png' width = '70%;'></div></div>","null","neg","CS","CS","4","category4/CS4.png","","","","",""
"","html-keyboard-response","85","339425","0.0-6.0-6.0-0.16","kz986kafc8","one_one","1","direct_first","1","th07rt16","0","27","1","0","3","1","","0","1","0","null","","","<div class = 'row'><div class = 'column'><img src = 'uspos/1463.bmp' width = '100%;'></div><div class = 'column'><img src = 'category1/CS5.png' width = '70%;'></div></div>","null","pos","CS","CS","1","category1/CS5.png","","","","",""
"","html-keyboard-response","86","341964","0.0-6.0-6.0-0.17","kz986kafc8","one_one","1","direct_first","1","th07rt16","0","27","1","0","3","1","","0","1","0","null","","","<div class = 'row'><div class = 'column'><img src = 'category3/CS8.png' width = '70%;'></div><div class = 'column'><img src = 'usneg/9340.bmp' width = '100%;'></div></div>","null","neg","CS","CS","3","category3/CS8.png","","","","",""
"","html-keyboard-response","87","344484","0.0-6.0-6.0-0.18","kz986kafc8","one_one","1","direct_first","1","th07rt16","0","27","1","0","3","1","","0","1","0","null","","","<div class = 'row'><div class = 'column'><img src = 'usneg/7380.bmp' width = '100%;'></div><div class = 'column'><img src = 'category4/CS4.png' width = '70%;'></div></div>","null","neg","CS","CS","4","category4/CS4.png","","","","",""
"","html-keyboard-response","88","347005","0.0-6.0-6.0-0.19","kz986kafc8","one_one","1","direct_first","1","th07rt16","0","27","1","0","3","1","","0","1","0","null","","","<div class = 'row'><div class = 'column'><img src = 'uspos/5760.bmp' width = '100%;'></div><div class = 'column'><img src = 'category2/CS6.png' width = '70%;'></div></div>","null","pos","CS","CS","2","category2/CS6.png","","","","",""
"","survey-html-form","89","358587","0.0-7.0","kz986kafc8","one_one","1","direct_first","1","th07rt16","0","27","1","0","3","1","","0","1","0","11062","","{}","","","","","","","","","","","",""
"","image-slider-response","90","364625","0.0-8.0-0.0","kz986kafc8","one_one","1","direct_first","1","th07rt16","0","27","1","0","3","1","","0","1","0","4009","","","","","neg","GS","GSold","3","category3/CS5.png","-24","targets/29.png","direct","",""
"","image-slider-response","91","367733","0.0-8.0-0.1","kz986kafc8","one_one","1","direct_first","1","th07rt16","0","27","1","0","3","1","","0","1","0","3106","","","","","pos","GS","GSold","2","category2/CS8.png","32","targets/32.png","direct","",""
"","image-slider-response","92","370976","0.0-8.0-0.2","kz986kafc8","one_one","1","direct_first","1","th07rt16","0","27","1","0","3","1","","0","1","0","3241","","","","","neg","GS","GSold","4","category4/CS7.png","16","targets/46.png","direct","",""
"","image-slider-response","93","375017","0.0-8.0-0.3","kz986kafc8","one_one","1","direct_first","1","th07rt16","0","27","1","0","3","1","","0","1","0","4039","","","","","neg","GS","GSold","4","category4/CS10.png","66","targets/31.png","direct","",""
"","image-slider-response","94","378588","0.0-8.0-0.4","kz986kafc8","one_one","1","direct_first","1","th07rt16","0","27","1","0","3","1","","0","1","0","3567","","","","","pos","CS","CS","2","category2/CS6.png","97","targets/23.png","direct","",""
"","image-slider-response","95","382347","0.0-8.0-0.5","kz986kafc8","one_one","1","direct_first","1","th07rt16","0","27","1","0","3","1","","0","1","0","3756","","","","","neg","GS","GSnew","3","category3/GS1.png","-79","targets/9.png","direct","",""
"","image-slider-response","96","385532","0.0-8.0-0.6","kz986kafc8","one_one","1","direct_first","1","th07rt16","0","27","1","0","3","1","","0","1","0","3184","","","","","pos","GS","GSnew","2","category2/GS3.png","-13","targets/2.png","direct","",""
"","image-slider-response","97","389506","0.0-8.0-0.7","kz986kafc8","one_one","1","direct_first","1","th07rt16","0","27","1","0","3","1","","0","1","0","3973","","","","","neg","GS","GSnew","3","category3/GS2.png","25","targets/18.png","direct","",""
"","image-slider-response","98","394077","0.0-8.0-0.8","kz986kafc8","one_one","1","direct_first","1","th07rt16","0","27","1","0","3","1","","0","1","0","4567","","","","","neg","GS","GSold","4","category4/CS8.png","8","targets/26.png","direct","",""
"","image-slider-response","99","397148","0.0-8.0-0.9","kz986kafc8","one_one","1","direct_first","1","th07rt16","0","27","1","0","3","1","","0","1","0","3069","","","","","pos","GS","GSnew","2","category2/GS1.png","-16","targets/17.png","direct","",""
"","image-slider-response","100","400418","0.0-8.0-0.10","kz986kafc8","one_one","1","direct_first","1","th07rt16","0","27","1","0","3","1","","0","1","0","3266","","","","","neg","GS","abstract","3","category3/wang.png","-59","targets/21.png","direct","",""
"","image-slider-response","101","403768","0.0-8.0-0.11","kz986kafc8","one_one","1","direct_first","1","th07rt16","0","27","1","0","3","1","","0","1","0","3348","","","","","pos","GS","GSnew","1","category1/GS2.png","27","targets/13.png","direct","",""
"","image-slider-response","102","407098","0.0-8.0-0.12","kz986kafc8","one_one","1","direct_first","1","th07rt16","0","27","1","0","3","1","","0","1","0","3327","","","","","pos","GS","GSold","1","category1/CS2.png","14","targets/38.png","direct","",""
"","image-slider-response","103","410268","0.0-8.0-0.13","kz986kafc8","one_one","1","direct_first","1","th07rt16","0","27","1","0","3","1","","0","1","0","3167","","","","","neg","GS","GSold","3","category3/CS2.png","-21","targets/30.png","direct","",""
"","image-slider-response","104","413688","0.0-8.0-0.14","kz986kafc8","one_one","1","direct_first","1","th07rt16","0","27","1","0","3","1","","0","1","0","3417","","","","","pos","GS","GSold","1","category1/CS6.png","-4","targets/47.png","direct","",""
"","image-slider-response","105","417167","0.0-8.0-0.15","kz986kafc8","one_one","1","direct_first","1","th07rt16","0","27","1","0","3","1","","0","1","0","3478","","","","","pos","GS","GSold","1","category1/CS7.png","-32","targets/5.png","direct","",""
"","image-slider-response","106","420578","0.0-8.0-0.16","kz986kafc8","one_one","1","direct_first","1","th07rt16","0","27","1","0","3","1","","0","1","0","3408","","","","","neg","GS","GSnew","4","category4/GS1.png","79","targets/15.png","direct","",""
"","image-slider-response","107","423668","0.0-8.0-0.17","kz986kafc8","one_one","1","direct_first","1","th07rt16","0","27","1","0","3","1","","0","1","0","3087","","","","","neg","GS","GSnew","3","category3/GS3.png","-53","targets/33.png","direct","",""
"","image-slider-response","108","426949","0.0-8.0-0.18","kz986kafc8","one_one","1","direct_first","1","th07rt16","0","27","1","0","3","1","","0","1","0","3278","","","","","pos","GS","GSnew","2","category2/GS2.png","-14","targets/19.png","direct","",""
"","image-slider-response","109","430438","0.0-8.0-0.19","kz986kafc8","one_one","1","direct_first","1","th07rt16","0","27","1","0","3","1","","0","1","0","3486","","","","","pos","GS","GSold","2","category2/CS4.png","71","targets/20.png","direct","",""
"","image-slider-response","110","433738","0.0-8.0-0.20","kz986kafc8","one_one","1","direct_first","1","th07rt16","0","27","1","0","3","1","","0","1","0","3296","","","","","pos","GS","abstract","2","category2/men.png","80","targets/10.png","direct","",""
"","image-slider-response","111","437508","0.0-8.0-0.21","kz986kafc8","one_one","1","direct_first","1","th07rt16","0","27","1","0","3","1","","0","1","0","3766","","","","","neg","GS","GSold","3","category3/CS1.png","-15","targets/22.png","direct","",""
"","image-slider-response","112","441739","0.0-8.0-0.22","kz986kafc8","one_one","1","direct_first","1","th07rt16","0","27","1","0","3","1","","0","1","0","4227","","","","","pos","GS","abstract","1","category1/ma.png","-21","targets/24.png","direct","",""
"","image-slider-response","113","445048","0.0-8.0-0.23","kz986kafc8","one_one","1","direct_first","1","th07rt16","0","27","1","0","3","1","","0","1","0","3306","","","","","pos","GS","GSnew","1","category1/GS1.png","46","targets/28.png","direct","",""
"","image-slider-response","114","448619","0.0-8.0-0.24","kz986kafc8","one_one","1","direct_first","1","th07rt16","0","27","1","0","3","1","","0","1","0","3567","","","","","neg","GS","GSnew","4","category4/GS3.png","63","targets/7.png","direct","",""
"","image-slider-response","115","451558","0.0-8.0-0.25","kz986kafc8","one_one","1","direct_first","1","th07rt16","0","27","1","0","3","1","","0","1","0","2937","","","","","neg","GS","GSnew","4","category4/GS2.png","71","targets/45.png","direct","",""
"","image-slider-response","116","454788","0.0-8.0-0.26","kz986kafc8","one_one","1","direct_first","1","th07rt16","0","27","1","0","3","1","","0","1","0","3228","","","","","pos","CS","CS","1","category1/CS5.png","-18","targets/42.png","direct","",""
"","image-slider-response","117","459059","0.0-8.0-0.27","kz986kafc8","one_one","1","direct_first","1","th07rt16","0","27","1","0","3","1","","0","1","0","4267","","","","","pos","GS","GSnew","1","category1/GS3.png","16","targets/14.png","direct","",""
"","image-slider-response","118","462538","0.0-8.0-0.28","kz986kafc8","one_one","1","direct_first","1","th07rt16","0","27","1","0","3","1","","0","1","0","3478","","","","","neg","CS","CS","3","category3/CS8.png","-71","targets/37.png","direct","",""
"","image-slider-response","119","467628","0.0-8.0-0.29","kz986kafc8","one_one","1","direct_first","1","th07rt16","0","27","1","0","3","1","","0","1","0","5088","","","","","pos","GS","GSold","2","category2/CS3.png","27","targets/43.png","direct","",""
"","image-slider-response","120","471239","0.0-8.0-0.30","kz986kafc8","one_one","1","direct_first","1","th07rt16","0","27","1","0","3","1","","0","1","0","3608","","","","","neg","CS","CS","4","category4/CS4.png","87","targets/40.png","direct","",""
"","image-slider-response","121","474988","0.0-8.0-0.31","kz986kafc8","one_one","1","direct_first","1","th07rt16","0","27","1","0","3","1","","0","1","0","3747","","","","","neg","GS","abstract","4","category4/lin.png","52","targets/1.png","direct","",""
"","html-keyboard-response","122","509176","0.0-9.0","kz986kafc8","one_one","1","direct_first","1","th07rt16","0","27","1","0","3","1","","0","1","0","34184","","","<p>Sie sehen nun die chinesischen Zeichen nur ganz kurz. Danach sehen Sie die jeweilige Aussprache der Zeichen als Silbe auf dem Bildschrim. Ihre Aufgabe ist es, für jede Silbe anzugeben, ob diese etwas angenehmes, oder unangenehmes bedeuten könnte. Verlassen Sie sich hier vor allem auf Ihre Intuition.<br><br>Die Zeichen werden nur zur Orientierung dargestellt, beachten Sie sie deshalb nicht. Konzentrieren Sie sich vor allem auf die Silben. <br>Reagieren Sie mit folgenden zwei Tasten: <br><br><b>'D' </b> wenn die Silbe etwas <b>unangenehmes</b> bedeuten könnte. <br><b>'K'</b> wenn die Silbe etwas <b>angenehmes</b> bedeuten könnte. <br><br>Bitte legen Sie nun den Zeigefinger der linken Hand auf die Taste 'D' und den Zeigefinger der rechten Hand auf die Taste 'K'. <br>Reagieren Sie auf jede Silbe so schnell wie möglich. Uns interessiert Ihre spontane Reaktion. <br> <br> <br>Drücken Sie 'D' oder 'K', um die nächste Aufgabe zu starten. </p>","75","","","","","","","","","",""
"","html-keyboard-response","123","512206","0.0-10.0-0.0","kz986kafc8","one_one","1","direct_first","1","th07rt16","0","27","1","0","3","1","","0","1","0","null","","","<div style=""font-size:60px;"">+</div>","null","","","","","","","","","",""
"","html-keyboard-response","124","512306","0.0-10.0-1.0","kz986kafc8","one_one","1","direct_first","1","th07rt16","0","27","1","0","3","1","","0","1","0","null","","","<img src = 'category4/CS8.png' width = '100%;'>","null","","","","","","","","","",""
"","html-keyboard-response","125","512586","0.0-10.0-2.0","kz986kafc8","one_one","1","direct_first","1","th07rt16","0","27","1","0","3","1","","0","1","0","null","","","<img src = 'targets/26.png' width = '100%;'>","null","","","","","","","","","",""
"","html-keyboard-response","126","515757","0.0-10.0-3.0","kz986kafc8","one_one","1","direct_first","1","th07rt16","0","27","1","0","3","1","","0","1","0","3168","","","<img src = 'targets/mask.png' width = '100%;'>","68","neg","GS","GSold","4","category4/CS8.png","","targets/26.png","indirect","0","0"
"","html-keyboard-response","127","517266","0.0-10.0-0.1","kz986kafc8","one_one","1","direct_first","1","th07rt16","0","27","1","0","3","1","","0","1","0","null","","","<div style=""font-size:60px;"">+</div>","null","","","","","","","","","",""
"","html-keyboard-response","128","517366","0.0-10.0-1.1","kz986kafc8","one_one","1","direct_first","1","th07rt16","0","27","1","0","3","1","","0","1","0","null","","","<img src = 'category1/CS5.png' width = '100%;'>","null","","","","","","","","","",""
"","html-keyboard-response","129","517646","0.0-10.0-2.1","kz986kafc8","one_one","1","direct_first","1","th07rt16","0","27","1","0","3","1","","0","1","0","null","","","<img src = 'targets/42.png' width = '100%;'>","null","","","","","","","","","",""
"","html-keyboard-response","130","520703","0.0-10.0-3.1","kz986kafc8","one_one","1","direct_first","1","th07rt16","0","27","1","0","3","1","","0","1","0","3056","","","<img src = 'targets/mask.png' width = '100%;'>","75","pos","CS","CS","1","category1/CS5.png","","targets/42.png","indirect","1","1"
"","html-keyboard-response","131","522231","0.0-10.0-0.2","kz986kafc8","one_one","1","direct_first","1","th07rt16","0","27","1","0","3","1","","0","1","0","null","","","<div style=""font-size:60px;"">+</div>","null","","","","","","","","","",""
"","html-keyboard-response","132","522336","0.0-10.0-1.2","kz986kafc8","one_one","1","direct_first","1","th07rt16","0","27","1","0","3","1","","0","1","0","null","","","<img src = 'category1/CS7.png' width = '100%;'>","null","","","","","","","","","",""
"","html-keyboard-response","133","522616","0.0-10.0-2.2","kz986kafc8","one_one","1","direct_first","1","th07rt16","0","27","1","0","3","1","","0","1","0","null","","","<img src = 'targets/5.png' width = '100%;'>","null","","","","","","","","","",""
"","html-keyboard-response","134","523507","0.0-10.0-3.2","kz986kafc8","one_one","1","direct_first","1","th07rt16","0","27","1","0","3","1","","0","1","0","889","","","<img src = 'targets/mask.png' width = '100%;'>","75","pos","GS","GSold","1","category1/CS7.png","","targets/5.png","indirect","1","2"
"","html-keyboard-response","135","525026","0.0-10.0-0.3","kz986kafc8","one_one","1","direct_first","1","th07rt16","0","27","1","0","3","1","","0","1","0","null","","","<div style=""font-size:60px;"">+</div>","null","","","","","","","","","",""
"","html-keyboard-response","136","525126","0.0-10.0-1.3","kz986kafc8","one_one","1","direct_first","1","th07rt16","0","27","1","0","3","1","","0","1","0","null","","","<img src = 'category4/CS4.png' width = '100%;'>","null","","","","","","","","","",""
"","html-keyboard-response","137","525407","0.0-10.0-2.3","kz986kafc8","one_one","1","direct_first","1","th07rt16","0","27","1","0","3","1","","0","1","0","null","","","<img src = 'targets/40.png' width = '100%;'>","null","","","","","","","","","",""
"","html-keyboard-response","138","527025","0.0-10.0-3.3","kz986kafc8","one_one","1","direct_first","1","th07rt16","0","27","1","0","3","1","","0","1","0","1617","","","<img src = 'targets/mask.png' width = '100%;'>","75","neg","CS","CS","4","category4/CS4.png","","targets/40.png","indirect","1","3"
"","html-keyboard-response","139","528556","0.0-10.0-0.4","kz986kafc8","one_one","1","direct_first","1","th07rt16","0","27","1","0","3","1","","0","1","0","null","","","<div style=""font-size:60px;"">+</div>","null","","","","","","","","","",""
"","html-keyboard-response","140","528656","0.0-10.0-1.4","kz986kafc8","one_one","1","direct_first","1","th07rt16","0","27","1","0","3","1","","0","1","0","null","","","<img src = 'category3/CS1.png' width = '100%;'>","null","","","","","","","","","",""
"","html-keyboard-response","141","528936","0.0-10.0-2.4","kz986kafc8","one_one","1","direct_first","1","th07rt16","0","27","1","0","3","1","","0","1","0","null","","","<img src = 'targets/22.png' width = '100%;'>","null","","","","","","","","","",""
"","html-keyboard-response","142","529801","0.0-10.0-3.4","kz986kafc8","one_one","1","direct_first","1","th07rt16","0","27","1","0","3","1","","0","1","0","863","","","<img src = 'targets/mask.png' width = '100%;'>","75","neg","GS","GSold","3","category3/CS1.png","","targets/22.png","indirect","1","4"
"","html-keyboard-response","143","531327","0.0-10.0-0.5","kz986kafc8","one_one","1","direct_first","1","th07rt16","0","27","1","0","3","1","","0","1","0","null","","","<div style=""font-size:60px;"">+</div>","null","","","","","","","","","",""
"","html-keyboard-response","144","531427","0.0-10.0-1.5","kz986kafc8","one_one","1","direct_first","1","th07rt16","0","27","1","0","3","1","","0","1","0","null","","","<img src = 'category2/CS8.png' width = '100%;'>","null","","","","","","","","","",""
"","html-keyboard-response","145","531706","0.0-10.0-2.5","kz986kafc8","one_one","1","direct_first","1","th07rt16","0","27","1","0","3","1","","0","1","0","null","","","<img src = 'targets/32.png' width = '100%;'>","null","","","","","","","","","",""
"","html-keyboard-response","146","532629","0.0-10.0-3.5","kz986kafc8","one_one","1","direct_first","1","th07rt16","0","27","1","0","3","1","","0","1","0","922","","","<img src = 'targets/mask.png' width = '100%;'>","75","pos","GS","GSold","2","category2/CS8.png","","targets/32.png","indirect","1","5"
"","html-keyboard-response","147","534157","0.0-10.0-0.6","kz986kafc8","one_one","1","direct_first","1","th07rt16","0","27","1","0","3","1","","0","1","0","null","","","<div style=""font-size:60px;"">+</div>","null","","","","","","","","","",""
"","html-keyboard-response","148","534257","0.0-10.0-1.6","kz986kafc8","one_one","1","direct_first","1","th07rt16","0","27","1","0","3","1","","0","1","0","null","","","<img src = 'category3/CS5.png' width = '100%;'>","null","","","","","","","","","",""
"","html-keyboard-response","149","534537","0.0-10.0-2.6","kz986kafc8","one_one","1","direct_first","1","th07rt16","0","27","1","0","3","1","","0","1","0","null","","","<img src = 'targets/29.png' width = '100%;'>","null","","","","","","","","","",""
"","html-keyboard-response","150","535172","0.0-10.0-3.6","kz986kafc8","one_one","1","direct_first","1","th07rt16","0","27","1","0","3","1","","0","1","0","634","","","<img src = 'targets/mask.png' width = '100%;'>","68","neg","GS","GSold","3","category3/CS5.png","","targets/29.png","indirect","0","6"
"","html-keyboard-response","151","536687","0.0-10.0-0.7","kz986kafc8","one_one","1","direct_first","1","th07rt16","0","27","1","0","3","1","","0","1","0","null","","","<div style=""font-size:60px;"">+</div>","null","","","","","","","","","",""
"","html-keyboard-response","152","536787","0.0-10.0-1.7","kz986kafc8","one_one","1","direct_first","1","th07rt16","0","27","1","0","3","1","","0","1","0","null","","","<img src = 'category3/CS8.png' width = '100%;'>","null","","","","","","","","","",""
"","html-keyboard-response","153","537067","0.0-10.0-2.7","kz986kafc8","one_one","1","direct_first","1","th07rt16","0","27","1","0","3","1","","0","1","0","null","","","<img src = 'targets/37.png' width = '100%;'>","null","","","","","","","","","",""
"","html-keyboard-response","154","538226","0.0-10.0-3.7","kz986kafc8","one_one","1","direct_first","1","th07rt16","0","27","1","0","3","1","","0","1","0","1157","","","<img src = 'targets/mask.png' width = '100%;'>","68","neg","CS","CS","3","category3/CS8.png","","targets/37.png","indirect","0","7"
"","html-keyboard-response","155","539746","0.0-10.0-0.8","kz986kafc8","one_one","1","direct_first","1","th07rt16","0","27","1","0","3","1","","0","1","0","null","","","<div style=""font-size:60px;"">+</div>","null","","","","","","","","","",""
"","html-keyboard-response","156","539847","0.0-10.0-1.8","kz986kafc8","one_one","1","direct_first","1","th07rt16","0","27","1","0","3","1","","0","1","0","null","","","<img src = 'category1/CS6.png' width = '100%;'>","null","","","","","","","","","",""
"","html-keyboard-response","157","540127","0.0-10.0-2.8","kz986kafc8","one_one","1","direct_first","1","th07rt16","0","27","1","0","3","1","","0","1","0","null","","","<img src = 'targets/47.png' width = '100%;'>","null","","","","","","","","","",""
"","html-keyboard-response","158","540753","0.0-10.0-3.8","kz986kafc8","one_one","1","direct_first","1","th07rt16","0","27","1","0","3","1","","0","1","0","625","","","<img src = 'targets/mask.png' width = '100%;'>","75","pos","GS","GSold","1","category1/CS6.png","","targets/47.png","indirect","1","8"
"","html-keyboard-response","159","542287","0.0-10.0-0.9","kz986kafc8","one_one","1","direct_first","1","th07rt16","0","27","1","0","3","1","","0","1","0","null","","","<div style=""font-size:60px;"">+</div>","null","","","","","","","","","",""
"","html-keyboard-response","160","542386","0.0-10.0-1.9","kz986kafc8","one_one","1","direct_first","1","th07rt16","0","27","1","0","3","1","","0","1","0","null","","","<img src = 'category4/CS10.png' width = '100%;'>","null","","","","","","","","","",""
"","html-keyboard-response","161","542667","0.0-10.0-2.9","kz986kafc8","one_one","1","direct_first","1","th07rt16","0","27","1","0","3","1","","0","1","0","null","","","<img src = 'targets/31.png' width = '100%;'>","null","","","","","","","","","",""
"","html-keyboard-response","162","543527","0.0-10.0-3.9","kz986kafc8","one_one","1","direct_first","1","th07rt16","0","27","1","0","3","1","","0","1","0","858","","","<img src = 'targets/mask.png' width = '100%;'>","75","neg","GS","GSold","4","category4/CS10.png","","targets/31.png","indirect","1","9"
"","html-keyboard-response","163","545056","0.0-10.0-0.10","kz986kafc8","one_one","1","direct_first","1","th07rt16","0","27","1","0","3","1","","0","1","0","null","","","<div style=""font-size:60px;"">+</div>","null","","","","","","","","","",""
"","html-keyboard-response","164","545157","0.0-10.0-1.10","kz986kafc8","one_one","1","direct_first","1","th07rt16","0","27","1","0","3","1","","0","1","0","null","","","<img src = 'category3/CS2.png' width = '100%;'>","null","","","","","","","","","",""
"","html-keyboard-response","165","545437","0.0-10.0-2.10","kz986kafc8","one_one","1","direct_first","1","th07rt16","0","27","1","0","3","1","","0","1","0","null","","","<img src = 'targets/30.png' width = '100%;'>","null","","","","","","","","","",""
"","html-keyboard-response","166","545893","0.0-10.0-3.10","kz986kafc8","one_one","1","direct_first","1","th07rt16","0","27","1","0","3","1","","0","1","0","454","","","<img src = 'targets/mask.png' width = '100%;'>","68","neg","GS","GSold","3","category3/CS2.png","","targets/30.png","indirect","0","10"
"","html-keyboard-response","167","547416","0.0-10.0-0.11","kz986kafc8","one_one","1","direct_first","1","th07rt16","0","27","1","0","3","1","","0","1","0","null","","","<div style=""font-size:60px;"">+</div>","null","","","","","","","","","",""
"","html-keyboard-response","168","547517","0.0-10.0-1.11","kz986kafc8","one_one","1","direct_first","1","th07rt16","0","27","1","0","3","1","","0","1","0","null","","","<img src = 'category4/CS7.png' width = '100%;'>","null","","","","","","","","","",""
"","html-keyboard-response","169","547797","0.0-10.0-2.11","kz986kafc8","one_one","1","direct_first","1","th07rt16","0","27","1","0","3","1","","0","1","0","null","","","<img src = 'targets/46.png' width = '100%;'>","null","","","","","","","","","",""
"","html-keyboard-response","170","548749","0.0-10.0-3.11","kz986kafc8","one_one","1","direct_first","1","th07rt16","0","27","1","0","3","1","","0","1","0","951","","","<img src = 'targets/mask.png' width = '100%;'>","75","neg","GS","GSold","4","category4/CS7.png","","targets/46.png","indirect","1","11"
"","html-keyboard-response","171","550276","0.0-10.0-0.12","kz986kafc8","one_one","1","direct_first","1","th07rt16","0","27","1","0","3","1","","0","1","0","null","","","<div style=""font-size:60px;"">+</div>","null","","","","","","","","","",""
"","html-keyboard-response","172","550377","0.0-10.0-1.12","kz986kafc8","one_one","1","direct_first","1","th07rt16","0","27","1","0","3","1","","0","1","0","null","","","<img src = 'category2/CS3.png' width = '100%;'>","null","","","","","","","","","",""
"","html-keyboard-response","173","550657","0.0-10.0-2.12","kz986kafc8","one_one","1","direct_first","1","th07rt16","0","27","1","0","3","1","","0","1","0","null","","","<img src = 'targets/43.png' width = '100%;'>","null","","","","","","","","","",""
"","html-keyboard-response","174","552010","0.0-10.0-3.12","kz986kafc8","one_one","1","direct_first","1","th07rt16","0","27","1","0","3","1","","0","1","0","1352","","","<img src = 'targets/mask.png' width = '100%;'>","75","pos","GS","GSold","2","category2/CS3.png","","targets/43.png","indirect","1","12"
"","html-keyboard-response","175","553526","0.0-10.0-0.13","kz986kafc8","one_one","1","direct_first","1","th07rt16","0","27","1","0","3","1","","0","1","0","null","","","<div style=""font-size:60px;"">+</div>","null","","","","","","","","","",""
"","html-keyboard-response","176","553636","0.0-10.0-1.13","kz986kafc8","one_one","1","direct_first","1","th07rt16","0","27","1","0","3","1","","0","1","0","null","","","<img src = 'category2/CS6.png' width = '100%;'>","null","","","","","","","","","",""
"","html-keyboard-response","177","553916","0.0-10.0-2.13","kz986kafc8","one_one","1","direct_first","1","th07rt16","0","27","1","0","3","1","","0","1","0","null","","","<img src = 'targets/23.png' width = '100%;'>","null","","","","","","","","","",""
"","html-keyboard-response","178","555136","0.0-10.0-3.13","kz986kafc8","one_one","1","direct_first","1","th07rt16","0","27","1","0","3","1","","0","1","0","1218","","","<img src = 'targets/mask.png' width = '100%;'>","68","pos","CS","CS","2","category2/CS6.png","","targets/23.png","indirect","0","13"
"","html-keyboard-response","179","556667","0.0-10.0-0.14","kz986kafc8","one_one","1","direct_first","1","th07rt16","0","27","1","0","3","1","","0","1","0","null","","","<div style=""font-size:60px;"">+</div>","null","","","","","","","","","",""
"","html-keyboard-response","180","556767","0.0-10.0-1.14","kz986kafc8","one_one","1","direct_first","1","th07rt16","0","27","1","0","3","1","","0","1","0","null","","","<img src = 'category2/CS4.png' width = '100%;'>","null","","","","","","","","","",""
"","html-keyboard-response","181","557037","0.0-10.0-2.14","kz986kafc8","one_one","1","direct_first","1","th07rt16","0","27","1","0","3","1","","0","1","0","null","","","<img src = 'targets/20.png' width = '100%;'>","null","","","","","","","","","",""
"","html-keyboard-response","182","558050","0.0-10.0-3.14","kz986kafc8","one_one","1","direct_first","1","th07rt16","0","27","1","0","3","1","","0","1","0","1011","","","<img src = 'targets/mask.png' width = '100%;'>","75","pos","GS","GSold","2","category2/CS4.png","","targets/20.png","indirect","1","14"
"","html-keyboard-response","183","559567","0.0-10.0-0.15","kz986kafc8","one_one","1","direct_first","1","th07rt16","0","27","1","0","3","1","","0","1","0","null","","","<div style=""font-size:60px;"">+</div>","null","","","","","","","","","",""
"","html-keyboard-response","184","559667","0.0-10.0-1.15","kz986kafc8","one_one","1","direct_first","1","th07rt16","0","27","1","0","3","1","","0","1","0","null","","","<img src = 'category1/CS2.png' width = '100%;'>","null","","","","","","","","","",""
"","html-keyboard-response","185","559947","0.0-10.0-2.15","kz986kafc8","one_one","1","direct_first","1","th07rt16","0","27","1","0","3","1","","0","1","0","null","","","<img src = 'targets/38.png' width = '100%;'>","null","","","","","","","","","",""
"","html-keyboard-response","186","560852","0.0-10.0-3.15","kz986kafc8","one_one","1","direct_first","1","th07rt16","0","27","1","0","3","1","","0","1","0","903","","","<img src = 'targets/mask.png' width = '100%;'>","75","pos","GS","GSold","1","category1/CS2.png","","targets/38.png","indirect","1","15"
"","survey-html-form","187","564781","0.0-11.0","kz986kafc8","one_one","1","direct_first","1","th07rt16","0","27","1","0","3","1","","0","1","0","3414","","{}","","","","","","","","","","","",""
"","html-keyboard-response","188","567817","0.0-12.0-0.0","kz986kafc8","one_one","1","direct_first","1","th07rt16","0","27","1","0","3","1","","0","1","0","null","","","<div style=""font-size:60px;"">+</div>","null","","","","","","","","","",""
"","html-keyboard-response","189","567917","0.0-12.0-1.0","kz986kafc8","one_one","1","direct_first","1","th07rt16","0","27","1","0","3","1","","0","1","0","null","","","<img src = 'category1/GS3.png' width = '100%;'>","null","","","","","","","","","",""
"","html-keyboard-response","190","568197","0.0-12.0-2.0","kz986kafc8","one_one","1","direct_first","1","th07rt16","0","27","1","0","3","1","","0","1","0","null","","","<img src = 'targets/14.png' width = '100%;'>","null","","","","","","","","","",""
"","html-keyboard-response","191","568959","0.0-12.0-3.0","kz986kafc8","one_one","1","direct_first","1","th07rt16","0","27","1","0","3","1","","0","1","0","760","","","<img src = 'targets/mask.png' width = '100%;'>","75","pos","GS","GSnew","1","category1/GS3.png","","targets/14.png","indirect","1","16"
"","html-keyboard-response","192","570477","0.0-12.0-0.1","kz986kafc8","one_one","1","direct_first","1","th07rt16","0","27","1","0","3","1","","0","1","0","null","","","<div style=""font-size:60px;"">+</div>","null","","","","","","","","","",""
"","html-keyboard-response","193","570577","0.0-12.0-1.1","kz986kafc8","one_one","1","direct_first","1","th07rt16","0","27","1","0","3","1","","0","1","0","null","","","<img src = 'category4/GS2.png' width = '100%;'>","null","","","","","","","","","",""
"","html-keyboard-response","194","570857","0.0-12.0-2.1","kz986kafc8","one_one","1","direct_first","1","th07rt16","0","27","1","0","3","1","","0","1","0","null","","","<img src = 'targets/45.png' width = '100%;'>","null","","","","","","","","","",""
"","html-keyboard-response","195","571634","0.0-12.0-3.1","kz986kafc8","one_one","1","direct_first","1","th07rt16","0","27","1","0","3","1","","0","1","0","776","","","<img src = 'targets/mask.png' width = '100%;'>","75","neg","GS","GSnew","4","category4/GS2.png","","targets/45.png","indirect","1","17"
"","html-keyboard-response","196","573146","0.0-12.0-0.2","kz986kafc8","one_one","1","direct_first","1","th07rt16","0","27","1","0","3","1","","0","1","0","null","","","<div style=""font-size:60px;"">+</div>","null","","","","","","","","","",""
"","html-keyboard-response","197","573242","0.0-12.0-1.2","kz986kafc8","one_one","1","direct_first","1","th07rt16","0","27","1","0","3","1","","0","1","0","null","","","<img src = 'category2/GS1.png' width = '100%;'>","null","","","","","","","","","",""
"","html-keyboard-response","198","573517","0.0-12.0-2.2","kz986kafc8","one_one","1","direct_first","1","th07rt16","0","27","1","0","3","1","","0","1","0","null","","","<img src = 'targets/17.png' width = '100%;'>","null","","","","","","","","","",""
"","html-keyboard-response","199","574432","0.0-12.0-3.2","kz986kafc8","one_one","1","direct_first","1","th07rt16","0","27","1","0","3","1","","0","1","0","913","","","<img src = 'targets/mask.png' width = '100%;'>","75","pos","GS","GSnew","2","category2/GS1.png","","targets/17.png","indirect","1","18"
"","html-keyboard-response","200","575947","0.0-12.0-0.3","kz986kafc8","one_one","1","direct_first","1","th07rt16","0","27","1","0","3","1","","0","1","0","null","","","<div style=""font-size:60px;"">+</div>","null","","","","","","","","","",""
"","html-keyboard-response","201","576046","0.0-12.0-1.3","kz986kafc8","one_one","1","direct_first","1","th07rt16","0","27","1","0","3","1","","0","1","0","null","","","<img src = 'category4/GS1.png' width = '100%;'>","null","","","","","","","","","",""
"","html-keyboard-response","202","576327","0.0-12.0-2.3","kz986kafc8","one_one","1","direct_first","1","th07rt16","0","27","1","0","3","1","","0","1","0","null","","","<img src = 'targets/15.png' width = '100%;'>","null","","","","","","","","","",""
"","html-keyboard-response","203","577070","0.0-12.0-3.3","kz986kafc8","one_one","1","direct_first","1","th07rt16","0","27","1","0","3","1","","0","1","0","741","","","<img src = 'targets/mask.png' width = '100%;'>","75","neg","GS","GSnew","4","category4/GS1.png","","targets/15.png","indirect","1","19"
"","html-keyboard-response","204","578606","0.0-12.0-0.4","kz986kafc8","one_one","1","direct_first","1","th07rt16","0","27","1","0","3","1","","0","1","0","null","","","<div style=""font-size:60px;"">+</div>","null","","","","","","","","","",""
"","html-keyboard-response","205","578706","0.0-12.0-1.4","kz986kafc8","one_one","1","direct_first","1","th07rt16","0","27","1","0","3","1","","0","1","0","null","","","<img src = 'category3/GS3.png' width = '100%;'>","null","","","","","","","","","",""
"","html-keyboard-response","206","578977","0.0-12.0-2.4","kz986kafc8","one_one","1","direct_first","1","th07rt16","0","27","1","0","3","1","","0","1","0","null","","","<img src = 'targets/33.png' width = '100%;'>","null","","","","","","","","","",""
"","html-keyboard-response","207","579535","0.0-12.0-3.4","kz986kafc8","one_one","1","direct_first","1","th07rt16","0","27","1","0","3","1","","0","1","0","558","","","<img src = 'targets/mask.png' width = '100%;'>","68","neg","GS","GSnew","3","category3/GS3.png","","targets/33.png","indirect","0","20"
"","html-keyboard-response","208","581067","0.0-12.0-0.5","kz986kafc8","one_one","1","direct_first","1","th07rt16","0","27","1","0","3","1","","0","1","0","null","","","<div style=""font-size:60px;"">+</div>","null","","","","","","","","","",""
"","html-keyboard-response","209","581167","0.0-12.0-1.5","kz986kafc8","one_one","1","direct_first","1","th07rt16","0","27","1","0","3","1","","0","1","0","null","","","<img src = 'category4/lin.png' width = '100%;'>","null","","","","","","","","","",""
"","html-keyboard-response","210","581447","0.0-12.0-2.5","kz986kafc8","one_one","1","direct_first","1","th07rt16","0","27","1","0","3","1","","0","1","0","null","","","<img src = 'targets/1.png' width = '100%;'>","null","","","","","","","","","",""
"","html-keyboard-response","211","582038","0.0-12.0-3.5","kz986kafc8","one_one","1","direct_first","1","th07rt16","0","27","1","0","3","1","","0","1","0","589","","","<img src = 'targets/mask.png' width = '100%;'>","68","neg","GS","abstract","4","category4/lin.png","","targets/1.png","indirect","0","21"
"","html-keyboard-response","212","583567","0.0-12.0-0.6","kz986kafc8","one_one","1","direct_first","1","th07rt16","0","27","1","0","3","1","","0","1","0","null","","","<div style=""font-size:60px;"">+</div>","null","","","","","","","","","",""
"","html-keyboard-response","213","583667","0.0-12.0-1.6","kz986kafc8","one_one","1","direct_first","1","th07rt16","0","27","1","0","3","1","","0","1","0","null","","","<img src = 'category2/GS2.png' width = '100%;'>","null","","","","","","","","","",""
"","html-keyboard-response","214","583936","0.0-12.0-2.6","kz986kafc8","one_one","1","direct_first","1","th07rt16","0","27","1","0","3","1","","0","1","0","null","","","<img src = 'targets/19.png' width = '100%;'>","null","","","","","","","","","",""
"","html-keyboard-response","215","584800","0.0-12.0-3.6","kz986kafc8","one_one","1","direct_first","1","th07rt16","0","27","1","0","3","1","","0","1","0","861","","","<img src = 'targets/mask.png' width = '100%;'>","75","pos","GS","GSnew","2","category2/GS2.png","","targets/19.png","indirect","1","22"
"","html-keyboard-response","216","586317","0.0-12.0-0.7","kz986kafc8","one_one","1","direct_first","1","th07rt16","0","27","1","0","3","1","","0","1","0","null","","","<div style=""font-size:60px;"">+</div>","null","","","","","","","","","",""
"","html-keyboard-response","217","586417","0.0-12.0-1.7","kz986kafc8","one_one","1","direct_first","1","th07rt16","0","27","1","0","3","1","","0","1","0","null","","","<img src = 'category1/GS1.png' width = '100%;'>","null","","","","","","","","","",""
"","html-keyboard-response","218","586697","0.0-12.0-2.7","kz986kafc8","one_one","1","direct_first","1","th07rt16","0","27","1","0","3","1","","0","1","0","null","","","<img src = 'targets/28.png' width = '100%;'>","null","","","","","","","","","",""
"","html-keyboard-response","219","587664","0.0-12.0-3.7","kz986kafc8","one_one","1","direct_first","1","th07rt16","0","27","1","0","3","1","","0","1","0","964","","","<img src = 'targets/mask.png' width = '100%;'>","68","pos","GS","GSnew","1","category1/GS1.png","","targets/28.png","indirect","0","23"
"","html-keyboard-response","220","589197","0.0-12.0-0.8","kz986kafc8","one_one","1","direct_first","1","th07rt16","0","27","1","0","3","1","","0","1","0","null","","","<div style=""font-size:60px;"">+</div>","null","","","","","","","","","",""
"","html-keyboard-response","221","589297","0.0-12.0-1.8","kz986kafc8","one_one","1","direct_first","1","th07rt16","0","27","1","0","3","1","","0","1","0","null","","","<img src = 'category1/GS2.png' width = '100%;'>","null","","","","","","","","","",""
"","html-keyboard-response","222","589576","0.0-12.0-2.8","kz986kafc8","one_one","1","direct_first","1","th07rt16","0","27","1","0","3","1","","0","1","0","null","","","<img src = 'targets/13.png' width = '100%;'>","null","","","","","","","","","",""
"","html-keyboard-response","223","590246","0.0-12.0-3.8","kz986kafc8","one_one","1","direct_first","1","th07rt16","0","27","1","0","3","1","","0","1","0","668","","","<img src = 'targets/mask.png' width = '100%;'>","75","pos","GS","GSnew","1","category1/GS2.png","","targets/13.png","indirect","1","24"
"","html-keyboard-response","224","591778","0.0-12.0-0.9","kz986kafc8","one_one","1","direct_first","1","th07rt16","0","27","1","0","3","1","","0","1","0","null","","","<div style=""font-size:60px;"">+</div>","null","","","","","","","","","",""
"","html-keyboard-response","225","591887","0.0-12.0-1.9","kz986kafc8","one_one","1","direct_first","1","th07rt16","0","27","1","0","3","1","","0","1","0","null","","","<img src = 'category3/GS2.png' width = '100%;'>","null","","","","","","","","","",""
"","html-keyboard-response","226","592166","0.0-12.0-2.9","kz986kafc8","one_one","1","direct_first","1","th07rt16","0","27","1","0","3","1","","0","1","0","null","","","<img src = 'targets/18.png' width = '100%;'>","null","","","","","","","","","",""
"","html-keyboard-response","227","593100","0.0-12.0-3.9","kz986kafc8","one_one","1","direct_first","1","th07rt16","0","27","1","0","3","1","","0","1","0","933","","","<img src = 'targets/mask.png' width = '100%;'>","68","neg","GS","GSnew","3","category3/GS2.png","","targets/18.png","indirect","0","25"
"","html-keyboard-response","228","594617","0.0-12.0-0.10","kz986kafc8","one_one","1","direct_first","1","th07rt16","0","27","1","0","3","1","","0","1","0","null","","","<div style=""font-size:60px;"">+</div>","null","","","","","","","","","",""
"","html-keyboard-response","229","594717","0.0-12.0-1.10","kz986kafc8","one_one","1","direct_first","1","th07rt16","0","27","1","0","3","1","","0","1","0","null","","","<img src = 'category4/GS3.png' width = '100%;'>","null","","","","","","","","","",""
"","html-keyboard-response","230","594996","0.0-12.0-2.10","kz986kafc8","one_one","1","direct_first","1","th07rt16","0","27","1","0","3","1","","0","1","0","null","","","<img src = 'targets/7.png' width = '100%;'>","null","","","","","","","","","",""
"","html-keyboard-response","231","595774","0.0-12.0-3.10","kz986kafc8","one_one","1","direct_first","1","th07rt16","0","27","1","0","3","1","","0","1","0","776","","","<img src = 'targets/mask.png' width = '100%;'>","68","neg","GS","GSnew","4","category4/GS3.png","","targets/7.png","indirect","0","26"
"","html-keyboard-response","232","597297","0.0-12.0-0.11","kz986kafc8","one_one","1","direct_first","1","th07rt16","0","27","1","0","3","1","","0","1","0","null","","","<div style=""font-size:60px;"">+</div>","null","","","","","","","","","",""
"","html-keyboard-response","233","597397","0.0-12.0-1.11","kz986kafc8","one_one","1","direct_first","1","th07rt16","0","27","1","0","3","1","","0","1","0","null","","","<img src = 'category2/GS3.png' width = '100%;'>","null","","","","","","","","","",""
"","html-keyboard-response","234","597677","0.0-12.0-2.11","kz986kafc8","one_one","1","direct_first","1","th07rt16","0","27","1","0","3","1","","0","1","0","null","","","<img src = 'targets/2.png' width = '100%;'>","null","","","","","","","","","",""
"","html-keyboard-response","235","598566","0.0-12.0-3.11","kz986kafc8","one_one","1","direct_first","1","th07rt16","0","27","1","0","3","1","","0","1","0","888","","","<img src = 'targets/mask.png' width = '100%;'>","68","pos","GS","GSnew","2","category2/GS3.png","","targets/2.png","indirect","0","27"
"","html-keyboard-response","236","600085","0.0-12.0-0.12","kz986kafc8","one_one","1","direct_first","1","th07rt16","0","27","1","0","3","1","","0","1","0","null","","","<div style=""font-size:60px;"">+</div>","null","","","","","","","","","",""
"","html-keyboard-response","237","600185","0.0-12.0-1.12","kz986kafc8","one_one","1","direct_first","1","th07rt16","0","27","1","0","3","1","","0","1","0","null","","","<img src = 'category2/men.png' width = '100%;'>","null","","","","","","","","","",""
"","html-keyboard-response","238","600467","0.0-12.0-2.12","kz986kafc8","one_one","1","direct_first","1","th07rt16","0","27","1","0","3","1","","0","1","0","null","","","<img src = 'targets/10.png' width = '100%;'>","null","","","","","","","","","",""
"","html-keyboard-response","239","601367","0.0-12.0-3.12","kz986kafc8","one_one","1","direct_first","1","th07rt16","0","27","1","0","3","1","","0","1","0","899","","","<img src = 'targets/mask.png' width = '100%;'>","75","pos","GS","abstract","2","category2/men.png","","targets/10.png","indirect","1","28"
"","html-keyboard-response","240","602897","0.0-12.0-0.13","kz986kafc8","one_one","1","direct_first","1","th07rt16","0","27","1","0","3","1","","0","1","0","null","","","<div style=""font-size:60px;"">+</div>","null","","","","","","","","","",""
"","html-keyboard-response","241","602997","0.0-12.0-1.13","kz986kafc8","one_one","1","direct_first","1","th07rt16","0","27","1","0","3","1","","0","1","0","null","","","<img src = 'category1/ma.png' width = '100%;'>","null","","","","","","","","","",""
"","html-keyboard-response","242","603278","0.0-12.0-2.13","kz986kafc8","one_one","1","direct_first","1","th07rt16","0","27","1","0","3","1","","0","1","0","null","","","<img src = 'targets/24.png' width = '100%;'>","null","","","","","","","","","",""
"","html-keyboard-response","243","604139","0.0-12.0-3.13","kz986kafc8","one_one","1","direct_first","1","th07rt16","0","27","1","0","3","1","","0","1","0","861","","","<img src = 'targets/mask.png' width = '100%;'>","75","pos","GS","abstract","1","category1/ma.png","","targets/24.png","indirect","1","29"
"","html-keyboard-response","244","605657","0.0-12.0-0.14","kz986kafc8","one_one","1","direct_first","1","th07rt16","0","27","1","0","3","1","","0","1","0","null","","","<div style=""font-size:60px;"">+</div>","null","","","","","","","","","",""
"","html-keyboard-response","245","605757","0.0-12.0-1.14","kz986kafc8","one_one","1","direct_first","1","th07rt16","0","27","1","0","3","1","","0","1","0","null","","","<img src = 'category3/wang.png' width = '100%;'>","null","","","","","","","","","",""
"","html-keyboard-response","246","606037","0.0-12.0-2.14","kz986kafc8","one_one","1","direct_first","1","th07rt16","0","27","1","0","3","1","","0","1","0","null","","","<img src = 'targets/21.png' width = '100%;'>","null","","","","","","","","","",""
"","html-keyboard-response","247","606738","0.0-12.0-3.14","kz986kafc8","one_one","1","direct_first","1","th07rt16","0","27","1","0","3","1","","0","1","0","700","","","<img src = 'targets/mask.png' width = '100%;'>","68","neg","GS","abstract","3","category3/wang.png","","targets/21.png","indirect","0","30"
"","html-keyboard-response","248","608277","0.0-12.0-0.15","kz986kafc8","one_one","1","direct_first","1","th07rt16","0","27","1","0","3","1","","0","1","0","null","","","<div style=""font-size:60px;"">+</div>","null","","","","","","","","","",""
"","html-keyboard-response","249","608377","0.0-12.0-1.15","kz986kafc8","one_one","1","direct_first","1","th07rt16","0","27","1","0","3","1","","0","1","0","null","","","<img src = 'category3/GS1.png' width = '100%;'>","null","","","","","","","","","",""
"","html-keyboard-response","250","608657","0.0-12.0-2.15","kz986kafc8","one_one","1","direct_first","1","th07rt16","0","27","1","0","3","1","","0","1","0","null","","","<img src = 'targets/9.png' width = '100%;'>","null","","","","","","","","","",""
"","html-keyboard-response","251","609541","0.0-12.0-3.15","kz986kafc8","one_one","1","direct_first","1","th07rt16","0","27","1","0","3","1","","0","1","0","882","","","<img src = 'targets/mask.png' width = '100%;'>","68","neg","GS","GSnew","3","category3/GS1.png","","targets/9.png","indirect","0","31"
"","survey-html-form","252","618261","0.0-13.0","kz986kafc8","one_one","1","direct_first","1","th07rt16","0","27","1","0","3","1","","0","1","0","8213","","{}","","","","","","","","","","","",""
"","image-slider-response","253","623589","0.0-14.0-0.0","kz986kafc8","one_one","1","direct_first","1","th07rt16","0","27","1","0","3","1","","0","1","0","4319","","","","","pos","All","all","1","category1/ma_all.png","-28","","all","",""
"","image-slider-response","254","626669","0.0-14.0-0.1","kz986kafc8","one_one","1","direct_first","1","th07rt16","0","27","1","0","3","1","","0","1","0","3078","","","","","neg","All","all","3","category3/wang_all.png","-70","","all","",""
"","image-slider-response","255","630379","0.0-14.0-0.2","kz986kafc8","one_one","1","direct_first","1","th07rt16","0","27","1","0","3","1","","0","1","0","3708","","","","","pos","All","all","2","category2/men_all.png","89","","all","",""
"","image-slider-response","256","634559","0.0-14.0-0.3","kz986kafc8","one_one","1","direct_first","1","th07rt16","0","27","1","0","3","1","","0","1","0","4177","","","","","neg","All","all","4","category4/lin_all.png","40","","all","",""
"","survey-text","257","642411","0.0-15.0","kz986kafc8","one_one","1","direct_first","1","th07rt16","0","27","1","0","3","1","","0","1","0","7806","","{""comment"":""""}","","","","","","","","","","","",""
"","survey-html-form","258","658622","0.0-16.0","kz986kafc8","one_one","1","direct_first","1","th07rt16","0","27","1","0","3","1","","0","1","0","16208","","{""hinschauen"":""0"",""ablenkung"":""1"",""gewissenhaft"":""0""}","","","","","","","","","","","",""
