"success","trial_type","trial_index","time_elapsed","internal_node_id","subject","condition","condition_code","measure","measure_code","codeword","gender","age","education","chinese","fach","handedness","comment","hinschauen","ablenkung","gewissenhaft","rt","url","responses","stimulus","key_press","val","type","type_specific","category","cs_selected","response","target","task","indirect","nr_pres"
"true","fullscreen","0","10665","0.0-0.0","afk443k6ql","one_one","1","direct_first","1","er10as24","0","24","1","0","3","1","Ich habe an der Uni mal ein Jahr Chinesisch Unterricht gehabt. Ist schon 3 jahre her, sodass ich kaum noch was kann. 
Schon gar keine Zeichen, aber die bei der Lautsprache kam mir manches wage bekannt vor.","0","1","0","","","","","","","","","","","","","","",""
"","external-html","1","43197","0.0-1.0","afk443k6ql","one_one","1","direct_first","1","er10as24","0","24","1","0","3","1","Ich habe an der Uni mal ein Jahr Chinesisch Unterricht gehabt. Ist schon 3 jahre her, sodass ich kaum noch was kann. 
Schon gar keine Zeichen, aber die bei der Lautsprache kam mir manches wage bekannt vor.","0","1","0","32383","text/information.html","","","","","","","","","","","","",""
"","external-html","2","61736","0.0-2.0","afk443k6ql","one_one","1","direct_first","1","er10as24","0","24","1","0","3","1","Ich habe an der Uni mal ein Jahr Chinesisch Unterricht gehabt. Ist schon 3 jahre her, sodass ich kaum noch was kann. 
Schon gar keine Zeichen, aber die bei der Lautsprache kam mir manches wage bekannt vor.","0","1","0","18410","text/consent.html","","","","","","","","","","","","",""
"","survey-html-form","3","143323","0.0-3.0","afk443k6ql","one_one","1","direct_first","1","er10as24","0","24","1","0","3","1","Ich habe an der Uni mal ein Jahr Chinesisch Unterricht gehabt. Ist schon 3 jahre her, sodass ich kaum noch was kann. 
Schon gar keine Zeichen, aber die bei der Lautsprache kam mir manches wage bekannt vor.","0","1","0","81573","","{""codeword_enter"":""er10as24""}","","","","","","","","","","","",""
"","survey-html-form","4","160960","0.0-4.0","afk443k6ql","one_one","1","direct_first","1","er10as24","0","24","1","0","3","1","Ich habe an der Uni mal ein Jahr Chinesisch Unterricht gehabt. Ist schon 3 jahre her, sodass ich kaum noch was kann. 
Schon gar keine Zeichen, aber die bei der Lautsprache kam mir manches wage bekannt vor.","0","1","0","17633","","{""age"":""24"",""education"":""1"",""subject"":""3"",""gender"":""0"",""handedness"":""1"",""chinese"":""0""}","","","","","","","","","","","",""
"","survey-html-form","5","168851","0.0-5.0","afk443k6ql","one_one","1","direct_first","1","er10as24","0","24","1","0","3","1","Ich habe an der Uni mal ein Jahr Chinesisch Unterricht gehabt. Ist schon 3 jahre her, sodass ich kaum noch was kann. 
Schon gar keine Zeichen, aber die bei der Lautsprache kam mir manches wage bekannt vor.","0","1","0","7890","","{}","","","","","","","","","","","",""
"","html-keyboard-response","6","172858","0.0-6.0-0.0-0.0","afk443k6ql","one_one","1","direct_first","1","er10as24","0","24","1","0","3","1","Ich habe an der Uni mal ein Jahr Chinesisch Unterricht gehabt. Ist schon 3 jahre her, sodass ich kaum noch was kann. 
Schon gar keine Zeichen, aber die bei der Lautsprache kam mir manches wage bekannt vor.","0","1","0","null","","","<div class = 'row'><div class = 'column'><img src = 'category3/CS7.png' width = '70%;'></div><div class = 'column'><img src = 'usneg/7380.bmp' width = '100%;'></div></div>","null","neg","CS","CS","3","category3/CS7.png","","","","",""
"","html-keyboard-response","7","175369","0.0-6.0-0.0-0.1","afk443k6ql","one_one","1","direct_first","1","er10as24","0","24","1","0","3","1","Ich habe an der Uni mal ein Jahr Chinesisch Unterricht gehabt. Ist schon 3 jahre her, sodass ich kaum noch was kann. 
Schon gar keine Zeichen, aber die bei der Lautsprache kam mir manches wage bekannt vor.","0","1","0","null","","","<div class = 'row'><div class = 'column'><img src = 'category4/CS2.png' width = '70%;'></div><div class = 'column'><img src = 'uspos/8190.bmp' width = '100%;'></div></div>","null","pos","CS","CS","4","category4/CS2.png","","","","",""
"","html-keyboard-response","8","177877","0.0-6.0-0.0-0.2","afk443k6ql","one_one","1","direct_first","1","er10as24","0","24","1","0","3","1","Ich habe an der Uni mal ein Jahr Chinesisch Unterricht gehabt. Ist schon 3 jahre her, sodass ich kaum noch was kann. 
Schon gar keine Zeichen, aber die bei der Lautsprache kam mir manches wage bekannt vor.","0","1","0","null","","","<div class = 'row'><div class = 'column'><img src = 'category1/CS1.png' width = '70%;'></div><div class = 'column'><img src = 'usneg/9404.bmp' width = '100%;'></div></div>","null","neg","CS","CS","1","category1/CS1.png","","","","",""
"","html-keyboard-response","9","180387","0.0-6.0-0.0-0.3","afk443k6ql","one_one","1","direct_first","1","er10as24","0","24","1","0","3","1","Ich habe an der Uni mal ein Jahr Chinesisch Unterricht gehabt. Ist schon 3 jahre her, sodass ich kaum noch was kann. 
Schon gar keine Zeichen, aber die bei der Lautsprache kam mir manches wage bekannt vor.","0","1","0","null","","","<div class = 'row'><div class = 'column'><img src = 'uspos/8190.bmp' width = '100%;'></div><div class = 'column'><img src = 'category4/CS2.png' width = '70%;'></div></div>","null","pos","CS","CS","4","category4/CS2.png","","","","",""
"","html-keyboard-response","10","182897","0.0-6.0-0.0-0.4","afk443k6ql","one_one","1","direct_first","1","er10as24","0","24","1","0","3","1","Ich habe an der Uni mal ein Jahr Chinesisch Unterricht gehabt. Ist schon 3 jahre her, sodass ich kaum noch was kann. 
Schon gar keine Zeichen, aber die bei der Lautsprache kam mir manches wage bekannt vor.","0","1","0","null","","","<div class = 'row'><div class = 'column'><img src = 'category1/CS1.png' width = '70%;'></div><div class = 'column'><img src = 'usneg/9404.bmp' width = '100%;'></div></div>","null","neg","CS","CS","1","category1/CS1.png","","","","",""
"","html-keyboard-response","11","185409","0.0-6.0-0.0-0.5","afk443k6ql","one_one","1","direct_first","1","er10as24","0","24","1","0","3","1","Ich habe an der Uni mal ein Jahr Chinesisch Unterricht gehabt. Ist schon 3 jahre her, sodass ich kaum noch was kann. 
Schon gar keine Zeichen, aber die bei der Lautsprache kam mir manches wage bekannt vor.","0","1","0","null","","","<div class = 'row'><div class = 'column'><img src = 'category2/CS4.png' width = '70%;'></div><div class = 'column'><img src = 'uspos/5621.bmp' width = '100%;'></div></div>","null","pos","CS","CS","2","category2/CS4.png","","","","",""
"","html-keyboard-response","12","187917","0.0-6.0-0.0-0.6","afk443k6ql","one_one","1","direct_first","1","er10as24","0","24","1","0","3","1","Ich habe an der Uni mal ein Jahr Chinesisch Unterricht gehabt. Ist schon 3 jahre her, sodass ich kaum noch was kann. 
Schon gar keine Zeichen, aber die bei der Lautsprache kam mir manches wage bekannt vor.","0","1","0","null","","","<div class = 'row'><div class = 'column'><img src = 'category3/CS7.png' width = '70%;'></div><div class = 'column'><img src = 'usneg/7380.bmp' width = '100%;'></div></div>","null","neg","CS","CS","3","category3/CS7.png","","","","",""
"","html-keyboard-response","13","190420","0.0-6.0-0.0-0.7","afk443k6ql","one_one","1","direct_first","1","er10as24","0","24","1","0","3","1","Ich habe an der Uni mal ein Jahr Chinesisch Unterricht gehabt. Ist schon 3 jahre her, sodass ich kaum noch was kann. 
Schon gar keine Zeichen, aber die bei der Lautsprache kam mir manches wage bekannt vor.","0","1","0","null","","","<div class = 'row'><div class = 'column'><img src = 'category1/CS1.png' width = '70%;'></div><div class = 'column'><img src = 'usneg/9404.bmp' width = '100%;'></div></div>","null","neg","CS","CS","1","category1/CS1.png","","","","",""
"","html-keyboard-response","14","192928","0.0-6.0-0.0-0.8","afk443k6ql","one_one","1","direct_first","1","er10as24","0","24","1","0","3","1","Ich habe an der Uni mal ein Jahr Chinesisch Unterricht gehabt. Ist schon 3 jahre her, sodass ich kaum noch was kann. 
Schon gar keine Zeichen, aber die bei der Lautsprache kam mir manches wage bekannt vor.","0","1","0","null","","","<div class = 'row'><div class = 'column'><img src = 'category3/CS7.png' width = '70%;'></div><div class = 'column'><img src = 'usneg/7380.bmp' width = '100%;'></div></div>","null","neg","CS","CS","3","category3/CS7.png","","","","",""
"","html-keyboard-response","15","195436","0.0-6.0-0.0-0.9","afk443k6ql","one_one","1","direct_first","1","er10as24","0","24","1","0","3","1","Ich habe an der Uni mal ein Jahr Chinesisch Unterricht gehabt. Ist schon 3 jahre her, sodass ich kaum noch was kann. 
Schon gar keine Zeichen, aber die bei der Lautsprache kam mir manches wage bekannt vor.","0","1","0","null","","","<div class = 'row'><div class = 'column'><img src = 'uspos/5621.bmp' width = '100%;'></div><div class = 'column'><img src = 'category2/CS4.png' width = '70%;'></div></div>","null","pos","CS","CS","2","category2/CS4.png","","","","",""
"","html-keyboard-response","16","197944","0.0-6.0-0.0-0.10","afk443k6ql","one_one","1","direct_first","1","er10as24","0","24","1","0","3","1","Ich habe an der Uni mal ein Jahr Chinesisch Unterricht gehabt. Ist schon 3 jahre her, sodass ich kaum noch was kann. 
Schon gar keine Zeichen, aber die bei der Lautsprache kam mir manches wage bekannt vor.","0","1","0","null","","","<div class = 'row'><div class = 'column'><img src = 'category1/CS1.png' width = '70%;'></div><div class = 'column'><img src = 'usneg/9404.bmp' width = '100%;'></div></div>","null","neg","CS","CS","1","category1/CS1.png","","","","",""
"","html-keyboard-response","17","200456","0.0-6.0-0.0-0.11","afk443k6ql","one_one","1","direct_first","1","er10as24","0","24","1","0","3","1","Ich habe an der Uni mal ein Jahr Chinesisch Unterricht gehabt. Ist schon 3 jahre her, sodass ich kaum noch was kann. 
Schon gar keine Zeichen, aber die bei der Lautsprache kam mir manches wage bekannt vor.","0","1","0","null","","","<div class = 'row'><div class = 'column'><img src = 'uspos/5621.bmp' width = '100%;'></div><div class = 'column'><img src = 'category2/CS4.png' width = '70%;'></div></div>","null","pos","CS","CS","2","category2/CS4.png","","","","",""
"","html-keyboard-response","18","202966","0.0-6.0-0.0-0.12","afk443k6ql","one_one","1","direct_first","1","er10as24","0","24","1","0","3","1","Ich habe an der Uni mal ein Jahr Chinesisch Unterricht gehabt. Ist schon 3 jahre her, sodass ich kaum noch was kann. 
Schon gar keine Zeichen, aber die bei der Lautsprache kam mir manches wage bekannt vor.","0","1","0","null","","","<div class = 'row'><div class = 'column'><img src = 'usneg/7380.bmp' width = '100%;'></div><div class = 'column'><img src = 'category3/CS7.png' width = '70%;'></div></div>","null","neg","CS","CS","3","category3/CS7.png","","","","",""
"","html-keyboard-response","19","205473","0.0-6.0-0.0-0.13","afk443k6ql","one_one","1","direct_first","1","er10as24","0","24","1","0","3","1","Ich habe an der Uni mal ein Jahr Chinesisch Unterricht gehabt. Ist schon 3 jahre her, sodass ich kaum noch was kann. 
Schon gar keine Zeichen, aber die bei der Lautsprache kam mir manches wage bekannt vor.","0","1","0","null","","","<div class = 'row'><div class = 'column'><img src = 'uspos/8190.bmp' width = '100%;'></div><div class = 'column'><img src = 'category4/CS2.png' width = '70%;'></div></div>","null","pos","CS","CS","4","category4/CS2.png","","","","",""
"","html-keyboard-response","20","207982","0.0-6.0-0.0-0.14","afk443k6ql","one_one","1","direct_first","1","er10as24","0","24","1","0","3","1","Ich habe an der Uni mal ein Jahr Chinesisch Unterricht gehabt. Ist schon 3 jahre her, sodass ich kaum noch was kann. 
Schon gar keine Zeichen, aber die bei der Lautsprache kam mir manches wage bekannt vor.","0","1","0","null","","","<div class = 'row'><div class = 'column'><img src = 'usneg/7380.bmp' width = '100%;'></div><div class = 'column'><img src = 'category3/CS7.png' width = '70%;'></div></div>","null","neg","CS","CS","3","category3/CS7.png","","","","",""
"","html-keyboard-response","21","210489","0.0-6.0-0.0-0.15","afk443k6ql","one_one","1","direct_first","1","er10as24","0","24","1","0","3","1","Ich habe an der Uni mal ein Jahr Chinesisch Unterricht gehabt. Ist schon 3 jahre her, sodass ich kaum noch was kann. 
Schon gar keine Zeichen, aber die bei der Lautsprache kam mir manches wage bekannt vor.","0","1","0","null","","","<div class = 'row'><div class = 'column'><img src = 'uspos/8190.bmp' width = '100%;'></div><div class = 'column'><img src = 'category4/CS2.png' width = '70%;'></div></div>","null","pos","CS","CS","4","category4/CS2.png","","","","",""
"","html-keyboard-response","22","212996","0.0-6.0-0.0-0.16","afk443k6ql","one_one","1","direct_first","1","er10as24","0","24","1","0","3","1","Ich habe an der Uni mal ein Jahr Chinesisch Unterricht gehabt. Ist schon 3 jahre her, sodass ich kaum noch was kann. 
Schon gar keine Zeichen, aber die bei der Lautsprache kam mir manches wage bekannt vor.","0","1","0","null","","","<div class = 'row'><div class = 'column'><img src = 'uspos/5621.bmp' width = '100%;'></div><div class = 'column'><img src = 'category2/CS4.png' width = '70%;'></div></div>","null","pos","CS","CS","2","category2/CS4.png","","","","",""
"","html-keyboard-response","23","215504","0.0-6.0-0.0-0.17","afk443k6ql","one_one","1","direct_first","1","er10as24","0","24","1","0","3","1","Ich habe an der Uni mal ein Jahr Chinesisch Unterricht gehabt. Ist schon 3 jahre her, sodass ich kaum noch was kann. 
Schon gar keine Zeichen, aber die bei der Lautsprache kam mir manches wage bekannt vor.","0","1","0","null","","","<div class = 'row'><div class = 'column'><img src = 'usneg/9404.bmp' width = '100%;'></div><div class = 'column'><img src = 'category1/CS1.png' width = '70%;'></div></div>","null","neg","CS","CS","1","category1/CS1.png","","","","",""
"","html-keyboard-response","24","218012","0.0-6.0-0.0-0.18","afk443k6ql","one_one","1","direct_first","1","er10as24","0","24","1","0","3","1","Ich habe an der Uni mal ein Jahr Chinesisch Unterricht gehabt. Ist schon 3 jahre her, sodass ich kaum noch was kann. 
Schon gar keine Zeichen, aber die bei der Lautsprache kam mir manches wage bekannt vor.","0","1","0","null","","","<div class = 'row'><div class = 'column'><img src = 'uspos/5621.bmp' width = '100%;'></div><div class = 'column'><img src = 'category2/CS4.png' width = '70%;'></div></div>","null","pos","CS","CS","2","category2/CS4.png","","","","",""
"","html-keyboard-response","25","220519","0.0-6.0-0.0-0.19","afk443k6ql","one_one","1","direct_first","1","er10as24","0","24","1","0","3","1","Ich habe an der Uni mal ein Jahr Chinesisch Unterricht gehabt. Ist schon 3 jahre her, sodass ich kaum noch was kann. 
Schon gar keine Zeichen, aber die bei der Lautsprache kam mir manches wage bekannt vor.","0","1","0","null","","","<div class = 'row'><div class = 'column'><img src = 'category4/CS2.png' width = '70%;'></div><div class = 'column'><img src = 'uspos/8190.bmp' width = '100%;'></div></div>","null","pos","CS","CS","4","category4/CS2.png","","","","",""
"","survey-html-form","26","222866","0.0-6.0-1.0","afk443k6ql","one_one","1","direct_first","1","er10as24","0","24","1","0","3","1","Ich habe an der Uni mal ein Jahr Chinesisch Unterricht gehabt. Ist schon 3 jahre her, sodass ich kaum noch was kann. 
Schon gar keine Zeichen, aber die bei der Lautsprache kam mir manches wage bekannt vor.","0","1","0","1842","","{}","","","","","","","","","","","",""
"","html-keyboard-response","27","226870","0.0-6.0-2.0-0.0","afk443k6ql","one_one","1","direct_first","1","er10as24","0","24","1","0","3","1","Ich habe an der Uni mal ein Jahr Chinesisch Unterricht gehabt. Ist schon 3 jahre her, sodass ich kaum noch was kann. 
Schon gar keine Zeichen, aber die bei der Lautsprache kam mir manches wage bekannt vor.","0","1","0","null","","","<div class = 'row'><div class = 'column'><img src = 'category3/CS7.png' width = '70%;'></div><div class = 'column'><img src = 'usneg/7380.bmp' width = '100%;'></div></div>","null","neg","CS","CS","3","category3/CS7.png","","","","",""
"","html-keyboard-response","28","229379","0.0-6.0-2.0-0.1","afk443k6ql","one_one","1","direct_first","1","er10as24","0","24","1","0","3","1","Ich habe an der Uni mal ein Jahr Chinesisch Unterricht gehabt. Ist schon 3 jahre her, sodass ich kaum noch was kann. 
Schon gar keine Zeichen, aber die bei der Lautsprache kam mir manches wage bekannt vor.","0","1","0","null","","","<div class = 'row'><div class = 'column'><img src = 'usneg/9404.bmp' width = '100%;'></div><div class = 'column'><img src = 'category1/CS1.png' width = '70%;'></div></div>","null","neg","CS","CS","1","category1/CS1.png","","","","",""
"","html-keyboard-response","29","231884","0.0-6.0-2.0-0.2","afk443k6ql","one_one","1","direct_first","1","er10as24","0","24","1","0","3","1","Ich habe an der Uni mal ein Jahr Chinesisch Unterricht gehabt. Ist schon 3 jahre her, sodass ich kaum noch was kann. 
Schon gar keine Zeichen, aber die bei der Lautsprache kam mir manches wage bekannt vor.","0","1","0","null","","","<div class = 'row'><div class = 'column'><img src = 'usneg/7380.bmp' width = '100%;'></div><div class = 'column'><img src = 'category3/CS7.png' width = '70%;'></div></div>","null","neg","CS","CS","3","category3/CS7.png","","","","",""
"","html-keyboard-response","30","234393","0.0-6.0-2.0-0.3","afk443k6ql","one_one","1","direct_first","1","er10as24","0","24","1","0","3","1","Ich habe an der Uni mal ein Jahr Chinesisch Unterricht gehabt. Ist schon 3 jahre her, sodass ich kaum noch was kann. 
Schon gar keine Zeichen, aber die bei der Lautsprache kam mir manches wage bekannt vor.","0","1","0","null","","","<div class = 'row'><div class = 'column'><img src = 'category2/CS4.png' width = '70%;'></div><div class = 'column'><img src = 'uspos/5621.bmp' width = '100%;'></div></div>","null","pos","CS","CS","2","category2/CS4.png","","","","",""
"","html-keyboard-response","31","236897","0.0-6.0-2.0-0.4","afk443k6ql","one_one","1","direct_first","1","er10as24","0","24","1","0","3","1","Ich habe an der Uni mal ein Jahr Chinesisch Unterricht gehabt. Ist schon 3 jahre her, sodass ich kaum noch was kann. 
Schon gar keine Zeichen, aber die bei der Lautsprache kam mir manches wage bekannt vor.","0","1","0","null","","","<div class = 'row'><div class = 'column'><img src = 'uspos/8190.bmp' width = '100%;'></div><div class = 'column'><img src = 'category4/CS2.png' width = '70%;'></div></div>","null","pos","CS","CS","4","category4/CS2.png","","","","",""
"","html-keyboard-response","32","239406","0.0-6.0-2.0-0.5","afk443k6ql","one_one","1","direct_first","1","er10as24","0","24","1","0","3","1","Ich habe an der Uni mal ein Jahr Chinesisch Unterricht gehabt. Ist schon 3 jahre her, sodass ich kaum noch was kann. 
Schon gar keine Zeichen, aber die bei der Lautsprache kam mir manches wage bekannt vor.","0","1","0","null","","","<div class = 'row'><div class = 'column'><img src = 'category2/CS4.png' width = '70%;'></div><div class = 'column'><img src = 'uspos/5621.bmp' width = '100%;'></div></div>","null","pos","CS","CS","2","category2/CS4.png","","","","",""
"","html-keyboard-response","33","241912","0.0-6.0-2.0-0.6","afk443k6ql","one_one","1","direct_first","1","er10as24","0","24","1","0","3","1","Ich habe an der Uni mal ein Jahr Chinesisch Unterricht gehabt. Ist schon 3 jahre her, sodass ich kaum noch was kann. 
Schon gar keine Zeichen, aber die bei der Lautsprache kam mir manches wage bekannt vor.","0","1","0","null","","","<div class = 'row'><div class = 'column'><img src = 'category4/CS2.png' width = '70%;'></div><div class = 'column'><img src = 'uspos/8190.bmp' width = '100%;'></div></div>","null","pos","CS","CS","4","category4/CS2.png","","","","",""
"","html-keyboard-response","34","244416","0.0-6.0-2.0-0.7","afk443k6ql","one_one","1","direct_first","1","er10as24","0","24","1","0","3","1","Ich habe an der Uni mal ein Jahr Chinesisch Unterricht gehabt. Ist schon 3 jahre her, sodass ich kaum noch was kann. 
Schon gar keine Zeichen, aber die bei der Lautsprache kam mir manches wage bekannt vor.","0","1","0","null","","","<div class = 'row'><div class = 'column'><img src = 'usneg/9404.bmp' width = '100%;'></div><div class = 'column'><img src = 'category1/CS1.png' width = '70%;'></div></div>","null","neg","CS","CS","1","category1/CS1.png","","","","",""
"","html-keyboard-response","35","246918","0.0-6.0-2.0-0.8","afk443k6ql","one_one","1","direct_first","1","er10as24","0","24","1","0","3","1","Ich habe an der Uni mal ein Jahr Chinesisch Unterricht gehabt. Ist schon 3 jahre her, sodass ich kaum noch was kann. 
Schon gar keine Zeichen, aber die bei der Lautsprache kam mir manches wage bekannt vor.","0","1","0","null","","","<div class = 'row'><div class = 'column'><img src = 'uspos/5621.bmp' width = '100%;'></div><div class = 'column'><img src = 'category2/CS4.png' width = '70%;'></div></div>","null","pos","CS","CS","2","category2/CS4.png","","","","",""
"","html-keyboard-response","36","249426","0.0-6.0-2.0-0.9","afk443k6ql","one_one","1","direct_first","1","er10as24","0","24","1","0","3","1","Ich habe an der Uni mal ein Jahr Chinesisch Unterricht gehabt. Ist schon 3 jahre her, sodass ich kaum noch was kann. 
Schon gar keine Zeichen, aber die bei der Lautsprache kam mir manches wage bekannt vor.","0","1","0","null","","","<div class = 'row'><div class = 'column'><img src = 'category4/CS2.png' width = '70%;'></div><div class = 'column'><img src = 'uspos/8190.bmp' width = '100%;'></div></div>","null","pos","CS","CS","4","category4/CS2.png","","","","",""
"","html-keyboard-response","37","251935","0.0-6.0-2.0-0.10","afk443k6ql","one_one","1","direct_first","1","er10as24","0","24","1","0","3","1","Ich habe an der Uni mal ein Jahr Chinesisch Unterricht gehabt. Ist schon 3 jahre her, sodass ich kaum noch was kann. 
Schon gar keine Zeichen, aber die bei der Lautsprache kam mir manches wage bekannt vor.","0","1","0","null","","","<div class = 'row'><div class = 'column'><img src = 'category1/CS1.png' width = '70%;'></div><div class = 'column'><img src = 'usneg/9404.bmp' width = '100%;'></div></div>","null","neg","CS","CS","1","category1/CS1.png","","","","",""
"","html-keyboard-response","38","254448","0.0-6.0-2.0-0.11","afk443k6ql","one_one","1","direct_first","1","er10as24","0","24","1","0","3","1","Ich habe an der Uni mal ein Jahr Chinesisch Unterricht gehabt. Ist schon 3 jahre her, sodass ich kaum noch was kann. 
Schon gar keine Zeichen, aber die bei der Lautsprache kam mir manches wage bekannt vor.","0","1","0","null","","","<div class = 'row'><div class = 'column'><img src = 'category2/CS4.png' width = '70%;'></div><div class = 'column'><img src = 'uspos/5621.bmp' width = '100%;'></div></div>","null","pos","CS","CS","2","category2/CS4.png","","","","",""
"","html-keyboard-response","39","256953","0.0-6.0-2.0-0.12","afk443k6ql","one_one","1","direct_first","1","er10as24","0","24","1","0","3","1","Ich habe an der Uni mal ein Jahr Chinesisch Unterricht gehabt. Ist schon 3 jahre her, sodass ich kaum noch was kann. 
Schon gar keine Zeichen, aber die bei der Lautsprache kam mir manches wage bekannt vor.","0","1","0","null","","","<div class = 'row'><div class = 'column'><img src = 'category1/CS1.png' width = '70%;'></div><div class = 'column'><img src = 'usneg/9404.bmp' width = '100%;'></div></div>","null","neg","CS","CS","1","category1/CS1.png","","","","",""
"","html-keyboard-response","40","259459","0.0-6.0-2.0-0.13","afk443k6ql","one_one","1","direct_first","1","er10as24","0","24","1","0","3","1","Ich habe an der Uni mal ein Jahr Chinesisch Unterricht gehabt. Ist schon 3 jahre her, sodass ich kaum noch was kann. 
Schon gar keine Zeichen, aber die bei der Lautsprache kam mir manches wage bekannt vor.","0","1","0","null","","","<div class = 'row'><div class = 'column'><img src = 'category3/CS7.png' width = '70%;'></div><div class = 'column'><img src = 'usneg/7380.bmp' width = '100%;'></div></div>","null","neg","CS","CS","3","category3/CS7.png","","","","",""
"","html-keyboard-response","41","261966","0.0-6.0-2.0-0.14","afk443k6ql","one_one","1","direct_first","1","er10as24","0","24","1","0","3","1","Ich habe an der Uni mal ein Jahr Chinesisch Unterricht gehabt. Ist schon 3 jahre her, sodass ich kaum noch was kann. 
Schon gar keine Zeichen, aber die bei der Lautsprache kam mir manches wage bekannt vor.","0","1","0","null","","","<div class = 'row'><div class = 'column'><img src = 'category2/CS4.png' width = '70%;'></div><div class = 'column'><img src = 'uspos/5621.bmp' width = '100%;'></div></div>","null","pos","CS","CS","2","category2/CS4.png","","","","",""
"","html-keyboard-response","42","264474","0.0-6.0-2.0-0.15","afk443k6ql","one_one","1","direct_first","1","er10as24","0","24","1","0","3","1","Ich habe an der Uni mal ein Jahr Chinesisch Unterricht gehabt. Ist schon 3 jahre her, sodass ich kaum noch was kann. 
Schon gar keine Zeichen, aber die bei der Lautsprache kam mir manches wage bekannt vor.","0","1","0","null","","","<div class = 'row'><div class = 'column'><img src = 'uspos/8190.bmp' width = '100%;'></div><div class = 'column'><img src = 'category4/CS2.png' width = '70%;'></div></div>","null","pos","CS","CS","4","category4/CS2.png","","","","",""
"","html-keyboard-response","43","266981","0.0-6.0-2.0-0.16","afk443k6ql","one_one","1","direct_first","1","er10as24","0","24","1","0","3","1","Ich habe an der Uni mal ein Jahr Chinesisch Unterricht gehabt. Ist schon 3 jahre her, sodass ich kaum noch was kann. 
Schon gar keine Zeichen, aber die bei der Lautsprache kam mir manches wage bekannt vor.","0","1","0","null","","","<div class = 'row'><div class = 'column'><img src = 'category1/CS1.png' width = '70%;'></div><div class = 'column'><img src = 'usneg/9404.bmp' width = '100%;'></div></div>","null","neg","CS","CS","1","category1/CS1.png","","","","",""
"","html-keyboard-response","44","269489","0.0-6.0-2.0-0.17","afk443k6ql","one_one","1","direct_first","1","er10as24","0","24","1","0","3","1","Ich habe an der Uni mal ein Jahr Chinesisch Unterricht gehabt. Ist schon 3 jahre her, sodass ich kaum noch was kann. 
Schon gar keine Zeichen, aber die bei der Lautsprache kam mir manches wage bekannt vor.","0","1","0","null","","","<div class = 'row'><div class = 'column'><img src = 'usneg/7380.bmp' width = '100%;'></div><div class = 'column'><img src = 'category3/CS7.png' width = '70%;'></div></div>","null","neg","CS","CS","3","category3/CS7.png","","","","",""
"","html-keyboard-response","45","271997","0.0-6.0-2.0-0.18","afk443k6ql","one_one","1","direct_first","1","er10as24","0","24","1","0","3","1","Ich habe an der Uni mal ein Jahr Chinesisch Unterricht gehabt. Ist schon 3 jahre her, sodass ich kaum noch was kann. 
Schon gar keine Zeichen, aber die bei der Lautsprache kam mir manches wage bekannt vor.","0","1","0","null","","","<div class = 'row'><div class = 'column'><img src = 'uspos/8190.bmp' width = '100%;'></div><div class = 'column'><img src = 'category4/CS2.png' width = '70%;'></div></div>","null","pos","CS","CS","4","category4/CS2.png","","","","",""
"","html-keyboard-response","46","274510","0.0-6.0-2.0-0.19","afk443k6ql","one_one","1","direct_first","1","er10as24","0","24","1","0","3","1","Ich habe an der Uni mal ein Jahr Chinesisch Unterricht gehabt. Ist schon 3 jahre her, sodass ich kaum noch was kann. 
Schon gar keine Zeichen, aber die bei der Lautsprache kam mir manches wage bekannt vor.","0","1","0","null","","","<div class = 'row'><div class = 'column'><img src = 'category3/CS7.png' width = '70%;'></div><div class = 'column'><img src = 'usneg/7380.bmp' width = '100%;'></div></div>","null","neg","CS","CS","3","category3/CS7.png","","","","",""
"","survey-html-form","47","302168","0.0-6.0-3.0","afk443k6ql","one_one","1","direct_first","1","er10as24","0","24","1","0","3","1","Ich habe an der Uni mal ein Jahr Chinesisch Unterricht gehabt. Ist schon 3 jahre her, sodass ich kaum noch was kann. 
Schon gar keine Zeichen, aber die bei der Lautsprache kam mir manches wage bekannt vor.","0","1","0","27157","","{}","","","","","","","","","","","",""
"","html-keyboard-response","48","306174","0.0-6.0-4.0-0.0","afk443k6ql","one_one","1","direct_first","1","er10as24","0","24","1","0","3","1","Ich habe an der Uni mal ein Jahr Chinesisch Unterricht gehabt. Ist schon 3 jahre her, sodass ich kaum noch was kann. 
Schon gar keine Zeichen, aber die bei der Lautsprache kam mir manches wage bekannt vor.","0","1","0","null","","","<div class = 'row'><div class = 'column'><img src = 'category4/CS2.png' width = '70%;'></div><div class = 'column'><img src = 'uspos/8190.bmp' width = '100%;'></div></div>","null","pos","CS","CS","4","category4/CS2.png","","","","",""
"","html-keyboard-response","49","308681","0.0-6.0-4.0-0.1","afk443k6ql","one_one","1","direct_first","1","er10as24","0","24","1","0","3","1","Ich habe an der Uni mal ein Jahr Chinesisch Unterricht gehabt. Ist schon 3 jahre her, sodass ich kaum noch was kann. 
Schon gar keine Zeichen, aber die bei der Lautsprache kam mir manches wage bekannt vor.","0","1","0","null","","","<div class = 'row'><div class = 'column'><img src = 'category2/CS4.png' width = '70%;'></div><div class = 'column'><img src = 'uspos/5621.bmp' width = '100%;'></div></div>","null","pos","CS","CS","2","category2/CS4.png","","","","",""
"","html-keyboard-response","50","311189","0.0-6.0-4.0-0.2","afk443k6ql","one_one","1","direct_first","1","er10as24","0","24","1","0","3","1","Ich habe an der Uni mal ein Jahr Chinesisch Unterricht gehabt. Ist schon 3 jahre her, sodass ich kaum noch was kann. 
Schon gar keine Zeichen, aber die bei der Lautsprache kam mir manches wage bekannt vor.","0","1","0","null","","","<div class = 'row'><div class = 'column'><img src = 'category1/CS1.png' width = '70%;'></div><div class = 'column'><img src = 'usneg/9404.bmp' width = '100%;'></div></div>","null","neg","CS","CS","1","category1/CS1.png","","","","",""
"","html-keyboard-response","51","313696","0.0-6.0-4.0-0.3","afk443k6ql","one_one","1","direct_first","1","er10as24","0","24","1","0","3","1","Ich habe an der Uni mal ein Jahr Chinesisch Unterricht gehabt. Ist schon 3 jahre her, sodass ich kaum noch was kann. 
Schon gar keine Zeichen, aber die bei der Lautsprache kam mir manches wage bekannt vor.","0","1","0","null","","","<div class = 'row'><div class = 'column'><img src = 'category3/CS7.png' width = '70%;'></div><div class = 'column'><img src = 'usneg/7380.bmp' width = '100%;'></div></div>","null","neg","CS","CS","3","category3/CS7.png","","","","",""
"","html-keyboard-response","52","316206","0.0-6.0-4.0-0.4","afk443k6ql","one_one","1","direct_first","1","er10as24","0","24","1","0","3","1","Ich habe an der Uni mal ein Jahr Chinesisch Unterricht gehabt. Ist schon 3 jahre her, sodass ich kaum noch was kann. 
Schon gar keine Zeichen, aber die bei der Lautsprache kam mir manches wage bekannt vor.","0","1","0","null","","","<div class = 'row'><div class = 'column'><img src = 'category1/CS1.png' width = '70%;'></div><div class = 'column'><img src = 'usneg/9404.bmp' width = '100%;'></div></div>","null","neg","CS","CS","1","category1/CS1.png","","","","",""
"","html-keyboard-response","53","318716","0.0-6.0-4.0-0.5","afk443k6ql","one_one","1","direct_first","1","er10as24","0","24","1","0","3","1","Ich habe an der Uni mal ein Jahr Chinesisch Unterricht gehabt. Ist schon 3 jahre her, sodass ich kaum noch was kann. 
Schon gar keine Zeichen, aber die bei der Lautsprache kam mir manches wage bekannt vor.","0","1","0","null","","","<div class = 'row'><div class = 'column'><img src = 'category2/CS4.png' width = '70%;'></div><div class = 'column'><img src = 'uspos/5621.bmp' width = '100%;'></div></div>","null","pos","CS","CS","2","category2/CS4.png","","","","",""
"","html-keyboard-response","54","321222","0.0-6.0-4.0-0.6","afk443k6ql","one_one","1","direct_first","1","er10as24","0","24","1","0","3","1","Ich habe an der Uni mal ein Jahr Chinesisch Unterricht gehabt. Ist schon 3 jahre her, sodass ich kaum noch was kann. 
Schon gar keine Zeichen, aber die bei der Lautsprache kam mir manches wage bekannt vor.","0","1","0","null","","","<div class = 'row'><div class = 'column'><img src = 'usneg/9404.bmp' width = '100%;'></div><div class = 'column'><img src = 'category1/CS1.png' width = '70%;'></div></div>","null","neg","CS","CS","1","category1/CS1.png","","","","",""
"","html-keyboard-response","55","323730","0.0-6.0-4.0-0.7","afk443k6ql","one_one","1","direct_first","1","er10as24","0","24","1","0","3","1","Ich habe an der Uni mal ein Jahr Chinesisch Unterricht gehabt. Ist schon 3 jahre her, sodass ich kaum noch was kann. 
Schon gar keine Zeichen, aber die bei der Lautsprache kam mir manches wage bekannt vor.","0","1","0","null","","","<div class = 'row'><div class = 'column'><img src = 'usneg/7380.bmp' width = '100%;'></div><div class = 'column'><img src = 'category3/CS7.png' width = '70%;'></div></div>","null","neg","CS","CS","3","category3/CS7.png","","","","",""
"","html-keyboard-response","56","326237","0.0-6.0-4.0-0.8","afk443k6ql","one_one","1","direct_first","1","er10as24","0","24","1","0","3","1","Ich habe an der Uni mal ein Jahr Chinesisch Unterricht gehabt. Ist schon 3 jahre her, sodass ich kaum noch was kann. 
Schon gar keine Zeichen, aber die bei der Lautsprache kam mir manches wage bekannt vor.","0","1","0","null","","","<div class = 'row'><div class = 'column'><img src = 'uspos/8190.bmp' width = '100%;'></div><div class = 'column'><img src = 'category4/CS2.png' width = '70%;'></div></div>","null","pos","CS","CS","4","category4/CS2.png","","","","",""
"","html-keyboard-response","57","328746","0.0-6.0-4.0-0.9","afk443k6ql","one_one","1","direct_first","1","er10as24","0","24","1","0","3","1","Ich habe an der Uni mal ein Jahr Chinesisch Unterricht gehabt. Ist schon 3 jahre her, sodass ich kaum noch was kann. 
Schon gar keine Zeichen, aber die bei der Lautsprache kam mir manches wage bekannt vor.","0","1","0","null","","","<div class = 'row'><div class = 'column'><img src = 'category3/CS7.png' width = '70%;'></div><div class = 'column'><img src = 'usneg/7380.bmp' width = '100%;'></div></div>","null","neg","CS","CS","3","category3/CS7.png","","","","",""
"","html-keyboard-response","58","331253","0.0-6.0-4.0-0.10","afk443k6ql","one_one","1","direct_first","1","er10as24","0","24","1","0","3","1","Ich habe an der Uni mal ein Jahr Chinesisch Unterricht gehabt. Ist schon 3 jahre her, sodass ich kaum noch was kann. 
Schon gar keine Zeichen, aber die bei der Lautsprache kam mir manches wage bekannt vor.","0","1","0","null","","","<div class = 'row'><div class = 'column'><img src = 'usneg/9404.bmp' width = '100%;'></div><div class = 'column'><img src = 'category1/CS1.png' width = '70%;'></div></div>","null","neg","CS","CS","1","category1/CS1.png","","","","",""
"","html-keyboard-response","59","333760","0.0-6.0-4.0-0.11","afk443k6ql","one_one","1","direct_first","1","er10as24","0","24","1","0","3","1","Ich habe an der Uni mal ein Jahr Chinesisch Unterricht gehabt. Ist schon 3 jahre her, sodass ich kaum noch was kann. 
Schon gar keine Zeichen, aber die bei der Lautsprache kam mir manches wage bekannt vor.","0","1","0","null","","","<div class = 'row'><div class = 'column'><img src = 'category3/CS7.png' width = '70%;'></div><div class = 'column'><img src = 'usneg/7380.bmp' width = '100%;'></div></div>","null","neg","CS","CS","3","category3/CS7.png","","","","",""
"","html-keyboard-response","60","336268","0.0-6.0-4.0-0.12","afk443k6ql","one_one","1","direct_first","1","er10as24","0","24","1","0","3","1","Ich habe an der Uni mal ein Jahr Chinesisch Unterricht gehabt. Ist schon 3 jahre her, sodass ich kaum noch was kann. 
Schon gar keine Zeichen, aber die bei der Lautsprache kam mir manches wage bekannt vor.","0","1","0","null","","","<div class = 'row'><div class = 'column'><img src = 'category4/CS2.png' width = '70%;'></div><div class = 'column'><img src = 'uspos/8190.bmp' width = '100%;'></div></div>","null","pos","CS","CS","4","category4/CS2.png","","","","",""
"","html-keyboard-response","61","338776","0.0-6.0-4.0-0.13","afk443k6ql","one_one","1","direct_first","1","er10as24","0","24","1","0","3","1","Ich habe an der Uni mal ein Jahr Chinesisch Unterricht gehabt. Ist schon 3 jahre her, sodass ich kaum noch was kann. 
Schon gar keine Zeichen, aber die bei der Lautsprache kam mir manches wage bekannt vor.","0","1","0","null","","","<div class = 'row'><div class = 'column'><img src = 'category2/CS4.png' width = '70%;'></div><div class = 'column'><img src = 'uspos/5621.bmp' width = '100%;'></div></div>","null","pos","CS","CS","2","category2/CS4.png","","","","",""
"","html-keyboard-response","62","341284","0.0-6.0-4.0-0.14","afk443k6ql","one_one","1","direct_first","1","er10as24","0","24","1","0","3","1","Ich habe an der Uni mal ein Jahr Chinesisch Unterricht gehabt. Ist schon 3 jahre her, sodass ich kaum noch was kann. 
Schon gar keine Zeichen, aber die bei der Lautsprache kam mir manches wage bekannt vor.","0","1","0","null","","","<div class = 'row'><div class = 'column'><img src = 'uspos/8190.bmp' width = '100%;'></div><div class = 'column'><img src = 'category4/CS2.png' width = '70%;'></div></div>","null","pos","CS","CS","4","category4/CS2.png","","","","",""
"","html-keyboard-response","63","343793","0.0-6.0-4.0-0.15","afk443k6ql","one_one","1","direct_first","1","er10as24","0","24","1","0","3","1","Ich habe an der Uni mal ein Jahr Chinesisch Unterricht gehabt. Ist schon 3 jahre her, sodass ich kaum noch was kann. 
Schon gar keine Zeichen, aber die bei der Lautsprache kam mir manches wage bekannt vor.","0","1","0","null","","","<div class = 'row'><div class = 'column'><img src = 'category1/CS1.png' width = '70%;'></div><div class = 'column'><img src = 'usneg/9404.bmp' width = '100%;'></div></div>","null","neg","CS","CS","1","category1/CS1.png","","","","",""
"","html-keyboard-response","64","346299","0.0-6.0-4.0-0.16","afk443k6ql","one_one","1","direct_first","1","er10as24","0","24","1","0","3","1","Ich habe an der Uni mal ein Jahr Chinesisch Unterricht gehabt. Ist schon 3 jahre her, sodass ich kaum noch was kann. 
Schon gar keine Zeichen, aber die bei der Lautsprache kam mir manches wage bekannt vor.","0","1","0","null","","","<div class = 'row'><div class = 'column'><img src = 'uspos/5621.bmp' width = '100%;'></div><div class = 'column'><img src = 'category2/CS4.png' width = '70%;'></div></div>","null","pos","CS","CS","2","category2/CS4.png","","","","",""
"","html-keyboard-response","65","348805","0.0-6.0-4.0-0.17","afk443k6ql","one_one","1","direct_first","1","er10as24","0","24","1","0","3","1","Ich habe an der Uni mal ein Jahr Chinesisch Unterricht gehabt. Ist schon 3 jahre her, sodass ich kaum noch was kann. 
Schon gar keine Zeichen, aber die bei der Lautsprache kam mir manches wage bekannt vor.","0","1","0","null","","","<div class = 'row'><div class = 'column'><img src = 'uspos/8190.bmp' width = '100%;'></div><div class = 'column'><img src = 'category4/CS2.png' width = '70%;'></div></div>","null","pos","CS","CS","4","category4/CS2.png","","","","",""
"","html-keyboard-response","66","351311","0.0-6.0-4.0-0.18","afk443k6ql","one_one","1","direct_first","1","er10as24","0","24","1","0","3","1","Ich habe an der Uni mal ein Jahr Chinesisch Unterricht gehabt. Ist schon 3 jahre her, sodass ich kaum noch was kann. 
Schon gar keine Zeichen, aber die bei der Lautsprache kam mir manches wage bekannt vor.","0","1","0","null","","","<div class = 'row'><div class = 'column'><img src = 'category2/CS4.png' width = '70%;'></div><div class = 'column'><img src = 'uspos/5621.bmp' width = '100%;'></div></div>","null","pos","CS","CS","2","category2/CS4.png","","","","",""
"","html-keyboard-response","67","353820","0.0-6.0-4.0-0.19","afk443k6ql","one_one","1","direct_first","1","er10as24","0","24","1","0","3","1","Ich habe an der Uni mal ein Jahr Chinesisch Unterricht gehabt. Ist schon 3 jahre her, sodass ich kaum noch was kann. 
Schon gar keine Zeichen, aber die bei der Lautsprache kam mir manches wage bekannt vor.","0","1","0","null","","","<div class = 'row'><div class = 'column'><img src = 'category3/CS7.png' width = '70%;'></div><div class = 'column'><img src = 'usneg/7380.bmp' width = '100%;'></div></div>","null","neg","CS","CS","3","category3/CS7.png","","","","",""
"","survey-html-form","68","356462","0.0-6.0-5.0","afk443k6ql","one_one","1","direct_first","1","er10as24","0","24","1","0","3","1","Ich habe an der Uni mal ein Jahr Chinesisch Unterricht gehabt. Ist schon 3 jahre her, sodass ich kaum noch was kann. 
Schon gar keine Zeichen, aber die bei der Lautsprache kam mir manches wage bekannt vor.","0","1","0","2139","","{}","","","","","","","","","","","",""
"","html-keyboard-response","69","360469","0.0-6.0-6.0-0.0","afk443k6ql","one_one","1","direct_first","1","er10as24","0","24","1","0","3","1","Ich habe an der Uni mal ein Jahr Chinesisch Unterricht gehabt. Ist schon 3 jahre her, sodass ich kaum noch was kann. 
Schon gar keine Zeichen, aber die bei der Lautsprache kam mir manches wage bekannt vor.","0","1","0","null","","","<div class = 'row'><div class = 'column'><img src = 'uspos/8190.bmp' width = '100%;'></div><div class = 'column'><img src = 'category4/CS2.png' width = '70%;'></div></div>","null","pos","CS","CS","4","category4/CS2.png","","","","",""
"","html-keyboard-response","70","362980","0.0-6.0-6.0-0.1","afk443k6ql","one_one","1","direct_first","1","er10as24","0","24","1","0","3","1","Ich habe an der Uni mal ein Jahr Chinesisch Unterricht gehabt. Ist schon 3 jahre her, sodass ich kaum noch was kann. 
Schon gar keine Zeichen, aber die bei der Lautsprache kam mir manches wage bekannt vor.","0","1","0","null","","","<div class = 'row'><div class = 'column'><img src = 'usneg/7380.bmp' width = '100%;'></div><div class = 'column'><img src = 'category3/CS7.png' width = '70%;'></div></div>","null","neg","CS","CS","3","category3/CS7.png","","","","",""
"","html-keyboard-response","71","365485","0.0-6.0-6.0-0.2","afk443k6ql","one_one","1","direct_first","1","er10as24","0","24","1","0","3","1","Ich habe an der Uni mal ein Jahr Chinesisch Unterricht gehabt. Ist schon 3 jahre her, sodass ich kaum noch was kann. 
Schon gar keine Zeichen, aber die bei der Lautsprache kam mir manches wage bekannt vor.","0","1","0","null","","","<div class = 'row'><div class = 'column'><img src = 'uspos/8190.bmp' width = '100%;'></div><div class = 'column'><img src = 'category4/CS2.png' width = '70%;'></div></div>","null","pos","CS","CS","4","category4/CS2.png","","","","",""
"","html-keyboard-response","72","367993","0.0-6.0-6.0-0.3","afk443k6ql","one_one","1","direct_first","1","er10as24","0","24","1","0","3","1","Ich habe an der Uni mal ein Jahr Chinesisch Unterricht gehabt. Ist schon 3 jahre her, sodass ich kaum noch was kann. 
Schon gar keine Zeichen, aber die bei der Lautsprache kam mir manches wage bekannt vor.","0","1","0","null","","","<div class = 'row'><div class = 'column'><img src = 'usneg/7380.bmp' width = '100%;'></div><div class = 'column'><img src = 'category3/CS7.png' width = '70%;'></div></div>","null","neg","CS","CS","3","category3/CS7.png","","","","",""
"","html-keyboard-response","73","370499","0.0-6.0-6.0-0.4","afk443k6ql","one_one","1","direct_first","1","er10as24","0","24","1","0","3","1","Ich habe an der Uni mal ein Jahr Chinesisch Unterricht gehabt. Ist schon 3 jahre her, sodass ich kaum noch was kann. 
Schon gar keine Zeichen, aber die bei der Lautsprache kam mir manches wage bekannt vor.","0","1","0","null","","","<div class = 'row'><div class = 'column'><img src = 'category1/CS1.png' width = '70%;'></div><div class = 'column'><img src = 'usneg/9404.bmp' width = '100%;'></div></div>","null","neg","CS","CS","1","category1/CS1.png","","","","",""
"","html-keyboard-response","74","373011","0.0-6.0-6.0-0.5","afk443k6ql","one_one","1","direct_first","1","er10as24","0","24","1","0","3","1","Ich habe an der Uni mal ein Jahr Chinesisch Unterricht gehabt. Ist schon 3 jahre her, sodass ich kaum noch was kann. 
Schon gar keine Zeichen, aber die bei der Lautsprache kam mir manches wage bekannt vor.","0","1","0","null","","","<div class = 'row'><div class = 'column'><img src = 'uspos/8190.bmp' width = '100%;'></div><div class = 'column'><img src = 'category4/CS2.png' width = '70%;'></div></div>","null","pos","CS","CS","4","category4/CS2.png","","","","",""
"","html-keyboard-response","75","375519","0.0-6.0-6.0-0.6","afk443k6ql","one_one","1","direct_first","1","er10as24","0","24","1","0","3","1","Ich habe an der Uni mal ein Jahr Chinesisch Unterricht gehabt. Ist schon 3 jahre her, sodass ich kaum noch was kann. 
Schon gar keine Zeichen, aber die bei der Lautsprache kam mir manches wage bekannt vor.","0","1","0","null","","","<div class = 'row'><div class = 'column'><img src = 'uspos/5621.bmp' width = '100%;'></div><div class = 'column'><img src = 'category2/CS4.png' width = '70%;'></div></div>","null","pos","CS","CS","2","category2/CS4.png","","","","",""
"","html-keyboard-response","76","378026","0.0-6.0-6.0-0.7","afk443k6ql","one_one","1","direct_first","1","er10as24","0","24","1","0","3","1","Ich habe an der Uni mal ein Jahr Chinesisch Unterricht gehabt. Ist schon 3 jahre her, sodass ich kaum noch was kann. 
Schon gar keine Zeichen, aber die bei der Lautsprache kam mir manches wage bekannt vor.","0","1","0","null","","","<div class = 'row'><div class = 'column'><img src = 'category3/CS7.png' width = '70%;'></div><div class = 'column'><img src = 'usneg/7380.bmp' width = '100%;'></div></div>","null","neg","CS","CS","3","category3/CS7.png","","","","",""
"","html-keyboard-response","77","380533","0.0-6.0-6.0-0.8","afk443k6ql","one_one","1","direct_first","1","er10as24","0","24","1","0","3","1","Ich habe an der Uni mal ein Jahr Chinesisch Unterricht gehabt. Ist schon 3 jahre her, sodass ich kaum noch was kann. 
Schon gar keine Zeichen, aber die bei der Lautsprache kam mir manches wage bekannt vor.","0","1","0","null","","","<div class = 'row'><div class = 'column'><img src = 'category1/CS1.png' width = '70%;'></div><div class = 'column'><img src = 'usneg/9404.bmp' width = '100%;'></div></div>","null","neg","CS","CS","1","category1/CS1.png","","","","",""
"","html-keyboard-response","78","383037","0.0-6.0-6.0-0.9","afk443k6ql","one_one","1","direct_first","1","er10as24","0","24","1","0","3","1","Ich habe an der Uni mal ein Jahr Chinesisch Unterricht gehabt. Ist schon 3 jahre her, sodass ich kaum noch was kann. 
Schon gar keine Zeichen, aber die bei der Lautsprache kam mir manches wage bekannt vor.","0","1","0","null","","","<div class = 'row'><div class = 'column'><img src = 'uspos/8190.bmp' width = '100%;'></div><div class = 'column'><img src = 'category4/CS2.png' width = '70%;'></div></div>","null","pos","CS","CS","4","category4/CS2.png","","","","",""
"","html-keyboard-response","79","385549","0.0-6.0-6.0-0.10","afk443k6ql","one_one","1","direct_first","1","er10as24","0","24","1","0","3","1","Ich habe an der Uni mal ein Jahr Chinesisch Unterricht gehabt. Ist schon 3 jahre her, sodass ich kaum noch was kann. 
Schon gar keine Zeichen, aber die bei der Lautsprache kam mir manches wage bekannt vor.","0","1","0","null","","","<div class = 'row'><div class = 'column'><img src = 'category2/CS4.png' width = '70%;'></div><div class = 'column'><img src = 'uspos/5621.bmp' width = '100%;'></div></div>","null","pos","CS","CS","2","category2/CS4.png","","","","",""
"","html-keyboard-response","80","388059","0.0-6.0-6.0-0.11","afk443k6ql","one_one","1","direct_first","1","er10as24","0","24","1","0","3","1","Ich habe an der Uni mal ein Jahr Chinesisch Unterricht gehabt. Ist schon 3 jahre her, sodass ich kaum noch was kann. 
Schon gar keine Zeichen, aber die bei der Lautsprache kam mir manches wage bekannt vor.","0","1","0","null","","","<div class = 'row'><div class = 'column'><img src = 'usneg/9404.bmp' width = '100%;'></div><div class = 'column'><img src = 'category1/CS1.png' width = '70%;'></div></div>","null","neg","CS","CS","1","category1/CS1.png","","","","",""
"","html-keyboard-response","81","390570","0.0-6.0-6.0-0.12","afk443k6ql","one_one","1","direct_first","1","er10as24","0","24","1","0","3","1","Ich habe an der Uni mal ein Jahr Chinesisch Unterricht gehabt. Ist schon 3 jahre her, sodass ich kaum noch was kann. 
Schon gar keine Zeichen, aber die bei der Lautsprache kam mir manches wage bekannt vor.","0","1","0","null","","","<div class = 'row'><div class = 'column'><img src = 'category3/CS7.png' width = '70%;'></div><div class = 'column'><img src = 'usneg/7380.bmp' width = '100%;'></div></div>","null","neg","CS","CS","3","category3/CS7.png","","","","",""
"","html-keyboard-response","82","393081","0.0-6.0-6.0-0.13","afk443k6ql","one_one","1","direct_first","1","er10as24","0","24","1","0","3","1","Ich habe an der Uni mal ein Jahr Chinesisch Unterricht gehabt. Ist schon 3 jahre her, sodass ich kaum noch was kann. 
Schon gar keine Zeichen, aber die bei der Lautsprache kam mir manches wage bekannt vor.","0","1","0","null","","","<div class = 'row'><div class = 'column'><img src = 'uspos/5621.bmp' width = '100%;'></div><div class = 'column'><img src = 'category2/CS4.png' width = '70%;'></div></div>","null","pos","CS","CS","2","category2/CS4.png","","","","",""
"","html-keyboard-response","83","395587","0.0-6.0-6.0-0.14","afk443k6ql","one_one","1","direct_first","1","er10as24","0","24","1","0","3","1","Ich habe an der Uni mal ein Jahr Chinesisch Unterricht gehabt. Ist schon 3 jahre her, sodass ich kaum noch was kann. 
Schon gar keine Zeichen, aber die bei der Lautsprache kam mir manches wage bekannt vor.","0","1","0","null","","","<div class = 'row'><div class = 'column'><img src = 'category1/CS1.png' width = '70%;'></div><div class = 'column'><img src = 'usneg/9404.bmp' width = '100%;'></div></div>","null","neg","CS","CS","1","category1/CS1.png","","","","",""
"","html-keyboard-response","84","398095","0.0-6.0-6.0-0.15","afk443k6ql","one_one","1","direct_first","1","er10as24","0","24","1","0","3","1","Ich habe an der Uni mal ein Jahr Chinesisch Unterricht gehabt. Ist schon 3 jahre her, sodass ich kaum noch was kann. 
Schon gar keine Zeichen, aber die bei der Lautsprache kam mir manches wage bekannt vor.","0","1","0","null","","","<div class = 'row'><div class = 'column'><img src = 'category2/CS4.png' width = '70%;'></div><div class = 'column'><img src = 'uspos/5621.bmp' width = '100%;'></div></div>","null","pos","CS","CS","2","category2/CS4.png","","","","",""
"","html-keyboard-response","85","400605","0.0-6.0-6.0-0.16","afk443k6ql","one_one","1","direct_first","1","er10as24","0","24","1","0","3","1","Ich habe an der Uni mal ein Jahr Chinesisch Unterricht gehabt. Ist schon 3 jahre her, sodass ich kaum noch was kann. 
Schon gar keine Zeichen, aber die bei der Lautsprache kam mir manches wage bekannt vor.","0","1","0","null","","","<div class = 'row'><div class = 'column'><img src = 'category1/CS1.png' width = '70%;'></div><div class = 'column'><img src = 'usneg/9404.bmp' width = '100%;'></div></div>","null","neg","CS","CS","1","category1/CS1.png","","","","",""
"","html-keyboard-response","86","403115","0.0-6.0-6.0-0.17","afk443k6ql","one_one","1","direct_first","1","er10as24","0","24","1","0","3","1","Ich habe an der Uni mal ein Jahr Chinesisch Unterricht gehabt. Ist schon 3 jahre her, sodass ich kaum noch was kann. 
Schon gar keine Zeichen, aber die bei der Lautsprache kam mir manches wage bekannt vor.","0","1","0","null","","","<div class = 'row'><div class = 'column'><img src = 'category2/CS4.png' width = '70%;'></div><div class = 'column'><img src = 'uspos/5621.bmp' width = '100%;'></div></div>","null","pos","CS","CS","2","category2/CS4.png","","","","",""
"","html-keyboard-response","87","405623","0.0-6.0-6.0-0.18","afk443k6ql","one_one","1","direct_first","1","er10as24","0","24","1","0","3","1","Ich habe an der Uni mal ein Jahr Chinesisch Unterricht gehabt. Ist schon 3 jahre her, sodass ich kaum noch was kann. 
Schon gar keine Zeichen, aber die bei der Lautsprache kam mir manches wage bekannt vor.","0","1","0","null","","","<div class = 'row'><div class = 'column'><img src = 'category3/CS7.png' width = '70%;'></div><div class = 'column'><img src = 'usneg/7380.bmp' width = '100%;'></div></div>","null","neg","CS","CS","3","category3/CS7.png","","","","",""
"","html-keyboard-response","88","408128","0.0-6.0-6.0-0.19","afk443k6ql","one_one","1","direct_first","1","er10as24","0","24","1","0","3","1","Ich habe an der Uni mal ein Jahr Chinesisch Unterricht gehabt. Ist schon 3 jahre her, sodass ich kaum noch was kann. 
Schon gar keine Zeichen, aber die bei der Lautsprache kam mir manches wage bekannt vor.","0","1","0","null","","","<div class = 'row'><div class = 'column'><img src = 'category4/CS2.png' width = '70%;'></div><div class = 'column'><img src = 'uspos/8190.bmp' width = '100%;'></div></div>","null","pos","CS","CS","4","category4/CS2.png","","","","",""
"","survey-html-form","89","416157","0.0-7.0","afk443k6ql","one_one","1","direct_first","1","er10as24","0","24","1","0","3","1","Ich habe an der Uni mal ein Jahr Chinesisch Unterricht gehabt. Ist schon 3 jahre her, sodass ich kaum noch was kann. 
Schon gar keine Zeichen, aber die bei der Lautsprache kam mir manches wage bekannt vor.","0","1","0","7525","","{}","","","","","","","","","","","",""
"","image-slider-response","90","425897","0.0-8.0-0.0","afk443k6ql","one_one","1","direct_first","1","er10as24","0","24","1","0","3","1","Ich habe an der Uni mal ein Jahr Chinesisch Unterricht gehabt. Ist schon 3 jahre her, sodass ich kaum noch was kann. 
Schon gar keine Zeichen, aber die bei der Lautsprache kam mir manches wage bekannt vor.","0","1","0","7728","","","","","neg","GS","GSnew","3","category3/GS3.png","55","targets/39.png","direct","",""
"","image-slider-response","91","429523","0.0-8.0-0.1","afk443k6ql","one_one","1","direct_first","1","er10as24","0","24","1","0","3","1","Ich habe an der Uni mal ein Jahr Chinesisch Unterricht gehabt. Ist schon 3 jahre her, sodass ich kaum noch was kann. 
Schon gar keine Zeichen, aber die bei der Lautsprache kam mir manches wage bekannt vor.","0","1","0","3624","","","","","pos","GS","GSold","2","category2/CS7.png","-22","targets/38.png","direct","",""
"","image-slider-response","92","434574","0.0-8.0-0.2","afk443k6ql","one_one","1","direct_first","1","er10as24","0","24","1","0","3","1","Ich habe an der Uni mal ein Jahr Chinesisch Unterricht gehabt. Ist schon 3 jahre her, sodass ich kaum noch was kann. 
Schon gar keine Zeichen, aber die bei der Lautsprache kam mir manches wage bekannt vor.","0","1","0","5050","","","","","neg","GS","GSnew","1","category1/GS2.png","44","targets/13.png","direct","",""
"","image-slider-response","93","437772","0.0-8.0-0.3","afk443k6ql","one_one","1","direct_first","1","er10as24","0","24","1","0","3","1","Ich habe an der Uni mal ein Jahr Chinesisch Unterricht gehabt. Ist schon 3 jahre her, sodass ich kaum noch was kann. 
Schon gar keine Zeichen, aber die bei der Lautsprache kam mir manches wage bekannt vor.","0","1","0","3196","","","","","pos","GS","GSold","2","category2/CS6.png","23","targets/10.png","direct","",""
"","image-slider-response","94","442716","0.0-8.0-0.4","afk443k6ql","one_one","1","direct_first","1","er10as24","0","24","1","0","3","1","Ich habe an der Uni mal ein Jahr Chinesisch Unterricht gehabt. Ist schon 3 jahre her, sodass ich kaum noch was kann. 
Schon gar keine Zeichen, aber die bei der Lautsprache kam mir manches wage bekannt vor.","0","1","0","4941","","","","","pos","GS","abstract","4","category4/lin.png","25","targets/12.png","direct","",""
"","image-slider-response","95","445944","0.0-8.0-0.5","afk443k6ql","one_one","1","direct_first","1","er10as24","0","24","1","0","3","1","Ich habe an der Uni mal ein Jahr Chinesisch Unterricht gehabt. Ist schon 3 jahre her, sodass ich kaum noch was kann. 
Schon gar keine Zeichen, aber die bei der Lautsprache kam mir manches wage bekannt vor.","0","1","0","3226","","","","","neg","GS","abstract","3","category3/wang.png","-22","targets/2.png","direct","",""
"","image-slider-response","96","451522","0.0-8.0-0.6","afk443k6ql","one_one","1","direct_first","1","er10as24","0","24","1","0","3","1","Ich habe an der Uni mal ein Jahr Chinesisch Unterricht gehabt. Ist schon 3 jahre her, sodass ich kaum noch was kann. 
Schon gar keine Zeichen, aber die bei der Lautsprache kam mir manches wage bekannt vor.","0","1","0","5575","","","","","neg","GS","GSold","3","category3/CS1.png","-14","targets/37.png","direct","",""
"","image-slider-response","97","454366","0.0-8.0-0.7","afk443k6ql","one_one","1","direct_first","1","er10as24","0","24","1","0","3","1","Ich habe an der Uni mal ein Jahr Chinesisch Unterricht gehabt. Ist schon 3 jahre her, sodass ich kaum noch was kann. 
Schon gar keine Zeichen, aber die bei der Lautsprache kam mir manches wage bekannt vor.","0","1","0","2843","","","","","pos","GS","GSnew","4","category4/GS2.png","14","targets/25.png","direct","",""
"","image-slider-response","98","457342","0.0-8.0-0.8","afk443k6ql","one_one","1","direct_first","1","er10as24","0","24","1","0","3","1","Ich habe an der Uni mal ein Jahr Chinesisch Unterricht gehabt. Ist schon 3 jahre her, sodass ich kaum noch was kann. 
Schon gar keine Zeichen, aber die bei der Lautsprache kam mir manches wage bekannt vor.","0","1","0","2975","","","","","pos","GS","GSnew","4","category4/GS1.png","67","targets/28.png","direct","",""
"","image-slider-response","99","460592","0.0-8.0-0.9","afk443k6ql","one_one","1","direct_first","1","er10as24","0","24","1","0","3","1","Ich habe an der Uni mal ein Jahr Chinesisch Unterricht gehabt. Ist schon 3 jahre her, sodass ich kaum noch was kann. 
Schon gar keine Zeichen, aber die bei der Lautsprache kam mir manches wage bekannt vor.","0","1","0","3248","","","","","neg","GS","GSnew","3","category3/GS1.png","-13","targets/41.png","direct","",""
"","image-slider-response","100","464970","0.0-8.0-0.10","afk443k6ql","one_one","1","direct_first","1","er10as24","0","24","1","0","3","1","Ich habe an der Uni mal ein Jahr Chinesisch Unterricht gehabt. Ist schon 3 jahre her, sodass ich kaum noch was kann. 
Schon gar keine Zeichen, aber die bei der Lautsprache kam mir manches wage bekannt vor.","0","1","0","4377","","","","","neg","GS","GSnew","1","category1/GS3.png","68","targets/22.png","direct","",""
"","image-slider-response","101","468268","0.0-8.0-0.11","afk443k6ql","one_one","1","direct_first","1","er10as24","0","24","1","0","3","1","Ich habe an der Uni mal ein Jahr Chinesisch Unterricht gehabt. Ist schon 3 jahre her, sodass ich kaum noch was kann. 
Schon gar keine Zeichen, aber die bei der Lautsprache kam mir manches wage bekannt vor.","0","1","0","3295","","","","","neg","GS","abstract","1","category1/ma.png","10","targets/33.png","direct","",""
"","image-slider-response","102","471088","0.0-8.0-0.12","afk443k6ql","one_one","1","direct_first","1","er10as24","0","24","1","0","3","1","Ich habe an der Uni mal ein Jahr Chinesisch Unterricht gehabt. Ist schon 3 jahre her, sodass ich kaum noch was kann. 
Schon gar keine Zeichen, aber die bei der Lautsprache kam mir manches wage bekannt vor.","0","1","0","2819","","","","","neg","GS","GSold","3","category3/CS2.png","-15","targets/5.png","direct","",""
"","image-slider-response","103","473592","0.0-8.0-0.13","afk443k6ql","one_one","1","direct_first","1","er10as24","0","24","1","0","3","1","Ich habe an der Uni mal ein Jahr Chinesisch Unterricht gehabt. Ist schon 3 jahre her, sodass ich kaum noch was kann. 
Schon gar keine Zeichen, aber die bei der Lautsprache kam mir manches wage bekannt vor.","0","1","0","2502","","","","","pos","GS","GSnew","2","category2/GS1.png","23","targets/6.png","direct","",""
"","image-slider-response","104","476492","0.0-8.0-0.14","afk443k6ql","one_one","1","direct_first","1","er10as24","0","24","1","0","3","1","Ich habe an der Uni mal ein Jahr Chinesisch Unterricht gehabt. Ist schon 3 jahre her, sodass ich kaum noch was kann. 
Schon gar keine Zeichen, aber die bei der Lautsprache kam mir manches wage bekannt vor.","0","1","0","2898","","","","","neg","GS","GSnew","3","category3/GS2.png","26","targets/21.png","direct","",""
"","image-slider-response","105","479012","0.0-8.0-0.15","afk443k6ql","one_one","1","direct_first","1","er10as24","0","24","1","0","3","1","Ich habe an der Uni mal ein Jahr Chinesisch Unterricht gehabt. Ist schon 3 jahre her, sodass ich kaum noch was kann. 
Schon gar keine Zeichen, aber die bei der Lautsprache kam mir manches wage bekannt vor.","0","1","0","2519","","","","","pos","GS","GSnew","2","category2/GS3.png","-19","targets/32.png","direct","",""
"","image-slider-response","106","482534","0.0-8.0-0.16","afk443k6ql","one_one","1","direct_first","1","er10as24","0","24","1","0","3","1","Ich habe an der Uni mal ein Jahr Chinesisch Unterricht gehabt. Ist schon 3 jahre her, sodass ich kaum noch was kann. 
Schon gar keine Zeichen, aber die bei der Lautsprache kam mir manches wage bekannt vor.","0","1","0","3521","","","","","neg","GS","GSold","1","category1/CS2.png","-19","targets/42.png","direct","",""
"","image-slider-response","107","486283","0.0-8.0-0.17","afk443k6ql","one_one","1","direct_first","1","er10as24","0","24","1","0","3","1","Ich habe an der Uni mal ein Jahr Chinesisch Unterricht gehabt. Ist schon 3 jahre her, sodass ich kaum noch was kann. 
Schon gar keine Zeichen, aber die bei der Lautsprache kam mir manches wage bekannt vor.","0","1","0","3749","","","","","pos","GS","GSnew","4","category4/GS3.png","-29","targets/47.png","direct","",""
"","image-slider-response","108","488723","0.0-8.0-0.18","afk443k6ql","one_one","1","direct_first","1","er10as24","0","24","1","0","3","1","Ich habe an der Uni mal ein Jahr Chinesisch Unterricht gehabt. Ist schon 3 jahre her, sodass ich kaum noch was kann. 
Schon gar keine Zeichen, aber die bei der Lautsprache kam mir manches wage bekannt vor.","0","1","0","2439","","","","","pos","GS","GSold","4","category4/CS6.png","37","targets/11.png","direct","",""
"","image-slider-response","109","491659","0.0-8.0-0.19","afk443k6ql","one_one","1","direct_first","1","er10as24","0","24","1","0","3","1","Ich habe an der Uni mal ein Jahr Chinesisch Unterricht gehabt. Ist schon 3 jahre her, sodass ich kaum noch was kann. 
Schon gar keine Zeichen, aber die bei der Lautsprache kam mir manches wage bekannt vor.","0","1","0","2935","","","","","pos","GS","GSold","4","category4/CS9.png","18","targets/16.png","direct","",""
"","image-slider-response","110","494752","0.0-8.0-0.20","afk443k6ql","one_one","1","direct_first","1","er10as24","0","24","1","0","3","1","Ich habe an der Uni mal ein Jahr Chinesisch Unterricht gehabt. Ist schon 3 jahre her, sodass ich kaum noch was kann. 
Schon gar keine Zeichen, aber die bei der Lautsprache kam mir manches wage bekannt vor.","0","1","0","3090","","","","","pos","CS","CS","2","category2/CS4.png","16","targets/1.png","direct","",""
"","image-slider-response","111","497505","0.0-8.0-0.21","afk443k6ql","one_one","1","direct_first","1","er10as24","0","24","1","0","3","1","Ich habe an der Uni mal ein Jahr Chinesisch Unterricht gehabt. Ist schon 3 jahre her, sodass ich kaum noch was kann. 
Schon gar keine Zeichen, aber die bei der Lautsprache kam mir manches wage bekannt vor.","0","1","0","2751","","","","","pos","CS","CS","4","category4/CS2.png","-12","targets/3.png","direct","",""
"","image-slider-response","112","500273","0.0-8.0-0.22","afk443k6ql","one_one","1","direct_first","1","er10as24","0","24","1","0","3","1","Ich habe an der Uni mal ein Jahr Chinesisch Unterricht gehabt. Ist schon 3 jahre her, sodass ich kaum noch was kann. 
Schon gar keine Zeichen, aber die bei der Lautsprache kam mir manches wage bekannt vor.","0","1","0","2766","","","","","neg","GS","GSnew","1","category1/GS1.png","30","targets/20.png","direct","",""
"","image-slider-response","113","509344","0.0-8.0-0.23","afk443k6ql","one_one","1","direct_first","1","er10as24","0","24","1","0","3","1","Ich habe an der Uni mal ein Jahr Chinesisch Unterricht gehabt. Ist schon 3 jahre her, sodass ich kaum noch was kann. 
Schon gar keine Zeichen, aber die bei der Lautsprache kam mir manches wage bekannt vor.","0","1","0","9071","","","","","pos","GS","GSold","4","category4/CS8.png","-9","targets/29.png","direct","",""
"","image-slider-response","114","512469","0.0-8.0-0.24","afk443k6ql","one_one","1","direct_first","1","er10as24","0","24","1","0","3","1","Ich habe an der Uni mal ein Jahr Chinesisch Unterricht gehabt. Ist schon 3 jahre her, sodass ich kaum noch was kann. 
Schon gar keine Zeichen, aber die bei der Lautsprache kam mir manches wage bekannt vor.","0","1","0","3121","","","","","neg","GS","GSold","3","category3/CS6.png","-12","targets/36.png","direct","",""
"","image-slider-response","115","515253","0.0-8.0-0.25","afk443k6ql","one_one","1","direct_first","1","er10as24","0","24","1","0","3","1","Ich habe an der Uni mal ein Jahr Chinesisch Unterricht gehabt. Ist schon 3 jahre her, sodass ich kaum noch was kann. 
Schon gar keine Zeichen, aber die bei der Lautsprache kam mir manches wage bekannt vor.","0","1","0","2783","","","","","pos","GS","abstract","2","category2/men.png","33","targets/4.png","direct","",""
"","image-slider-response","116","518574","0.0-8.0-0.26","afk443k6ql","one_one","1","direct_first","1","er10as24","0","24","1","0","3","1","Ich habe an der Uni mal ein Jahr Chinesisch Unterricht gehabt. Ist schon 3 jahre her, sodass ich kaum noch was kann. 
Schon gar keine Zeichen, aber die bei der Lautsprache kam mir manches wage bekannt vor.","0","1","0","3320","","","","","neg","CS","CS","1","category1/CS1.png","-9","targets/18.png","direct","",""
"","image-slider-response","117","520817","0.0-8.0-0.27","afk443k6ql","one_one","1","direct_first","1","er10as24","0","24","1","0","3","1","Ich habe an der Uni mal ein Jahr Chinesisch Unterricht gehabt. Ist schon 3 jahre her, sodass ich kaum noch was kann. 
Schon gar keine Zeichen, aber die bei der Lautsprache kam mir manches wage bekannt vor.","0","1","0","2243","","","","","neg","GS","GSold","1","category1/CS7.png","-20","targets/35.png","direct","",""
"","image-slider-response","118","523146","0.0-8.0-0.28","afk443k6ql","one_one","1","direct_first","1","er10as24","0","24","1","0","3","1","Ich habe an der Uni mal ein Jahr Chinesisch Unterricht gehabt. Ist schon 3 jahre her, sodass ich kaum noch was kann. 
Schon gar keine Zeichen, aber die bei der Lautsprache kam mir manches wage bekannt vor.","0","1","0","2328","","","","","pos","GS","GSnew","2","category2/GS2.png","-19","targets/17.png","direct","",""
"","image-slider-response","119","526963","0.0-8.0-0.29","afk443k6ql","one_one","1","direct_first","1","er10as24","0","24","1","0","3","1","Ich habe an der Uni mal ein Jahr Chinesisch Unterricht gehabt. Ist schon 3 jahre her, sodass ich kaum noch was kann. 
Schon gar keine Zeichen, aber die bei der Lautsprache kam mir manches wage bekannt vor.","0","1","0","3816","","","","","pos","GS","GSold","2","category2/CS3.png","18","targets/43.png","direct","",""
"","image-slider-response","120","529872","0.0-8.0-0.30","afk443k6ql","one_one","1","direct_first","1","er10as24","0","24","1","0","3","1","Ich habe an der Uni mal ein Jahr Chinesisch Unterricht gehabt. Ist schon 3 jahre her, sodass ich kaum noch was kann. 
Schon gar keine Zeichen, aber die bei der Lautsprache kam mir manches wage bekannt vor.","0","1","0","2907","","","","","neg","GS","GSold","1","category1/CS3.png","11","targets/27.png","direct","",""
"","image-slider-response","121","533177","0.0-8.0-0.31","afk443k6ql","one_one","1","direct_first","1","er10as24","0","24","1","0","3","1","Ich habe an der Uni mal ein Jahr Chinesisch Unterricht gehabt. Ist schon 3 jahre her, sodass ich kaum noch was kann. 
Schon gar keine Zeichen, aber die bei der Lautsprache kam mir manches wage bekannt vor.","0","1","0","3303","","","","","neg","CS","CS","3","category3/CS7.png","-7","targets/14.png","direct","",""
"","html-keyboard-response","122","559502","0.0-9.0","afk443k6ql","one_one","1","direct_first","1","er10as24","0","24","1","0","3","1","Ich habe an der Uni mal ein Jahr Chinesisch Unterricht gehabt. Ist schon 3 jahre her, sodass ich kaum noch was kann. 
Schon gar keine Zeichen, aber die bei der Lautsprache kam mir manches wage bekannt vor.","0","1","0","26324","","","<p>Sie sehen nun die chinesischen Zeichen nur ganz kurz. Danach sehen Sie die jeweilige Aussprache der Zeichen als Silbe auf dem Bildschrim. Ihre Aufgabe ist es, fr jede Silbe anzugeben, ob diese etwas angenehmes, oder unangenehmes bedeuten knnte. Verlassen Sie sich hier vor allem auf Ihre Intuition.<br><br>Die Zeichen werden nur zur Orientierung dargestellt, beachten Sie sie deshalb nicht. Konzentrieren Sie sich vor allem auf die Silben. <br>Reagieren Sie mit folgenden zwei Tasten: <br><br><b>'D' </b> wenn die Silbe etwas <b>unangenehmes</b> bedeuten knnte. <br><b>'K'</b> wenn die Silbe etwas <b>angenehmes</b> bedeuten knnte. <br><br>Bitte legen Sie nun den Zeigefinger der linken Hand auf die Taste 'D' und den Zeigefinger der rechten Hand auf die Taste 'K'. <br>Reagieren Sie auf jede Silbe so schnell wie mglich. Uns interessiert Ihre spontane Reaktion. <br> <br> <br>Drcken Sie 'D' oder 'K', um die nchste Aufgabe zu starten. </p>","68","","","","","","","","","",""
"","html-keyboard-response","123","562508","0.0-10.0-0.0","afk443k6ql","one_one","1","direct_first","1","er10as24","0","24","1","0","3","1","Ich habe an der Uni mal ein Jahr Chinesisch Unterricht gehabt. Ist schon 3 jahre her, sodass ich kaum noch was kann. 
Schon gar keine Zeichen, aber die bei der Lautsprache kam mir manches wage bekannt vor.","0","1","0","null","","","<div style=""font-size:60px;"">+</div>","null","","","","","","","","","",""
"","html-keyboard-response","124","562600","0.0-10.0-1.0","afk443k6ql","one_one","1","direct_first","1","er10as24","0","24","1","0","3","1","Ich habe an der Uni mal ein Jahr Chinesisch Unterricht gehabt. Ist schon 3 jahre her, sodass ich kaum noch was kann. 
Schon gar keine Zeichen, aber die bei der Lautsprache kam mir manches wage bekannt vor.","0","1","0","null","","","<img src = 'category1/CS2.png' width = '100%;'>","null","","","","","","","","","",""
"","html-keyboard-response","125","562855","0.0-10.0-2.0","afk443k6ql","one_one","1","direct_first","1","er10as24","0","24","1","0","3","1","Ich habe an der Uni mal ein Jahr Chinesisch Unterricht gehabt. Ist schon 3 jahre her, sodass ich kaum noch was kann. 
Schon gar keine Zeichen, aber die bei der Lautsprache kam mir manches wage bekannt vor.","0","1","0","null","","","<img src = 'targets/42.png' width = '100%;'>","null","","","","","","","","","",""
"","html-keyboard-response","126","567260","0.0-10.0-3.0","afk443k6ql","one_one","1","direct_first","1","er10as24","0","24","1","0","3","1","Ich habe an der Uni mal ein Jahr Chinesisch Unterricht gehabt. Ist schon 3 jahre her, sodass ich kaum noch was kann. 
Schon gar keine Zeichen, aber die bei der Lautsprache kam mir manches wage bekannt vor.","0","1","0","4402","","","<img src = 'targets/mask.png' width = '100%;'>","75","neg","GS","GSold","1","category1/CS2.png","","targets/42.png","indirect","1","0"
"","html-keyboard-response","127","568772","0.0-10.0-0.1","afk443k6ql","one_one","1","direct_first","1","er10as24","0","24","1","0","3","1","Ich habe an der Uni mal ein Jahr Chinesisch Unterricht gehabt. Ist schon 3 jahre her, sodass ich kaum noch was kann. 
Schon gar keine Zeichen, aber die bei der Lautsprache kam mir manches wage bekannt vor.","0","1","0","null","","","<div style=""font-size:60px;"">+</div>","null","","","","","","","","","",""
"","html-keyboard-response","128","568863","0.0-10.0-1.1","afk443k6ql","one_one","1","direct_first","1","er10as24","0","24","1","0","3","1","Ich habe an der Uni mal ein Jahr Chinesisch Unterricht gehabt. Ist schon 3 jahre her, sodass ich kaum noch was kann. 
Schon gar keine Zeichen, aber die bei der Lautsprache kam mir manches wage bekannt vor.","0","1","0","null","","","<img src = 'category4/CS8.png' width = '100%;'>","null","","","","","","","","","",""
"","html-keyboard-response","129","569125","0.0-10.0-2.1","afk443k6ql","one_one","1","direct_first","1","er10as24","0","24","1","0","3","1","Ich habe an der Uni mal ein Jahr Chinesisch Unterricht gehabt. Ist schon 3 jahre her, sodass ich kaum noch was kann. 
Schon gar keine Zeichen, aber die bei der Lautsprache kam mir manches wage bekannt vor.","0","1","0","null","","","<img src = 'targets/29.png' width = '100%;'>","null","","","","","","","","","",""
"","html-keyboard-response","130","570371","0.0-10.0-3.1","afk443k6ql","one_one","1","direct_first","1","er10as24","0","24","1","0","3","1","Ich habe an der Uni mal ein Jahr Chinesisch Unterricht gehabt. Ist schon 3 jahre her, sodass ich kaum noch was kann. 
Schon gar keine Zeichen, aber die bei der Lautsprache kam mir manches wage bekannt vor.","0","1","0","1245","","","<img src = 'targets/mask.png' width = '100%;'>","68","pos","GS","GSold","4","category4/CS8.png","","targets/29.png","indirect","0","1"
"","html-keyboard-response","131","571876","0.0-10.0-0.2","afk443k6ql","one_one","1","direct_first","1","er10as24","0","24","1","0","3","1","Ich habe an der Uni mal ein Jahr Chinesisch Unterricht gehabt. Ist schon 3 jahre her, sodass ich kaum noch was kann. 
Schon gar keine Zeichen, aber die bei der Lautsprache kam mir manches wage bekannt vor.","0","1","0","null","","","<div style=""font-size:60px;"">+</div>","null","","","","","","","","","",""
"","html-keyboard-response","132","571968","0.0-10.0-1.2","afk443k6ql","one_one","1","direct_first","1","er10as24","0","24","1","0","3","1","Ich habe an der Uni mal ein Jahr Chinesisch Unterricht gehabt. Ist schon 3 jahre her, sodass ich kaum noch was kann. 
Schon gar keine Zeichen, aber die bei der Lautsprache kam mir manches wage bekannt vor.","0","1","0","null","","","<img src = 'category3/CS6.png' width = '100%;'>","null","","","","","","","","","",""
"","html-keyboard-response","133","572224","0.0-10.0-2.2","afk443k6ql","one_one","1","direct_first","1","er10as24","0","24","1","0","3","1","Ich habe an der Uni mal ein Jahr Chinesisch Unterricht gehabt. Ist schon 3 jahre her, sodass ich kaum noch was kann. 
Schon gar keine Zeichen, aber die bei der Lautsprache kam mir manches wage bekannt vor.","0","1","0","null","","","<img src = 'targets/36.png' width = '100%;'>","null","","","","","","","","","",""
"","html-keyboard-response","134","573794","0.0-10.0-3.2","afk443k6ql","one_one","1","direct_first","1","er10as24","0","24","1","0","3","1","Ich habe an der Uni mal ein Jahr Chinesisch Unterricht gehabt. Ist schon 3 jahre her, sodass ich kaum noch was kann. 
Schon gar keine Zeichen, aber die bei der Lautsprache kam mir manches wage bekannt vor.","0","1","0","1567","","","<img src = 'targets/mask.png' width = '100%;'>","68","neg","GS","GSold","3","category3/CS6.png","","targets/36.png","indirect","0","2"
"","html-keyboard-response","135","575301","0.0-10.0-0.3","afk443k6ql","one_one","1","direct_first","1","er10as24","0","24","1","0","3","1","Ich habe an der Uni mal ein Jahr Chinesisch Unterricht gehabt. Ist schon 3 jahre her, sodass ich kaum noch was kann. 
Schon gar keine Zeichen, aber die bei der Lautsprache kam mir manches wage bekannt vor.","0","1","0","null","","","<div style=""font-size:60px;"">+</div>","null","","","","","","","","","",""
"","html-keyboard-response","136","575396","0.0-10.0-1.3","afk443k6ql","one_one","1","direct_first","1","er10as24","0","24","1","0","3","1","Ich habe an der Uni mal ein Jahr Chinesisch Unterricht gehabt. Ist schon 3 jahre her, sodass ich kaum noch was kann. 
Schon gar keine Zeichen, aber die bei der Lautsprache kam mir manches wage bekannt vor.","0","1","0","null","","","<img src = 'category3/CS1.png' width = '100%;'>","null","","","","","","","","","",""
"","html-keyboard-response","137","575649","0.0-10.0-2.3","afk443k6ql","one_one","1","direct_first","1","er10as24","0","24","1","0","3","1","Ich habe an der Uni mal ein Jahr Chinesisch Unterricht gehabt. Ist schon 3 jahre her, sodass ich kaum noch was kann. 
Schon gar keine Zeichen, aber die bei der Lautsprache kam mir manches wage bekannt vor.","0","1","0","null","","","<img src = 'targets/37.png' width = '100%;'>","null","","","","","","","","","",""
"","html-keyboard-response","138","576127","0.0-10.0-3.3","afk443k6ql","one_one","1","direct_first","1","er10as24","0","24","1","0","3","1","Ich habe an der Uni mal ein Jahr Chinesisch Unterricht gehabt. Ist schon 3 jahre her, sodass ich kaum noch was kann. 
Schon gar keine Zeichen, aber die bei der Lautsprache kam mir manches wage bekannt vor.","0","1","0","476","","","<img src = 'targets/mask.png' width = '100%;'>","75","neg","GS","GSold","3","category3/CS1.png","","targets/37.png","indirect","1","3"
"","html-keyboard-response","139","577635","0.0-10.0-0.4","afk443k6ql","one_one","1","direct_first","1","er10as24","0","24","1","0","3","1","Ich habe an der Uni mal ein Jahr Chinesisch Unterricht gehabt. Ist schon 3 jahre her, sodass ich kaum noch was kann. 
Schon gar keine Zeichen, aber die bei der Lautsprache kam mir manches wage bekannt vor.","0","1","0","null","","","<div style=""font-size:60px;"">+</div>","null","","","","","","","","","",""
"","html-keyboard-response","140","577729","0.0-10.0-1.4","afk443k6ql","one_one","1","direct_first","1","er10as24","0","24","1","0","3","1","Ich habe an der Uni mal ein Jahr Chinesisch Unterricht gehabt. Ist schon 3 jahre her, sodass ich kaum noch was kann. 
Schon gar keine Zeichen, aber die bei der Lautsprache kam mir manches wage bekannt vor.","0","1","0","null","","","<img src = 'category2/CS6.png' width = '100%;'>","null","","","","","","","","","",""
"","html-keyboard-response","141","577982","0.0-10.0-2.4","afk443k6ql","one_one","1","direct_first","1","er10as24","0","24","1","0","3","1","Ich habe an der Uni mal ein Jahr Chinesisch Unterricht gehabt. Ist schon 3 jahre her, sodass ich kaum noch was kann. 
Schon gar keine Zeichen, aber die bei der Lautsprache kam mir manches wage bekannt vor.","0","1","0","null","","","<img src = 'targets/10.png' width = '100%;'>","null","","","","","","","","","",""
"","html-keyboard-response","142","578729","0.0-10.0-3.4","afk443k6ql","one_one","1","direct_first","1","er10as24","0","24","1","0","3","1","Ich habe an der Uni mal ein Jahr Chinesisch Unterricht gehabt. Ist schon 3 jahre her, sodass ich kaum noch was kann. 
Schon gar keine Zeichen, aber die bei der Lautsprache kam mir manches wage bekannt vor.","0","1","0","744","","","<img src = 'targets/mask.png' width = '100%;'>","75","pos","GS","GSold","2","category2/CS6.png","","targets/10.png","indirect","1","4"
"","html-keyboard-response","143","580241","0.0-10.0-0.5","afk443k6ql","one_one","1","direct_first","1","er10as24","0","24","1","0","3","1","Ich habe an der Uni mal ein Jahr Chinesisch Unterricht gehabt. Ist schon 3 jahre her, sodass ich kaum noch was kann. 
Schon gar keine Zeichen, aber die bei der Lautsprache kam mir manches wage bekannt vor.","0","1","0","null","","","<div style=""font-size:60px;"">+</div>","null","","","","","","","","","",""
"","html-keyboard-response","144","580334","0.0-10.0-1.5","afk443k6ql","one_one","1","direct_first","1","er10as24","0","24","1","0","3","1","Ich habe an der Uni mal ein Jahr Chinesisch Unterricht gehabt. Ist schon 3 jahre her, sodass ich kaum noch was kann. 
Schon gar keine Zeichen, aber die bei der Lautsprache kam mir manches wage bekannt vor.","0","1","0","null","","","<img src = 'category3/CS2.png' width = '100%;'>","null","","","","","","","","","",""
"","html-keyboard-response","145","580594","0.0-10.0-2.5","afk443k6ql","one_one","1","direct_first","1","er10as24","0","24","1","0","3","1","Ich habe an der Uni mal ein Jahr Chinesisch Unterricht gehabt. Ist schon 3 jahre her, sodass ich kaum noch was kann. 
Schon gar keine Zeichen, aber die bei der Lautsprache kam mir manches wage bekannt vor.","0","1","0","null","","","<img src = 'targets/5.png' width = '100%;'>","null","","","","","","","","","",""
"","html-keyboard-response","146","581448","0.0-10.0-3.5","afk443k6ql","one_one","1","direct_first","1","er10as24","0","24","1","0","3","1","Ich habe an der Uni mal ein Jahr Chinesisch Unterricht gehabt. Ist schon 3 jahre her, sodass ich kaum noch was kann. 
Schon gar keine Zeichen, aber die bei der Lautsprache kam mir manches wage bekannt vor.","0","1","0","852","","","<img src = 'targets/mask.png' width = '100%;'>","75","neg","GS","GSold","3","category3/CS2.png","","targets/5.png","indirect","1","5"
"","html-keyboard-response","147","582951","0.0-10.0-0.6","afk443k6ql","one_one","1","direct_first","1","er10as24","0","24","1","0","3","1","Ich habe an der Uni mal ein Jahr Chinesisch Unterricht gehabt. Ist schon 3 jahre her, sodass ich kaum noch was kann. 
Schon gar keine Zeichen, aber die bei der Lautsprache kam mir manches wage bekannt vor.","0","1","0","null","","","<div style=""font-size:60px;"">+</div>","null","","","","","","","","","",""
"","html-keyboard-response","148","583046","0.0-10.0-1.6","afk443k6ql","one_one","1","direct_first","1","er10as24","0","24","1","0","3","1","Ich habe an der Uni mal ein Jahr Chinesisch Unterricht gehabt. Ist schon 3 jahre her, sodass ich kaum noch was kann. 
Schon gar keine Zeichen, aber die bei der Lautsprache kam mir manches wage bekannt vor.","0","1","0","null","","","<img src = 'category4/CS2.png' width = '100%;'>","null","","","","","","","","","",""
"","html-keyboard-response","149","583298","0.0-10.0-2.6","afk443k6ql","one_one","1","direct_first","1","er10as24","0","24","1","0","3","1","Ich habe an der Uni mal ein Jahr Chinesisch Unterricht gehabt. Ist schon 3 jahre her, sodass ich kaum noch was kann. 
Schon gar keine Zeichen, aber die bei der Lautsprache kam mir manches wage bekannt vor.","0","1","0","null","","","<img src = 'targets/3.png' width = '100%;'>","null","","","","","","","","","",""
"","html-keyboard-response","150","583722","0.0-10.0-3.6","afk443k6ql","one_one","1","direct_first","1","er10as24","0","24","1","0","3","1","Ich habe an der Uni mal ein Jahr Chinesisch Unterricht gehabt. Ist schon 3 jahre her, sodass ich kaum noch was kann. 
Schon gar keine Zeichen, aber die bei der Lautsprache kam mir manches wage bekannt vor.","0","1","0","422","","","<img src = 'targets/mask.png' width = '100%;'>","68","pos","CS","CS","4","category4/CS2.png","","targets/3.png","indirect","0","6"
"","html-keyboard-response","151","585227","0.0-10.0-0.7","afk443k6ql","one_one","1","direct_first","1","er10as24","0","24","1","0","3","1","Ich habe an der Uni mal ein Jahr Chinesisch Unterricht gehabt. Ist schon 3 jahre her, sodass ich kaum noch was kann. 
Schon gar keine Zeichen, aber die bei der Lautsprache kam mir manches wage bekannt vor.","0","1","0","null","","","<div style=""font-size:60px;"">+</div>","null","","","","","","","","","",""
"","html-keyboard-response","152","585319","0.0-10.0-1.7","afk443k6ql","one_one","1","direct_first","1","er10as24","0","24","1","0","3","1","Ich habe an der Uni mal ein Jahr Chinesisch Unterricht gehabt. Ist schon 3 jahre her, sodass ich kaum noch was kann. 
Schon gar keine Zeichen, aber die bei der Lautsprache kam mir manches wage bekannt vor.","0","1","0","null","","","<img src = 'category4/CS6.png' width = '100%;'>","null","","","","","","","","","",""
"","html-keyboard-response","153","585572","0.0-10.0-2.7","afk443k6ql","one_one","1","direct_first","1","er10as24","0","24","1","0","3","1","Ich habe an der Uni mal ein Jahr Chinesisch Unterricht gehabt. Ist schon 3 jahre her, sodass ich kaum noch was kann. 
Schon gar keine Zeichen, aber die bei der Lautsprache kam mir manches wage bekannt vor.","0","1","0","null","","","<img src = 'targets/11.png' width = '100%;'>","null","","","","","","","","","",""
"","html-keyboard-response","154","586364","0.0-10.0-3.7","afk443k6ql","one_one","1","direct_first","1","er10as24","0","24","1","0","3","1","Ich habe an der Uni mal ein Jahr Chinesisch Unterricht gehabt. Ist schon 3 jahre her, sodass ich kaum noch was kann. 
Schon gar keine Zeichen, aber die bei der Lautsprache kam mir manches wage bekannt vor.","0","1","0","791","","","<img src = 'targets/mask.png' width = '100%;'>","75","pos","GS","GSold","4","category4/CS6.png","","targets/11.png","indirect","1","7"
"","html-keyboard-response","155","587874","0.0-10.0-0.8","afk443k6ql","one_one","1","direct_first","1","er10as24","0","24","1","0","3","1","Ich habe an der Uni mal ein Jahr Chinesisch Unterricht gehabt. Ist schon 3 jahre her, sodass ich kaum noch was kann. 
Schon gar keine Zeichen, aber die bei der Lautsprache kam mir manches wage bekannt vor.","0","1","0","null","","","<div style=""font-size:60px;"">+</div>","null","","","","","","","","","",""
"","html-keyboard-response","156","587967","0.0-10.0-1.8","afk443k6ql","one_one","1","direct_first","1","er10as24","0","24","1","0","3","1","Ich habe an der Uni mal ein Jahr Chinesisch Unterricht gehabt. Ist schon 3 jahre her, sodass ich kaum noch was kann. 
Schon gar keine Zeichen, aber die bei der Lautsprache kam mir manches wage bekannt vor.","0","1","0","null","","","<img src = 'category1/CS3.png' width = '100%;'>","null","","","","","","","","","",""
"","html-keyboard-response","157","588222","0.0-10.0-2.8","afk443k6ql","one_one","1","direct_first","1","er10as24","0","24","1","0","3","1","Ich habe an der Uni mal ein Jahr Chinesisch Unterricht gehabt. Ist schon 3 jahre her, sodass ich kaum noch was kann. 
Schon gar keine Zeichen, aber die bei der Lautsprache kam mir manches wage bekannt vor.","0","1","0","null","","","<img src = 'targets/27.png' width = '100%;'>","null","","","","","","","","","",""
"","html-keyboard-response","158","589001","0.0-10.0-3.8","afk443k6ql","one_one","1","direct_first","1","er10as24","0","24","1","0","3","1","Ich habe an der Uni mal ein Jahr Chinesisch Unterricht gehabt. Ist schon 3 jahre her, sodass ich kaum noch was kann. 
Schon gar keine Zeichen, aber die bei der Lautsprache kam mir manches wage bekannt vor.","0","1","0","777","","","<img src = 'targets/mask.png' width = '100%;'>","75","neg","GS","GSold","1","category1/CS3.png","","targets/27.png","indirect","1","8"
"","html-keyboard-response","159","590505","0.0-10.0-0.9","afk443k6ql","one_one","1","direct_first","1","er10as24","0","24","1","0","3","1","Ich habe an der Uni mal ein Jahr Chinesisch Unterricht gehabt. Ist schon 3 jahre her, sodass ich kaum noch was kann. 
Schon gar keine Zeichen, aber die bei der Lautsprache kam mir manches wage bekannt vor.","0","1","0","null","","","<div style=""font-size:60px;"">+</div>","null","","","","","","","","","",""
"","html-keyboard-response","160","590603","0.0-10.0-1.9","afk443k6ql","one_one","1","direct_first","1","er10as24","0","24","1","0","3","1","Ich habe an der Uni mal ein Jahr Chinesisch Unterricht gehabt. Ist schon 3 jahre her, sodass ich kaum noch was kann. 
Schon gar keine Zeichen, aber die bei der Lautsprache kam mir manches wage bekannt vor.","0","1","0","null","","","<img src = 'category3/CS7.png' width = '100%;'>","null","","","","","","","","","",""
"","html-keyboard-response","161","590863","0.0-10.0-2.9","afk443k6ql","one_one","1","direct_first","1","er10as24","0","24","1","0","3","1","Ich habe an der Uni mal ein Jahr Chinesisch Unterricht gehabt. Ist schon 3 jahre her, sodass ich kaum noch was kann. 
Schon gar keine Zeichen, aber die bei der Lautsprache kam mir manches wage bekannt vor.","0","1","0","null","","","<img src = 'targets/14.png' width = '100%;'>","null","","","","","","","","","",""
"","html-keyboard-response","162","591556","0.0-10.0-3.9","afk443k6ql","one_one","1","direct_first","1","er10as24","0","24","1","0","3","1","Ich habe an der Uni mal ein Jahr Chinesisch Unterricht gehabt. Ist schon 3 jahre her, sodass ich kaum noch was kann. 
Schon gar keine Zeichen, aber die bei der Lautsprache kam mir manches wage bekannt vor.","0","1","0","692","","","<img src = 'targets/mask.png' width = '100%;'>","68","neg","CS","CS","3","category3/CS7.png","","targets/14.png","indirect","0","9"
"","html-keyboard-response","163","593063","0.0-10.0-0.10","afk443k6ql","one_one","1","direct_first","1","er10as24","0","24","1","0","3","1","Ich habe an der Uni mal ein Jahr Chinesisch Unterricht gehabt. Ist schon 3 jahre her, sodass ich kaum noch was kann. 
Schon gar keine Zeichen, aber die bei der Lautsprache kam mir manches wage bekannt vor.","0","1","0","null","","","<div style=""font-size:60px;"">+</div>","null","","","","","","","","","",""
"","html-keyboard-response","164","593157","0.0-10.0-1.10","afk443k6ql","one_one","1","direct_first","1","er10as24","0","24","1","0","3","1","Ich habe an der Uni mal ein Jahr Chinesisch Unterricht gehabt. Ist schon 3 jahre her, sodass ich kaum noch was kann. 
Schon gar keine Zeichen, aber die bei der Lautsprache kam mir manches wage bekannt vor.","0","1","0","null","","","<img src = 'category1/CS1.png' width = '100%;'>","null","","","","","","","","","",""
"","html-keyboard-response","165","593412","0.0-10.0-2.10","afk443k6ql","one_one","1","direct_first","1","er10as24","0","24","1","0","3","1","Ich habe an der Uni mal ein Jahr Chinesisch Unterricht gehabt. Ist schon 3 jahre her, sodass ich kaum noch was kann. 
Schon gar keine Zeichen, aber die bei der Lautsprache kam mir manches wage bekannt vor.","0","1","0","null","","","<img src = 'targets/18.png' width = '100%;'>","null","","","","","","","","","",""
"","html-keyboard-response","166","594179","0.0-10.0-3.10","afk443k6ql","one_one","1","direct_first","1","er10as24","0","24","1","0","3","1","Ich habe an der Uni mal ein Jahr Chinesisch Unterricht gehabt. Ist schon 3 jahre her, sodass ich kaum noch was kann. 
Schon gar keine Zeichen, aber die bei der Lautsprache kam mir manches wage bekannt vor.","0","1","0","766","","","<img src = 'targets/mask.png' width = '100%;'>","75","neg","CS","CS","1","category1/CS1.png","","targets/18.png","indirect","1","10"
"","html-keyboard-response","167","595686","0.0-10.0-0.11","afk443k6ql","one_one","1","direct_first","1","er10as24","0","24","1","0","3","1","Ich habe an der Uni mal ein Jahr Chinesisch Unterricht gehabt. Ist schon 3 jahre her, sodass ich kaum noch was kann. 
Schon gar keine Zeichen, aber die bei der Lautsprache kam mir manches wage bekannt vor.","0","1","0","null","","","<div style=""font-size:60px;"">+</div>","null","","","","","","","","","",""
"","html-keyboard-response","168","595780","0.0-10.0-1.11","afk443k6ql","one_one","1","direct_first","1","er10as24","0","24","1","0","3","1","Ich habe an der Uni mal ein Jahr Chinesisch Unterricht gehabt. Ist schon 3 jahre her, sodass ich kaum noch was kann. 
Schon gar keine Zeichen, aber die bei der Lautsprache kam mir manches wage bekannt vor.","0","1","0","null","","","<img src = 'category2/CS3.png' width = '100%;'>","null","","","","","","","","","",""
"","html-keyboard-response","169","596036","0.0-10.0-2.11","afk443k6ql","one_one","1","direct_first","1","er10as24","0","24","1","0","3","1","Ich habe an der Uni mal ein Jahr Chinesisch Unterricht gehabt. Ist schon 3 jahre her, sodass ich kaum noch was kann. 
Schon gar keine Zeichen, aber die bei der Lautsprache kam mir manches wage bekannt vor.","0","1","0","null","","","<img src = 'targets/43.png' width = '100%;'>","null","","","","","","","","","",""
"","html-keyboard-response","170","596621","0.0-10.0-3.11","afk443k6ql","one_one","1","direct_first","1","er10as24","0","24","1","0","3","1","Ich habe an der Uni mal ein Jahr Chinesisch Unterricht gehabt. Ist schon 3 jahre her, sodass ich kaum noch was kann. 
Schon gar keine Zeichen, aber die bei der Lautsprache kam mir manches wage bekannt vor.","0","1","0","583","","","<img src = 'targets/mask.png' width = '100%;'>","75","pos","GS","GSold","2","category2/CS3.png","","targets/43.png","indirect","1","11"
"","html-keyboard-response","171","598130","0.0-10.0-0.12","afk443k6ql","one_one","1","direct_first","1","er10as24","0","24","1","0","3","1","Ich habe an der Uni mal ein Jahr Chinesisch Unterricht gehabt. Ist schon 3 jahre her, sodass ich kaum noch was kann. 
Schon gar keine Zeichen, aber die bei der Lautsprache kam mir manches wage bekannt vor.","0","1","0","null","","","<div style=""font-size:60px;"">+</div>","null","","","","","","","","","",""
"","html-keyboard-response","172","598222","0.0-10.0-1.12","afk443k6ql","one_one","1","direct_first","1","er10as24","0","24","1","0","3","1","Ich habe an der Uni mal ein Jahr Chinesisch Unterricht gehabt. Ist schon 3 jahre her, sodass ich kaum noch was kann. 
Schon gar keine Zeichen, aber die bei der Lautsprache kam mir manches wage bekannt vor.","0","1","0","null","","","<img src = 'category4/CS9.png' width = '100%;'>","null","","","","","","","","","",""
"","html-keyboard-response","173","598477","0.0-10.0-2.12","afk443k6ql","one_one","1","direct_first","1","er10as24","0","24","1","0","3","1","Ich habe an der Uni mal ein Jahr Chinesisch Unterricht gehabt. Ist schon 3 jahre her, sodass ich kaum noch was kann. 
Schon gar keine Zeichen, aber die bei der Lautsprache kam mir manches wage bekannt vor.","0","1","0","null","","","<img src = 'targets/16.png' width = '100%;'>","null","","","","","","","","","",""
"","html-keyboard-response","174","599328","0.0-10.0-3.12","afk443k6ql","one_one","1","direct_first","1","er10as24","0","24","1","0","3","1","Ich habe an der Uni mal ein Jahr Chinesisch Unterricht gehabt. Ist schon 3 jahre her, sodass ich kaum noch was kann. 
Schon gar keine Zeichen, aber die bei der Lautsprache kam mir manches wage bekannt vor.","0","1","0","850","","","<img src = 'targets/mask.png' width = '100%;'>","68","pos","GS","GSold","4","category4/CS9.png","","targets/16.png","indirect","0","12"
"","html-keyboard-response","175","600838","0.0-10.0-0.13","afk443k6ql","one_one","1","direct_first","1","er10as24","0","24","1","0","3","1","Ich habe an der Uni mal ein Jahr Chinesisch Unterricht gehabt. Ist schon 3 jahre her, sodass ich kaum noch was kann. 
Schon gar keine Zeichen, aber die bei der Lautsprache kam mir manches wage bekannt vor.","0","1","0","null","","","<div style=""font-size:60px;"">+</div>","null","","","","","","","","","",""
"","html-keyboard-response","176","600930","0.0-10.0-1.13","afk443k6ql","one_one","1","direct_first","1","er10as24","0","24","1","0","3","1","Ich habe an der Uni mal ein Jahr Chinesisch Unterricht gehabt. Ist schon 3 jahre her, sodass ich kaum noch was kann. 
Schon gar keine Zeichen, aber die bei der Lautsprache kam mir manches wage bekannt vor.","0","1","0","null","","","<img src = 'category2/CS4.png' width = '100%;'>","null","","","","","","","","","",""
"","html-keyboard-response","177","601189","0.0-10.0-2.13","afk443k6ql","one_one","1","direct_first","1","er10as24","0","24","1","0","3","1","Ich habe an der Uni mal ein Jahr Chinesisch Unterricht gehabt. Ist schon 3 jahre her, sodass ich kaum noch was kann. 
Schon gar keine Zeichen, aber die bei der Lautsprache kam mir manches wage bekannt vor.","0","1","0","null","","","<img src = 'targets/1.png' width = '100%;'>","null","","","","","","","","","",""
"","html-keyboard-response","178","601578","0.0-10.0-3.13","afk443k6ql","one_one","1","direct_first","1","er10as24","0","24","1","0","3","1","Ich habe an der Uni mal ein Jahr Chinesisch Unterricht gehabt. Ist schon 3 jahre her, sodass ich kaum noch was kann. 
Schon gar keine Zeichen, aber die bei der Lautsprache kam mir manches wage bekannt vor.","0","1","0","386","","","<img src = 'targets/mask.png' width = '100%;'>","75","pos","CS","CS","2","category2/CS4.png","","targets/1.png","indirect","1","13"
"","html-keyboard-response","179","603083","0.0-10.0-0.14","afk443k6ql","one_one","1","direct_first","1","er10as24","0","24","1","0","3","1","Ich habe an der Uni mal ein Jahr Chinesisch Unterricht gehabt. Ist schon 3 jahre her, sodass ich kaum noch was kann. 
Schon gar keine Zeichen, aber die bei der Lautsprache kam mir manches wage bekannt vor.","0","1","0","null","","","<div style=""font-size:60px;"">+</div>","null","","","","","","","","","",""
"","html-keyboard-response","180","603176","0.0-10.0-1.14","afk443k6ql","one_one","1","direct_first","1","er10as24","0","24","1","0","3","1","Ich habe an der Uni mal ein Jahr Chinesisch Unterricht gehabt. Ist schon 3 jahre her, sodass ich kaum noch was kann. 
Schon gar keine Zeichen, aber die bei der Lautsprache kam mir manches wage bekannt vor.","0","1","0","null","","","<img src = 'category2/CS7.png' width = '100%;'>","null","","","","","","","","","",""
"","html-keyboard-response","181","603431","0.0-10.0-2.14","afk443k6ql","one_one","1","direct_first","1","er10as24","0","24","1","0","3","1","Ich habe an der Uni mal ein Jahr Chinesisch Unterricht gehabt. Ist schon 3 jahre her, sodass ich kaum noch was kann. 
Schon gar keine Zeichen, aber die bei der Lautsprache kam mir manches wage bekannt vor.","0","1","0","null","","","<img src = 'targets/38.png' width = '100%;'>","null","","","","","","","","","",""
"","html-keyboard-response","182","604043","0.0-10.0-3.14","afk443k6ql","one_one","1","direct_first","1","er10as24","0","24","1","0","3","1","Ich habe an der Uni mal ein Jahr Chinesisch Unterricht gehabt. Ist schon 3 jahre her, sodass ich kaum noch was kann. 
Schon gar keine Zeichen, aber die bei der Lautsprache kam mir manches wage bekannt vor.","0","1","0","610","","","<img src = 'targets/mask.png' width = '100%;'>","75","pos","GS","GSold","2","category2/CS7.png","","targets/38.png","indirect","1","14"
"","html-keyboard-response","183","605547","0.0-10.0-0.15","afk443k6ql","one_one","1","direct_first","1","er10as24","0","24","1","0","3","1","Ich habe an der Uni mal ein Jahr Chinesisch Unterricht gehabt. Ist schon 3 jahre her, sodass ich kaum noch was kann. 
Schon gar keine Zeichen, aber die bei der Lautsprache kam mir manches wage bekannt vor.","0","1","0","null","","","<div style=""font-size:60px;"">+</div>","null","","","","","","","","","",""
"","html-keyboard-response","184","605643","0.0-10.0-1.15","afk443k6ql","one_one","1","direct_first","1","er10as24","0","24","1","0","3","1","Ich habe an der Uni mal ein Jahr Chinesisch Unterricht gehabt. Ist schon 3 jahre her, sodass ich kaum noch was kann. 
Schon gar keine Zeichen, aber die bei der Lautsprache kam mir manches wage bekannt vor.","0","1","0","null","","","<img src = 'category1/CS7.png' width = '100%;'>","null","","","","","","","","","",""
"","html-keyboard-response","185","605904","0.0-10.0-2.15","afk443k6ql","one_one","1","direct_first","1","er10as24","0","24","1","0","3","1","Ich habe an der Uni mal ein Jahr Chinesisch Unterricht gehabt. Ist schon 3 jahre her, sodass ich kaum noch was kann. 
Schon gar keine Zeichen, aber die bei der Lautsprache kam mir manches wage bekannt vor.","0","1","0","null","","","<img src = 'targets/35.png' width = '100%;'>","null","","","","","","","","","",""
"","html-keyboard-response","186","606573","0.0-10.0-3.15","afk443k6ql","one_one","1","direct_first","1","er10as24","0","24","1","0","3","1","Ich habe an der Uni mal ein Jahr Chinesisch Unterricht gehabt. Ist schon 3 jahre her, sodass ich kaum noch was kann. 
Schon gar keine Zeichen, aber die bei der Lautsprache kam mir manches wage bekannt vor.","0","1","0","667","","","<img src = 'targets/mask.png' width = '100%;'>","68","neg","GS","GSold","1","category1/CS7.png","","targets/35.png","indirect","0","15"
"","survey-html-form","187","610488","0.0-11.0","afk443k6ql","one_one","1","direct_first","1","er10as24","0","24","1","0","3","1","Ich habe an der Uni mal ein Jahr Chinesisch Unterricht gehabt. Ist schon 3 jahre her, sodass ich kaum noch was kann. 
Schon gar keine Zeichen, aber die bei der Lautsprache kam mir manches wage bekannt vor.","0","1","0","3411","","{}","","","","","","","","","","","",""
