"success","trial_type","trial_index","time_elapsed","internal_node_id","subject","condition","condition_code","measure","measure_code","codeword","gender","age","education","chinese","fach","handedness","rt","url","responses","stimulus","key_press","val","type","type_specific","category","cs_selected","target","indirect","task","nr_pres","response"
"true","fullscreen","0","1779","0.0-0.0","bx1n6f7v29","one_one","1","indirect_first","0","an07as27","0","27","1","1","3","1","","","","","","","","","","","","","","",""
"","external-html","1","20946","0.0-1.0","bx1n6f7v29","one_one","1","indirect_first","0","an07as27","0","27","1","1","3","1","19143","text/information.html","","","","","","","","","","","","",""
"","external-html","2","31378","0.0-2.0","bx1n6f7v29","one_one","1","indirect_first","0","an07as27","0","27","1","1","3","1","10416","text/consent.html","","","","","","","","","","","","",""
"","survey-html-form","3","89817","0.0-3.0","bx1n6f7v29","one_one","1","indirect_first","0","an07as27","0","27","1","1","3","1","58437","","{""codeword_enter"":""an07as27""}","","","","","","","","","","","",""
"","survey-html-form","4","108899","0.0-4.0","bx1n6f7v29","one_one","1","indirect_first","0","an07as27","0","27","1","1","3","1","19080","","{""age"":""27"",""education"":""1"",""subject"":""3"",""gender"":""0"",""handedness"":""1"",""chinese"":""1""}","","","","","","","","","","","",""
"","survey-html-form","5","138395","0.0-5.0","bx1n6f7v29","one_one","1","indirect_first","0","an07as27","0","27","1","1","3","1","29493","","{}","","","","","","","","","","","",""
"","html-keyboard-response","6","142409","0.0-6.0-0.0-0.0","bx1n6f7v29","one_one","1","indirect_first","0","an07as27","0","27","1","1","3","1","null","","","<div class = 'row'><div class = 'column'><img src = 'category4/CS4.png' width = '70%;'></div><div class = 'column'><img src = 'usneg/9584.bmp' width = '100%;'></div></div>","null","neg","CS","CS","4","category4/CS4.png","","","","",""
"","html-keyboard-response","7","144949","0.0-6.0-0.0-0.1","bx1n6f7v29","one_one","1","indirect_first","0","an07as27","0","27","1","1","3","1","null","","","<div class = 'row'><div class = 'column'><img src = 'category3/CS6.png' width = '70%;'></div><div class = 'column'><img src = 'usneg/9340.bmp' width = '100%;'></div></div>","null","neg","CS","CS","3","category3/CS6.png","","","","",""
"","html-keyboard-response","8","147488","0.0-6.0-0.0-0.2","bx1n6f7v29","one_one","1","indirect_first","0","an07as27","0","27","1","1","3","1","null","","","<div class = 'row'><div class = 'column'><img src = 'uspos/2057.bmp' width = '100%;'></div><div class = 'column'><img src = 'category2/CS10.png' width = '70%;'></div></div>","null","pos","CS","CS","2","category2/CS10.png","","","","",""
"","html-keyboard-response","9","150028","0.0-6.0-0.0-0.3","bx1n6f7v29","one_one","1","indirect_first","0","an07as27","0","27","1","1","3","1","null","","","<div class = 'row'><div class = 'column'><img src = 'usneg/9340.bmp' width = '100%;'></div><div class = 'column'><img src = 'category3/CS6.png' width = '70%;'></div></div>","null","neg","CS","CS","3","category3/CS6.png","","","","",""
"","html-keyboard-response","10","152568","0.0-6.0-0.0-0.4","bx1n6f7v29","one_one","1","indirect_first","0","an07as27","0","27","1","1","3","1","null","","","<div class = 'row'><div class = 'column'><img src = 'uspos/2057.bmp' width = '100%;'></div><div class = 'column'><img src = 'category2/CS10.png' width = '70%;'></div></div>","null","pos","CS","CS","2","category2/CS10.png","","","","",""
"","html-keyboard-response","11","155107","0.0-6.0-0.0-0.5","bx1n6f7v29","one_one","1","indirect_first","0","an07as27","0","27","1","1","3","1","null","","","<div class = 'row'><div class = 'column'><img src = 'category3/CS6.png' width = '70%;'></div><div class = 'column'><img src = 'usneg/9340.bmp' width = '100%;'></div></div>","null","neg","CS","CS","3","category3/CS6.png","","","","",""
"","html-keyboard-response","12","157648","0.0-6.0-0.0-0.6","bx1n6f7v29","one_one","1","indirect_first","0","an07as27","0","27","1","1","3","1","null","","","<div class = 'row'><div class = 'column'><img src = 'category1/CS2.png' width = '70%;'></div><div class = 'column'><img src = 'uspos/1460.bmp' width = '100%;'></div></div>","null","pos","CS","CS","1","category1/CS2.png","","","","",""
"","html-keyboard-response","13","160177","0.0-6.0-0.0-0.7","bx1n6f7v29","one_one","1","indirect_first","0","an07as27","0","27","1","1","3","1","null","","","<div class = 'row'><div class = 'column'><img src = 'category4/CS4.png' width = '70%;'></div><div class = 'column'><img src = 'usneg/9584.bmp' width = '100%;'></div></div>","null","neg","CS","CS","4","category4/CS4.png","","","","",""
"","html-keyboard-response","14","162708","0.0-6.0-0.0-0.8","bx1n6f7v29","one_one","1","indirect_first","0","an07as27","0","27","1","1","3","1","null","","","<div class = 'row'><div class = 'column'><img src = 'usneg/9340.bmp' width = '100%;'></div><div class = 'column'><img src = 'category3/CS6.png' width = '70%;'></div></div>","null","neg","CS","CS","3","category3/CS6.png","","","","",""
"","html-keyboard-response","15","165247","0.0-6.0-0.0-0.9","bx1n6f7v29","one_one","1","indirect_first","0","an07as27","0","27","1","1","3","1","null","","","<div class = 'row'><div class = 'column'><img src = 'category2/CS10.png' width = '70%;'></div><div class = 'column'><img src = 'uspos/2057.bmp' width = '100%;'></div></div>","null","pos","CS","CS","2","category2/CS10.png","","","","",""
"","html-keyboard-response","16","167784","0.0-6.0-0.0-0.10","bx1n6f7v29","one_one","1","indirect_first","0","an07as27","0","27","1","1","3","1","null","","","<div class = 'row'><div class = 'column'><img src = 'usneg/9584.bmp' width = '100%;'></div><div class = 'column'><img src = 'category4/CS4.png' width = '70%;'></div></div>","null","neg","CS","CS","4","category4/CS4.png","","","","",""
"","html-keyboard-response","17","170288","0.0-6.0-0.0-0.11","bx1n6f7v29","one_one","1","indirect_first","0","an07as27","0","27","1","1","3","1","null","","","<div class = 'row'><div class = 'column'><img src = 'uspos/2057.bmp' width = '100%;'></div><div class = 'column'><img src = 'category2/CS10.png' width = '70%;'></div></div>","null","pos","CS","CS","2","category2/CS10.png","","","","",""
"","html-keyboard-response","18","172808","0.0-6.0-0.0-0.12","bx1n6f7v29","one_one","1","indirect_first","0","an07as27","0","27","1","1","3","1","null","","","<div class = 'row'><div class = 'column'><img src = 'uspos/1460.bmp' width = '100%;'></div><div class = 'column'><img src = 'category1/CS2.png' width = '70%;'></div></div>","null","pos","CS","CS","1","category1/CS2.png","","","","",""
"","html-keyboard-response","19","175348","0.0-6.0-0.0-0.13","bx1n6f7v29","one_one","1","indirect_first","0","an07as27","0","27","1","1","3","1","null","","","<div class = 'row'><div class = 'column'><img src = 'category4/CS4.png' width = '70%;'></div><div class = 'column'><img src = 'usneg/9584.bmp' width = '100%;'></div></div>","null","neg","CS","CS","4","category4/CS4.png","","","","",""
"","html-keyboard-response","20","177887","0.0-6.0-0.0-0.14","bx1n6f7v29","one_one","1","indirect_first","0","an07as27","0","27","1","1","3","1","null","","","<div class = 'row'><div class = 'column'><img src = 'uspos/1460.bmp' width = '100%;'></div><div class = 'column'><img src = 'category1/CS2.png' width = '70%;'></div></div>","null","pos","CS","CS","1","category1/CS2.png","","","","",""
"","html-keyboard-response","21","180428","0.0-6.0-0.0-0.15","bx1n6f7v29","one_one","1","indirect_first","0","an07as27","0","27","1","1","3","1","null","","","<div class = 'row'><div class = 'column'><img src = 'usneg/9584.bmp' width = '100%;'></div><div class = 'column'><img src = 'category4/CS4.png' width = '70%;'></div></div>","null","neg","CS","CS","4","category4/CS4.png","","","","",""
"","html-keyboard-response","22","182967","0.0-6.0-0.0-0.16","bx1n6f7v29","one_one","1","indirect_first","0","an07as27","0","27","1","1","3","1","null","","","<div class = 'row'><div class = 'column'><img src = 'category1/CS2.png' width = '70%;'></div><div class = 'column'><img src = 'uspos/1460.bmp' width = '100%;'></div></div>","null","pos","CS","CS","1","category1/CS2.png","","","","",""
"","html-keyboard-response","23","185488","0.0-6.0-0.0-0.17","bx1n6f7v29","one_one","1","indirect_first","0","an07as27","0","27","1","1","3","1","null","","","<div class = 'row'><div class = 'column'><img src = 'usneg/9340.bmp' width = '100%;'></div><div class = 'column'><img src = 'category3/CS6.png' width = '70%;'></div></div>","null","neg","CS","CS","3","category3/CS6.png","","","","",""
"","html-keyboard-response","24","188027","0.0-6.0-0.0-0.18","bx1n6f7v29","one_one","1","indirect_first","0","an07as27","0","27","1","1","3","1","null","","","<div class = 'row'><div class = 'column'><img src = 'uspos/1460.bmp' width = '100%;'></div><div class = 'column'><img src = 'category1/CS2.png' width = '70%;'></div></div>","null","pos","CS","CS","1","category1/CS2.png","","","","",""
"","html-keyboard-response","25","190548","0.0-6.0-0.0-0.19","bx1n6f7v29","one_one","1","indirect_first","0","an07as27","0","27","1","1","3","1","null","","","<div class = 'row'><div class = 'column'><img src = 'category2/CS10.png' width = '70%;'></div><div class = 'column'><img src = 'uspos/2057.bmp' width = '100%;'></div></div>","null","pos","CS","CS","2","category2/CS10.png","","","","",""
"","survey-html-form","26","193010","0.0-6.0-1.0","bx1n6f7v29","one_one","1","indirect_first","0","an07as27","0","27","1","1","3","1","1942","","{}","","","","","","","","","","","",""
"","html-keyboard-response","27","197044","0.0-6.0-2.0-0.0","bx1n6f7v29","one_one","1","indirect_first","0","an07as27","0","27","1","1","3","1","null","","","<div class = 'row'><div class = 'column'><img src = 'category3/CS6.png' width = '70%;'></div><div class = 'column'><img src = 'usneg/9340.bmp' width = '100%;'></div></div>","null","neg","CS","CS","3","category3/CS6.png","","","","",""
"","html-keyboard-response","28","199564","0.0-6.0-2.0-0.1","bx1n6f7v29","one_one","1","indirect_first","0","an07as27","0","27","1","1","3","1","null","","","<div class = 'row'><div class = 'column'><img src = 'category4/CS4.png' width = '70%;'></div><div class = 'column'><img src = 'usneg/9584.bmp' width = '100%;'></div></div>","null","neg","CS","CS","4","category4/CS4.png","","","","",""
"","html-keyboard-response","29","202068","0.0-6.0-2.0-0.2","bx1n6f7v29","one_one","1","indirect_first","0","an07as27","0","27","1","1","3","1","null","","","<div class = 'row'><div class = 'column'><img src = 'category3/CS6.png' width = '70%;'></div><div class = 'column'><img src = 'usneg/9340.bmp' width = '100%;'></div></div>","null","neg","CS","CS","3","category3/CS6.png","","","","",""
"","html-keyboard-response","30","204607","0.0-6.0-2.0-0.3","bx1n6f7v29","one_one","1","indirect_first","0","an07as27","0","27","1","1","3","1","null","","","<div class = 'row'><div class = 'column'><img src = 'category4/CS4.png' width = '70%;'></div><div class = 'column'><img src = 'usneg/9584.bmp' width = '100%;'></div></div>","null","neg","CS","CS","4","category4/CS4.png","","","","",""
"","html-keyboard-response","31","207148","0.0-6.0-2.0-0.4","bx1n6f7v29","one_one","1","indirect_first","0","an07as27","0","27","1","1","3","1","null","","","<div class = 'row'><div class = 'column'><img src = 'category3/CS6.png' width = '70%;'></div><div class = 'column'><img src = 'usneg/9340.bmp' width = '100%;'></div></div>","null","neg","CS","CS","3","category3/CS6.png","","","","",""
"","html-keyboard-response","32","209688","0.0-6.0-2.0-0.5","bx1n6f7v29","one_one","1","indirect_first","0","an07as27","0","27","1","1","3","1","null","","","<div class = 'row'><div class = 'column'><img src = 'category4/CS4.png' width = '70%;'></div><div class = 'column'><img src = 'usneg/9584.bmp' width = '100%;'></div></div>","null","neg","CS","CS","4","category4/CS4.png","","","","",""
"","html-keyboard-response","33","212228","0.0-6.0-2.0-0.6","bx1n6f7v29","one_one","1","indirect_first","0","an07as27","0","27","1","1","3","1","null","","","<div class = 'row'><div class = 'column'><img src = 'uspos/1460.bmp' width = '100%;'></div><div class = 'column'><img src = 'category1/CS2.png' width = '70%;'></div></div>","null","pos","CS","CS","1","category1/CS2.png","","","","",""
"","html-keyboard-response","34","214748","0.0-6.0-2.0-0.7","bx1n6f7v29","one_one","1","indirect_first","0","an07as27","0","27","1","1","3","1","null","","","<div class = 'row'><div class = 'column'><img src = 'uspos/2057.bmp' width = '100%;'></div><div class = 'column'><img src = 'category2/CS10.png' width = '70%;'></div></div>","null","pos","CS","CS","2","category2/CS10.png","","","","",""
"","html-keyboard-response","35","217278","0.0-6.0-2.0-0.8","bx1n6f7v29","one_one","1","indirect_first","0","an07as27","0","27","1","1","3","1","null","","","<div class = 'row'><div class = 'column'><img src = 'category3/CS6.png' width = '70%;'></div><div class = 'column'><img src = 'usneg/9340.bmp' width = '100%;'></div></div>","null","neg","CS","CS","3","category3/CS6.png","","","","",""
"","html-keyboard-response","36","219817","0.0-6.0-2.0-0.9","bx1n6f7v29","one_one","1","indirect_first","0","an07as27","0","27","1","1","3","1","null","","","<div class = 'row'><div class = 'column'><img src = 'uspos/2057.bmp' width = '100%;'></div><div class = 'column'><img src = 'category2/CS10.png' width = '70%;'></div></div>","null","pos","CS","CS","2","category2/CS10.png","","","","",""
"","html-keyboard-response","37","222358","0.0-6.0-2.0-0.10","bx1n6f7v29","one_one","1","indirect_first","0","an07as27","0","27","1","1","3","1","null","","","<div class = 'row'><div class = 'column'><img src = 'category1/CS2.png' width = '70%;'></div><div class = 'column'><img src = 'uspos/1460.bmp' width = '100%;'></div></div>","null","pos","CS","CS","1","category1/CS2.png","","","","",""
"","html-keyboard-response","38","224888","0.0-6.0-2.0-0.11","bx1n6f7v29","one_one","1","indirect_first","0","an07as27","0","27","1","1","3","1","null","","","<div class = 'row'><div class = 'column'><img src = 'uspos/2057.bmp' width = '100%;'></div><div class = 'column'><img src = 'category2/CS10.png' width = '70%;'></div></div>","null","pos","CS","CS","2","category2/CS10.png","","","","",""
"","html-keyboard-response","39","227418","0.0-6.0-2.0-0.12","bx1n6f7v29","one_one","1","indirect_first","0","an07as27","0","27","1","1","3","1","null","","","<div class = 'row'><div class = 'column'><img src = 'category1/CS2.png' width = '70%;'></div><div class = 'column'><img src = 'uspos/1460.bmp' width = '100%;'></div></div>","null","pos","CS","CS","1","category1/CS2.png","","","","",""
"","html-keyboard-response","40","229958","0.0-6.0-2.0-0.13","bx1n6f7v29","one_one","1","indirect_first","0","an07as27","0","27","1","1","3","1","null","","","<div class = 'row'><div class = 'column'><img src = 'uspos/2057.bmp' width = '100%;'></div><div class = 'column'><img src = 'category2/CS10.png' width = '70%;'></div></div>","null","pos","CS","CS","2","category2/CS10.png","","","","",""
"","html-keyboard-response","41","232498","0.0-6.0-2.0-0.14","bx1n6f7v29","one_one","1","indirect_first","0","an07as27","0","27","1","1","3","1","null","","","<div class = 'row'><div class = 'column'><img src = 'category4/CS4.png' width = '70%;'></div><div class = 'column'><img src = 'usneg/9584.bmp' width = '100%;'></div></div>","null","neg","CS","CS","4","category4/CS4.png","","","","",""
"","html-keyboard-response","42","235038","0.0-6.0-2.0-0.15","bx1n6f7v29","one_one","1","indirect_first","0","an07as27","0","27","1","1","3","1","null","","","<div class = 'row'><div class = 'column'><img src = 'category1/CS2.png' width = '70%;'></div><div class = 'column'><img src = 'uspos/1460.bmp' width = '100%;'></div></div>","null","pos","CS","CS","1","category1/CS2.png","","","","",""
"","html-keyboard-response","43","237568","0.0-6.0-2.0-0.16","bx1n6f7v29","one_one","1","indirect_first","0","an07as27","0","27","1","1","3","1","null","","","<div class = 'row'><div class = 'column'><img src = 'usneg/9584.bmp' width = '100%;'></div><div class = 'column'><img src = 'category4/CS4.png' width = '70%;'></div></div>","null","neg","CS","CS","4","category4/CS4.png","","","","",""
"","html-keyboard-response","44","240088","0.0-6.0-2.0-0.17","bx1n6f7v29","one_one","1","indirect_first","0","an07as27","0","27","1","1","3","1","null","","","<div class = 'row'><div class = 'column'><img src = 'category3/CS6.png' width = '70%;'></div><div class = 'column'><img src = 'usneg/9340.bmp' width = '100%;'></div></div>","null","neg","CS","CS","3","category3/CS6.png","","","","",""
"","html-keyboard-response","45","242608","0.0-6.0-2.0-0.18","bx1n6f7v29","one_one","1","indirect_first","0","an07as27","0","27","1","1","3","1","null","","","<div class = 'row'><div class = 'column'><img src = 'category2/CS10.png' width = '70%;'></div><div class = 'column'><img src = 'uspos/2057.bmp' width = '100%;'></div></div>","null","pos","CS","CS","2","category2/CS10.png","","","","",""
"","html-keyboard-response","46","245147","0.0-6.0-2.0-0.19","bx1n6f7v29","one_one","1","indirect_first","0","an07as27","0","27","1","1","3","1","null","","","<div class = 'row'><div class = 'column'><img src = 'category1/CS2.png' width = '70%;'></div><div class = 'column'><img src = 'uspos/1460.bmp' width = '100%;'></div></div>","null","pos","CS","CS","1","category1/CS2.png","","","","",""
"","survey-html-form","47","248386","0.0-6.0-3.0","bx1n6f7v29","one_one","1","indirect_first","0","an07as27","0","27","1","1","3","1","2718","","{}","","","","","","","","","","","",""
"","html-keyboard-response","48","252408","0.0-6.0-4.0-0.0","bx1n6f7v29","one_one","1","indirect_first","0","an07as27","0","27","1","1","3","1","null","","","<div class = 'row'><div class = 'column'><img src = 'category4/CS4.png' width = '70%;'></div><div class = 'column'><img src = 'usneg/9584.bmp' width = '100%;'></div></div>","null","neg","CS","CS","4","category4/CS4.png","","","","",""
"","html-keyboard-response","49","254928","0.0-6.0-4.0-0.1","bx1n6f7v29","one_one","1","indirect_first","0","an07as27","0","27","1","1","3","1","null","","","<div class = 'row'><div class = 'column'><img src = 'uspos/2057.bmp' width = '100%;'></div><div class = 'column'><img src = 'category2/CS10.png' width = '70%;'></div></div>","null","pos","CS","CS","2","category2/CS10.png","","","","",""
"","html-keyboard-response","50","257468","0.0-6.0-4.0-0.2","bx1n6f7v29","one_one","1","indirect_first","0","an07as27","0","27","1","1","3","1","null","","","<div class = 'row'><div class = 'column'><img src = 'uspos/1460.bmp' width = '100%;'></div><div class = 'column'><img src = 'category1/CS2.png' width = '70%;'></div></div>","null","pos","CS","CS","1","category1/CS2.png","","","","",""
"","html-keyboard-response","51","260008","0.0-6.0-4.0-0.3","bx1n6f7v29","one_one","1","indirect_first","0","an07as27","0","27","1","1","3","1","null","","","<div class = 'row'><div class = 'column'><img src = 'uspos/2057.bmp' width = '100%;'></div><div class = 'column'><img src = 'category2/CS10.png' width = '70%;'></div></div>","null","pos","CS","CS","2","category2/CS10.png","","","","",""
"","html-keyboard-response","52","262548","0.0-6.0-4.0-0.4","bx1n6f7v29","one_one","1","indirect_first","0","an07as27","0","27","1","1","3","1","null","","","<div class = 'row'><div class = 'column'><img src = 'usneg/9340.bmp' width = '100%;'></div><div class = 'column'><img src = 'category3/CS6.png' width = '70%;'></div></div>","null","neg","CS","CS","3","category3/CS6.png","","","","",""
"","html-keyboard-response","53","265088","0.0-6.0-4.0-0.5","bx1n6f7v29","one_one","1","indirect_first","0","an07as27","0","27","1","1","3","1","null","","","<div class = 'row'><div class = 'column'><img src = 'category2/CS10.png' width = '70%;'></div><div class = 'column'><img src = 'uspos/2057.bmp' width = '100%;'></div></div>","null","pos","CS","CS","2","category2/CS10.png","","","","",""
"","html-keyboard-response","54","267627","0.0-6.0-4.0-0.6","bx1n6f7v29","one_one","1","indirect_first","0","an07as27","0","27","1","1","3","1","null","","","<div class = 'row'><div class = 'column'><img src = 'category3/CS6.png' width = '70%;'></div><div class = 'column'><img src = 'usneg/9340.bmp' width = '100%;'></div></div>","null","neg","CS","CS","3","category3/CS6.png","","","","",""
"","html-keyboard-response","55","270167","0.0-6.0-4.0-0.7","bx1n6f7v29","one_one","1","indirect_first","0","an07as27","0","27","1","1","3","1","null","","","<div class = 'row'><div class = 'column'><img src = 'usneg/9584.bmp' width = '100%;'></div><div class = 'column'><img src = 'category4/CS4.png' width = '70%;'></div></div>","null","neg","CS","CS","4","category4/CS4.png","","","","",""
"","html-keyboard-response","56","272708","0.0-6.0-4.0-0.8","bx1n6f7v29","one_one","1","indirect_first","0","an07as27","0","27","1","1","3","1","null","","","<div class = 'row'><div class = 'column'><img src = 'uspos/1460.bmp' width = '100%;'></div><div class = 'column'><img src = 'category1/CS2.png' width = '70%;'></div></div>","null","pos","CS","CS","1","category1/CS2.png","","","","",""
"","html-keyboard-response","57","275248","0.0-6.0-4.0-0.9","bx1n6f7v29","one_one","1","indirect_first","0","an07as27","0","27","1","1","3","1","null","","","<div class = 'row'><div class = 'column'><img src = 'category3/CS6.png' width = '70%;'></div><div class = 'column'><img src = 'usneg/9340.bmp' width = '100%;'></div></div>","null","neg","CS","CS","3","category3/CS6.png","","","","",""
"","html-keyboard-response","58","277768","0.0-6.0-4.0-0.10","bx1n6f7v29","one_one","1","indirect_first","0","an07as27","0","27","1","1","3","1","null","","","<div class = 'row'><div class = 'column'><img src = 'category2/CS10.png' width = '70%;'></div><div class = 'column'><img src = 'uspos/2057.bmp' width = '100%;'></div></div>","null","pos","CS","CS","2","category2/CS10.png","","","","",""
"","html-keyboard-response","59","280308","0.0-6.0-4.0-0.11","bx1n6f7v29","one_one","1","indirect_first","0","an07as27","0","27","1","1","3","1","null","","","<div class = 'row'><div class = 'column'><img src = 'category1/CS2.png' width = '70%;'></div><div class = 'column'><img src = 'uspos/1460.bmp' width = '100%;'></div></div>","null","pos","CS","CS","1","category1/CS2.png","","","","",""
"","html-keyboard-response","60","282838","0.0-6.0-4.0-0.12","bx1n6f7v29","one_one","1","indirect_first","0","an07as27","0","27","1","1","3","1","null","","","<div class = 'row'><div class = 'column'><img src = 'category4/CS4.png' width = '70%;'></div><div class = 'column'><img src = 'usneg/9584.bmp' width = '100%;'></div></div>","null","neg","CS","CS","4","category4/CS4.png","","","","",""
"","html-keyboard-response","61","285378","0.0-6.0-4.0-0.13","bx1n6f7v29","one_one","1","indirect_first","0","an07as27","0","27","1","1","3","1","null","","","<div class = 'row'><div class = 'column'><img src = 'category2/CS10.png' width = '70%;'></div><div class = 'column'><img src = 'uspos/2057.bmp' width = '100%;'></div></div>","null","pos","CS","CS","2","category2/CS10.png","","","","",""
"","html-keyboard-response","62","287908","0.0-6.0-4.0-0.14","bx1n6f7v29","one_one","1","indirect_first","0","an07as27","0","27","1","1","3","1","null","","","<div class = 'row'><div class = 'column'><img src = 'usneg/9584.bmp' width = '100%;'></div><div class = 'column'><img src = 'category4/CS4.png' width = '70%;'></div></div>","null","neg","CS","CS","4","category4/CS4.png","","","","",""
"","html-keyboard-response","63","290444","0.0-6.0-4.0-0.15","bx1n6f7v29","one_one","1","indirect_first","0","an07as27","0","27","1","1","3","1","null","","","<div class = 'row'><div class = 'column'><img src = 'uspos/1460.bmp' width = '100%;'></div><div class = 'column'><img src = 'category1/CS2.png' width = '70%;'></div></div>","null","pos","CS","CS","1","category1/CS2.png","","","","",""
"","html-keyboard-response","64","292948","0.0-6.0-4.0-0.16","bx1n6f7v29","one_one","1","indirect_first","0","an07as27","0","27","1","1","3","1","null","","","<div class = 'row'><div class = 'column'><img src = 'category3/CS6.png' width = '70%;'></div><div class = 'column'><img src = 'usneg/9340.bmp' width = '100%;'></div></div>","null","neg","CS","CS","3","category3/CS6.png","","","","",""
"","html-keyboard-response","65","295488","0.0-6.0-4.0-0.17","bx1n6f7v29","one_one","1","indirect_first","0","an07as27","0","27","1","1","3","1","null","","","<div class = 'row'><div class = 'column'><img src = 'category1/CS2.png' width = '70%;'></div><div class = 'column'><img src = 'uspos/1460.bmp' width = '100%;'></div></div>","null","pos","CS","CS","1","category1/CS2.png","","","","",""
"","html-keyboard-response","66","298027","0.0-6.0-4.0-0.18","bx1n6f7v29","one_one","1","indirect_first","0","an07as27","0","27","1","1","3","1","null","","","<div class = 'row'><div class = 'column'><img src = 'usneg/9584.bmp' width = '100%;'></div><div class = 'column'><img src = 'category4/CS4.png' width = '70%;'></div></div>","null","neg","CS","CS","4","category4/CS4.png","","","","",""
"","html-keyboard-response","67","300567","0.0-6.0-4.0-0.19","bx1n6f7v29","one_one","1","indirect_first","0","an07as27","0","27","1","1","3","1","null","","","<div class = 'row'><div class = 'column'><img src = 'usneg/9340.bmp' width = '100%;'></div><div class = 'column'><img src = 'category3/CS6.png' width = '70%;'></div></div>","null","neg","CS","CS","3","category3/CS6.png","","","","",""
"","survey-html-form","68","303898","0.0-6.0-5.0","bx1n6f7v29","one_one","1","indirect_first","0","an07as27","0","27","1","1","3","1","2816","","{}","","","","","","","","","","","",""
"","html-keyboard-response","69","307928","0.0-6.0-6.0-0.0","bx1n6f7v29","one_one","1","indirect_first","0","an07as27","0","27","1","1","3","1","null","","","<div class = 'row'><div class = 'column'><img src = 'category4/CS4.png' width = '70%;'></div><div class = 'column'><img src = 'usneg/9584.bmp' width = '100%;'></div></div>","null","neg","CS","CS","4","category4/CS4.png","","","","",""
"","html-keyboard-response","70","310449","0.0-6.0-6.0-0.1","bx1n6f7v29","one_one","1","indirect_first","0","an07as27","0","27","1","1","3","1","null","","","<div class = 'row'><div class = 'column'><img src = 'usneg/9340.bmp' width = '100%;'></div><div class = 'column'><img src = 'category3/CS6.png' width = '70%;'></div></div>","null","neg","CS","CS","3","category3/CS6.png","","","","",""
"","html-keyboard-response","71","312958","0.0-6.0-6.0-0.2","bx1n6f7v29","one_one","1","indirect_first","0","an07as27","0","27","1","1","3","1","null","","","<div class = 'row'><div class = 'column'><img src = 'category4/CS4.png' width = '70%;'></div><div class = 'column'><img src = 'usneg/9584.bmp' width = '100%;'></div></div>","null","neg","CS","CS","4","category4/CS4.png","","","","",""
"","html-keyboard-response","72","315498","0.0-6.0-6.0-0.3","bx1n6f7v29","one_one","1","indirect_first","0","an07as27","0","27","1","1","3","1","null","","","<div class = 'row'><div class = 'column'><img src = 'uspos/2057.bmp' width = '100%;'></div><div class = 'column'><img src = 'category2/CS10.png' width = '70%;'></div></div>","null","pos","CS","CS","2","category2/CS10.png","","","","",""
"","html-keyboard-response","73","318018","0.0-6.0-6.0-0.4","bx1n6f7v29","one_one","1","indirect_first","0","an07as27","0","27","1","1","3","1","null","","","<div class = 'row'><div class = 'column'><img src = 'category3/CS6.png' width = '70%;'></div><div class = 'column'><img src = 'usneg/9340.bmp' width = '100%;'></div></div>","null","neg","CS","CS","3","category3/CS6.png","","","","",""
"","html-keyboard-response","74","320557","0.0-6.0-6.0-0.5","bx1n6f7v29","one_one","1","indirect_first","0","an07as27","0","27","1","1","3","1","null","","","<div class = 'row'><div class = 'column'><img src = 'usneg/9584.bmp' width = '100%;'></div><div class = 'column'><img src = 'category4/CS4.png' width = '70%;'></div></div>","null","neg","CS","CS","4","category4/CS4.png","","","","",""
"","html-keyboard-response","75","323088","0.0-6.0-6.0-0.6","bx1n6f7v29","one_one","1","indirect_first","0","an07as27","0","27","1","1","3","1","null","","","<div class = 'row'><div class = 'column'><img src = 'category2/CS10.png' width = '70%;'></div><div class = 'column'><img src = 'uspos/2057.bmp' width = '100%;'></div></div>","null","pos","CS","CS","2","category2/CS10.png","","","","",""
"","html-keyboard-response","76","325628","0.0-6.0-6.0-0.7","bx1n6f7v29","one_one","1","indirect_first","0","an07as27","0","27","1","1","3","1","null","","","<div class = 'row'><div class = 'column'><img src = 'category1/CS2.png' width = '70%;'></div><div class = 'column'><img src = 'uspos/1460.bmp' width = '100%;'></div></div>","null","pos","CS","CS","1","category1/CS2.png","","","","",""
"","html-keyboard-response","77","328148","0.0-6.0-6.0-0.8","bx1n6f7v29","one_one","1","indirect_first","0","an07as27","0","27","1","1","3","1","null","","","<div class = 'row'><div class = 'column'><img src = 'usneg/9584.bmp' width = '100%;'></div><div class = 'column'><img src = 'category4/CS4.png' width = '70%;'></div></div>","null","neg","CS","CS","4","category4/CS4.png","","","","",""
"","html-keyboard-response","78","330688","0.0-6.0-6.0-0.9","bx1n6f7v29","one_one","1","indirect_first","0","an07as27","0","27","1","1","3","1","null","","","<div class = 'row'><div class = 'column'><img src = 'usneg/9340.bmp' width = '100%;'></div><div class = 'column'><img src = 'category3/CS6.png' width = '70%;'></div></div>","null","neg","CS","CS","3","category3/CS6.png","","","","",""
"","html-keyboard-response","79","333228","0.0-6.0-6.0-0.10","bx1n6f7v29","one_one","1","indirect_first","0","an07as27","0","27","1","1","3","1","null","","","<div class = 'row'><div class = 'column'><img src = 'uspos/2057.bmp' width = '100%;'></div><div class = 'column'><img src = 'category2/CS10.png' width = '70%;'></div></div>","null","pos","CS","CS","2","category2/CS10.png","","","","",""
"","html-keyboard-response","80","335768","0.0-6.0-6.0-0.11","bx1n6f7v29","one_one","1","indirect_first","0","an07as27","0","27","1","1","3","1","null","","","<div class = 'row'><div class = 'column'><img src = 'uspos/1460.bmp' width = '100%;'></div><div class = 'column'><img src = 'category1/CS2.png' width = '70%;'></div></div>","null","pos","CS","CS","1","category1/CS2.png","","","","",""
"","html-keyboard-response","81","338308","0.0-6.0-6.0-0.12","bx1n6f7v29","one_one","1","indirect_first","0","an07as27","0","27","1","1","3","1","null","","","<div class = 'row'><div class = 'column'><img src = 'uspos/2057.bmp' width = '100%;'></div><div class = 'column'><img src = 'category2/CS10.png' width = '70%;'></div></div>","null","pos","CS","CS","2","category2/CS10.png","","","","",""
"","html-keyboard-response","82","340848","0.0-6.0-6.0-0.13","bx1n6f7v29","one_one","1","indirect_first","0","an07as27","0","27","1","1","3","1","null","","","<div class = 'row'><div class = 'column'><img src = 'category1/CS2.png' width = '70%;'></div><div class = 'column'><img src = 'uspos/1460.bmp' width = '100%;'></div></div>","null","pos","CS","CS","1","category1/CS2.png","","","","",""
"","html-keyboard-response","83","343387","0.0-6.0-6.0-0.14","bx1n6f7v29","one_one","1","indirect_first","0","an07as27","0","27","1","1","3","1","null","","","<div class = 'row'><div class = 'column'><img src = 'uspos/2057.bmp' width = '100%;'></div><div class = 'column'><img src = 'category2/CS10.png' width = '70%;'></div></div>","null","pos","CS","CS","2","category2/CS10.png","","","","",""
"","html-keyboard-response","84","345928","0.0-6.0-6.0-0.15","bx1n6f7v29","one_one","1","indirect_first","0","an07as27","0","27","1","1","3","1","null","","","<div class = 'row'><div class = 'column'><img src = 'category3/CS6.png' width = '70%;'></div><div class = 'column'><img src = 'usneg/9340.bmp' width = '100%;'></div></div>","null","neg","CS","CS","3","category3/CS6.png","","","","",""
"","html-keyboard-response","85","348468","0.0-6.0-6.0-0.16","bx1n6f7v29","one_one","1","indirect_first","0","an07as27","0","27","1","1","3","1","null","","","<div class = 'row'><div class = 'column'><img src = 'usneg/9584.bmp' width = '100%;'></div><div class = 'column'><img src = 'category4/CS4.png' width = '70%;'></div></div>","null","neg","CS","CS","4","category4/CS4.png","","","","",""
"","html-keyboard-response","86","350988","0.0-6.0-6.0-0.17","bx1n6f7v29","one_one","1","indirect_first","0","an07as27","0","27","1","1","3","1","null","","","<div class = 'row'><div class = 'column'><img src = 'uspos/1460.bmp' width = '100%;'></div><div class = 'column'><img src = 'category1/CS2.png' width = '70%;'></div></div>","null","pos","CS","CS","1","category1/CS2.png","","","","",""
"","html-keyboard-response","87","353518","0.0-6.0-6.0-0.18","bx1n6f7v29","one_one","1","indirect_first","0","an07as27","0","27","1","1","3","1","null","","","<div class = 'row'><div class = 'column'><img src = 'usneg/9340.bmp' width = '100%;'></div><div class = 'column'><img src = 'category3/CS6.png' width = '70%;'></div></div>","null","neg","CS","CS","3","category3/CS6.png","","","","",""
"","html-keyboard-response","88","356058","0.0-6.0-6.0-0.19","bx1n6f7v29","one_one","1","indirect_first","0","an07as27","0","27","1","1","3","1","null","","","<div class = 'row'><div class = 'column'><img src = 'uspos/1460.bmp' width = '100%;'></div><div class = 'column'><img src = 'category1/CS2.png' width = '70%;'></div></div>","null","pos","CS","CS","1","category1/CS2.png","","","","",""
"","html-keyboard-response","89","401364","0.0-7.0","bx1n6f7v29","one_one","1","indirect_first","0","an07as27","0","27","1","1","3","1","44784","","","<p>Sie sehen nun die chinesischen Zeichen nur ganz kurz. Danach sehen Sie die jeweilige Aussprache der Zeichen als Silbe auf dem Bildschrim. Ihre Aufgabe ist es, für jede Silbe anzugeben, ob diese etwas angenehmes, oder unangenehmes bedeuten könnte. Verlassen Sie sich hier vor allem auf Ihre Intuition.<br><br>Die Zeichen werden nur zur Orientierung dargestellt, beachten Sie sie deshalb nicht. Konzentrieren Sie sich vor allem auf die Silben. <br>Reagieren Sie mit folgenden zwei Tasten: <br><br><b>'D' </b> wenn die Silbe etwas <b>unangenehmes</b> bedeuten könnte. <br><b>'K'</b> wenn die Silbe etwas <b>angenehmes</b> bedeuten könnte. <br><br>Bitte legen Sie nun den Zeigefinger der linken Hand auf die Taste 'D' und den Zeigefinger der rechten Hand auf die Taste 'K'. <br>Reagieren Sie auf jede Silbe so schnell wie möglich. Uns interessiert Ihre spontane Reaktion. <br> <br> <br>Drücken Sie 'D' oder 'K', um die nächste Aufgabe zu starten. </p>","75","","","","","","","","","",""
"","html-keyboard-response","90","404387","0.0-8.0-0.0","bx1n6f7v29","one_one","1","indirect_first","0","an07as27","0","27","1","1","3","1","null","","","<div style=""font-size:60px;"">+</div>","null","","","","","","","","","",""
"","html-keyboard-response","91","404478","0.0-8.0-1.0","bx1n6f7v29","one_one","1","indirect_first","0","an07as27","0","27","1","1","3","1","null","","","<img src = 'category2/CS10.png' width = '100%;'>","null","","","","","","","","","",""
"","html-keyboard-response","92","404748","0.0-8.0-2.0","bx1n6f7v29","one_one","1","indirect_first","0","an07as27","0","27","1","1","3","1","null","","","<img src = 'targets/39.png' width = '100%;'>","null","","","","","","","","","",""
"","html-keyboard-response","93","408700","0.0-8.0-3.0","bx1n6f7v29","one_one","1","indirect_first","0","an07as27","0","27","1","1","3","1","3948","","","<img src = 'targets/mask.png' width = '100%;'>","68","pos","CS","CS","2","category2/CS10.png","targets/39.png","0","indirect","0",""
"","html-keyboard-response","94","410228","0.0-8.0-0.1","bx1n6f7v29","one_one","1","indirect_first","0","an07as27","0","27","1","1","3","1","null","","","<div style=""font-size:60px;"">+</div>","null","","","","","","","","","",""
"","html-keyboard-response","95","410328","0.0-8.0-1.1","bx1n6f7v29","one_one","1","indirect_first","0","an07as27","0","27","1","1","3","1","null","","","<img src = 'category1/CS2.png' width = '100%;'>","null","","","","","","","","","",""
"","html-keyboard-response","96","410605","0.0-8.0-2.1","bx1n6f7v29","one_one","1","indirect_first","0","an07as27","0","27","1","1","3","1","null","","","<img src = 'targets/36.png' width = '100%;'>","null","","","","","","","","","",""
"","html-keyboard-response","97","417499","0.0-8.0-3.1","bx1n6f7v29","one_one","1","indirect_first","0","an07as27","0","27","1","1","3","1","6892","","","<img src = 'targets/mask.png' width = '100%;'>","75","pos","CS","CS","1","category1/CS2.png","targets/36.png","1","indirect","1",""
"","html-keyboard-response","98","419038","0.0-8.0-0.2","bx1n6f7v29","one_one","1","indirect_first","0","an07as27","0","27","1","1","3","1","null","","","<div style=""font-size:60px;"">+</div>","null","","","","","","","","","",""
"","html-keyboard-response","99","419138","0.0-8.0-1.2","bx1n6f7v29","one_one","1","indirect_first","0","an07as27","0","27","1","1","3","1","null","","","<img src = 'category1/CS10.png' width = '100%;'>","null","","","","","","","","","",""
"","html-keyboard-response","100","419418","0.0-8.0-2.2","bx1n6f7v29","one_one","1","indirect_first","0","an07as27","0","27","1","1","3","1","null","","","<img src = 'targets/5.png' width = '100%;'>","null","","","","","","","","","",""
"","html-keyboard-response","101","423091","0.0-8.0-3.2","bx1n6f7v29","one_one","1","indirect_first","0","an07as27","0","27","1","1","3","1","3672","","","<img src = 'targets/mask.png' width = '100%;'>","68","pos","GS","GSold","1","category1/CS10.png","targets/5.png","0","indirect","2",""
"","html-keyboard-response","102","424598","0.0-8.0-0.3","bx1n6f7v29","one_one","1","indirect_first","0","an07as27","0","27","1","1","3","1","null","","","<div style=""font-size:60px;"">+</div>","null","","","","","","","","","",""
"","html-keyboard-response","103","424698","0.0-8.0-1.3","bx1n6f7v29","one_one","1","indirect_first","0","an07as27","0","27","1","1","3","1","null","","","<img src = 'category4/CS7.png' width = '100%;'>","null","","","","","","","","","",""
"","html-keyboard-response","104","424978","0.0-8.0-2.3","bx1n6f7v29","one_one","1","indirect_first","0","an07as27","0","27","1","1","3","1","null","","","<img src = 'targets/40.png' width = '100%;'>","null","","","","","","","","","",""
"","html-keyboard-response","105","429234","0.0-8.0-3.3","bx1n6f7v29","one_one","1","indirect_first","0","an07as27","0","27","1","1","3","1","4256","","","<img src = 'targets/mask.png' width = '100%;'>","68","neg","GS","GSold","4","category4/CS7.png","targets/40.png","0","indirect","3",""
"","html-keyboard-response","106","430738","0.0-8.0-0.4","bx1n6f7v29","one_one","1","indirect_first","0","an07as27","0","27","1","1","3","1","null","","","<div style=""font-size:60px;"">+</div>","null","","","","","","","","","",""
"","html-keyboard-response","107","430838","0.0-8.0-1.4","bx1n6f7v29","one_one","1","indirect_first","0","an07as27","0","27","1","1","3","1","null","","","<img src = 'category1/CS6.png' width = '100%;'>","null","","","","","","","","","",""
"","html-keyboard-response","108","431118","0.0-8.0-2.4","bx1n6f7v29","one_one","1","indirect_first","0","an07as27","0","27","1","1","3","1","null","","","<img src = 'targets/47.png' width = '100%;'>","null","","","","","","","","","",""
"","html-keyboard-response","109","432347","0.0-8.0-3.4","bx1n6f7v29","one_one","1","indirect_first","0","an07as27","0","27","1","1","3","1","1228","","","<img src = 'targets/mask.png' width = '100%;'>","68","pos","GS","GSold","1","category1/CS6.png","targets/47.png","0","indirect","4",""
"","html-keyboard-response","110","433848","0.0-8.0-0.5","bx1n6f7v29","one_one","1","indirect_first","0","an07as27","0","27","1","1","3","1","null","","","<div style=""font-size:60px;"">+</div>","null","","","","","","","","","",""
"","html-keyboard-response","111","433948","0.0-8.0-1.5","bx1n6f7v29","one_one","1","indirect_first","0","an07as27","0","27","1","1","3","1","null","","","<img src = 'category1/CS3.png' width = '100%;'>","null","","","","","","","","","",""
"","html-keyboard-response","112","434228","0.0-8.0-2.5","bx1n6f7v29","one_one","1","indirect_first","0","an07as27","0","27","1","1","3","1","null","","","<img src = 'targets/4.png' width = '100%;'>","null","","","","","","","","","",""
"","html-keyboard-response","113","435178","0.0-8.0-3.5","bx1n6f7v29","one_one","1","indirect_first","0","an07as27","0","27","1","1","3","1","950","","","<img src = 'targets/mask.png' width = '100%;'>","75","pos","GS","GSold","1","category1/CS3.png","targets/4.png","1","indirect","5",""
"","html-keyboard-response","114","436708","0.0-8.0-0.6","bx1n6f7v29","one_one","1","indirect_first","0","an07as27","0","27","1","1","3","1","null","","","<div style=""font-size:60px;"">+</div>","null","","","","","","","","","",""
"","html-keyboard-response","115","436808","0.0-8.0-1.6","bx1n6f7v29","one_one","1","indirect_first","0","an07as27","0","27","1","1","3","1","null","","","<img src = 'category2/CS9.png' width = '100%;'>","null","","","","","","","","","",""
"","html-keyboard-response","116","437078","0.0-8.0-2.6","bx1n6f7v29","one_one","1","indirect_first","0","an07as27","0","27","1","1","3","1","null","","","<img src = 'targets/45.png' width = '100%;'>","null","","","","","","","","","",""
"","html-keyboard-response","117","441195","0.0-8.0-3.6","bx1n6f7v29","one_one","1","indirect_first","0","an07as27","0","27","1","1","3","1","4115","","","<img src = 'targets/mask.png' width = '100%;'>","75","pos","GS","GSold","2","category2/CS9.png","targets/45.png","1","indirect","6",""
"","html-keyboard-response","118","442718","0.0-8.0-0.7","bx1n6f7v29","one_one","1","indirect_first","0","an07as27","0","27","1","1","3","1","null","","","<div style=""font-size:60px;"">+</div>","null","","","","","","","","","",""
"","html-keyboard-response","119","442818","0.0-8.0-1.7","bx1n6f7v29","one_one","1","indirect_first","0","an07as27","0","27","1","1","3","1","null","","","<img src = 'category2/CS8.png' width = '100%;'>","null","","","","","","","","","",""
"","html-keyboard-response","120","443098","0.0-8.0-2.7","bx1n6f7v29","one_one","1","indirect_first","0","an07as27","0","27","1","1","3","1","null","","","<img src = 'targets/14.png' width = '100%;'>","null","","","","","","","","","",""
"","html-keyboard-response","121","444019","0.0-8.0-3.7","bx1n6f7v29","one_one","1","indirect_first","0","an07as27","0","27","1","1","3","1","919","","","<img src = 'targets/mask.png' width = '100%;'>","68","pos","GS","GSold","2","category2/CS8.png","targets/14.png","0","indirect","7",""
"","html-keyboard-response","122","445548","0.0-8.0-0.8","bx1n6f7v29","one_one","1","indirect_first","0","an07as27","0","27","1","1","3","1","null","","","<div style=""font-size:60px;"">+</div>","null","","","","","","","","","",""
"","html-keyboard-response","123","445647","0.0-8.0-1.8","bx1n6f7v29","one_one","1","indirect_first","0","an07as27","0","27","1","1","3","1","null","","","<img src = 'category3/CS6.png' width = '100%;'>","null","","","","","","","","","",""
"","html-keyboard-response","124","445929","0.0-8.0-2.8","bx1n6f7v29","one_one","1","indirect_first","0","an07as27","0","27","1","1","3","1","null","","","<img src = 'targets/7.png' width = '100%;'>","null","","","","","","","","","",""
"","html-keyboard-response","125","448291","0.0-8.0-3.8","bx1n6f7v29","one_one","1","indirect_first","0","an07as27","0","27","1","1","3","1","2361","","","<img src = 'targets/mask.png' width = '100%;'>","75","neg","CS","CS","3","category3/CS6.png","targets/7.png","1","indirect","8",""
"","html-keyboard-response","126","449827","0.0-8.0-0.9","bx1n6f7v29","one_one","1","indirect_first","0","an07as27","0","27","1","1","3","1","null","","","<div style=""font-size:60px;"">+</div>","null","","","","","","","","","",""
"","html-keyboard-response","127","449928","0.0-8.0-1.9","bx1n6f7v29","one_one","1","indirect_first","0","an07as27","0","27","1","1","3","1","null","","","<img src = 'category4/CS10.png' width = '100%;'>","null","","","","","","","","","",""
"","html-keyboard-response","128","450207","0.0-8.0-2.9","bx1n6f7v29","one_one","1","indirect_first","0","an07as27","0","27","1","1","3","1","null","","","<img src = 'targets/26.png' width = '100%;'>","null","","","","","","","","","",""
"","html-keyboard-response","129","450915","0.0-8.0-3.9","bx1n6f7v29","one_one","1","indirect_first","0","an07as27","0","27","1","1","3","1","707","","","<img src = 'targets/mask.png' width = '100%;'>","68","neg","GS","GSold","4","category4/CS10.png","targets/26.png","0","indirect","9",""
"","html-keyboard-response","130","452447","0.0-8.0-0.10","bx1n6f7v29","one_one","1","indirect_first","0","an07as27","0","27","1","1","3","1","null","","","<div style=""font-size:60px;"">+</div>","null","","","","","","","","","",""
"","html-keyboard-response","131","452548","0.0-8.0-1.10","bx1n6f7v29","one_one","1","indirect_first","0","an07as27","0","27","1","1","3","1","null","","","<img src = 'category4/CS1.png' width = '100%;'>","null","","","","","","","","","",""
"","html-keyboard-response","132","452828","0.0-8.0-2.10","bx1n6f7v29","one_one","1","indirect_first","0","an07as27","0","27","1","1","3","1","null","","","<img src = 'targets/10.png' width = '100%;'>","null","","","","","","","","","",""
"","html-keyboard-response","133","453707","0.0-8.0-3.10","bx1n6f7v29","one_one","1","indirect_first","0","an07as27","0","27","1","1","3","1","878","","","<img src = 'targets/mask.png' width = '100%;'>","75","neg","GS","GSold","4","category4/CS1.png","targets/10.png","1","indirect","10",""
"","html-keyboard-response","134","455228","0.0-8.0-0.11","bx1n6f7v29","one_one","1","indirect_first","0","an07as27","0","27","1","1","3","1","null","","","<div style=""font-size:60px;"">+</div>","null","","","","","","","","","",""
"","html-keyboard-response","135","455328","0.0-8.0-1.11","bx1n6f7v29","one_one","1","indirect_first","0","an07as27","0","27","1","1","3","1","null","","","<img src = 'category3/CS7.png' width = '100%;'>","null","","","","","","","","","",""
"","html-keyboard-response","136","455608","0.0-8.0-2.11","bx1n6f7v29","one_one","1","indirect_first","0","an07as27","0","27","1","1","3","1","null","","","<img src = 'targets/33.png' width = '100%;'>","null","","","","","","","","","",""
"","html-keyboard-response","137","456290","0.0-8.0-3.11","bx1n6f7v29","one_one","1","indirect_first","0","an07as27","0","27","1","1","3","1","682","","","<img src = 'targets/mask.png' width = '100%;'>","75","neg","GS","GSold","3","category3/CS7.png","targets/33.png","1","indirect","11",""
"","html-keyboard-response","138","457826","0.0-8.0-0.12","bx1n6f7v29","one_one","1","indirect_first","0","an07as27","0","27","1","1","3","1","null","","","<div style=""font-size:60px;"">+</div>","null","","","","","","","","","",""
"","html-keyboard-response","139","457926","0.0-8.0-1.12","bx1n6f7v29","one_one","1","indirect_first","0","an07as27","0","27","1","1","3","1","null","","","<img src = 'category3/CS1.png' width = '100%;'>","null","","","","","","","","","",""
"","html-keyboard-response","140","458208","0.0-8.0-2.12","bx1n6f7v29","one_one","1","indirect_first","0","an07as27","0","27","1","1","3","1","null","","","<img src = 'targets/6.png' width = '100%;'>","null","","","","","","","","","",""
"","html-keyboard-response","141","459258","0.0-8.0-3.12","bx1n6f7v29","one_one","1","indirect_first","0","an07as27","0","27","1","1","3","1","1048","","","<img src = 'targets/mask.png' width = '100%;'>","75","neg","GS","GSold","3","category3/CS1.png","targets/6.png","1","indirect","12",""
"","html-keyboard-response","142","460788","0.0-8.0-0.13","bx1n6f7v29","one_one","1","indirect_first","0","an07as27","0","27","1","1","3","1","null","","","<div style=""font-size:60px;"">+</div>","null","","","","","","","","","",""
"","html-keyboard-response","143","460888","0.0-8.0-1.13","bx1n6f7v29","one_one","1","indirect_first","0","an07as27","0","27","1","1","3","1","null","","","<img src = 'category2/CS2.png' width = '100%;'>","null","","","","","","","","","",""
"","html-keyboard-response","144","461168","0.0-8.0-2.13","bx1n6f7v29","one_one","1","indirect_first","0","an07as27","0","27","1","1","3","1","null","","","<img src = 'targets/34.png' width = '100%;'>","null","","","","","","","","","",""
"","html-keyboard-response","145","461922","0.0-8.0-3.13","bx1n6f7v29","one_one","1","indirect_first","0","an07as27","0","27","1","1","3","1","753","","","<img src = 'targets/mask.png' width = '100%;'>","75","pos","GS","GSold","2","category2/CS2.png","targets/34.png","1","indirect","13",""
"","html-keyboard-response","146","463443","0.0-8.0-0.14","bx1n6f7v29","one_one","1","indirect_first","0","an07as27","0","27","1","1","3","1","null","","","<div style=""font-size:60px;"">+</div>","null","","","","","","","","","",""
"","html-keyboard-response","147","463544","0.0-8.0-1.14","bx1n6f7v29","one_one","1","indirect_first","0","an07as27","0","27","1","1","3","1","null","","","<img src = 'category3/CS3.png' width = '100%;'>","null","","","","","","","","","",""
"","html-keyboard-response","148","463827","0.0-8.0-2.14","bx1n6f7v29","one_one","1","indirect_first","0","an07as27","0","27","1","1","3","1","null","","","<img src = 'targets/46.png' width = '100%;'>","null","","","","","","","","","",""
"","html-keyboard-response","149","464843","0.0-8.0-3.14","bx1n6f7v29","one_one","1","indirect_first","0","an07as27","0","27","1","1","3","1","1015","","","<img src = 'targets/mask.png' width = '100%;'>","68","neg","GS","GSold","3","category3/CS3.png","targets/46.png","0","indirect","14",""
"","html-keyboard-response","150","466348","0.0-8.0-0.15","bx1n6f7v29","one_one","1","indirect_first","0","an07as27","0","27","1","1","3","1","null","","","<div style=""font-size:60px;"">+</div>","null","","","","","","","","","",""
"","html-keyboard-response","151","466448","0.0-8.0-1.15","bx1n6f7v29","one_one","1","indirect_first","0","an07as27","0","27","1","1","3","1","null","","","<img src = 'category4/CS4.png' width = '100%;'>","null","","","","","","","","","",""
"","html-keyboard-response","152","466728","0.0-8.0-2.15","bx1n6f7v29","one_one","1","indirect_first","0","an07as27","0","27","1","1","3","1","null","","","<img src = 'targets/35.png' width = '100%;'>","null","","","","","","","","","",""
"","html-keyboard-response","153","467322","0.0-8.0-3.15","bx1n6f7v29","one_one","1","indirect_first","0","an07as27","0","27","1","1","3","1","594","","","<img src = 'targets/mask.png' width = '100%;'>","75","neg","CS","CS","4","category4/CS4.png","targets/35.png","1","indirect","15",""
"","survey-html-form","154","470962","0.0-9.0","bx1n6f7v29","one_one","1","indirect_first","0","an07as27","0","27","1","1","3","1","3134","","{}","","","","","","","","","","","",""
"","html-keyboard-response","155","473988","0.0-10.0-0.0","bx1n6f7v29","one_one","1","indirect_first","0","an07as27","0","27","1","1","3","1","null","","","<div style=""font-size:60px;"">+</div>","null","","","","","","","","","",""
"","html-keyboard-response","156","474088","0.0-10.0-1.0","bx1n6f7v29","one_one","1","indirect_first","0","an07as27","0","27","1","1","3","1","null","","","<img src = 'category3/GS3.png' width = '100%;'>","null","","","","","","","","","",""
"","html-keyboard-response","157","474368","0.0-10.0-2.0","bx1n6f7v29","one_one","1","indirect_first","0","an07as27","0","27","1","1","3","1","null","","","<img src = 'targets/9.png' width = '100%;'>","null","","","","","","","","","",""
"","html-keyboard-response","158","475561","0.0-10.0-3.0","bx1n6f7v29","one_one","1","indirect_first","0","an07as27","0","27","1","1","3","1","1192","","","<img src = 'targets/mask.png' width = '100%;'>","75","neg","GS","GSnew","3","category3/GS3.png","targets/9.png","1","indirect","16",""
"","html-keyboard-response","159","477068","0.0-10.0-0.1","bx1n6f7v29","one_one","1","indirect_first","0","an07as27","0","27","1","1","3","1","null","","","<div style=""font-size:60px;"">+</div>","null","","","","","","","","","",""
"","html-keyboard-response","160","477167","0.0-10.0-1.1","bx1n6f7v29","one_one","1","indirect_first","0","an07as27","0","27","1","1","3","1","null","","","<img src = 'category2/GS2.png' width = '100%;'>","null","","","","","","","","","",""
"","html-keyboard-response","161","477448","0.0-10.0-2.1","bx1n6f7v29","one_one","1","indirect_first","0","an07as27","0","27","1","1","3","1","null","","","<img src = 'targets/8.png' width = '100%;'>","null","","","","","","","","","",""
"","html-keyboard-response","162","478211","0.0-10.0-3.1","bx1n6f7v29","one_one","1","indirect_first","0","an07as27","0","27","1","1","3","1","761","","","<img src = 'targets/mask.png' width = '100%;'>","75","pos","GS","GSnew","2","category2/GS2.png","targets/8.png","1","indirect","17",""
"","html-keyboard-response","163","479738","0.0-10.0-0.2","bx1n6f7v29","one_one","1","indirect_first","0","an07as27","0","27","1","1","3","1","null","","","<div style=""font-size:60px;"">+</div>","null","","","","","","","","","",""
"","html-keyboard-response","164","479839","0.0-10.0-1.2","bx1n6f7v29","one_one","1","indirect_first","0","an07as27","0","27","1","1","3","1","null","","","<img src = 'category3/GS1.png' width = '100%;'>","null","","","","","","","","","",""
"","html-keyboard-response","165","480118","0.0-10.0-2.2","bx1n6f7v29","one_one","1","indirect_first","0","an07as27","0","27","1","1","3","1","null","","","<img src = 'targets/2.png' width = '100%;'>","null","","","","","","","","","",""
"","html-keyboard-response","166","480747","0.0-10.0-3.2","bx1n6f7v29","one_one","1","indirect_first","0","an07as27","0","27","1","1","3","1","628","","","<img src = 'targets/mask.png' width = '100%;'>","68","neg","GS","GSnew","3","category3/GS1.png","targets/2.png","0","indirect","18",""
"","html-keyboard-response","167","482278","0.0-10.0-0.3","bx1n6f7v29","one_one","1","indirect_first","0","an07as27","0","27","1","1","3","1","null","","","<div style=""font-size:60px;"">+</div>","null","","","","","","","","","",""
"","html-keyboard-response","168","482378","0.0-10.0-1.3","bx1n6f7v29","one_one","1","indirect_first","0","an07as27","0","27","1","1","3","1","null","","","<img src = 'category1/ma.png' width = '100%;'>","null","","","","","","","","","",""
"","html-keyboard-response","169","482658","0.0-10.0-2.3","bx1n6f7v29","one_one","1","indirect_first","0","an07as27","0","27","1","1","3","1","null","","","<img src = 'targets/27.png' width = '100%;'>","null","","","","","","","","","",""
"","html-keyboard-response","170","483267","0.0-10.0-3.3","bx1n6f7v29","one_one","1","indirect_first","0","an07as27","0","27","1","1","3","1","607","","","<img src = 'targets/mask.png' width = '100%;'>","68","pos","GS","abstract","1","category1/ma.png","targets/27.png","0","indirect","19",""
"","html-keyboard-response","171","484788","0.0-10.0-0.4","bx1n6f7v29","one_one","1","indirect_first","0","an07as27","0","27","1","1","3","1","null","","","<div style=""font-size:60px;"">+</div>","null","","","","","","","","","",""
"","html-keyboard-response","172","484887","0.0-10.0-1.4","bx1n6f7v29","one_one","1","indirect_first","0","an07as27","0","27","1","1","3","1","null","","","<img src = 'category3/GS2.png' width = '100%;'>","null","","","","","","","","","",""
"","html-keyboard-response","173","485168","0.0-10.0-2.4","bx1n6f7v29","one_one","1","indirect_first","0","an07as27","0","27","1","1","3","1","null","","","<img src = 'targets/1.png' width = '100%;'>","null","","","","","","","","","",""
"","html-keyboard-response","174","486339","0.0-10.0-3.4","bx1n6f7v29","one_one","1","indirect_first","0","an07as27","0","27","1","1","3","1","1169","","","<img src = 'targets/mask.png' width = '100%;'>","68","neg","GS","GSnew","3","category3/GS2.png","targets/1.png","0","indirect","20",""
"","html-keyboard-response","175","487878","0.0-10.0-0.5","bx1n6f7v29","one_one","1","indirect_first","0","an07as27","0","27","1","1","3","1","null","","","<div style=""font-size:60px;"">+</div>","null","","","","","","","","","",""
"","html-keyboard-response","176","487979","0.0-10.0-1.5","bx1n6f7v29","one_one","1","indirect_first","0","an07as27","0","27","1","1","3","1","null","","","<img src = 'category4/GS3.png' width = '100%;'>","null","","","","","","","","","",""
"","html-keyboard-response","177","488259","0.0-10.0-2.5","bx1n6f7v29","one_one","1","indirect_first","0","an07as27","0","27","1","1","3","1","null","","","<img src = 'targets/19.png' width = '100%;'>","null","","","","","","","","","",""
"","html-keyboard-response","178","489210","0.0-10.0-3.5","bx1n6f7v29","one_one","1","indirect_first","0","an07as27","0","27","1","1","3","1","951","","","<img src = 'targets/mask.png' width = '100%;'>","68","neg","GS","GSnew","4","category4/GS3.png","targets/19.png","0","indirect","21",""
"","html-keyboard-response","179","490718","0.0-10.0-0.6","bx1n6f7v29","one_one","1","indirect_first","0","an07as27","0","27","1","1","3","1","null","","","<div style=""font-size:60px;"">+</div>","null","","","","","","","","","",""
"","html-keyboard-response","180","490818","0.0-10.0-1.6","bx1n6f7v29","one_one","1","indirect_first","0","an07as27","0","27","1","1","3","1","null","","","<img src = 'category4/GS2.png' width = '100%;'>","null","","","","","","","","","",""
"","html-keyboard-response","181","491098","0.0-10.0-2.6","bx1n6f7v29","one_one","1","indirect_first","0","an07as27","0","27","1","1","3","1","null","","","<img src = 'targets/12.png' width = '100%;'>","null","","","","","","","","","",""
"","html-keyboard-response","182","491963","0.0-10.0-3.6","bx1n6f7v29","one_one","1","indirect_first","0","an07as27","0","27","1","1","3","1","864","","","<img src = 'targets/mask.png' width = '100%;'>","68","neg","GS","GSnew","4","category4/GS2.png","targets/12.png","0","indirect","22",""
"","html-keyboard-response","183","493498","0.0-10.0-0.7","bx1n6f7v29","one_one","1","indirect_first","0","an07as27","0","27","1","1","3","1","null","","","<div style=""font-size:60px;"">+</div>","null","","","","","","","","","",""
"","html-keyboard-response","184","493598","0.0-10.0-1.7","bx1n6f7v29","one_one","1","indirect_first","0","an07as27","0","27","1","1","3","1","null","","","<img src = 'category2/men.png' width = '100%;'>","null","","","","","","","","","",""
"","html-keyboard-response","185","493864","0.0-10.0-2.7","bx1n6f7v29","one_one","1","indirect_first","0","an07as27","0","27","1","1","3","1","null","","","<img src = 'targets/44.png' width = '100%;'>","null","","","","","","","","","",""
"","html-keyboard-response","186","494699","0.0-10.0-3.7","bx1n6f7v29","one_one","1","indirect_first","0","an07as27","0","27","1","1","3","1","833","","","<img src = 'targets/mask.png' width = '100%;'>","68","pos","GS","abstract","2","category2/men.png","targets/44.png","0","indirect","23",""
"","html-keyboard-response","187","496238","0.0-10.0-0.8","bx1n6f7v29","one_one","1","indirect_first","0","an07as27","0","27","1","1","3","1","null","","","<div style=""font-size:60px;"">+</div>","null","","","","","","","","","",""
"","html-keyboard-response","188","496338","0.0-10.0-1.8","bx1n6f7v29","one_one","1","indirect_first","0","an07as27","0","27","1","1","3","1","null","","","<img src = 'category4/GS1.png' width = '100%;'>","null","","","","","","","","","",""
"","html-keyboard-response","189","496618","0.0-10.0-2.8","bx1n6f7v29","one_one","1","indirect_first","0","an07as27","0","27","1","1","3","1","null","","","<img src = 'targets/20.png' width = '100%;'>","null","","","","","","","","","",""
"","html-keyboard-response","190","497770","0.0-10.0-3.8","bx1n6f7v29","one_one","1","indirect_first","0","an07as27","0","27","1","1","3","1","1152","","","<img src = 'targets/mask.png' width = '100%;'>","75","neg","GS","GSnew","4","category4/GS1.png","targets/20.png","1","indirect","24",""
"","html-keyboard-response","191","499298","0.0-10.0-0.9","bx1n6f7v29","one_one","1","indirect_first","0","an07as27","0","27","1","1","3","1","null","","","<div style=""font-size:60px;"">+</div>","null","","","","","","","","","",""
"","html-keyboard-response","192","499409","0.0-10.0-1.9","bx1n6f7v29","one_one","1","indirect_first","0","an07as27","0","27","1","1","3","1","null","","","<img src = 'category4/lin.png' width = '100%;'>","null","","","","","","","","","",""
"","html-keyboard-response","193","499689","0.0-10.0-2.9","bx1n6f7v29","one_one","1","indirect_first","0","an07as27","0","27","1","1","3","1","null","","","<img src = 'targets/17.png' width = '100%;'>","null","","","","","","","","","",""
"","html-keyboard-response","194","500579","0.0-10.0-3.9","bx1n6f7v29","one_one","1","indirect_first","0","an07as27","0","27","1","1","3","1","890","","","<img src = 'targets/mask.png' width = '100%;'>","68","neg","GS","abstract","4","category4/lin.png","targets/17.png","0","indirect","25",""
"","html-keyboard-response","195","502108","0.0-10.0-0.10","bx1n6f7v29","one_one","1","indirect_first","0","an07as27","0","27","1","1","3","1","null","","","<div style=""font-size:60px;"">+</div>","null","","","","","","","","","",""
"","html-keyboard-response","196","502208","0.0-10.0-1.10","bx1n6f7v29","one_one","1","indirect_first","0","an07as27","0","27","1","1","3","1","null","","","<img src = 'category3/wang.png' width = '100%;'>","null","","","","","","","","","",""
"","html-keyboard-response","197","502488","0.0-10.0-2.10","bx1n6f7v29","one_one","1","indirect_first","0","an07as27","0","27","1","1","3","1","null","","","<img src = 'targets/41.png' width = '100%;'>","null","","","","","","","","","",""
"","html-keyboard-response","198","503043","0.0-10.0-3.10","bx1n6f7v29","one_one","1","indirect_first","0","an07as27","0","27","1","1","3","1","554","","","<img src = 'targets/mask.png' width = '100%;'>","75","neg","GS","abstract","3","category3/wang.png","targets/41.png","1","indirect","26",""
"","html-keyboard-response","199","504578","0.0-10.0-0.11","bx1n6f7v29","one_one","1","indirect_first","0","an07as27","0","27","1","1","3","1","null","","","<div style=""font-size:60px;"">+</div>","null","","","","","","","","","",""
"","html-keyboard-response","200","504679","0.0-10.0-1.11","bx1n6f7v29","one_one","1","indirect_first","0","an07as27","0","27","1","1","3","1","null","","","<img src = 'category1/GS1.png' width = '100%;'>","null","","","","","","","","","",""
"","html-keyboard-response","201","504958","0.0-10.0-2.11","bx1n6f7v29","one_one","1","indirect_first","0","an07as27","0","27","1","1","3","1","null","","","<img src = 'targets/11.png' width = '100%;'>","null","","","","","","","","","",""
"","html-keyboard-response","202","505579","0.0-10.0-3.11","bx1n6f7v29","one_one","1","indirect_first","0","an07as27","0","27","1","1","3","1","619","","","<img src = 'targets/mask.png' width = '100%;'>","75","pos","GS","GSnew","1","category1/GS1.png","targets/11.png","1","indirect","27",""
"","html-keyboard-response","203","507117","0.0-10.0-0.12","bx1n6f7v29","one_one","1","indirect_first","0","an07as27","0","27","1","1","3","1","null","","","<div style=""font-size:60px;"">+</div>","null","","","","","","","","","",""
"","html-keyboard-response","204","507218","0.0-10.0-1.12","bx1n6f7v29","one_one","1","indirect_first","0","an07as27","0","27","1","1","3","1","null","","","<img src = 'category2/GS3.png' width = '100%;'>","null","","","","","","","","","",""
"","html-keyboard-response","205","507498","0.0-10.0-2.12","bx1n6f7v29","one_one","1","indirect_first","0","an07as27","0","27","1","1","3","1","null","","","<img src = 'targets/38.png' width = '100%;'>","null","","","","","","","","","",""
"","html-keyboard-response","206","508155","0.0-10.0-3.12","bx1n6f7v29","one_one","1","indirect_first","0","an07as27","0","27","1","1","3","1","655","","","<img src = 'targets/mask.png' width = '100%;'>","68","pos","GS","GSnew","2","category2/GS3.png","targets/38.png","0","indirect","28",""
"","html-keyboard-response","207","509689","0.0-10.0-0.13","bx1n6f7v29","one_one","1","indirect_first","0","an07as27","0","27","1","1","3","1","null","","","<div style=""font-size:60px;"">+</div>","null","","","","","","","","","",""
"","html-keyboard-response","208","509789","0.0-10.0-1.13","bx1n6f7v29","one_one","1","indirect_first","0","an07as27","0","27","1","1","3","1","null","","","<img src = 'category1/GS3.png' width = '100%;'>","null","","","","","","","","","",""
"","html-keyboard-response","209","510069","0.0-10.0-2.13","bx1n6f7v29","one_one","1","indirect_first","0","an07as27","0","27","1","1","3","1","null","","","<img src = 'targets/28.png' width = '100%;'>","null","","","","","","","","","",""
"","html-keyboard-response","210","511338","0.0-10.0-3.13","bx1n6f7v29","one_one","1","indirect_first","0","an07as27","0","27","1","1","3","1","1269","","","<img src = 'targets/mask.png' width = '100%;'>","68","pos","GS","GSnew","1","category1/GS3.png","targets/28.png","0","indirect","29",""
"","html-keyboard-response","211","512858","0.0-10.0-0.14","bx1n6f7v29","one_one","1","indirect_first","0","an07as27","0","27","1","1","3","1","null","","","<div style=""font-size:60px;"">+</div>","null","","","","","","","","","",""
"","html-keyboard-response","212","512958","0.0-10.0-1.14","bx1n6f7v29","one_one","1","indirect_first","0","an07as27","0","27","1","1","3","1","null","","","<img src = 'category1/GS2.png' width = '100%;'>","null","","","","","","","","","",""
"","html-keyboard-response","213","513238","0.0-10.0-2.14","bx1n6f7v29","one_one","1","indirect_first","0","an07as27","0","27","1","1","3","1","null","","","<img src = 'targets/23.png' width = '100%;'>","null","","","","","","","","","",""
"","html-keyboard-response","214","514179","0.0-10.0-3.14","bx1n6f7v29","one_one","1","indirect_first","0","an07as27","0","27","1","1","3","1","938","","","<img src = 'targets/mask.png' width = '100%;'>","75","pos","GS","GSnew","1","category1/GS2.png","targets/23.png","1","indirect","30",""
"","html-keyboard-response","215","515699","0.0-10.0-0.15","bx1n6f7v29","one_one","1","indirect_first","0","an07as27","0","27","1","1","3","1","null","","","<div style=""font-size:60px;"">+</div>","null","","","","","","","","","",""
"","html-keyboard-response","216","515798","0.0-10.0-1.15","bx1n6f7v29","one_one","1","indirect_first","0","an07as27","0","27","1","1","3","1","null","","","<img src = 'category2/GS1.png' width = '100%;'>","null","","","","","","","","","",""
"","html-keyboard-response","217","516078","0.0-10.0-2.15","bx1n6f7v29","one_one","1","indirect_first","0","an07as27","0","27","1","1","3","1","null","","","<img src = 'targets/22.png' width = '100%;'>","null","","","","","","","","","",""
"","html-keyboard-response","218","516931","0.0-10.0-3.15","bx1n6f7v29","one_one","1","indirect_first","0","an07as27","0","27","1","1","3","1","852","","","<img src = 'targets/mask.png' width = '100%;'>","68","pos","GS","GSnew","2","category2/GS1.png","targets/22.png","0","indirect","31",""
"","survey-html-form","219","527699","0.0-11.0","bx1n6f7v29","one_one","1","indirect_first","0","an07as27","0","27","1","1","3","1","10266","","{}","","","","","","","","","","","",""
"","image-slider-response","220","536002","0.0-12.0-0.0","bx1n6f7v29","one_one","1","indirect_first","0","an07as27","0","27","1","1","3","1","6286","","","","","pos","CS","CS","2","category2/CS10.png","targets/39.png","","direct","","45"
"","image-slider-response","221","538689","0.0-12.0-0.1","bx1n6f7v29","one_one","1","indirect_first","0","an07as27","0","27","1","1","3","1","2685","","","","","neg","GS","abstract","3","category3/wang.png","targets/41.png","","direct","","72"
"","image-slider-response","222","542354","0.0-12.0-0.2","bx1n6f7v29","one_one","1","indirect_first","0","an07as27","0","27","1","1","3","1","3662","","","","","pos","GS","GSold","2","category2/CS2.png","targets/34.png","","direct","","4"
"","image-slider-response","223","548841","0.0-12.0-0.3","bx1n6f7v29","one_one","1","indirect_first","0","an07as27","0","27","1","1","3","1","6486","","","","","neg","CS","CS","4","category4/CS4.png","targets/35.png","","direct","","-23"
"","image-slider-response","224","553714","0.0-12.0-0.4","bx1n6f7v29","one_one","1","indirect_first","0","an07as27","0","27","1","1","3","1","4872","","","","","pos","GS","GSnew","1","category1/GS1.png","targets/11.png","","direct","","-22"
"","image-slider-response","225","556018","0.0-12.0-0.5","bx1n6f7v29","one_one","1","indirect_first","0","an07as27","0","27","1","1","3","1","2303","","","","","neg","GS","GSnew","4","category4/GS1.png","targets/20.png","","direct","","50"
"","image-slider-response","226","558162","0.0-12.0-0.6","bx1n6f7v29","one_one","1","indirect_first","0","an07as27","0","27","1","1","3","1","2143","","","","","neg","GS","GSold","3","category3/CS1.png","targets/6.png","","direct","","30"
"","image-slider-response","227","562314","0.0-12.0-0.7","bx1n6f7v29","one_one","1","indirect_first","0","an07as27","0","27","1","1","3","1","4151","","","","","neg","GS","GSnew","3","category3/GS2.png","targets/1.png","","direct","","99"
"","image-slider-response","228","564858","0.0-12.0-0.8","bx1n6f7v29","one_one","1","indirect_first","0","an07as27","0","27","1","1","3","1","2542","","","","","neg","GS","GSnew","3","category3/GS1.png","targets/2.png","","direct","","28"
"","image-slider-response","229","568634","0.0-12.0-0.9","bx1n6f7v29","one_one","1","indirect_first","0","an07as27","0","27","1","1","3","1","3775","","","","","pos","GS","GSold","1","category1/CS6.png","targets/47.png","","direct","","96"
"","image-slider-response","230","571017","0.0-12.0-0.10","bx1n6f7v29","one_one","1","indirect_first","0","an07as27","0","27","1","1","3","1","2382","","","","","pos","GS","GSnew","1","category1/GS2.png","targets/23.png","","direct","","-47"
"","image-slider-response","231","573386","0.0-12.0-0.11","bx1n6f7v29","one_one","1","indirect_first","0","an07as27","0","27","1","1","3","1","2367","","","","","pos","GS","GSnew","2","category2/GS1.png","targets/22.png","","direct","","17"
"","image-slider-response","232","578082","0.0-12.0-0.12","bx1n6f7v29","one_one","1","indirect_first","0","an07as27","0","27","1","1","3","1","4695","","","","","neg","GS","GSold","3","category3/CS7.png","targets/33.png","","direct","","-25"
"","image-slider-response","233","581402","0.0-12.0-0.13","bx1n6f7v29","one_one","1","indirect_first","0","an07as27","0","27","1","1","3","1","3318","","","","","pos","CS","CS","1","category1/CS2.png","targets/36.png","","direct","","-40"
"","image-slider-response","234","583906","0.0-12.0-0.14","bx1n6f7v29","one_one","1","indirect_first","0","an07as27","0","27","1","1","3","1","2502","","","","","pos","GS","GSold","1","category1/CS10.png","targets/5.png","","direct","","-24"
"","image-slider-response","235","586066","0.0-12.0-0.15","bx1n6f7v29","one_one","1","indirect_first","0","an07as27","0","27","1","1","3","1","2159","","","","","pos","GS","GSnew","2","category2/GS3.png","targets/38.png","","direct","","13"
"","image-slider-response","236","588034","0.0-12.0-0.16","bx1n6f7v29","one_one","1","indirect_first","0","an07as27","0","27","1","1","3","1","1967","","","","","neg","GS","GSnew","3","category3/GS3.png","targets/9.png","","direct","","36"
"","image-slider-response","237","590329","0.0-12.0-0.17","bx1n6f7v29","one_one","1","indirect_first","0","an07as27","0","27","1","1","3","1","2295","","","","","neg","GS","abstract","4","category4/lin.png","targets/17.png","","direct","","99"
"","image-slider-response","238","591978","0.0-12.0-0.18","bx1n6f7v29","one_one","1","indirect_first","0","an07as27","0","27","1","1","3","1","1647","","","","","neg","CS","CS","3","category3/CS6.png","targets/7.png","","direct","","50"
"","image-slider-response","239","593970","0.0-12.0-0.19","bx1n6f7v29","one_one","1","indirect_first","0","an07as27","0","27","1","1","3","1","1991","","","","","neg","GS","GSold","4","category4/CS10.png","targets/26.png","","direct","","9"
"","image-slider-response","240","597322","0.0-12.0-0.20","bx1n6f7v29","one_one","1","indirect_first","0","an07as27","0","27","1","1","3","1","3351","","","","","pos","GS","GSold","1","category1/CS3.png","targets/4.png","","direct","","17"
"","image-slider-response","241","599338","0.0-12.0-0.21","bx1n6f7v29","one_one","1","indirect_first","0","an07as27","0","27","1","1","3","1","2014","","","","","pos","GS","abstract","2","category2/men.png","targets/44.png","","direct","","65"
"","image-slider-response","242","601026","0.0-12.0-0.22","bx1n6f7v29","one_one","1","indirect_first","0","an07as27","0","27","1","1","3","1","1688","","","","","pos","GS","abstract","1","category1/ma.png","targets/27.png","","direct","","78"
"","image-slider-response","243","605130","0.0-12.0-0.23","bx1n6f7v29","one_one","1","indirect_first","0","an07as27","0","27","1","1","3","1","4103","","","","","neg","GS","GSnew","4","category4/GS3.png","targets/19.png","","direct","","95"
"","image-slider-response","244","606914","0.0-12.0-0.24","bx1n6f7v29","one_one","1","indirect_first","0","an07as27","0","27","1","1","3","1","1782","","","","","pos","GS","GSnew","2","category2/GS2.png","targets/8.png","","direct","","10"
"","image-slider-response","245","610162","0.0-12.0-0.25","bx1n6f7v29","one_one","1","indirect_first","0","an07as27","0","27","1","1","3","1","3247","","","","","pos","GS","GSnew","1","category1/GS3.png","targets/28.png","","direct","","50"
"","image-slider-response","246","613466","0.0-12.0-0.26","bx1n6f7v29","one_one","1","indirect_first","0","an07as27","0","27","1","1","3","1","3304","","","","","pos","GS","GSold","2","category2/CS8.png","targets/14.png","","direct","","-10"
"","image-slider-response","247","615434","0.0-12.0-0.27","bx1n6f7v29","one_one","1","indirect_first","0","an07as27","0","27","1","1","3","1","1967","","","","","neg","GS","GSold","4","category4/CS7.png","targets/40.png","","direct","","-36"
"","image-slider-response","248","617082","0.0-12.0-0.28","bx1n6f7v29","one_one","1","indirect_first","0","an07as27","0","27","1","1","3","1","1647","","","","","neg","GS","GSold","3","category3/CS3.png","targets/46.png","","direct","","-9"
"","image-slider-response","249","619738","0.0-12.0-0.29","bx1n6f7v29","one_one","1","indirect_first","0","an07as27","0","27","1","1","3","1","2655","","","","","neg","GS","GSold","4","category4/CS1.png","targets/10.png","","direct","","-91"
"","image-slider-response","250","621314","0.0-12.0-0.30","bx1n6f7v29","one_one","1","indirect_first","0","an07as27","0","27","1","1","3","1","1575","","","","","neg","GS","GSnew","4","category4/GS2.png","targets/12.png","","direct","","-58"
"","image-slider-response","251","624522","0.0-12.0-0.31","bx1n6f7v29","one_one","1","indirect_first","0","an07as27","0","27","1","1","3","1","3207","","","","","pos","GS","GSold","2","category2/CS9.png","targets/45.png","","direct","","-30"
"","survey-html-form","252","629626","0.0-13.0","bx1n6f7v29","one_one","1","indirect_first","0","an07as27","0","27","1","1","3","1","5103","","{}","","","","","","","","","","","",""
"","image-slider-response","253","635498","0.0-14.0-0.0","bx1n6f7v29","one_one","1","indirect_first","0","an07as27","0","27","1","1","3","1","4867","","","","","pos","All","all","1","category1/ma_all.png","","","all","","16"
"","image-slider-response","254","638050","0.0-14.0-0.1","bx1n6f7v29","one_one","1","indirect_first","0","an07as27","0","27","1","1","3","1","2550","","","","","pos","All","all","2","category2/men_all.png","","","all","","-31"
"","image-slider-response","255","642770","0.0-14.0-0.2","bx1n6f7v29","one_one","1","indirect_first","0","an07as27","0","27","1","1","3","1","4719","","","","","neg","All","all","4","category4/lin_all.png","","","all","","-10"
"","image-slider-response","256","645106","0.0-14.0-0.3","bx1n6f7v29","one_one","1","indirect_first","0","an07as27","0","27","1","1","3","1","2335","","","","","neg","All","all","3","category3/wang_all.png","","","all","","28"
"","survey-text","257","647387","0.0-15.0","bx1n6f7v29","one_one","1","indirect_first","0","an07as27","0","27","1","1","3","1","2277","","{""Q0"":""""}","","","","","","","","","","","",""
