"success","trial_type","trial_index","time_elapsed","internal_node_id","subject","condition","condition_code","measure","measure_code","codeword","gender","age","education","chinese","fach","handedness","comment","hinschauen","ablenkung","gewissenhaft","rt","url","responses","stimulus","key_press","val","type","type_specific","category","cs_selected","target","indirect","task","nr_pres","response"
"true","fullscreen","0","10596","0.0-0.0","cfmxozsyrn","many_one","0","indirect_first","0","ug07mo24","0","20","1","1","3","1","","0","1","0","","","","","","","","","","","","","","",""
"","external-html","1","21303","0.0-1.0","cfmxozsyrn","many_one","0","indirect_first","0","ug07mo24","0","20","1","1","3","1","","0","1","0","10562.999999999996","text/information.html","","","","","","","","","","","","",""
"","external-html","2","43448","0.0-2.0","cfmxozsyrn","many_one","0","indirect_first","0","ug07mo24","0","20","1","1","3","1","","0","1","0","22092","text/consent.html","","","","","","","","","","","","",""
"","survey-html-form","3","165350","0.0-3.0","cfmxozsyrn","many_one","0","indirect_first","0","ug07mo24","0","20","1","1","3","1","","0","1","0","121894","","{""codeword_enter"":""ug07mo24""}","","","","","","","","","","","",""
"","survey-html-form","4","179144","0.0-4.0","cfmxozsyrn","many_one","0","indirect_first","0","ug07mo24","0","20","1","1","3","1","","0","1","0","13793","","{""age"":""20"",""education"":""1"",""subject"":""3"",""gender"":""0"",""handedness"":""1"",""chinese"":""1""}","","","","","","","","","","","",""
"","survey-html-form","5","191863","0.0-5.0","cfmxozsyrn","many_one","0","indirect_first","0","ug07mo24","0","20","1","1","3","1","","0","1","0","12717","","{}","","","","","","","","","","","",""
"","html-keyboard-response","6","195868","0.0-6.0-0.0-0.0","cfmxozsyrn","many_one","0","indirect_first","0","ug07mo24","0","20","1","1","3","1","","0","1","0","null","","","<div class = 'row'><div class = 'column'><img src = 'usneg/2900.bmp' width = '100%;'></div><div class = 'column'><img src = 'category4/CS1.png' width = '70%;'></div></div>","null","neg","CS","CS","4","category4/CS1.png","","","","",""
"","html-keyboard-response","7","198372","0.0-6.0-0.0-0.1","cfmxozsyrn","many_one","0","indirect_first","0","ug07mo24","0","20","1","1","3","1","","0","1","0","null","","","<div class = 'row'><div class = 'column'><img src = 'uspos/2150.bmp' width = '100%;'></div><div class = 'column'><img src = 'category1/CS1.png' width = '70%;'></div></div>","null","pos","CS","CS","1","category1/CS1.png","","","","",""
"","html-keyboard-response","8","200876","0.0-6.0-0.0-0.2","cfmxozsyrn","many_one","0","indirect_first","0","ug07mo24","0","20","1","1","3","1","","0","1","0","null","","","<div class = 'row'><div class = 'column'><img src = 'category2/CS9.png' width = '70%;'></div><div class = 'column'><img src = 'uspos/2040.bmp' width = '100%;'></div></div>","null","pos","CS","CS","2","category2/CS9.png","","","","",""
"","html-keyboard-response","9","203380","0.0-6.0-0.0-0.3","cfmxozsyrn","many_one","0","indirect_first","0","ug07mo24","0","20","1","1","3","1","","0","1","0","null","","","<div class = 'row'><div class = 'column'><img src = 'usneg/2205.bmp' width = '100%;'></div><div class = 'column'><img src = 'category3/CS6.png' width = '70%;'></div></div>","null","neg","CS","CS","3","category3/CS6.png","","","","",""
"","html-keyboard-response","10","205884","0.0-6.0-0.0-0.4","cfmxozsyrn","many_one","0","indirect_first","0","ug07mo24","0","20","1","1","3","1","","0","1","0","null","","","<div class = 'row'><div class = 'column'><img src = 'category2/CS3.png' width = '70%;'></div><div class = 'column'><img src = 'uspos/5470.bmp' width = '100%;'></div></div>","null","pos","CS","CS","2","category2/CS3.png","","","","",""
"","html-keyboard-response","11","208387","0.0-6.0-0.0-0.5","cfmxozsyrn","many_one","0","indirect_first","0","ug07mo24","0","20","1","1","3","1","","0","1","0","null","","","<div class = 'row'><div class = 'column'><img src = 'usneg/9290.bmp' width = '100%;'></div><div class = 'column'><img src = 'category3/CS7.png' width = '70%;'></div></div>","null","neg","CS","CS","3","category3/CS7.png","","","","",""
"","html-keyboard-response","12","210890","0.0-6.0-0.0-0.6","cfmxozsyrn","many_one","0","indirect_first","0","ug07mo24","0","20","1","1","3","1","","0","1","0","null","","","<div class = 'row'><div class = 'column'><img src = 'category3/CS1.png' width = '70%;'></div><div class = 'column'><img src = 'usneg/9635.2.bmp' width = '100%;'></div></div>","null","neg","CS","CS","3","category3/CS1.png","","","","",""
"","html-keyboard-response","13","213394","0.0-6.0-0.0-0.7","cfmxozsyrn","many_one","0","indirect_first","0","ug07mo24","0","20","1","1","3","1","","0","1","0","null","","","<div class = 'row'><div class = 'column'><img src = 'uspos/8540.bmp' width = '100%;'></div><div class = 'column'><img src = 'category2/CS1.png' width = '70%;'></div></div>","null","pos","CS","CS","2","category2/CS1.png","","","","",""
"","html-keyboard-response","14","215898","0.0-6.0-0.0-0.8","cfmxozsyrn","many_one","0","indirect_first","0","ug07mo24","0","20","1","1","3","1","","0","1","0","null","","","<div class = 'row'><div class = 'column'><img src = 'usneg/9180.bmp' width = '100%;'></div><div class = 'column'><img src = 'category4/CS10.png' width = '70%;'></div></div>","null","neg","CS","CS","4","category4/CS10.png","","","","",""
"","html-keyboard-response","15","218401","0.0-6.0-0.0-0.9","cfmxozsyrn","many_one","0","indirect_first","0","ug07mo24","0","20","1","1","3","1","","0","1","0","null","","","<div class = 'row'><div class = 'column'><img src = 'uspos/2058.bmp' width = '100%;'></div><div class = 'column'><img src = 'category1/CS7.png' width = '70%;'></div></div>","null","pos","CS","CS","1","category1/CS7.png","","","","",""
"","html-keyboard-response","16","220905","0.0-6.0-0.0-0.10","cfmxozsyrn","many_one","0","indirect_first","0","ug07mo24","0","20","1","1","3","1","","0","1","0","null","","","<div class = 'row'><div class = 'column'><img src = 'usneg/9340.bmp' width = '100%;'></div><div class = 'column'><img src = 'category3/CS3.png' width = '70%;'></div></div>","null","neg","CS","CS","3","category3/CS3.png","","","","",""
"","html-keyboard-response","17","223408","0.0-6.0-0.0-0.11","cfmxozsyrn","many_one","0","indirect_first","0","ug07mo24","0","20","1","1","3","1","","0","1","0","null","","","<div class = 'row'><div class = 'column'><img src = 'usneg/6570.1.bmp' width = '100%;'></div><div class = 'column'><img src = 'category4/CS6.png' width = '70%;'></div></div>","null","neg","CS","CS","4","category4/CS6.png","","","","",""
"","html-keyboard-response","18","225912","0.0-6.0-0.0-0.12","cfmxozsyrn","many_one","0","indirect_first","0","ug07mo24","0","20","1","1","3","1","","0","1","0","null","","","<div class = 'row'><div class = 'column'><img src = 'usneg/9584.bmp' width = '100%;'></div><div class = 'column'><img src = 'category4/CS4.png' width = '70%;'></div></div>","null","neg","CS","CS","4","category4/CS4.png","","","","",""
"","html-keyboard-response","19","228414","0.0-6.0-0.0-0.13","cfmxozsyrn","many_one","0","indirect_first","0","ug07mo24","0","20","1","1","3","1","","0","1","0","null","","","<div class = 'row'><div class = 'column'><img src = 'uspos/5600.bmp' width = '100%;'></div><div class = 'column'><img src = 'category1/CS3.png' width = '70%;'></div></div>","null","pos","CS","CS","1","category1/CS3.png","","","","",""
"","html-keyboard-response","20","230916","0.0-6.0-0.0-0.14","cfmxozsyrn","many_one","0","indirect_first","0","ug07mo24","0","20","1","1","3","1","","0","1","0","null","","","<div class = 'row'><div class = 'column'><img src = 'category3/CS10.png' width = '70%;'></div><div class = 'column'><img src = 'usneg/9330.bmp' width = '100%;'></div></div>","null","neg","CS","CS","3","category3/CS10.png","","","","",""
"","html-keyboard-response","21","233419","0.0-6.0-0.0-0.15","cfmxozsyrn","many_one","0","indirect_first","0","ug07mo24","0","20","1","1","3","1","","0","1","0","null","","","<div class = 'row'><div class = 'column'><img src = 'uspos/5700.bmp' width = '100%;'></div><div class = 'column'><img src = 'category2/CS4.png' width = '70%;'></div></div>","null","pos","CS","CS","2","category2/CS4.png","","","","",""
"","html-keyboard-response","22","235921","0.0-6.0-0.0-0.16","cfmxozsyrn","many_one","0","indirect_first","0","ug07mo24","0","20","1","1","3","1","","0","1","0","null","","","<div class = 'row'><div class = 'column'><img src = 'category4/CS3.png' width = '70%;'></div><div class = 'column'><img src = 'usneg/9415.bmp' width = '100%;'></div></div>","null","neg","CS","CS","4","category4/CS3.png","","","","",""
"","html-keyboard-response","23","238423","0.0-6.0-0.0-0.17","cfmxozsyrn","many_one","0","indirect_first","0","ug07mo24","0","20","1","1","3","1","","0","1","0","null","","","<div class = 'row'><div class = 'column'><img src = 'uspos/1440.bmp' width = '100%;'></div><div class = 'column'><img src = 'category1/CS9.png' width = '70%;'></div></div>","null","pos","CS","CS","1","category1/CS9.png","","","","",""
"","html-keyboard-response","24","240926","0.0-6.0-0.0-0.18","cfmxozsyrn","many_one","0","indirect_first","0","ug07mo24","0","20","1","1","3","1","","0","1","0","null","","","<div class = 'row'><div class = 'column'><img src = 'uspos/5760.bmp' width = '100%;'></div><div class = 'column'><img src = 'category2/CS5.png' width = '70%;'></div></div>","null","pos","CS","CS","2","category2/CS5.png","","","","",""
"","html-keyboard-response","25","243429","0.0-6.0-0.0-0.19","cfmxozsyrn","many_one","0","indirect_first","0","ug07mo24","0","20","1","1","3","1","","0","1","0","null","","","<div class = 'row'><div class = 'column'><img src = 'category1/CS8.png' width = '70%;'></div><div class = 'column'><img src = 'uspos/8490.bmp' width = '100%;'></div></div>","null","pos","CS","CS","1","category1/CS8.png","","","","",""
"","survey-html-form","26","247331","0.0-6.0-1.0","cfmxozsyrn","many_one","0","indirect_first","0","ug07mo24","0","20","1","1","3","1","","0","1","0","3400.999999999942","","{}","","","","","","","","","","","",""
"","html-keyboard-response","27","251334","0.0-6.0-2.0-0.0","cfmxozsyrn","many_one","0","indirect_first","0","ug07mo24","0","20","1","1","3","1","","0","1","0","null","","","<div class = 'row'><div class = 'column'><img src = 'category3/CS3.png' width = '70%;'></div><div class = 'column'><img src = 'usneg/9340.bmp' width = '100%;'></div></div>","null","neg","CS","CS","3","category3/CS3.png","","","","",""
"","html-keyboard-response","28","253837","0.0-6.0-2.0-0.1","cfmxozsyrn","many_one","0","indirect_first","0","ug07mo24","0","20","1","1","3","1","","0","1","0","null","","","<div class = 'row'><div class = 'column'><img src = 'usneg/9584.bmp' width = '100%;'></div><div class = 'column'><img src = 'category4/CS4.png' width = '70%;'></div></div>","null","neg","CS","CS","4","category4/CS4.png","","","","",""
"","html-keyboard-response","29","256341","0.0-6.0-2.0-0.2","cfmxozsyrn","many_one","0","indirect_first","0","ug07mo24","0","20","1","1","3","1","","0","1","0","null","","","<div class = 'row'><div class = 'column'><img src = 'uspos/2058.bmp' width = '100%;'></div><div class = 'column'><img src = 'category1/CS7.png' width = '70%;'></div></div>","null","pos","CS","CS","1","category1/CS7.png","","","","",""
"","html-keyboard-response","30","258845","0.0-6.0-2.0-0.3","cfmxozsyrn","many_one","0","indirect_first","0","ug07mo24","0","20","1","1","3","1","","0","1","0","null","","","<div class = 'row'><div class = 'column'><img src = 'uspos/1440.bmp' width = '100%;'></div><div class = 'column'><img src = 'category1/CS9.png' width = '70%;'></div></div>","null","pos","CS","CS","1","category1/CS9.png","","","","",""
"","html-keyboard-response","31","261348","0.0-6.0-2.0-0.4","cfmxozsyrn","many_one","0","indirect_first","0","ug07mo24","0","20","1","1","3","1","","0","1","0","null","","","<div class = 'row'><div class = 'column'><img src = 'usneg/6570.1.bmp' width = '100%;'></div><div class = 'column'><img src = 'category4/CS6.png' width = '70%;'></div></div>","null","neg","CS","CS","4","category4/CS6.png","","","","",""
"","html-keyboard-response","32","263853","0.0-6.0-2.0-0.5","cfmxozsyrn","many_one","0","indirect_first","0","ug07mo24","0","20","1","1","3","1","","0","1","0","null","","","<div class = 'row'><div class = 'column'><img src = 'usneg/2900.bmp' width = '100%;'></div><div class = 'column'><img src = 'category4/CS1.png' width = '70%;'></div></div>","null","neg","CS","CS","4","category4/CS1.png","","","","",""
"","html-keyboard-response","33","266357","0.0-6.0-2.0-0.6","cfmxozsyrn","many_one","0","indirect_first","0","ug07mo24","0","20","1","1","3","1","","0","1","0","null","","","<div class = 'row'><div class = 'column'><img src = 'category1/CS8.png' width = '70%;'></div><div class = 'column'><img src = 'uspos/8490.bmp' width = '100%;'></div></div>","null","pos","CS","CS","1","category1/CS8.png","","","","",""
"","html-keyboard-response","34","268859","0.0-6.0-2.0-0.7","cfmxozsyrn","many_one","0","indirect_first","0","ug07mo24","0","20","1","1","3","1","","0","1","0","null","","","<div class = 'row'><div class = 'column'><img src = 'category2/CS5.png' width = '70%;'></div><div class = 'column'><img src = 'uspos/5760.bmp' width = '100%;'></div></div>","null","pos","CS","CS","2","category2/CS5.png","","","","",""
"","html-keyboard-response","35","271362","0.0-6.0-2.0-0.8","cfmxozsyrn","many_one","0","indirect_first","0","ug07mo24","0","20","1","1","3","1","","0","1","0","null","","","<div class = 'row'><div class = 'column'><img src = 'uspos/2040.bmp' width = '100%;'></div><div class = 'column'><img src = 'category2/CS9.png' width = '70%;'></div></div>","null","pos","CS","CS","2","category2/CS9.png","","","","",""
"","html-keyboard-response","36","273865","0.0-6.0-2.0-0.9","cfmxozsyrn","many_one","0","indirect_first","0","ug07mo24","0","20","1","1","3","1","","0","1","0","null","","","<div class = 'row'><div class = 'column'><img src = 'usneg/9635.2.bmp' width = '100%;'></div><div class = 'column'><img src = 'category3/CS1.png' width = '70%;'></div></div>","null","neg","CS","CS","3","category3/CS1.png","","","","",""
"","html-keyboard-response","37","276367","0.0-6.0-2.0-0.10","cfmxozsyrn","many_one","0","indirect_first","0","ug07mo24","0","20","1","1","3","1","","0","1","0","null","","","<div class = 'row'><div class = 'column'><img src = 'category1/CS1.png' width = '70%;'></div><div class = 'column'><img src = 'uspos/2150.bmp' width = '100%;'></div></div>","null","pos","CS","CS","1","category1/CS1.png","","","","",""
"","html-keyboard-response","38","278871","0.0-6.0-2.0-0.11","cfmxozsyrn","many_one","0","indirect_first","0","ug07mo24","0","20","1","1","3","1","","0","1","0","null","","","<div class = 'row'><div class = 'column'><img src = 'category4/CS10.png' width = '70%;'></div><div class = 'column'><img src = 'usneg/9180.bmp' width = '100%;'></div></div>","null","neg","CS","CS","4","category4/CS10.png","","","","",""
"","html-keyboard-response","39","281373","0.0-6.0-2.0-0.12","cfmxozsyrn","many_one","0","indirect_first","0","ug07mo24","0","20","1","1","3","1","","0","1","0","null","","","<div class = 'row'><div class = 'column'><img src = 'usneg/9290.bmp' width = '100%;'></div><div class = 'column'><img src = 'category3/CS7.png' width = '70%;'></div></div>","null","neg","CS","CS","3","category3/CS7.png","","","","",""
"","html-keyboard-response","40","283877","0.0-6.0-2.0-0.13","cfmxozsyrn","many_one","0","indirect_first","0","ug07mo24","0","20","1","1","3","1","","0","1","0","null","","","<div class = 'row'><div class = 'column'><img src = 'category2/CS4.png' width = '70%;'></div><div class = 'column'><img src = 'uspos/5700.bmp' width = '100%;'></div></div>","null","pos","CS","CS","2","category2/CS4.png","","","","",""
"","html-keyboard-response","41","286379","0.0-6.0-2.0-0.14","cfmxozsyrn","many_one","0","indirect_first","0","ug07mo24","0","20","1","1","3","1","","0","1","0","null","","","<div class = 'row'><div class = 'column'><img src = 'uspos/5600.bmp' width = '100%;'></div><div class = 'column'><img src = 'category1/CS3.png' width = '70%;'></div></div>","null","pos","CS","CS","1","category1/CS3.png","","","","",""
"","html-keyboard-response","42","288882","0.0-6.0-2.0-0.15","cfmxozsyrn","many_one","0","indirect_first","0","ug07mo24","0","20","1","1","3","1","","0","1","0","null","","","<div class = 'row'><div class = 'column'><img src = 'usneg/9415.bmp' width = '100%;'></div><div class = 'column'><img src = 'category4/CS3.png' width = '70%;'></div></div>","null","neg","CS","CS","4","category4/CS3.png","","","","",""
"","html-keyboard-response","43","291384","0.0-6.0-2.0-0.16","cfmxozsyrn","many_one","0","indirect_first","0","ug07mo24","0","20","1","1","3","1","","0","1","0","null","","","<div class = 'row'><div class = 'column'><img src = 'usneg/9330.bmp' width = '100%;'></div><div class = 'column'><img src = 'category3/CS10.png' width = '70%;'></div></div>","null","neg","CS","CS","3","category3/CS10.png","","","","",""
"","html-keyboard-response","44","293888","0.0-6.0-2.0-0.17","cfmxozsyrn","many_one","0","indirect_first","0","ug07mo24","0","20","1","1","3","1","","0","1","0","null","","","<div class = 'row'><div class = 'column'><img src = 'uspos/5470.bmp' width = '100%;'></div><div class = 'column'><img src = 'category2/CS3.png' width = '70%;'></div></div>","null","pos","CS","CS","2","category2/CS3.png","","","","",""
"","html-keyboard-response","45","296392","0.0-6.0-2.0-0.18","cfmxozsyrn","many_one","0","indirect_first","0","ug07mo24","0","20","1","1","3","1","","0","1","0","null","","","<div class = 'row'><div class = 'column'><img src = 'category2/CS1.png' width = '70%;'></div><div class = 'column'><img src = 'uspos/8540.bmp' width = '100%;'></div></div>","null","pos","CS","CS","2","category2/CS1.png","","","","",""
"","html-keyboard-response","46","298895","0.0-6.0-2.0-0.19","cfmxozsyrn","many_one","0","indirect_first","0","ug07mo24","0","20","1","1","3","1","","0","1","0","null","","","<div class = 'row'><div class = 'column'><img src = 'usneg/2205.bmp' width = '100%;'></div><div class = 'column'><img src = 'category3/CS6.png' width = '70%;'></div></div>","null","neg","CS","CS","3","category3/CS6.png","","","","",""
"","survey-html-form","47","303969","0.0-6.0-3.0","cfmxozsyrn","many_one","0","indirect_first","0","ug07mo24","0","20","1","1","3","1","","0","1","0","4570","","{}","","","","","","","","","","","",""
"","html-keyboard-response","48","307973","0.0-6.0-4.0-0.0","cfmxozsyrn","many_one","0","indirect_first","0","ug07mo24","0","20","1","1","3","1","","0","1","0","null","","","<div class = 'row'><div class = 'column'><img src = 'usneg/9584.bmp' width = '100%;'></div><div class = 'column'><img src = 'category4/CS4.png' width = '70%;'></div></div>","null","neg","CS","CS","4","category4/CS4.png","","","","",""
"","html-keyboard-response","49","310477","0.0-6.0-4.0-0.1","cfmxozsyrn","many_one","0","indirect_first","0","ug07mo24","0","20","1","1","3","1","","0","1","0","null","","","<div class = 'row'><div class = 'column'><img src = 'category1/CS9.png' width = '70%;'></div><div class = 'column'><img src = 'uspos/1440.bmp' width = '100%;'></div></div>","null","pos","CS","CS","1","category1/CS9.png","","","","",""
"","html-keyboard-response","50","312981","0.0-6.0-4.0-0.2","cfmxozsyrn","many_one","0","indirect_first","0","ug07mo24","0","20","1","1","3","1","","0","1","0","null","","","<div class = 'row'><div class = 'column'><img src = 'usneg/2205.bmp' width = '100%;'></div><div class = 'column'><img src = 'category3/CS6.png' width = '70%;'></div></div>","null","neg","CS","CS","3","category3/CS6.png","","","","",""
"","html-keyboard-response","51","315484","0.0-6.0-4.0-0.3","cfmxozsyrn","many_one","0","indirect_first","0","ug07mo24","0","20","1","1","3","1","","0","1","0","null","","","<div class = 'row'><div class = 'column'><img src = 'usneg/9340.bmp' width = '100%;'></div><div class = 'column'><img src = 'category3/CS3.png' width = '70%;'></div></div>","null","neg","CS","CS","3","category3/CS3.png","","","","",""
"","html-keyboard-response","52","317988","0.0-6.0-4.0-0.4","cfmxozsyrn","many_one","0","indirect_first","0","ug07mo24","0","20","1","1","3","1","","0","1","0","null","","","<div class = 'row'><div class = 'column'><img src = 'usneg/9330.bmp' width = '100%;'></div><div class = 'column'><img src = 'category3/CS10.png' width = '70%;'></div></div>","null","neg","CS","CS","3","category3/CS10.png","","","","",""
"","html-keyboard-response","53","320490","0.0-6.0-4.0-0.5","cfmxozsyrn","many_one","0","indirect_first","0","ug07mo24","0","20","1","1","3","1","","0","1","0","null","","","<div class = 'row'><div class = 'column'><img src = 'category1/CS3.png' width = '70%;'></div><div class = 'column'><img src = 'uspos/5600.bmp' width = '100%;'></div></div>","null","pos","CS","CS","1","category1/CS3.png","","","","",""
"","html-keyboard-response","54","322993","0.0-6.0-4.0-0.6","cfmxozsyrn","many_one","0","indirect_first","0","ug07mo24","0","20","1","1","3","1","","0","1","0","null","","","<div class = 'row'><div class = 'column'><img src = 'category2/CS4.png' width = '70%;'></div><div class = 'column'><img src = 'uspos/5700.bmp' width = '100%;'></div></div>","null","pos","CS","CS","2","category2/CS4.png","","","","",""
"","html-keyboard-response","55","325496","0.0-6.0-4.0-0.7","cfmxozsyrn","many_one","0","indirect_first","0","ug07mo24","0","20","1","1","3","1","","0","1","0","null","","","<div class = 'row'><div class = 'column'><img src = 'category4/CS1.png' width = '70%;'></div><div class = 'column'><img src = 'usneg/2900.bmp' width = '100%;'></div></div>","null","neg","CS","CS","4","category4/CS1.png","","","","",""
"","html-keyboard-response","56","328000","0.0-6.0-4.0-0.8","cfmxozsyrn","many_one","0","indirect_first","0","ug07mo24","0","20","1","1","3","1","","0","1","0","null","","","<div class = 'row'><div class = 'column'><img src = 'category4/CS6.png' width = '70%;'></div><div class = 'column'><img src = 'usneg/6570.1.bmp' width = '100%;'></div></div>","null","neg","CS","CS","4","category4/CS6.png","","","","",""
"","html-keyboard-response","57","330504","0.0-6.0-4.0-0.9","cfmxozsyrn","many_one","0","indirect_first","0","ug07mo24","0","20","1","1","3","1","","0","1","0","null","","","<div class = 'row'><div class = 'column'><img src = 'usneg/9180.bmp' width = '100%;'></div><div class = 'column'><img src = 'category4/CS10.png' width = '70%;'></div></div>","null","neg","CS","CS","4","category4/CS10.png","","","","",""
"","html-keyboard-response","58","333008","0.0-6.0-4.0-0.10","cfmxozsyrn","many_one","0","indirect_first","0","ug07mo24","0","20","1","1","3","1","","0","1","0","null","","","<div class = 'row'><div class = 'column'><img src = 'uspos/8540.bmp' width = '100%;'></div><div class = 'column'><img src = 'category2/CS1.png' width = '70%;'></div></div>","null","pos","CS","CS","2","category2/CS1.png","","","","",""
"","html-keyboard-response","59","335513","0.0-6.0-4.0-0.11","cfmxozsyrn","many_one","0","indirect_first","0","ug07mo24","0","20","1","1","3","1","","0","1","0","null","","","<div class = 'row'><div class = 'column'><img src = 'usneg/9290.bmp' width = '100%;'></div><div class = 'column'><img src = 'category3/CS7.png' width = '70%;'></div></div>","null","neg","CS","CS","3","category3/CS7.png","","","","",""
"","html-keyboard-response","60","338016","0.0-6.0-4.0-0.12","cfmxozsyrn","many_one","0","indirect_first","0","ug07mo24","0","20","1","1","3","1","","0","1","0","null","","","<div class = 'row'><div class = 'column'><img src = 'uspos/8490.bmp' width = '100%;'></div><div class = 'column'><img src = 'category1/CS8.png' width = '70%;'></div></div>","null","pos","CS","CS","1","category1/CS8.png","","","","",""
"","html-keyboard-response","61","340520","0.0-6.0-4.0-0.13","cfmxozsyrn","many_one","0","indirect_first","0","ug07mo24","0","20","1","1","3","1","","0","1","0","null","","","<div class = 'row'><div class = 'column'><img src = 'category1/CS1.png' width = '70%;'></div><div class = 'column'><img src = 'uspos/2150.bmp' width = '100%;'></div></div>","null","pos","CS","CS","1","category1/CS1.png","","","","",""
"","html-keyboard-response","62","343023","0.0-6.0-4.0-0.14","cfmxozsyrn","many_one","0","indirect_first","0","ug07mo24","0","20","1","1","3","1","","0","1","0","null","","","<div class = 'row'><div class = 'column'><img src = 'category2/CS3.png' width = '70%;'></div><div class = 'column'><img src = 'uspos/5470.bmp' width = '100%;'></div></div>","null","pos","CS","CS","2","category2/CS3.png","","","","",""
"","html-keyboard-response","63","345527","0.0-6.0-4.0-0.15","cfmxozsyrn","many_one","0","indirect_first","0","ug07mo24","0","20","1","1","3","1","","0","1","0","null","","","<div class = 'row'><div class = 'column'><img src = 'category2/CS9.png' width = '70%;'></div><div class = 'column'><img src = 'uspos/2040.bmp' width = '100%;'></div></div>","null","pos","CS","CS","2","category2/CS9.png","","","","",""
"","html-keyboard-response","64","348031","0.0-6.0-4.0-0.16","cfmxozsyrn","many_one","0","indirect_first","0","ug07mo24","0","20","1","1","3","1","","0","1","0","null","","","<div class = 'row'><div class = 'column'><img src = 'category3/CS1.png' width = '70%;'></div><div class = 'column'><img src = 'usneg/9635.2.bmp' width = '100%;'></div></div>","null","neg","CS","CS","3","category3/CS1.png","","","","",""
"","html-keyboard-response","65","350535","0.0-6.0-4.0-0.17","cfmxozsyrn","many_one","0","indirect_first","0","ug07mo24","0","20","1","1","3","1","","0","1","0","null","","","<div class = 'row'><div class = 'column'><img src = 'uspos/5760.bmp' width = '100%;'></div><div class = 'column'><img src = 'category2/CS5.png' width = '70%;'></div></div>","null","pos","CS","CS","2","category2/CS5.png","","","","",""
"","html-keyboard-response","66","353040","0.0-6.0-4.0-0.18","cfmxozsyrn","many_one","0","indirect_first","0","ug07mo24","0","20","1","1","3","1","","0","1","0","null","","","<div class = 'row'><div class = 'column'><img src = 'category1/CS7.png' width = '70%;'></div><div class = 'column'><img src = 'uspos/2058.bmp' width = '100%;'></div></div>","null","pos","CS","CS","1","category1/CS7.png","","","","",""
"","html-keyboard-response","67","355544","0.0-6.0-4.0-0.19","cfmxozsyrn","many_one","0","indirect_first","0","ug07mo24","0","20","1","1","3","1","","0","1","0","null","","","<div class = 'row'><div class = 'column'><img src = 'usneg/9415.bmp' width = '100%;'></div><div class = 'column'><img src = 'category4/CS3.png' width = '70%;'></div></div>","null","neg","CS","CS","4","category4/CS3.png","","","","",""
"","survey-html-form","68","358162","0.0-6.0-5.0","cfmxozsyrn","many_one","0","indirect_first","0","ug07mo24","0","20","1","1","3","1","","0","1","0","2117","","{}","","","","","","","","","","","",""
"","html-keyboard-response","69","362166","0.0-6.0-6.0-0.0","cfmxozsyrn","many_one","0","indirect_first","0","ug07mo24","0","20","1","1","3","1","","0","1","0","null","","","<div class = 'row'><div class = 'column'><img src = 'category2/CS9.png' width = '70%;'></div><div class = 'column'><img src = 'uspos/2040.bmp' width = '100%;'></div></div>","null","pos","CS","CS","2","category2/CS9.png","","","","",""
"","html-keyboard-response","70","364670","0.0-6.0-6.0-0.1","cfmxozsyrn","many_one","0","indirect_first","0","ug07mo24","0","20","1","1","3","1","","0","1","0","null","","","<div class = 'row'><div class = 'column'><img src = 'category1/CS9.png' width = '70%;'></div><div class = 'column'><img src = 'uspos/1440.bmp' width = '100%;'></div></div>","null","pos","CS","CS","1","category1/CS9.png","","","","",""
"","html-keyboard-response","71","367174","0.0-6.0-6.0-0.2","cfmxozsyrn","many_one","0","indirect_first","0","ug07mo24","0","20","1","1","3","1","","0","1","0","null","","","<div class = 'row'><div class = 'column'><img src = 'usneg/9330.bmp' width = '100%;'></div><div class = 'column'><img src = 'category3/CS10.png' width = '70%;'></div></div>","null","neg","CS","CS","3","category3/CS10.png","","","","",""
"","html-keyboard-response","72","369677","0.0-6.0-6.0-0.3","cfmxozsyrn","many_one","0","indirect_first","0","ug07mo24","0","20","1","1","3","1","","0","1","0","null","","","<div class = 'row'><div class = 'column'><img src = 'category2/CS1.png' width = '70%;'></div><div class = 'column'><img src = 'uspos/8540.bmp' width = '100%;'></div></div>","null","pos","CS","CS","2","category2/CS1.png","","","","",""
"","html-keyboard-response","73","372180","0.0-6.0-6.0-0.4","cfmxozsyrn","many_one","0","indirect_first","0","ug07mo24","0","20","1","1","3","1","","0","1","0","null","","","<div class = 'row'><div class = 'column'><img src = 'usneg/9290.bmp' width = '100%;'></div><div class = 'column'><img src = 'category3/CS7.png' width = '70%;'></div></div>","null","neg","CS","CS","3","category3/CS7.png","","","","",""
"","html-keyboard-response","74","374684","0.0-6.0-6.0-0.5","cfmxozsyrn","many_one","0","indirect_first","0","ug07mo24","0","20","1","1","3","1","","0","1","0","null","","","<div class = 'row'><div class = 'column'><img src = 'category4/CS4.png' width = '70%;'></div><div class = 'column'><img src = 'usneg/9584.bmp' width = '100%;'></div></div>","null","neg","CS","CS","4","category4/CS4.png","","","","",""
"","html-keyboard-response","75","377186","0.0-6.0-6.0-0.6","cfmxozsyrn","many_one","0","indirect_first","0","ug07mo24","0","20","1","1","3","1","","0","1","0","null","","","<div class = 'row'><div class = 'column'><img src = 'usneg/9340.bmp' width = '100%;'></div><div class = 'column'><img src = 'category3/CS3.png' width = '70%;'></div></div>","null","neg","CS","CS","3","category3/CS3.png","","","","",""
"","html-keyboard-response","76","379689","0.0-6.0-6.0-0.7","cfmxozsyrn","many_one","0","indirect_first","0","ug07mo24","0","20","1","1","3","1","","0","1","0","null","","","<div class = 'row'><div class = 'column'><img src = 'uspos/8490.bmp' width = '100%;'></div><div class = 'column'><img src = 'category1/CS8.png' width = '70%;'></div></div>","null","pos","CS","CS","1","category1/CS8.png","","","","",""
"","html-keyboard-response","77","382193","0.0-6.0-6.0-0.8","cfmxozsyrn","many_one","0","indirect_first","0","ug07mo24","0","20","1","1","3","1","","0","1","0","null","","","<div class = 'row'><div class = 'column'><img src = 'category4/CS3.png' width = '70%;'></div><div class = 'column'><img src = 'usneg/9415.bmp' width = '100%;'></div></div>","null","neg","CS","CS","4","category4/CS3.png","","","","",""
"","html-keyboard-response","78","384697","0.0-6.0-6.0-0.9","cfmxozsyrn","many_one","0","indirect_first","0","ug07mo24","0","20","1","1","3","1","","0","1","0","null","","","<div class = 'row'><div class = 'column'><img src = 'category3/CS6.png' width = '70%;'></div><div class = 'column'><img src = 'usneg/2205.bmp' width = '100%;'></div></div>","null","neg","CS","CS","3","category3/CS6.png","","","","",""
"","html-keyboard-response","79","387201","0.0-6.0-6.0-0.10","cfmxozsyrn","many_one","0","indirect_first","0","ug07mo24","0","20","1","1","3","1","","0","1","0","null","","","<div class = 'row'><div class = 'column'><img src = 'usneg/9635.2.bmp' width = '100%;'></div><div class = 'column'><img src = 'category3/CS1.png' width = '70%;'></div></div>","null","neg","CS","CS","3","category3/CS1.png","","","","",""
"","html-keyboard-response","80","389704","0.0-6.0-6.0-0.11","cfmxozsyrn","many_one","0","indirect_first","0","ug07mo24","0","20","1","1","3","1","","0","1","0","null","","","<div class = 'row'><div class = 'column'><img src = 'category2/CS3.png' width = '70%;'></div><div class = 'column'><img src = 'uspos/5470.bmp' width = '100%;'></div></div>","null","pos","CS","CS","2","category2/CS3.png","","","","",""
"","html-keyboard-response","81","392208","0.0-6.0-6.0-0.12","cfmxozsyrn","many_one","0","indirect_first","0","ug07mo24","0","20","1","1","3","1","","0","1","0","null","","","<div class = 'row'><div class = 'column'><img src = 'category1/CS1.png' width = '70%;'></div><div class = 'column'><img src = 'uspos/2150.bmp' width = '100%;'></div></div>","null","pos","CS","CS","1","category1/CS1.png","","","","",""
"","html-keyboard-response","82","394712","0.0-6.0-6.0-0.13","cfmxozsyrn","many_one","0","indirect_first","0","ug07mo24","0","20","1","1","3","1","","0","1","0","null","","","<div class = 'row'><div class = 'column'><img src = 'usneg/6570.1.bmp' width = '100%;'></div><div class = 'column'><img src = 'category4/CS6.png' width = '70%;'></div></div>","null","neg","CS","CS","4","category4/CS6.png","","","","",""
"","html-keyboard-response","83","397216","0.0-6.0-6.0-0.14","cfmxozsyrn","many_one","0","indirect_first","0","ug07mo24","0","20","1","1","3","1","","0","1","0","null","","","<div class = 'row'><div class = 'column'><img src = 'usneg/2900.bmp' width = '100%;'></div><div class = 'column'><img src = 'category4/CS1.png' width = '70%;'></div></div>","null","neg","CS","CS","4","category4/CS1.png","","","","",""
"","html-keyboard-response","84","399719","0.0-6.0-6.0-0.15","cfmxozsyrn","many_one","0","indirect_first","0","ug07mo24","0","20","1","1","3","1","","0","1","0","null","","","<div class = 'row'><div class = 'column'><img src = 'uspos/2058.bmp' width = '100%;'></div><div class = 'column'><img src = 'category1/CS7.png' width = '70%;'></div></div>","null","pos","CS","CS","1","category1/CS7.png","","","","",""
"","html-keyboard-response","85","402225","0.0-6.0-6.0-0.16","cfmxozsyrn","many_one","0","indirect_first","0","ug07mo24","0","20","1","1","3","1","","0","1","0","null","","","<div class = 'row'><div class = 'column'><img src = 'usneg/9180.bmp' width = '100%;'></div><div class = 'column'><img src = 'category4/CS10.png' width = '70%;'></div></div>","null","neg","CS","CS","4","category4/CS10.png","","","","",""
"","html-keyboard-response","86","404728","0.0-6.0-6.0-0.17","cfmxozsyrn","many_one","0","indirect_first","0","ug07mo24","0","20","1","1","3","1","","0","1","0","null","","","<div class = 'row'><div class = 'column'><img src = 'category1/CS3.png' width = '70%;'></div><div class = 'column'><img src = 'uspos/5600.bmp' width = '100%;'></div></div>","null","pos","CS","CS","1","category1/CS3.png","","","","",""
"","html-keyboard-response","87","407231","0.0-6.0-6.0-0.18","cfmxozsyrn","many_one","0","indirect_first","0","ug07mo24","0","20","1","1","3","1","","0","1","0","null","","","<div class = 'row'><div class = 'column'><img src = 'uspos/5700.bmp' width = '100%;'></div><div class = 'column'><img src = 'category2/CS4.png' width = '70%;'></div></div>","null","pos","CS","CS","2","category2/CS4.png","","","","",""
"","html-keyboard-response","88","409735","0.0-6.0-6.0-0.19","cfmxozsyrn","many_one","0","indirect_first","0","ug07mo24","0","20","1","1","3","1","","0","1","0","null","","","<div class = 'row'><div class = 'column'><img src = 'category2/CS5.png' width = '70%;'></div><div class = 'column'><img src = 'uspos/5760.bmp' width = '100%;'></div></div>","null","pos","CS","CS","2","category2/CS5.png","","","","",""
"","html-keyboard-response","89","435165","0.0-7.0","cfmxozsyrn","many_one","0","indirect_first","0","ug07mo24","0","20","1","1","3","1","","0","1","0","24926","","","<p>Sie sehen nun die chinesischen Zeichen nur ganz kurz. Danach sehen Sie die jeweilige Aussprache der Zeichen als Silbe auf dem Bildschrim. Ihre Aufgabe ist es, für jede Silbe anzugeben, ob diese etwas angenehmes, oder unangenehmes bedeuten könnte. Verlassen Sie sich hier vor allem auf Ihre Intuition.<br><br>Die Zeichen werden nur zur Orientierung dargestellt, beachten Sie sie deshalb nicht. Konzentrieren Sie sich vor allem auf die Silben. <br>Reagieren Sie mit folgenden zwei Tasten: <br><br><b>'D' </b> wenn die Silbe etwas <b>unangenehmes</b> bedeuten könnte. <br><b>'K'</b> wenn die Silbe etwas <b>angenehmes</b> bedeuten könnte. <br><br>Bitte legen Sie nun den Zeigefinger der linken Hand auf die Taste 'D' und den Zeigefinger der rechten Hand auf die Taste 'K'. <br>Reagieren Sie auf jede Silbe so schnell wie möglich. Uns interessiert Ihre spontane Reaktion. <br> <br> <br>Drücken Sie 'D' oder 'K', um die nächste Aufgabe zu starten. </p>","75","","","","","","","","","",""
"","html-keyboard-response","90","438167","0.0-8.0-0.0","cfmxozsyrn","many_one","0","indirect_first","0","ug07mo24","0","20","1","1","3","1","","0","1","0","null","","","<div style=""font-size:60px;"">+</div>","null","","","","","","","","","",""
"","html-keyboard-response","91","438260","0.0-8.0-1.0","cfmxozsyrn","many_one","0","indirect_first","0","ug07mo24","0","20","1","1","3","1","","0","1","0","null","","","<img src = 'category2/CS7.png' width = '100%;'>","null","","","","","","","","","",""
"","html-keyboard-response","92","438512","0.0-8.0-2.0","cfmxozsyrn","many_one","0","indirect_first","0","ug07mo24","0","20","1","1","3","1","","0","1","0","null","","","<img src = 'targets/44.png' width = '100%;'>","null","","","","","","","","","",""
"","html-keyboard-response","93","441702","0.0-8.0-3.0","cfmxozsyrn","many_one","0","indirect_first","0","ug07mo24","0","20","1","1","3","1","","0","1","0","3189","","","<img src = 'targets/mask.png' width = '100%;'>","75","pos","GS","GSold","2","category2/CS7.png","targets/44.png","1","indirect","0",""
"","html-keyboard-response","94","443205","0.0-8.0-0.1","cfmxozsyrn","many_one","0","indirect_first","0","ug07mo24","0","20","1","1","3","1","","0","1","0","null","","","<div style=""font-size:60px;"">+</div>","null","","","","","","","","","",""
"","html-keyboard-response","95","443297","0.0-8.0-1.1","cfmxozsyrn","many_one","0","indirect_first","0","ug07mo24","0","20","1","1","3","1","","0","1","0","null","","","<img src = 'category1/CS8.png' width = '100%;'>","null","","","","","","","","","",""
"","html-keyboard-response","96","443548","0.0-8.0-2.1","cfmxozsyrn","many_one","0","indirect_first","0","ug07mo24","0","20","1","1","3","1","","0","1","0","null","","","<img src = 'targets/14.png' width = '100%;'>","null","","","","","","","","","",""
"","html-keyboard-response","97","447866","0.0-8.0-3.1","cfmxozsyrn","many_one","0","indirect_first","0","ug07mo24","0","20","1","1","3","1","","0","1","0","4316.000000000058","","","<img src = 'targets/mask.png' width = '100%;'>","75","pos","CS","CS","1","category1/CS8.png","targets/14.png","1","indirect","1",""
"","html-keyboard-response","98","449369","0.0-8.0-0.2","cfmxozsyrn","many_one","0","indirect_first","0","ug07mo24","0","20","1","1","3","1","","0","1","0","null","","","<div style=""font-size:60px;"">+</div>","null","","","","","","","","","",""
"","html-keyboard-response","99","449461","0.0-8.0-1.2","cfmxozsyrn","many_one","0","indirect_first","0","ug07mo24","0","20","1","1","3","1","","0","1","0","null","","","<img src = 'category2/CS3.png' width = '100%;'>","null","","","","","","","","","",""
"","html-keyboard-response","100","449713","0.0-8.0-2.2","cfmxozsyrn","many_one","0","indirect_first","0","ug07mo24","0","20","1","1","3","1","","0","1","0","null","","","<img src = 'targets/36.png' width = '100%;'>","null","","","","","","","","","",""
"","html-keyboard-response","101","451360","0.0-8.0-3.2","cfmxozsyrn","many_one","0","indirect_first","0","ug07mo24","0","20","1","1","3","1","","0","1","0","1645","","","<img src = 'targets/mask.png' width = '100%;'>","68","pos","CS","CS","2","category2/CS3.png","targets/36.png","0","indirect","2",""
"","html-keyboard-response","102","452863","0.0-8.0-0.3","cfmxozsyrn","many_one","0","indirect_first","0","ug07mo24","0","20","1","1","3","1","","0","1","0","null","","","<div style=""font-size:60px;"">+</div>","null","","","","","","","","","",""
"","html-keyboard-response","103","452955","0.0-8.0-1.3","cfmxozsyrn","many_one","0","indirect_first","0","ug07mo24","0","20","1","1","3","1","","0","1","0","null","","","<img src = 'category2/CS9.png' width = '100%;'>","null","","","","","","","","","",""
"","html-keyboard-response","104","453207","0.0-8.0-2.3","cfmxozsyrn","many_one","0","indirect_first","0","ug07mo24","0","20","1","1","3","1","","0","1","0","null","","","<img src = 'targets/19.png' width = '100%;'>","null","","","","","","","","","",""
"","html-keyboard-response","105","454438","0.0-8.0-3.3","cfmxozsyrn","many_one","0","indirect_first","0","ug07mo24","0","20","1","1","3","1","","0","1","0","1228.0000000000582","","","<img src = 'targets/mask.png' width = '100%;'>","75","pos","CS","CS","2","category2/CS9.png","targets/19.png","1","indirect","3",""
"","html-keyboard-response","106","455941","0.0-8.0-0.4","cfmxozsyrn","many_one","0","indirect_first","0","ug07mo24","0","20","1","1","3","1","","0","1","0","null","","","<div style=""font-size:60px;"">+</div>","null","","","","","","","","","",""
"","html-keyboard-response","107","456034","0.0-8.0-1.4","cfmxozsyrn","many_one","0","indirect_first","0","ug07mo24","0","20","1","1","3","1","","0","1","0","null","","","<img src = 'category3/CS9.png' width = '100%;'>","null","","","","","","","","","",""
"","html-keyboard-response","108","456287","0.0-8.0-2.4","cfmxozsyrn","many_one","0","indirect_first","0","ug07mo24","0","20","1","1","3","1","","0","1","0","null","","","<img src = 'targets/31.png' width = '100%;'>","null","","","","","","","","","",""
"","html-keyboard-response","109","458344","0.0-8.0-3.4","cfmxozsyrn","many_one","0","indirect_first","0","ug07mo24","0","20","1","1","3","1","","0","1","0","2056","","","<img src = 'targets/mask.png' width = '100%;'>","68","neg","GS","GSold","3","category3/CS9.png","targets/31.png","0","indirect","4",""
"","html-keyboard-response","110","459847","0.0-8.0-0.5","cfmxozsyrn","many_one","0","indirect_first","0","ug07mo24","0","20","1","1","3","1","","0","1","0","null","","","<div style=""font-size:60px;"">+</div>","null","","","","","","","","","",""
"","html-keyboard-response","111","459939","0.0-8.0-1.5","cfmxozsyrn","many_one","0","indirect_first","0","ug07mo24","0","20","1","1","3","1","","0","1","0","null","","","<img src = 'category3/CS3.png' width = '100%;'>","null","","","","","","","","","",""
"","html-keyboard-response","112","460193","0.0-8.0-2.5","cfmxozsyrn","many_one","0","indirect_first","0","ug07mo24","0","20","1","1","3","1","","0","1","0","null","","","<img src = 'targets/45.png' width = '100%;'>","null","","","","","","","","","",""
"","html-keyboard-response","113","461555","0.0-8.0-3.5","cfmxozsyrn","many_one","0","indirect_first","0","ug07mo24","0","20","1","1","3","1","","0","1","0","1361","","","<img src = 'targets/mask.png' width = '100%;'>","75","neg","CS","CS","3","category3/CS3.png","targets/45.png","1","indirect","5",""
"","html-keyboard-response","114","463058","0.0-8.0-0.6","cfmxozsyrn","many_one","0","indirect_first","0","ug07mo24","0","20","1","1","3","1","","0","1","0","null","","","<div style=""font-size:60px;"">+</div>","null","","","","","","","","","",""
"","html-keyboard-response","115","463149","0.0-8.0-1.6","cfmxozsyrn","many_one","0","indirect_first","0","ug07mo24","0","20","1","1","3","1","","0","1","0","null","","","<img src = 'category4/CS6.png' width = '100%;'>","null","","","","","","","","","",""
"","html-keyboard-response","116","463401","0.0-8.0-2.6","cfmxozsyrn","many_one","0","indirect_first","0","ug07mo24","0","20","1","1","3","1","","0","1","0","null","","","<img src = 'targets/41.png' width = '100%;'>","null","","","","","","","","","",""
"","html-keyboard-response","117","466420","0.0-8.0-3.6","cfmxozsyrn","many_one","0","indirect_first","0","ug07mo24","0","20","1","1","3","1","","0","1","0","3019","","","<img src = 'targets/mask.png' width = '100%;'>","75","neg","CS","CS","4","category4/CS6.png","targets/41.png","1","indirect","6",""
"","html-keyboard-response","118","467924","0.0-8.0-0.7","cfmxozsyrn","many_one","0","indirect_first","0","ug07mo24","0","20","1","1","3","1","","0","1","0","null","","","<div style=""font-size:60px;"">+</div>","null","","","","","","","","","",""
"","html-keyboard-response","119","468018","0.0-8.0-1.7","cfmxozsyrn","many_one","0","indirect_first","0","ug07mo24","0","20","1","1","3","1","","0","1","0","null","","","<img src = 'category1/CS1.png' width = '100%;'>","null","","","","","","","","","",""
"","html-keyboard-response","120","468271","0.0-8.0-2.7","cfmxozsyrn","many_one","0","indirect_first","0","ug07mo24","0","20","1","1","3","1","","0","1","0","null","","","<img src = 'targets/6.png' width = '100%;'>","null","","","","","","","","","",""
"","html-keyboard-response","121","469397","0.0-8.0-3.7","cfmxozsyrn","many_one","0","indirect_first","0","ug07mo24","0","20","1","1","3","1","","0","1","0","1125","","","<img src = 'targets/mask.png' width = '100%;'>","68","pos","CS","CS","1","category1/CS1.png","targets/6.png","0","indirect","7",""
"","html-keyboard-response","122","470901","0.0-8.0-0.8","cfmxozsyrn","many_one","0","indirect_first","0","ug07mo24","0","20","1","1","3","1","","0","1","0","null","","","<div style=""font-size:60px;"">+</div>","null","","","","","","","","","",""
"","html-keyboard-response","123","470993","0.0-8.0-1.8","cfmxozsyrn","many_one","0","indirect_first","0","ug07mo24","0","20","1","1","3","1","","0","1","0","null","","","<img src = 'category3/CS8.png' width = '100%;'>","null","","","","","","","","","",""
"","html-keyboard-response","124","471246","0.0-8.0-2.8","cfmxozsyrn","many_one","0","indirect_first","0","ug07mo24","0","20","1","1","3","1","","0","1","0","null","","","<img src = 'targets/43.png' width = '100%;'>","null","","","","","","","","","",""
"","html-keyboard-response","125","472369","0.0-8.0-3.8","cfmxozsyrn","many_one","0","indirect_first","0","ug07mo24","0","20","1","1","3","1","","0","1","0","1122","","","<img src = 'targets/mask.png' width = '100%;'>","75","neg","GS","GSold","3","category3/CS8.png","targets/43.png","1","indirect","8",""
"","html-keyboard-response","126","473872","0.0-8.0-0.9","cfmxozsyrn","many_one","0","indirect_first","0","ug07mo24","0","20","1","1","3","1","","0","1","0","null","","","<div style=""font-size:60px;"">+</div>","null","","","","","","","","","",""
"","html-keyboard-response","127","473965","0.0-8.0-1.9","cfmxozsyrn","many_one","0","indirect_first","0","ug07mo24","0","20","1","1","3","1","","0","1","0","null","","","<img src = 'category3/CS7.png' width = '100%;'>","null","","","","","","","","","",""
"","html-keyboard-response","128","474217","0.0-8.0-2.9","cfmxozsyrn","many_one","0","indirect_first","0","ug07mo24","0","20","1","1","3","1","","0","1","0","null","","","<img src = 'targets/35.png' width = '100%;'>","null","","","","","","","","","",""
"","html-keyboard-response","129","474897","0.0-8.0-3.9","cfmxozsyrn","many_one","0","indirect_first","0","ug07mo24","0","20","1","1","3","1","","0","1","0","678.9999999999418","","","<img src = 'targets/mask.png' width = '100%;'>","75","neg","CS","CS","3","category3/CS7.png","targets/35.png","1","indirect","9",""
"","html-keyboard-response","130","476399","0.0-8.0-0.10","cfmxozsyrn","many_one","0","indirect_first","0","ug07mo24","0","20","1","1","3","1","","0","1","0","null","","","<div style=""font-size:60px;"">+</div>","null","","","","","","","","","",""
"","html-keyboard-response","131","476491","0.0-8.0-1.10","cfmxozsyrn","many_one","0","indirect_first","0","ug07mo24","0","20","1","1","3","1","","0","1","0","null","","","<img src = 'category4/CS1.png' width = '100%;'>","null","","","","","","","","","",""
"","html-keyboard-response","132","476744","0.0-8.0-2.10","cfmxozsyrn","many_one","0","indirect_first","0","ug07mo24","0","20","1","1","3","1","","0","1","0","null","","","<img src = 'targets/37.png' width = '100%;'>","null","","","","","","","","","",""
"","html-keyboard-response","133","477872","0.0-8.0-3.10","cfmxozsyrn","many_one","0","indirect_first","0","ug07mo24","0","20","1","1","3","1","","0","1","0","1126","","","<img src = 'targets/mask.png' width = '100%;'>","75","neg","CS","CS","4","category4/CS1.png","targets/37.png","1","indirect","10",""
"","html-keyboard-response","134","479375","0.0-8.0-0.11","cfmxozsyrn","many_one","0","indirect_first","0","ug07mo24","0","20","1","1","3","1","","0","1","0","null","","","<div style=""font-size:60px;"">+</div>","null","","","","","","","","","",""
"","html-keyboard-response","135","479466","0.0-8.0-1.11","cfmxozsyrn","many_one","0","indirect_first","0","ug07mo24","0","20","1","1","3","1","","0","1","0","null","","","<img src = 'category2/CS5.png' width = '100%;'>","null","","","","","","","","","",""
"","html-keyboard-response","136","479719","0.0-8.0-2.11","cfmxozsyrn","many_one","0","indirect_first","0","ug07mo24","0","20","1","1","3","1","","0","1","0","null","","","<img src = 'targets/26.png' width = '100%;'>","null","","","","","","","","","",""
"","html-keyboard-response","137","480488","0.0-8.0-3.11","cfmxozsyrn","many_one","0","indirect_first","0","ug07mo24","0","20","1","1","3","1","","0","1","0","769","","","<img src = 'targets/mask.png' width = '100%;'>","68","pos","CS","CS","2","category2/CS5.png","targets/26.png","0","indirect","11",""
"","html-keyboard-response","138","481992","0.0-8.0-0.12","cfmxozsyrn","many_one","0","indirect_first","0","ug07mo24","0","20","1","1","3","1","","0","1","0","null","","","<div style=""font-size:60px;"">+</div>","null","","","","","","","","","",""
"","html-keyboard-response","139","482084","0.0-8.0-1.12","cfmxozsyrn","many_one","0","indirect_first","0","ug07mo24","0","20","1","1","3","1","","0","1","0","null","","","<img src = 'category4/CS10.png' width = '100%;'>","null","","","","","","","","","",""
"","html-keyboard-response","140","482336","0.0-8.0-2.12","cfmxozsyrn","many_one","0","indirect_first","0","ug07mo24","0","20","1","1","3","1","","0","1","0","null","","","<img src = 'targets/7.png' width = '100%;'>","null","","","","","","","","","",""
"","html-keyboard-response","141","483348","0.0-8.0-3.12","cfmxozsyrn","many_one","0","indirect_first","0","ug07mo24","0","20","1","1","3","1","","0","1","0","1010.9999999999418","","","<img src = 'targets/mask.png' width = '100%;'>","75","neg","CS","CS","4","category4/CS10.png","targets/7.png","1","indirect","12",""
"","html-keyboard-response","142","484851","0.0-8.0-0.13","cfmxozsyrn","many_one","0","indirect_first","0","ug07mo24","0","20","1","1","3","1","","0","1","0","null","","","<div style=""font-size:60px;"">+</div>","null","","","","","","","","","",""
"","html-keyboard-response","143","484944","0.0-8.0-1.13","cfmxozsyrn","many_one","0","indirect_first","0","ug07mo24","0","20","1","1","3","1","","0","1","0","null","","","<img src = 'category3/CS1.png' width = '100%;'>","null","","","","","","","","","",""
"","html-keyboard-response","144","485196","0.0-8.0-2.13","cfmxozsyrn","many_one","0","indirect_first","0","ug07mo24","0","20","1","1","3","1","","0","1","0","null","","","<img src = 'targets/21.png' width = '100%;'>","null","","","","","","","","","",""
"","html-keyboard-response","145","485881","0.0-8.0-3.13","cfmxozsyrn","many_one","0","indirect_first","0","ug07mo24","0","20","1","1","3","1","","0","1","0","683","","","<img src = 'targets/mask.png' width = '100%;'>","75","neg","CS","CS","3","category3/CS1.png","targets/21.png","1","indirect","13",""
"","html-keyboard-response","146","487384","0.0-8.0-0.14","cfmxozsyrn","many_one","0","indirect_first","0","ug07mo24","0","20","1","1","3","1","","0","1","0","null","","","<div style=""font-size:60px;"">+</div>","null","","","","","","","","","",""
"","html-keyboard-response","147","487476","0.0-8.0-1.14","cfmxozsyrn","many_one","0","indirect_first","0","ug07mo24","0","20","1","1","3","1","","0","1","0","null","","","<img src = 'category1/CS3.png' width = '100%;'>","null","","","","","","","","","",""
"","html-keyboard-response","148","487730","0.0-8.0-2.14","cfmxozsyrn","many_one","0","indirect_first","0","ug07mo24","0","20","1","1","3","1","","0","1","0","null","","","<img src = 'targets/23.png' width = '100%;'>","null","","","","","","","","","",""
"","html-keyboard-response","149","489099","0.0-8.0-3.14","cfmxozsyrn","many_one","0","indirect_first","0","ug07mo24","0","20","1","1","3","1","","0","1","0","1369.0000000000582","","","<img src = 'targets/mask.png' width = '100%;'>","68","pos","CS","CS","1","category1/CS3.png","targets/23.png","0","indirect","14",""
"","html-keyboard-response","150","490602","0.0-8.0-0.15","cfmxozsyrn","many_one","0","indirect_first","0","ug07mo24","0","20","1","1","3","1","","0","1","0","null","","","<div style=""font-size:60px;"">+</div>","null","","","","","","","","","",""
"","html-keyboard-response","151","490695","0.0-8.0-1.15","cfmxozsyrn","many_one","0","indirect_first","0","ug07mo24","0","20","1","1","3","1","","0","1","0","null","","","<img src = 'category2/CS4.png' width = '100%;'>","null","","","","","","","","","",""
"","html-keyboard-response","152","490948","0.0-8.0-2.15","cfmxozsyrn","many_one","0","indirect_first","0","ug07mo24","0","20","1","1","3","1","","0","1","0","null","","","<img src = 'targets/38.png' width = '100%;'>","null","","","","","","","","","",""
"","html-keyboard-response","153","491527","0.0-8.0-3.15","cfmxozsyrn","many_one","0","indirect_first","0","ug07mo24","0","20","1","1","3","1","","0","1","0","577","","","<img src = 'targets/mask.png' width = '100%;'>","75","pos","CS","CS","2","category2/CS4.png","targets/38.png","1","indirect","15",""
"","html-keyboard-response","154","493030","0.0-8.0-0.16","cfmxozsyrn","many_one","0","indirect_first","0","ug07mo24","0","20","1","1","3","1","","0","1","0","null","","","<div style=""font-size:60px;"">+</div>","null","","","","","","","","","",""
"","html-keyboard-response","155","493123","0.0-8.0-1.16","cfmxozsyrn","many_one","0","indirect_first","0","ug07mo24","0","20","1","1","3","1","","0","1","0","null","","","<img src = 'category3/CS2.png' width = '100%;'>","null","","","","","","","","","",""
"","html-keyboard-response","156","493375","0.0-8.0-2.16","cfmxozsyrn","many_one","0","indirect_first","0","ug07mo24","0","20","1","1","3","1","","0","1","0","null","","","<img src = 'targets/5.png' width = '100%;'>","null","","","","","","","","","",""
"","html-keyboard-response","157","494710","0.0-8.0-3.16","cfmxozsyrn","many_one","0","indirect_first","0","ug07mo24","0","20","1","1","3","1","","0","1","0","1334","","","<img src = 'targets/mask.png' width = '100%;'>","75","neg","GS","GSold","3","category3/CS2.png","targets/5.png","1","indirect","16",""
"","html-keyboard-response","158","496213","0.0-8.0-0.17","cfmxozsyrn","many_one","0","indirect_first","0","ug07mo24","0","20","1","1","3","1","","0","1","0","null","","","<div style=""font-size:60px;"">+</div>","null","","","","","","","","","",""
"","html-keyboard-response","159","496304","0.0-8.0-1.17","cfmxozsyrn","many_one","0","indirect_first","0","ug07mo24","0","20","1","1","3","1","","0","1","0","null","","","<img src = 'category4/CS4.png' width = '100%;'>","null","","","","","","","","","",""
"","html-keyboard-response","160","496557","0.0-8.0-2.17","cfmxozsyrn","many_one","0","indirect_first","0","ug07mo24","0","20","1","1","3","1","","0","1","0","null","","","<img src = 'targets/8.png' width = '100%;'>","null","","","","","","","","","",""
"","html-keyboard-response","161","497488","0.0-8.0-3.17","cfmxozsyrn","many_one","0","indirect_first","0","ug07mo24","0","20","1","1","3","1","","0","1","0","930","","","<img src = 'targets/mask.png' width = '100%;'>","68","neg","CS","CS","4","category4/CS4.png","targets/8.png","0","indirect","17",""
"","html-keyboard-response","162","498991","0.0-8.0-0.18","cfmxozsyrn","many_one","0","indirect_first","0","ug07mo24","0","20","1","1","3","1","","0","1","0","null","","","<div style=""font-size:60px;"">+</div>","null","","","","","","","","","",""
"","html-keyboard-response","163","499084","0.0-8.0-1.18","cfmxozsyrn","many_one","0","indirect_first","0","ug07mo24","0","20","1","1","3","1","","0","1","0","null","","","<img src = 'category4/CS3.png' width = '100%;'>","null","","","","","","","","","",""
"","html-keyboard-response","164","499336","0.0-8.0-2.18","cfmxozsyrn","many_one","0","indirect_first","0","ug07mo24","0","20","1","1","3","1","","0","1","0","null","","","<img src = 'targets/4.png' width = '100%;'>","null","","","","","","","","","",""
"","html-keyboard-response","165","501002","0.0-8.0-3.18","cfmxozsyrn","many_one","0","indirect_first","0","ug07mo24","0","20","1","1","3","1","","0","1","0","1664.9999999999418","","","<img src = 'targets/mask.png' width = '100%;'>","75","neg","CS","CS","4","category4/CS3.png","targets/4.png","1","indirect","18",""
"","html-keyboard-response","166","502505","0.0-8.0-0.19","cfmxozsyrn","many_one","0","indirect_first","0","ug07mo24","0","20","1","1","3","1","","0","1","0","null","","","<div style=""font-size:60px;"">+</div>","null","","","","","","","","","",""
"","html-keyboard-response","167","502599","0.0-8.0-1.19","cfmxozsyrn","many_one","0","indirect_first","0","ug07mo24","0","20","1","1","3","1","","0","1","0","null","","","<img src = 'category2/CS1.png' width = '100%;'>","null","","","","","","","","","",""
"","html-keyboard-response","168","502851","0.0-8.0-2.19","cfmxozsyrn","many_one","0","indirect_first","0","ug07mo24","0","20","1","1","3","1","","0","1","0","null","","","<img src = 'targets/9.png' width = '100%;'>","null","","","","","","","","","",""
"","html-keyboard-response","169","504334","0.0-8.0-3.19","cfmxozsyrn","many_one","0","indirect_first","0","ug07mo24","0","20","1","1","3","1","","0","1","0","1481.9999999999418","","","<img src = 'targets/mask.png' width = '100%;'>","68","pos","CS","CS","2","category2/CS1.png","targets/9.png","0","indirect","19",""
"","html-keyboard-response","170","505838","0.0-8.0-0.20","cfmxozsyrn","many_one","0","indirect_first","0","ug07mo24","0","20","1","1","3","1","","0","1","0","null","","","<div style=""font-size:60px;"">+</div>","null","","","","","","","","","",""
"","html-keyboard-response","171","505929","0.0-8.0-1.20","cfmxozsyrn","many_one","0","indirect_first","0","ug07mo24","0","20","1","1","3","1","","0","1","0","null","","","<img src = 'category3/CS10.png' width = '100%;'>","null","","","","","","","","","",""
"","html-keyboard-response","172","506183","0.0-8.0-2.20","cfmxozsyrn","many_one","0","indirect_first","0","ug07mo24","0","20","1","1","3","1","","0","1","0","null","","","<img src = 'targets/1.png' width = '100%;'>","null","","","","","","","","","",""
"","html-keyboard-response","173","507093","0.0-8.0-3.20","cfmxozsyrn","many_one","0","indirect_first","0","ug07mo24","0","20","1","1","3","1","","0","1","0","909","","","<img src = 'targets/mask.png' width = '100%;'>","68","neg","CS","CS","3","category3/CS10.png","targets/1.png","0","indirect","20",""
"","html-keyboard-response","174","508597","0.0-8.0-0.21","cfmxozsyrn","many_one","0","indirect_first","0","ug07mo24","0","20","1","1","3","1","","0","1","0","null","","","<div style=""font-size:60px;"">+</div>","null","","","","","","","","","",""
"","html-keyboard-response","175","508689","0.0-8.0-1.21","cfmxozsyrn","many_one","0","indirect_first","0","ug07mo24","0","20","1","1","3","1","","0","1","0","null","","","<img src = 'category1/CS9.png' width = '100%;'>","null","","","","","","","","","",""
"","html-keyboard-response","176","508942","0.0-8.0-2.21","cfmxozsyrn","many_one","0","indirect_first","0","ug07mo24","0","20","1","1","3","1","","0","1","0","null","","","<img src = 'targets/42.png' width = '100%;'>","null","","","","","","","","","",""
"","html-keyboard-response","177","509594","0.0-8.0-3.21","cfmxozsyrn","many_one","0","indirect_first","0","ug07mo24","0","20","1","1","3","1","","0","1","0","650.9999999999418","","","<img src = 'targets/mask.png' width = '100%;'>","75","pos","CS","CS","1","category1/CS9.png","targets/42.png","1","indirect","21",""
"","html-keyboard-response","178","511097","0.0-8.0-0.22","cfmxozsyrn","many_one","0","indirect_first","0","ug07mo24","0","20","1","1","3","1","","0","1","0","null","","","<div style=""font-size:60px;"">+</div>","null","","","","","","","","","",""
"","html-keyboard-response","179","511190","0.0-8.0-1.22","cfmxozsyrn","many_one","0","indirect_first","0","ug07mo24","0","20","1","1","3","1","","0","1","0","null","","","<img src = 'category1/CS7.png' width = '100%;'>","null","","","","","","","","","",""
"","html-keyboard-response","180","511441","0.0-8.0-2.22","cfmxozsyrn","many_one","0","indirect_first","0","ug07mo24","0","20","1","1","3","1","","0","1","0","null","","","<img src = 'targets/16.png' width = '100%;'>","null","","","","","","","","","",""
"","html-keyboard-response","181","512186","0.0-8.0-3.22","cfmxozsyrn","many_one","0","indirect_first","0","ug07mo24","0","20","1","1","3","1","","0","1","0","745","","","<img src = 'targets/mask.png' width = '100%;'>","75","pos","CS","CS","1","category1/CS7.png","targets/16.png","1","indirect","22",""
"","html-keyboard-response","182","513689","0.0-8.0-0.23","cfmxozsyrn","many_one","0","indirect_first","0","ug07mo24","0","20","1","1","3","1","","0","1","0","null","","","<div style=""font-size:60px;"">+</div>","null","","","","","","","","","",""
"","html-keyboard-response","183","513782","0.0-8.0-1.23","cfmxozsyrn","many_one","0","indirect_first","0","ug07mo24","0","20","1","1","3","1","","0","1","0","null","","","<img src = 'category3/CS6.png' width = '100%;'>","null","","","","","","","","","",""
"","html-keyboard-response","184","514036","0.0-8.0-2.23","cfmxozsyrn","many_one","0","indirect_first","0","ug07mo24","0","20","1","1","3","1","","0","1","0","null","","","<img src = 'targets/33.png' width = '100%;'>","null","","","","","","","","","",""
"","html-keyboard-response","185","514952","0.0-8.0-3.23","cfmxozsyrn","many_one","0","indirect_first","0","ug07mo24","0","20","1","1","3","1","","0","1","0","914","","","<img src = 'targets/mask.png' width = '100%;'>","75","neg","CS","CS","3","category3/CS6.png","targets/33.png","1","indirect","23",""
"","survey-html-form","186","518954","0.0-9.0","cfmxozsyrn","many_one","0","indirect_first","0","ug07mo24","0","20","1","1","3","1","","0","1","0","3500","","{}","","","","","","","","","","","",""
"","html-keyboard-response","187","521957","0.0-10.0-0.0","cfmxozsyrn","many_one","0","indirect_first","0","ug07mo24","0","20","1","1","3","1","","0","1","0","null","","","<div style=""font-size:60px;"">+</div>","null","","","","","","","","","",""
"","html-keyboard-response","188","522050","0.0-10.0-1.0","cfmxozsyrn","many_one","0","indirect_first","0","ug07mo24","0","20","1","1","3","1","","0","1","0","null","","","<img src = 'category4/GS1.png' width = '100%;'>","null","","","","","","","","","",""
"","html-keyboard-response","189","522306","0.0-10.0-2.0","cfmxozsyrn","many_one","0","indirect_first","0","ug07mo24","0","20","1","1","3","1","","0","1","0","null","","","<img src = 'targets/30.png' width = '100%;'>","null","","","","","","","","","",""
"","html-keyboard-response","190","523695","0.0-10.0-3.0","cfmxozsyrn","many_one","0","indirect_first","0","ug07mo24","0","20","1","1","3","1","","0","1","0","1388","","","<img src = 'targets/mask.png' width = '100%;'>","75","neg","GS","GSnew","4","category4/GS1.png","targets/30.png","1","indirect","24",""
"","html-keyboard-response","191","525198","0.0-10.0-0.1","cfmxozsyrn","many_one","0","indirect_first","0","ug07mo24","0","20","1","1","3","1","","0","1","0","null","","","<div style=""font-size:60px;"">+</div>","null","","","","","","","","","",""
"","html-keyboard-response","192","525290","0.0-10.0-1.1","cfmxozsyrn","many_one","0","indirect_first","0","ug07mo24","0","20","1","1","3","1","","0","1","0","null","","","<img src = 'category2/GS1.png' width = '100%;'>","null","","","","","","","","","",""
"","html-keyboard-response","193","525544","0.0-10.0-2.1","cfmxozsyrn","many_one","0","indirect_first","0","ug07mo24","0","20","1","1","3","1","","0","1","0","null","","","<img src = 'targets/34.png' width = '100%;'>","null","","","","","","","","","",""
"","html-keyboard-response","194","526967","0.0-10.0-3.1","cfmxozsyrn","many_one","0","indirect_first","0","ug07mo24","0","20","1","1","3","1","","0","1","0","1422","","","<img src = 'targets/mask.png' width = '100%;'>","68","pos","GS","GSnew","2","category2/GS1.png","targets/34.png","0","indirect","25",""
"","html-keyboard-response","195","528469","0.0-10.0-0.2","cfmxozsyrn","many_one","0","indirect_first","0","ug07mo24","0","20","1","1","3","1","","0","1","0","null","","","<div style=""font-size:60px;"">+</div>","null","","","","","","","","","",""
"","html-keyboard-response","196","528561","0.0-10.0-1.2","cfmxozsyrn","many_one","0","indirect_first","0","ug07mo24","0","20","1","1","3","1","","0","1","0","null","","","<img src = 'category1/GS1.png' width = '100%;'>","null","","","","","","","","","",""
"","html-keyboard-response","197","528814","0.0-10.0-2.2","cfmxozsyrn","many_one","0","indirect_first","0","ug07mo24","0","20","1","1","3","1","","0","1","0","null","","","<img src = 'targets/25.png' width = '100%;'>","null","","","","","","","","","",""
"","html-keyboard-response","198","529973","0.0-10.0-3.2","cfmxozsyrn","many_one","0","indirect_first","0","ug07mo24","0","20","1","1","3","1","","0","1","0","1158","","","<img src = 'targets/mask.png' width = '100%;'>","75","pos","GS","GSnew","1","category1/GS1.png","targets/25.png","1","indirect","26",""
"","html-keyboard-response","199","531477","0.0-10.0-0.3","cfmxozsyrn","many_one","0","indirect_first","0","ug07mo24","0","20","1","1","3","1","","0","1","0","null","","","<div style=""font-size:60px;"">+</div>","null","","","","","","","","","",""
"","html-keyboard-response","200","531569","0.0-10.0-1.3","cfmxozsyrn","many_one","0","indirect_first","0","ug07mo24","0","20","1","1","3","1","","0","1","0","null","","","<img src = 'category2/GS2.png' width = '100%;'>","null","","","","","","","","","",""
"","html-keyboard-response","201","531821","0.0-10.0-2.3","cfmxozsyrn","many_one","0","indirect_first","0","ug07mo24","0","20","1","1","3","1","","0","1","0","null","","","<img src = 'targets/27.png' width = '100%;'>","null","","","","","","","","","",""
"","html-keyboard-response","202","533782","0.0-10.0-3.3","cfmxozsyrn","many_one","0","indirect_first","0","ug07mo24","0","20","1","1","3","1","","0","1","0","1960","","","<img src = 'targets/mask.png' width = '100%;'>","75","pos","GS","GSnew","2","category2/GS2.png","targets/27.png","1","indirect","27",""
"","html-keyboard-response","203","535286","0.0-10.0-0.4","cfmxozsyrn","many_one","0","indirect_first","0","ug07mo24","0","20","1","1","3","1","","0","1","0","null","","","<div style=""font-size:60px;"">+</div>","null","","","","","","","","","",""
"","html-keyboard-response","204","535378","0.0-10.0-1.4","cfmxozsyrn","many_one","0","indirect_first","0","ug07mo24","0","20","1","1","3","1","","0","1","0","null","","","<img src = 'category2/men.png' width = '100%;'>","null","","","","","","","","","",""
"","html-keyboard-response","205","535631","0.0-10.0-2.4","cfmxozsyrn","many_one","0","indirect_first","0","ug07mo24","0","20","1","1","3","1","","0","1","0","null","","","<img src = 'targets/17.png' width = '100%;'>","null","","","","","","","","","",""
"","html-keyboard-response","206","536674","0.0-10.0-3.4","cfmxozsyrn","many_one","0","indirect_first","0","ug07mo24","0","20","1","1","3","1","","0","1","0","1042","","","<img src = 'targets/mask.png' width = '100%;'>","75","pos","GS","abstract","2","category2/men.png","targets/17.png","1","indirect","28",""
"","html-keyboard-response","207","538177","0.0-10.0-0.5","cfmxozsyrn","many_one","0","indirect_first","0","ug07mo24","0","20","1","1","3","1","","0","1","0","null","","","<div style=""font-size:60px;"">+</div>","null","","","","","","","","","",""
"","html-keyboard-response","208","538268","0.0-10.0-1.5","cfmxozsyrn","many_one","0","indirect_first","0","ug07mo24","0","20","1","1","3","1","","0","1","0","null","","","<img src = 'category3/GS2.png' width = '100%;'>","null","","","","","","","","","",""
"","html-keyboard-response","209","538522","0.0-10.0-2.5","cfmxozsyrn","many_one","0","indirect_first","0","ug07mo24","0","20","1","1","3","1","","0","1","0","null","","","<img src = 'targets/24.png' width = '100%;'>","null","","","","","","","","","",""
"","html-keyboard-response","210","539751","0.0-10.0-3.5","cfmxozsyrn","many_one","0","indirect_first","0","ug07mo24","0","20","1","1","3","1","","0","1","0","1228","","","<img src = 'targets/mask.png' width = '100%;'>","68","neg","GS","GSnew","3","category3/GS2.png","targets/24.png","0","indirect","29",""
"","html-keyboard-response","211","541254","0.0-10.0-0.6","cfmxozsyrn","many_one","0","indirect_first","0","ug07mo24","0","20","1","1","3","1","","0","1","0","null","","","<div style=""font-size:60px;"">+</div>","null","","","","","","","","","",""
"","html-keyboard-response","212","541345","0.0-10.0-1.6","cfmxozsyrn","many_one","0","indirect_first","0","ug07mo24","0","20","1","1","3","1","","0","1","0","null","","","<img src = 'category1/GS3.png' width = '100%;'>","null","","","","","","","","","",""
"","html-keyboard-response","213","541597","0.0-10.0-2.6","cfmxozsyrn","many_one","0","indirect_first","0","ug07mo24","0","20","1","1","3","1","","0","1","0","null","","","<img src = 'targets/48.png' width = '100%;'>","null","","","","","","","","","",""
"","html-keyboard-response","214","542685","0.0-10.0-3.6","cfmxozsyrn","many_one","0","indirect_first","0","ug07mo24","0","20","1","1","3","1","","0","1","0","1085.0000000001164","","","<img src = 'targets/mask.png' width = '100%;'>","75","pos","GS","GSnew","1","category1/GS3.png","targets/48.png","1","indirect","30",""
"","html-keyboard-response","215","544187","0.0-10.0-0.7","cfmxozsyrn","many_one","0","indirect_first","0","ug07mo24","0","20","1","1","3","1","","0","1","0","null","","","<div style=""font-size:60px;"">+</div>","null","","","","","","","","","",""
"","html-keyboard-response","216","544278","0.0-10.0-1.7","cfmxozsyrn","many_one","0","indirect_first","0","ug07mo24","0","20","1","1","3","1","","0","1","0","null","","","<img src = 'category4/CS9.png' width = '100%;'>","null","","","","","","","","","",""
"","html-keyboard-response","217","544531","0.0-10.0-2.7","cfmxozsyrn","many_one","0","indirect_first","0","ug07mo24","0","20","1","1","3","1","","0","1","0","null","","","<img src = 'targets/11.png' width = '100%;'>","null","","","","","","","","","",""
"","html-keyboard-response","218","545537","0.0-10.0-3.7","cfmxozsyrn","many_one","0","indirect_first","0","ug07mo24","0","20","1","1","3","1","","0","1","0","1005","","","<img src = 'targets/mask.png' width = '100%;'>","75","neg","GS","GSold","4","category4/CS9.png","targets/11.png","1","indirect","31",""
"","html-keyboard-response","219","547040","0.0-10.0-0.8","cfmxozsyrn","many_one","0","indirect_first","0","ug07mo24","0","20","1","1","3","1","","0","1","0","null","","","<div style=""font-size:60px;"">+</div>","null","","","","","","","","","",""
"","html-keyboard-response","220","547132","0.0-10.0-1.8","cfmxozsyrn","many_one","0","indirect_first","0","ug07mo24","0","20","1","1","3","1","","0","1","0","null","","","<img src = 'category4/GS3.png' width = '100%;'>","null","","","","","","","","","",""
"","html-keyboard-response","221","547383","0.0-10.0-2.8","cfmxozsyrn","many_one","0","indirect_first","0","ug07mo24","0","20","1","1","3","1","","0","1","0","null","","","<img src = 'targets/32.png' width = '100%;'>","null","","","","","","","","","",""
"","html-keyboard-response","222","548412","0.0-10.0-3.8","cfmxozsyrn","many_one","0","indirect_first","0","ug07mo24","0","20","1","1","3","1","","0","1","0","1028","","","<img src = 'targets/mask.png' width = '100%;'>","75","neg","GS","GSnew","4","category4/GS3.png","targets/32.png","1","indirect","32",""
"","html-keyboard-response","223","549916","0.0-10.0-0.9","cfmxozsyrn","many_one","0","indirect_first","0","ug07mo24","0","20","1","1","3","1","","0","1","0","null","","","<div style=""font-size:60px;"">+</div>","null","","","","","","","","","",""
"","html-keyboard-response","224","550008","0.0-10.0-1.9","cfmxozsyrn","many_one","0","indirect_first","0","ug07mo24","0","20","1","1","3","1","","0","1","0","null","","","<img src = 'category1/CS5.png' width = '100%;'>","null","","","","","","","","","",""
"","html-keyboard-response","225","550262","0.0-10.0-2.9","cfmxozsyrn","many_one","0","indirect_first","0","ug07mo24","0","20","1","1","3","1","","0","1","0","null","","","<img src = 'targets/39.png' width = '100%;'>","null","","","","","","","","","",""
"","html-keyboard-response","226","551290","0.0-10.0-3.9","cfmxozsyrn","many_one","0","indirect_first","0","ug07mo24","0","20","1","1","3","1","","0","1","0","1026","","","<img src = 'targets/mask.png' width = '100%;'>","68","pos","GS","GSold","1","category1/CS5.png","targets/39.png","0","indirect","33",""
"","html-keyboard-response","227","552793","0.0-10.0-0.10","cfmxozsyrn","many_one","0","indirect_first","0","ug07mo24","0","20","1","1","3","1","","0","1","0","null","","","<div style=""font-size:60px;"">+</div>","null","","","","","","","","","",""
"","html-keyboard-response","228","552885","0.0-10.0-1.10","cfmxozsyrn","many_one","0","indirect_first","0","ug07mo24","0","20","1","1","3","1","","0","1","0","null","","","<img src = 'category4/CS7.png' width = '100%;'>","null","","","","","","","","","",""
"","html-keyboard-response","229","553137","0.0-10.0-2.10","cfmxozsyrn","many_one","0","indirect_first","0","ug07mo24","0","20","1","1","3","1","","0","1","0","null","","","<img src = 'targets/28.png' width = '100%;'>","null","","","","","","","","","",""
"","html-keyboard-response","230","554233","0.0-10.0-3.10","cfmxozsyrn","many_one","0","indirect_first","0","ug07mo24","0","20","1","1","3","1","","0","1","0","1095.0000000001164","","","<img src = 'targets/mask.png' width = '100%;'>","75","neg","GS","GSold","4","category4/CS7.png","targets/28.png","1","indirect","34",""
"","html-keyboard-response","231","555735","0.0-10.0-0.11","cfmxozsyrn","many_one","0","indirect_first","0","ug07mo24","0","20","1","1","3","1","","0","1","0","null","","","<div style=""font-size:60px;"">+</div>","null","","","","","","","","","",""
"","html-keyboard-response","232","555827","0.0-10.0-1.11","cfmxozsyrn","many_one","0","indirect_first","0","ug07mo24","0","20","1","1","3","1","","0","1","0","null","","","<img src = 'category3/wang.png' width = '100%;'>","null","","","","","","","","","",""
"","html-keyboard-response","233","556081","0.0-10.0-2.11","cfmxozsyrn","many_one","0","indirect_first","0","ug07mo24","0","20","1","1","3","1","","0","1","0","null","","","<img src = 'targets/40.png' width = '100%;'>","null","","","","","","","","","",""
"","html-keyboard-response","234","557178","0.0-10.0-3.11","cfmxozsyrn","many_one","0","indirect_first","0","ug07mo24","0","20","1","1","3","1","","0","1","0","1097","","","<img src = 'targets/mask.png' width = '100%;'>","75","neg","GS","abstract","3","category3/wang.png","targets/40.png","1","indirect","35",""
"","html-keyboard-response","235","558681","0.0-10.0-0.12","cfmxozsyrn","many_one","0","indirect_first","0","ug07mo24","0","20","1","1","3","1","","0","1","0","null","","","<div style=""font-size:60px;"">+</div>","null","","","","","","","","","",""
"","html-keyboard-response","236","558773","0.0-10.0-1.12","cfmxozsyrn","many_one","0","indirect_first","0","ug07mo24","0","20","1","1","3","1","","0","1","0","null","","","<img src = 'category4/CS8.png' width = '100%;'>","null","","","","","","","","","",""
"","html-keyboard-response","237","559025","0.0-10.0-2.12","cfmxozsyrn","many_one","0","indirect_first","0","ug07mo24","0","20","1","1","3","1","","0","1","0","null","","","<img src = 'targets/3.png' width = '100%;'>","null","","","","","","","","","",""
"","html-keyboard-response","238","561141","0.0-10.0-3.12","cfmxozsyrn","many_one","0","indirect_first","0","ug07mo24","0","20","1","1","3","1","","0","1","0","2113","","","<img src = 'targets/mask.png' width = '100%;'>","68","neg","GS","GSold","4","category4/CS8.png","targets/3.png","0","indirect","36",""
"","html-keyboard-response","239","562645","0.0-10.0-0.13","cfmxozsyrn","many_one","0","indirect_first","0","ug07mo24","0","20","1","1","3","1","","0","1","0","null","","","<div style=""font-size:60px;"">+</div>","null","","","","","","","","","",""
"","html-keyboard-response","240","562737","0.0-10.0-1.13","cfmxozsyrn","many_one","0","indirect_first","0","ug07mo24","0","20","1","1","3","1","","0","1","0","null","","","<img src = 'category4/GS2.png' width = '100%;'>","null","","","","","","","","","",""
"","html-keyboard-response","241","562989","0.0-10.0-2.13","cfmxozsyrn","many_one","0","indirect_first","0","ug07mo24","0","20","1","1","3","1","","0","1","0","null","","","<img src = 'targets/29.png' width = '100%;'>","null","","","","","","","","","",""
"","html-keyboard-response","242","563822","0.0-10.0-3.13","cfmxozsyrn","many_one","0","indirect_first","0","ug07mo24","0","20","1","1","3","1","","0","1","0","831","","","<img src = 'targets/mask.png' width = '100%;'>","68","neg","GS","GSnew","4","category4/GS2.png","targets/29.png","0","indirect","37",""
"","html-keyboard-response","243","565325","0.0-10.0-0.14","cfmxozsyrn","many_one","0","indirect_first","0","ug07mo24","0","20","1","1","3","1","","0","1","0","null","","","<div style=""font-size:60px;"">+</div>","null","","","","","","","","","",""
"","html-keyboard-response","244","565416","0.0-10.0-1.14","cfmxozsyrn","many_one","0","indirect_first","0","ug07mo24","0","20","1","1","3","1","","0","1","0","null","","","<img src = 'category2/CS2.png' width = '100%;'>","null","","","","","","","","","",""
"","html-keyboard-response","245","565669","0.0-10.0-2.14","cfmxozsyrn","many_one","0","indirect_first","0","ug07mo24","0","20","1","1","3","1","","0","1","0","null","","","<img src = 'targets/18.png' width = '100%;'>","null","","","","","","","","","",""
"","html-keyboard-response","246","566740","0.0-10.0-3.14","cfmxozsyrn","many_one","0","indirect_first","0","ug07mo24","0","20","1","1","3","1","","0","1","0","1071","","","<img src = 'targets/mask.png' width = '100%;'>","75","pos","GS","GSold","2","category2/CS2.png","targets/18.png","1","indirect","38",""
"","html-keyboard-response","247","568244","0.0-10.0-0.15","cfmxozsyrn","many_one","0","indirect_first","0","ug07mo24","0","20","1","1","3","1","","0","1","0","null","","","<div style=""font-size:60px;"">+</div>","null","","","","","","","","","",""
"","html-keyboard-response","248","568336","0.0-10.0-1.15","cfmxozsyrn","many_one","0","indirect_first","0","ug07mo24","0","20","1","1","3","1","","0","1","0","null","","","<img src = 'category1/CS6.png' width = '100%;'>","null","","","","","","","","","",""
"","html-keyboard-response","249","568589","0.0-10.0-2.15","cfmxozsyrn","many_one","0","indirect_first","0","ug07mo24","0","20","1","1","3","1","","0","1","0","null","","","<img src = 'targets/2.png' width = '100%;'>","null","","","","","","","","","",""
"","html-keyboard-response","250","569811","0.0-10.0-3.15","cfmxozsyrn","many_one","0","indirect_first","0","ug07mo24","0","20","1","1","3","1","","0","1","0","1221","","","<img src = 'targets/mask.png' width = '100%;'>","75","pos","GS","GSold","1","category1/CS6.png","targets/2.png","1","indirect","39",""
"","html-keyboard-response","251","571315","0.0-10.0-0.16","cfmxozsyrn","many_one","0","indirect_first","0","ug07mo24","0","20","1","1","3","1","","0","1","0","null","","","<div style=""font-size:60px;"">+</div>","null","","","","","","","","","",""
"","html-keyboard-response","252","571407","0.0-10.0-1.16","cfmxozsyrn","many_one","0","indirect_first","0","ug07mo24","0","20","1","1","3","1","","0","1","0","null","","","<img src = 'category1/CS2.png' width = '100%;'>","null","","","","","","","","","",""
"","html-keyboard-response","253","571661","0.0-10.0-2.16","cfmxozsyrn","many_one","0","indirect_first","0","ug07mo24","0","20","1","1","3","1","","0","1","0","null","","","<img src = 'targets/13.png' width = '100%;'>","null","","","","","","","","","",""
"","html-keyboard-response","254","572551","0.0-10.0-3.16","cfmxozsyrn","many_one","0","indirect_first","0","ug07mo24","0","20","1","1","3","1","","0","1","0","889","","","<img src = 'targets/mask.png' width = '100%;'>","68","pos","GS","GSold","1","category1/CS2.png","targets/13.png","0","indirect","40",""
"","html-keyboard-response","255","574053","0.0-10.0-0.17","cfmxozsyrn","many_one","0","indirect_first","0","ug07mo24","0","20","1","1","3","1","","0","1","0","null","","","<div style=""font-size:60px;"">+</div>","null","","","","","","","","","",""
"","html-keyboard-response","256","574145","0.0-10.0-1.17","cfmxozsyrn","many_one","0","indirect_first","0","ug07mo24","0","20","1","1","3","1","","0","1","0","null","","","<img src = 'category1/GS2.png' width = '100%;'>","null","","","","","","","","","",""
"","html-keyboard-response","257","574398","0.0-10.0-2.17","cfmxozsyrn","many_one","0","indirect_first","0","ug07mo24","0","20","1","1","3","1","","0","1","0","null","","","<img src = 'targets/47.png' width = '100%;'>","null","","","","","","","","","",""
"","html-keyboard-response","258","575885","0.0-10.0-3.17","cfmxozsyrn","many_one","0","indirect_first","0","ug07mo24","0","20","1","1","3","1","","0","1","0","1486","","","<img src = 'targets/mask.png' width = '100%;'>","68","pos","GS","GSnew","1","category1/GS2.png","targets/47.png","0","indirect","41",""
"","html-keyboard-response","259","577388","0.0-10.0-0.18","cfmxozsyrn","many_one","0","indirect_first","0","ug07mo24","0","20","1","1","3","1","","0","1","0","null","","","<div style=""font-size:60px;"">+</div>","null","","","","","","","","","",""
"","html-keyboard-response","260","577481","0.0-10.0-1.18","cfmxozsyrn","many_one","0","indirect_first","0","ug07mo24","0","20","1","1","3","1","","0","1","0","null","","","<img src = 'category4/lin.png' width = '100%;'>","null","","","","","","","","","",""
"","html-keyboard-response","261","577734","0.0-10.0-2.18","cfmxozsyrn","many_one","0","indirect_first","0","ug07mo24","0","20","1","1","3","1","","0","1","0","null","","","<img src = 'targets/46.png' width = '100%;'>","null","","","","","","","","","",""
"","html-keyboard-response","262","578914","0.0-10.0-3.18","cfmxozsyrn","many_one","0","indirect_first","0","ug07mo24","0","20","1","1","3","1","","0","1","0","1179","","","<img src = 'targets/mask.png' width = '100%;'>","75","neg","GS","abstract","4","category4/lin.png","targets/46.png","1","indirect","42",""
"","html-keyboard-response","263","580416","0.0-10.0-0.19","cfmxozsyrn","many_one","0","indirect_first","0","ug07mo24","0","20","1","1","3","1","","0","1","0","null","","","<div style=""font-size:60px;"">+</div>","null","","","","","","","","","",""
"","html-keyboard-response","264","580508","0.0-10.0-1.19","cfmxozsyrn","many_one","0","indirect_first","0","ug07mo24","0","20","1","1","3","1","","0","1","0","null","","","<img src = 'category3/GS3.png' width = '100%;'>","null","","","","","","","","","",""
"","html-keyboard-response","265","580763","0.0-10.0-2.19","cfmxozsyrn","many_one","0","indirect_first","0","ug07mo24","0","20","1","1","3","1","","0","1","0","null","","","<img src = 'targets/20.png' width = '100%;'>","null","","","","","","","","","",""
"","html-keyboard-response","266","581728","0.0-10.0-3.19","cfmxozsyrn","many_one","0","indirect_first","0","ug07mo24","0","20","1","1","3","1","","0","1","0","963","","","<img src = 'targets/mask.png' width = '100%;'>","75","neg","GS","GSnew","3","category3/GS3.png","targets/20.png","1","indirect","43",""
"","html-keyboard-response","267","583231","0.0-10.0-0.20","cfmxozsyrn","many_one","0","indirect_first","0","ug07mo24","0","20","1","1","3","1","","0","1","0","null","","","<div style=""font-size:60px;"">+</div>","null","","","","","","","","","",""
"","html-keyboard-response","268","583323","0.0-10.0-1.20","cfmxozsyrn","many_one","0","indirect_first","0","ug07mo24","0","20","1","1","3","1","","0","1","0","null","","","<img src = 'category2/GS3.png' width = '100%;'>","null","","","","","","","","","",""
"","html-keyboard-response","269","583576","0.0-10.0-2.20","cfmxozsyrn","many_one","0","indirect_first","0","ug07mo24","0","20","1","1","3","1","","0","1","0","null","","","<img src = 'targets/15.png' width = '100%;'>","null","","","","","","","","","",""
"","html-keyboard-response","270","584715","0.0-10.0-3.20","cfmxozsyrn","many_one","0","indirect_first","0","ug07mo24","0","20","1","1","3","1","","0","1","0","1137.0000000001164","","","<img src = 'targets/mask.png' width = '100%;'>","68","pos","GS","GSnew","2","category2/GS3.png","targets/15.png","0","indirect","44",""
"","html-keyboard-response","271","586216","0.0-10.0-0.21","cfmxozsyrn","many_one","0","indirect_first","0","ug07mo24","0","20","1","1","3","1","","0","1","0","null","","","<div style=""font-size:60px;"">+</div>","null","","","","","","","","","",""
"","html-keyboard-response","272","586308","0.0-10.0-1.21","cfmxozsyrn","many_one","0","indirect_first","0","ug07mo24","0","20","1","1","3","1","","0","1","0","null","","","<img src = 'category1/ma.png' width = '100%;'>","null","","","","","","","","","",""
"","html-keyboard-response","273","586561","0.0-10.0-2.21","cfmxozsyrn","many_one","0","indirect_first","0","ug07mo24","0","20","1","1","3","1","","0","1","0","null","","","<img src = 'targets/10.png' width = '100%;'>","null","","","","","","","","","",""
"","html-keyboard-response","274","587732","0.0-10.0-3.21","cfmxozsyrn","many_one","0","indirect_first","0","ug07mo24","0","20","1","1","3","1","","0","1","0","1169","","","<img src = 'targets/mask.png' width = '100%;'>","75","pos","GS","abstract","1","category1/ma.png","targets/10.png","1","indirect","45",""
"","html-keyboard-response","275","589234","0.0-10.0-0.22","cfmxozsyrn","many_one","0","indirect_first","0","ug07mo24","0","20","1","1","3","1","","0","1","0","null","","","<div style=""font-size:60px;"">+</div>","null","","","","","","","","","",""
"","html-keyboard-response","276","589325","0.0-10.0-1.22","cfmxozsyrn","many_one","0","indirect_first","0","ug07mo24","0","20","1","1","3","1","","0","1","0","null","","","<img src = 'category2/CS8.png' width = '100%;'>","null","","","","","","","","","",""
"","html-keyboard-response","277","589578","0.0-10.0-2.22","cfmxozsyrn","many_one","0","indirect_first","0","ug07mo24","0","20","1","1","3","1","","0","1","0","null","","","<img src = 'targets/22.png' width = '100%;'>","null","","","","","","","","","",""
"","html-keyboard-response","278","590720","0.0-10.0-3.22","cfmxozsyrn","many_one","0","indirect_first","0","ug07mo24","0","20","1","1","3","1","","0","1","0","1141","","","<img src = 'targets/mask.png' width = '100%;'>","75","pos","GS","GSold","2","category2/CS8.png","targets/22.png","1","indirect","46",""
"","html-keyboard-response","279","592222","0.0-10.0-0.23","cfmxozsyrn","many_one","0","indirect_first","0","ug07mo24","0","20","1","1","3","1","","0","1","0","null","","","<div style=""font-size:60px;"">+</div>","null","","","","","","","","","",""
"","html-keyboard-response","280","592316","0.0-10.0-1.23","cfmxozsyrn","many_one","0","indirect_first","0","ug07mo24","0","20","1","1","3","1","","0","1","0","null","","","<img src = 'category3/GS1.png' width = '100%;'>","null","","","","","","","","","",""
"","html-keyboard-response","281","592567","0.0-10.0-2.23","cfmxozsyrn","many_one","0","indirect_first","0","ug07mo24","0","20","1","1","3","1","","0","1","0","null","","","<img src = 'targets/12.png' width = '100%;'>","null","","","","","","","","","",""
"","html-keyboard-response","282","593915","0.0-10.0-3.23","cfmxozsyrn","many_one","0","indirect_first","0","ug07mo24","0","20","1","1","3","1","","0","1","0","1347","","","<img src = 'targets/mask.png' width = '100%;'>","75","neg","GS","GSnew","3","category3/GS1.png","targets/12.png","1","indirect","47",""
"","survey-html-form","283","601303","0.0-11.0","cfmxozsyrn","many_one","0","indirect_first","0","ug07mo24","0","20","1","1","3","1","","0","1","0","6885","","{}","","","","","","","","","","","",""
"","image-slider-response","284","609089","0.0-12.0-0.0","cfmxozsyrn","many_one","0","indirect_first","0","ug07mo24","0","20","1","1","3","1","","0","1","0","5776","","","","","pos","GS","GSnew","1","category1/GS3.png","targets/48.png","","direct","","-48"
"","image-slider-response","285","615506","0.0-12.0-0.1","cfmxozsyrn","many_one","0","indirect_first","0","ug07mo24","0","20","1","1","3","1","","0","1","0","6414","","","","","neg","CS","CS","4","category4/CS3.png","targets/4.png","","direct","","-76"
"","image-slider-response","286","618802","0.0-12.0-0.2","cfmxozsyrn","many_one","0","indirect_first","0","ug07mo24","0","20","1","1","3","1","","0","1","0","3292.9999999998836","","","","","pos","GS","GSold","1","category1/CS6.png","targets/2.png","","direct","","-100"
"","image-slider-response","287","621693","0.0-12.0-0.3","cfmxozsyrn","many_one","0","indirect_first","0","ug07mo24","0","20","1","1","3","1","","0","1","0","2889","","","","","neg","GS","GSnew","4","category4/GS3.png","targets/32.png","","direct","","37"
"","image-slider-response","288","624102","0.0-12.0-0.4","cfmxozsyrn","many_one","0","indirect_first","0","ug07mo24","0","20","1","1","3","1","","0","1","0","2408","","","","","neg","GS","GSnew","4","category4/GS1.png","targets/30.png","","direct","","88"
"","image-slider-response","289","627254","0.0-12.0-0.5","cfmxozsyrn","many_one","0","indirect_first","0","ug07mo24","0","20","1","1","3","1","","0","1","0","3149","","","","","pos","CS","CS","2","category2/CS1.png","targets/9.png","","direct","","37"
"","image-slider-response","290","630111","0.0-12.0-0.6","cfmxozsyrn","many_one","0","indirect_first","0","ug07mo24","0","20","1","1","3","1","","0","1","0","2856","","","","","pos","GS","abstract","1","category1/ma.png","targets/10.png","","direct","","-75"
"","image-slider-response","291","634647","0.0-12.0-0.7","cfmxozsyrn","many_one","0","indirect_first","0","ug07mo24","0","20","1","1","3","1","","0","1","0","4534","","","","","neg","CS","CS","3","category3/CS3.png","targets/45.png","","direct","","-69"
"","image-slider-response","292","637831","0.0-12.0-0.8","cfmxozsyrn","many_one","0","indirect_first","0","ug07mo24","0","20","1","1","3","1","","0","1","0","3182.0000000001164","","","","","pos","CS","CS","2","category2/CS9.png","targets/19.png","","direct","","-49"
"","image-slider-response","293","640769","0.0-12.0-0.9","cfmxozsyrn","many_one","0","indirect_first","0","ug07mo24","0","20","1","1","3","1","","0","1","0","2936","","","","","neg","CS","CS","4","category4/CS1.png","targets/37.png","","direct","","49"
"","image-slider-response","294","644054","0.0-12.0-0.10","cfmxozsyrn","many_one","0","indirect_first","0","ug07mo24","0","20","1","1","3","1","","0","1","0","3283","","","","","neg","GS","GSold","3","category3/CS8.png","targets/43.png","","direct","","-96"
"","image-slider-response","295","647261","0.0-12.0-0.11","cfmxozsyrn","many_one","0","indirect_first","0","ug07mo24","0","20","1","1","3","1","","0","1","0","3205","","","","","neg","CS","CS","4","category4/CS10.png","targets/7.png","","direct","","48"
"","image-slider-response","296","649744","0.0-12.0-0.12","cfmxozsyrn","many_one","0","indirect_first","0","ug07mo24","0","20","1","1","3","1","","0","1","0","2479.9999999998836","","","","","neg","GS","GSold","4","category4/CS7.png","targets/28.png","","direct","","52"
"","image-slider-response","297","653022","0.0-12.0-0.13","cfmxozsyrn","many_one","0","indirect_first","0","ug07mo24","0","20","1","1","3","1","","0","1","0","3275","","","","","pos","CS","CS","1","category1/CS3.png","targets/23.png","","direct","","-72"
"","image-slider-response","298","656015","0.0-12.0-0.14","cfmxozsyrn","many_one","0","indirect_first","0","ug07mo24","0","20","1","1","3","1","","0","1","0","2991","","","","","neg","CS","CS","3","category3/CS1.png","targets/21.png","","direct","","-29"
"","image-slider-response","299","658736","0.0-12.0-0.15","cfmxozsyrn","many_one","0","indirect_first","0","ug07mo24","0","20","1","1","3","1","","0","1","0","2718.0000000001164","","","","","neg","GS","GSnew","3","category3/GS1.png","targets/12.png","","direct","","-89"
"","image-slider-response","300","662101","0.0-12.0-0.16","cfmxozsyrn","many_one","0","indirect_first","0","ug07mo24","0","20","1","1","3","1","","0","1","0","3364","","","","","neg","CS","CS","4","category4/CS6.png","targets/41.png","","direct","","-69"
"","image-slider-response","301","665215","0.0-12.0-0.17","cfmxozsyrn","many_one","0","indirect_first","0","ug07mo24","0","20","1","1","3","1","","0","1","0","3112","","","","","neg","GS","GSnew","3","category3/GS2.png","targets/24.png","","direct","","-100"
"","image-slider-response","302","667649","0.0-12.0-0.18","cfmxozsyrn","many_one","0","indirect_first","0","ug07mo24","0","20","1","1","3","1","","0","1","0","2432","","","","","pos","CS","CS","2","category2/CS5.png","targets/26.png","","direct","","73"
"","image-slider-response","303","670148","0.0-12.0-0.19","cfmxozsyrn","many_one","0","indirect_first","0","ug07mo24","0","20","1","1","3","1","","0","1","0","2496","","","","","pos","CS","CS","1","category1/CS1.png","targets/6.png","","direct","","51"
"","image-slider-response","304","672695","0.0-12.0-0.20","cfmxozsyrn","many_one","0","indirect_first","0","ug07mo24","0","20","1","1","3","1","","0","1","0","2546","","","","","neg","GS","GSnew","3","category3/GS3.png","targets/20.png","","direct","","-85"
"","image-slider-response","305","675433","0.0-12.0-0.21","cfmxozsyrn","many_one","0","indirect_first","0","ug07mo24","0","20","1","1","3","1","","0","1","0","2736.0000000001164","","","","","pos","GS","GSold","1","category1/CS5.png","targets/39.png","","direct","","77"
"","image-slider-response","306","677828","0.0-12.0-0.22","cfmxozsyrn","many_one","0","indirect_first","0","ug07mo24","0","20","1","1","3","1","","0","1","0","2392","","","","","pos","GS","GSnew","2","category2/GS3.png","targets/15.png","","direct","","-95"
"","image-slider-response","307","679889","0.0-12.0-0.23","cfmxozsyrn","many_one","0","indirect_first","0","ug07mo24","0","20","1","1","3","1","","0","1","0","2059","","","","","pos","GS","GSnew","1","category1/GS1.png","targets/25.png","","direct","","-58"
"","image-slider-response","308","682492","0.0-12.0-0.24","cfmxozsyrn","many_one","0","indirect_first","0","ug07mo24","0","20","1","1","3","1","","0","1","0","2600","","","","","neg","GS","GSnew","4","category4/GS2.png","targets/29.png","","direct","","88"
"","image-slider-response","309","685547","0.0-12.0-0.25","cfmxozsyrn","many_one","0","indirect_first","0","ug07mo24","0","20","1","1","3","1","","0","1","0","3052","","","","","pos","CS","CS","1","category1/CS7.png","targets/16.png","","direct","","100"
"","image-slider-response","310","688436","0.0-12.0-0.26","cfmxozsyrn","many_one","0","indirect_first","0","ug07mo24","0","20","1","1","3","1","","0","1","0","2888","","","","","pos","CS","CS","1","category1/CS9.png","targets/42.png","","direct","","69"
"","image-slider-response","311","691620","0.0-12.0-0.27","cfmxozsyrn","many_one","0","indirect_first","0","ug07mo24","0","20","1","1","3","1","","0","1","0","3180.9999999998836","","","","","pos","GS","abstract","2","category2/men.png","targets/17.png","","direct","","-1"
"","image-slider-response","312","694644","0.0-12.0-0.28","cfmxozsyrn","many_one","0","indirect_first","0","ug07mo24","0","20","1","1","3","1","","0","1","0","3023","","","","","neg","CS","CS","4","category4/CS4.png","targets/8.png","","direct","","-33"
"","image-slider-response","313","696841","0.0-12.0-0.29","cfmxozsyrn","many_one","0","indirect_first","0","ug07mo24","0","20","1","1","3","1","","0","1","0","2194","","","","","pos","CS","CS","2","category2/CS3.png","targets/36.png","","direct","","68"
"","image-slider-response","314","699633","0.0-12.0-0.30","cfmxozsyrn","many_one","0","indirect_first","0","ug07mo24","0","20","1","1","3","1","","0","1","0","2790","","","","","neg","CS","CS","3","category3/CS10.png","targets/1.png","","direct","","-46"
"","image-slider-response","315","702299","0.0-12.0-0.31","cfmxozsyrn","many_one","0","indirect_first","0","ug07mo24","0","20","1","1","3","1","","0","1","0","2662.9999999998836","","","","","neg","GS","abstract","4","category4/lin.png","targets/46.png","","direct","","1"
"","image-slider-response","316","704385","0.0-12.0-0.32","cfmxozsyrn","many_one","0","indirect_first","0","ug07mo24","0","20","1","1","3","1","","0","1","0","2084","","","","","pos","GS","GSold","2","category2/CS7.png","targets/44.png","","direct","","72"
"","image-slider-response","317","707878","0.0-12.0-0.33","cfmxozsyrn","many_one","0","indirect_first","0","ug07mo24","0","20","1","1","3","1","","0","1","0","3491","","","","","pos","GS","GSold","2","category2/CS8.png","targets/22.png","","direct","","-53"
"","image-slider-response","318","712319","0.0-12.0-0.34","cfmxozsyrn","many_one","0","indirect_first","0","ug07mo24","0","20","1","1","3","1","","0","1","0","4438.999999999884","","","","","pos","GS","GSold","2","category2/CS2.png","targets/18.png","","direct","","62"
"","image-slider-response","319","715606","0.0-12.0-0.35","cfmxozsyrn","many_one","0","indirect_first","0","ug07mo24","0","20","1","1","3","1","","0","1","0","3285","","","","","neg","GS","GSold","4","category4/CS9.png","targets/11.png","","direct","","-49"
"","image-slider-response","320","718232","0.0-12.0-0.36","cfmxozsyrn","many_one","0","indirect_first","0","ug07mo24","0","20","1","1","3","1","","0","1","0","2624.0000000001164","","","","","neg","CS","CS","3","category3/CS7.png","targets/35.png","","direct","","79"
"","image-slider-response","321","724248","0.0-12.0-0.37","cfmxozsyrn","many_one","0","indirect_first","0","ug07mo24","0","20","1","1","3","1","","0","1","0","6014","","","","","neg","GS","abstract","3","category3/wang.png","targets/40.png","","direct","","3"
"","image-slider-response","322","727392","0.0-12.0-0.38","cfmxozsyrn","many_one","0","indirect_first","0","ug07mo24","0","20","1","1","3","1","","0","1","0","3142","","","","","pos","GS","GSnew","1","category1/GS2.png","targets/47.png","","direct","","-53"
"","image-slider-response","323","729693","0.0-12.0-0.39","cfmxozsyrn","many_one","0","indirect_first","0","ug07mo24","0","20","1","1","3","1","","0","1","0","2299","","","","","neg","GS","GSold","4","category4/CS8.png","targets/3.png","","direct","","-72"
"","image-slider-response","324","732524","0.0-12.0-0.40","cfmxozsyrn","many_one","0","indirect_first","0","ug07mo24","0","20","1","1","3","1","","0","1","0","2829.9999999998836","","","","","neg","GS","GSold","3","category3/CS9.png","targets/31.png","","direct","","58"
"","image-slider-response","325","735398","0.0-12.0-0.41","cfmxozsyrn","many_one","0","indirect_first","0","ug07mo24","0","20","1","1","3","1","","0","1","0","2873","","","","","neg","GS","GSold","3","category3/CS2.png","targets/5.png","","direct","","15"
"","image-slider-response","326","737738","0.0-12.0-0.42","cfmxozsyrn","many_one","0","indirect_first","0","ug07mo24","0","20","1","1","3","1","","0","1","0","2337.0000000001164","","","","","pos","CS","CS","2","category2/CS4.png","targets/38.png","","direct","","78"
"","image-slider-response","327","742210","0.0-12.0-0.43","cfmxozsyrn","many_one","0","indirect_first","0","ug07mo24","0","20","1","1","3","1","","0","1","0","4470","","","","","neg","CS","CS","3","category3/CS6.png","targets/33.png","","direct","","-47"
"","image-slider-response","328","745410","0.0-12.0-0.44","cfmxozsyrn","many_one","0","indirect_first","0","ug07mo24","0","20","1","1","3","1","","0","1","0","3199","","","","","pos","GS","GSnew","2","category2/GS1.png","targets/34.png","","direct","","25"
