"success","trial_type","trial_index","time_elapsed","internal_node_id","subject","condition","condition_code","measure","measure_code","codeword","gender","age","education","chinese","fach","handedness","comment","hinschauen","ablenkung","gewissenhaft","rt","url","responses","stimulus","key_press","val","type","type_specific","category","cs_selected","response","target","task","indirect","nr_pres"
"true","fullscreen","0","3559","0.0-0.0","kqo3uey7hs","many_one","0","direct_first","1","er05us30","0","20","1","1","3","1","","0","1","0","","","","","","","","","","","","","","",""
"","external-html","1","18754","0.0-1.0","kqo3uey7hs","many_one","0","direct_first","1","er05us30","0","20","1","1","3","1","","0","1","0","15136","text/information.html","","","","","","","","","","","","",""
"","external-html","2","27139","0.0-2.0","kqo3uey7hs","many_one","0","direct_first","1","er05us30","0","20","1","1","3","1","","0","1","0","8252","text/consent.html","","","","","","","","","","","","",""
"","survey-html-form","3","74558","0.0-3.0","kqo3uey7hs","many_one","0","direct_first","1","er05us30","0","20","1","1","3","1","","0","1","0","47413","","{""codeword_enter"":""er05us30""}","","","","","","","","","","","",""
"","survey-html-form","4","91084","0.0-4.0","kqo3uey7hs","many_one","0","direct_first","1","er05us30","0","20","1","1","3","1","","0","1","0","16519","","{""age"":""20"",""education"":""1"",""subject"":""3"",""gender"":""0"",""handedness"":""1"",""chinese"":""1""}","","","","","","","","","","","",""
"","survey-html-form","5","94798","0.0-5.0","kqo3uey7hs","many_one","0","direct_first","1","er05us30","0","20","1","1","3","1","","0","1","0","3709","","{}","","","","","","","","","","","",""
"","html-keyboard-response","6","98819","0.0-6.0-0.0-0.0","kqo3uey7hs","many_one","0","direct_first","1","er05us30","0","20","1","1","3","1","","0","1","0","null","","","<div class = 'row'><div class = 'column'><img src = 'category4/CS4.png' width = '70%;'></div><div class = 'column'><img src = 'uspos/5600.bmp' width = '100%;'></div></div>","null","pos","CS","CS","4","category4/CS4.png","","","","",""
"","html-keyboard-response","7","101342","0.0-6.0-0.0-0.1","kqo3uey7hs","many_one","0","direct_first","1","er05us30","0","20","1","1","3","1","","0","1","0","null","","","<div class = 'row'><div class = 'column'><img src = 'category4/CS7.png' width = '70%;'></div><div class = 'column'><img src = 'uspos/8080.bmp' width = '100%;'></div></div>","null","pos","CS","CS","4","category4/CS7.png","","","","",""
"","html-keyboard-response","8","103862","0.0-6.0-0.0-0.2","kqo3uey7hs","many_one","0","direct_first","1","er05us30","0","20","1","1","3","1","","0","1","0","null","","","<div class = 'row'><div class = 'column'><img src = 'uspos/2150.bmp' width = '100%;'></div><div class = 'column'><img src = 'category2/CS2.png' width = '70%;'></div></div>","null","pos","CS","CS","2","category2/CS2.png","","","","",""
"","html-keyboard-response","9","106383","0.0-6.0-0.0-0.3","kqo3uey7hs","many_one","0","direct_first","1","er05us30","0","20","1","1","3","1","","0","1","0","null","","","<div class = 'row'><div class = 'column'><img src = 'usneg/8485.bmp' width = '100%;'></div><div class = 'column'><img src = 'category1/CS5.png' width = '70%;'></div></div>","null","neg","CS","CS","1","category1/CS5.png","","","","",""
"","html-keyboard-response","10","108910","0.0-6.0-0.0-0.4","kqo3uey7hs","many_one","0","direct_first","1","er05us30","0","20","1","1","3","1","","0","1","0","null","","","<div class = 'row'><div class = 'column'><img src = 'uspos/7580.bmp' width = '100%;'></div><div class = 'column'><img src = 'category4/CS2.png' width = '70%;'></div></div>","null","pos","CS","CS","4","category4/CS2.png","","","","",""
"","html-keyboard-response","11","111422","0.0-6.0-0.0-0.5","kqo3uey7hs","many_one","0","direct_first","1","er05us30","0","20","1","1","3","1","","0","1","0","null","","","<div class = 'row'><div class = 'column'><img src = 'uspos/2311.bmp' width = '100%;'></div><div class = 'column'><img src = 'category2/CS4.png' width = '70%;'></div></div>","null","pos","CS","CS","2","category2/CS4.png","","","","",""
"","html-keyboard-response","12","113942","0.0-6.0-0.0-0.6","kqo3uey7hs","many_one","0","direct_first","1","er05us30","0","20","1","1","3","1","","0","1","0","null","","","<div class = 'row'><div class = 'column'><img src = 'usneg/6020.bmp' width = '100%;'></div><div class = 'column'><img src = 'category1/CS8.png' width = '70%;'></div></div>","null","neg","CS","CS","1","category1/CS8.png","","","","",""
"","html-keyboard-response","13","116457","0.0-6.0-0.0-0.7","kqo3uey7hs","many_one","0","direct_first","1","er05us30","0","20","1","1","3","1","","0","1","0","null","","","<div class = 'row'><div class = 'column'><img src = 'category1/CS1.png' width = '70%;'></div><div class = 'column'><img src = 'usneg/2205.bmp' width = '100%;'></div></div>","null","neg","CS","CS","1","category1/CS1.png","","","","",""
"","html-keyboard-response","14","118974","0.0-6.0-0.0-0.8","kqo3uey7hs","many_one","0","direct_first","1","er05us30","0","20","1","1","3","1","","0","1","0","null","","","<div class = 'row'><div class = 'column'><img src = 'category2/CS7.png' width = '70%;'></div><div class = 'column'><img src = 'uspos/1710.bmp' width = '100%;'></div></div>","null","pos","CS","CS","2","category2/CS7.png","","","","",""
"","html-keyboard-response","15","121479","0.0-6.0-0.0-0.9","kqo3uey7hs","many_one","0","direct_first","1","er05us30","0","20","1","1","3","1","","0","1","0","null","","","<div class = 'row'><div class = 'column'><img src = 'category2/CS10.png' width = '70%;'></div><div class = 'column'><img src = 'uspos/5621.bmp' width = '100%;'></div></div>","null","pos","CS","CS","2","category2/CS10.png","","","","",""
"","html-keyboard-response","16","123996","0.0-6.0-0.0-0.10","kqo3uey7hs","many_one","0","direct_first","1","er05us30","0","20","1","1","3","1","","0","1","0","null","","","<div class = 'row'><div class = 'column'><img src = 'uspos/1340.bmp' width = '100%;'></div><div class = 'column'><img src = 'category4/CS10.png' width = '70%;'></div></div>","null","pos","CS","CS","4","category4/CS10.png","","","","",""
"","html-keyboard-response","17","126516","0.0-6.0-0.0-0.11","kqo3uey7hs","many_one","0","direct_first","1","er05us30","0","20","1","1","3","1","","0","1","0","null","","","<div class = 'row'><div class = 'column'><img src = 'category1/CS2.png' width = '70%;'></div><div class = 'column'><img src = 'usneg/2900.bmp' width = '100%;'></div></div>","null","neg","CS","CS","1","category1/CS2.png","","","","",""
"","html-keyboard-response","18","129037","0.0-6.0-0.0-0.12","kqo3uey7hs","many_one","0","direct_first","1","er05us30","0","20","1","1","3","1","","0","1","0","null","","","<div class = 'row'><div class = 'column'><img src = 'usneg/9041.bmp' width = '100%;'></div><div class = 'column'><img src = 'category3/CS5.png' width = '70%;'></div></div>","null","neg","CS","CS","3","category3/CS5.png","","","","",""
"","html-keyboard-response","19","131556","0.0-6.0-0.0-0.13","kqo3uey7hs","many_one","0","direct_first","1","er05us30","0","20","1","1","3","1","","0","1","0","null","","","<div class = 'row'><div class = 'column'><img src = 'uspos/5629.bmp' width = '100%;'></div><div class = 'column'><img src = 'category4/CS8.png' width = '70%;'></div></div>","null","pos","CS","CS","4","category4/CS8.png","","","","",""
"","html-keyboard-response","20","134076","0.0-6.0-0.0-0.14","kqo3uey7hs","many_one","0","direct_first","1","er05us30","0","20","1","1","3","1","","0","1","0","null","","","<div class = 'row'><div class = 'column'><img src = 'usneg/9404.bmp' width = '100%;'></div><div class = 'column'><img src = 'category1/CS3.png' width = '70%;'></div></div>","null","neg","CS","CS","1","category1/CS3.png","","","","",""
"","html-keyboard-response","21","136582","0.0-6.0-0.0-0.15","kqo3uey7hs","many_one","0","direct_first","1","er05us30","0","20","1","1","3","1","","0","1","0","null","","","<div class = 'row'><div class = 'column'><img src = 'uspos/5831.bmp' width = '100%;'></div><div class = 'column'><img src = 'category2/CS3.png' width = '70%;'></div></div>","null","pos","CS","CS","2","category2/CS3.png","","","","",""
"","html-keyboard-response","22","139092","0.0-6.0-0.0-0.16","kqo3uey7hs","many_one","0","direct_first","1","er05us30","0","20","1","1","3","1","","0","1","0","null","","","<div class = 'row'><div class = 'column'><img src = 'category3/CS3.png' width = '70%;'></div><div class = 'column'><img src = 'usneg/9435.bmp' width = '100%;'></div></div>","null","neg","CS","CS","3","category3/CS3.png","","","","",""
"","html-keyboard-response","23","141618","0.0-6.0-0.0-0.17","kqo3uey7hs","many_one","0","direct_first","1","er05us30","0","20","1","1","3","1","","0","1","0","null","","","<div class = 'row'><div class = 'column'><img src = 'category3/CS1.png' width = '70%;'></div><div class = 'column'><img src = 'usneg/1280.bmp' width = '100%;'></div></div>","null","neg","CS","CS","3","category3/CS1.png","","","","",""
"","html-keyboard-response","24","144139","0.0-6.0-0.0-0.18","kqo3uey7hs","many_one","0","direct_first","1","er05us30","0","20","1","1","3","1","","0","1","0","null","","","<div class = 'row'><div class = 'column'><img src = 'category3/CS7.png' width = '70%;'></div><div class = 'column'><img src = 'usneg/9181.bmp' width = '100%;'></div></div>","null","neg","CS","CS","3","category3/CS7.png","","","","",""
"","html-keyboard-response","25","146666","0.0-6.0-0.0-0.19","kqo3uey7hs","many_one","0","direct_first","1","er05us30","0","20","1","1","3","1","","0","1","0","null","","","<div class = 'row'><div class = 'column'><img src = 'category3/CS8.png' width = '70%;'></div><div class = 'column'><img src = 'usneg/2141.bmp' width = '100%;'></div></div>","null","neg","CS","CS","3","category3/CS8.png","","","","",""
"","survey-html-form","26","149233","0.0-6.0-1.0","kqo3uey7hs","many_one","0","direct_first","1","er05us30","0","20","1","1","3","1","","0","1","0","2053","","{}","","","","","","","","","","","",""
"","html-keyboard-response","27","153246","0.0-6.0-2.0-0.0","kqo3uey7hs","many_one","0","direct_first","1","er05us30","0","20","1","1","3","1","","0","1","0","null","","","<div class = 'row'><div class = 'column'><img src = 'uspos/5621.bmp' width = '100%;'></div><div class = 'column'><img src = 'category2/CS10.png' width = '70%;'></div></div>","null","pos","CS","CS","2","category2/CS10.png","","","","",""
"","html-keyboard-response","28","155766","0.0-6.0-2.0-0.1","kqo3uey7hs","many_one","0","direct_first","1","er05us30","0","20","1","1","3","1","","0","1","0","null","","","<div class = 'row'><div class = 'column'><img src = 'category2/CS4.png' width = '70%;'></div><div class = 'column'><img src = 'uspos/2311.bmp' width = '100%;'></div></div>","null","pos","CS","CS","2","category2/CS4.png","","","","",""
"","html-keyboard-response","29","158283","0.0-6.0-2.0-0.2","kqo3uey7hs","many_one","0","direct_first","1","er05us30","0","20","1","1","3","1","","0","1","0","null","","","<div class = 'row'><div class = 'column'><img src = 'usneg/9041.bmp' width = '100%;'></div><div class = 'column'><img src = 'category3/CS5.png' width = '70%;'></div></div>","null","neg","CS","CS","3","category3/CS5.png","","","","",""
"","html-keyboard-response","30","160812","0.0-6.0-2.0-0.3","kqo3uey7hs","many_one","0","direct_first","1","er05us30","0","20","1","1","3","1","","0","1","0","null","","","<div class = 'row'><div class = 'column'><img src = 'usneg/9404.bmp' width = '100%;'></div><div class = 'column'><img src = 'category1/CS3.png' width = '70%;'></div></div>","null","neg","CS","CS","1","category1/CS3.png","","","","",""
"","html-keyboard-response","31","163340","0.0-6.0-2.0-0.4","kqo3uey7hs","many_one","0","direct_first","1","er05us30","0","20","1","1","3","1","","0","1","0","null","","","<div class = 'row'><div class = 'column'><img src = 'category4/CS7.png' width = '70%;'></div><div class = 'column'><img src = 'uspos/8080.bmp' width = '100%;'></div></div>","null","pos","CS","CS","4","category4/CS7.png","","","","",""
"","html-keyboard-response","32","165866","0.0-6.0-2.0-0.5","kqo3uey7hs","many_one","0","direct_first","1","er05us30","0","20","1","1","3","1","","0","1","0","null","","","<div class = 'row'><div class = 'column'><img src = 'usneg/9181.bmp' width = '100%;'></div><div class = 'column'><img src = 'category3/CS7.png' width = '70%;'></div></div>","null","neg","CS","CS","3","category3/CS7.png","","","","",""
"","html-keyboard-response","33","168382","0.0-6.0-2.0-0.6","kqo3uey7hs","many_one","0","direct_first","1","er05us30","0","20","1","1","3","1","","0","1","0","null","","","<div class = 'row'><div class = 'column'><img src = 'category3/CS1.png' width = '70%;'></div><div class = 'column'><img src = 'usneg/1280.bmp' width = '100%;'></div></div>","null","neg","CS","CS","3","category3/CS1.png","","","","",""
"","html-keyboard-response","34","170912","0.0-6.0-2.0-0.7","kqo3uey7hs","many_one","0","direct_first","1","er05us30","0","20","1","1","3","1","","0","1","0","null","","","<div class = 'row'><div class = 'column'><img src = 'category1/CS1.png' width = '70%;'></div><div class = 'column'><img src = 'usneg/2205.bmp' width = '100%;'></div></div>","null","neg","CS","CS","1","category1/CS1.png","","","","",""
"","html-keyboard-response","35","173437","0.0-6.0-2.0-0.8","kqo3uey7hs","many_one","0","direct_first","1","er05us30","0","20","1","1","3","1","","0","1","0","null","","","<div class = 'row'><div class = 'column'><img src = 'category4/CS2.png' width = '70%;'></div><div class = 'column'><img src = 'uspos/7580.bmp' width = '100%;'></div></div>","null","pos","CS","CS","4","category4/CS2.png","","","","",""
"","html-keyboard-response","36","175946","0.0-6.0-2.0-0.9","kqo3uey7hs","many_one","0","direct_first","1","er05us30","0","20","1","1","3","1","","0","1","0","null","","","<div class = 'row'><div class = 'column'><img src = 'usneg/8485.bmp' width = '100%;'></div><div class = 'column'><img src = 'category1/CS5.png' width = '70%;'></div></div>","null","neg","CS","CS","1","category1/CS5.png","","","","",""
"","html-keyboard-response","37","178461","0.0-6.0-2.0-0.10","kqo3uey7hs","many_one","0","direct_first","1","er05us30","0","20","1","1","3","1","","0","1","0","null","","","<div class = 'row'><div class = 'column'><img src = 'uspos/1710.bmp' width = '100%;'></div><div class = 'column'><img src = 'category2/CS7.png' width = '70%;'></div></div>","null","pos","CS","CS","2","category2/CS7.png","","","","",""
"","html-keyboard-response","38","180987","0.0-6.0-2.0-0.11","kqo3uey7hs","many_one","0","direct_first","1","er05us30","0","20","1","1","3","1","","0","1","0","null","","","<div class = 'row'><div class = 'column'><img src = 'usneg/6020.bmp' width = '100%;'></div><div class = 'column'><img src = 'category1/CS8.png' width = '70%;'></div></div>","null","neg","CS","CS","1","category1/CS8.png","","","","",""
"","html-keyboard-response","39","183505","0.0-6.0-2.0-0.12","kqo3uey7hs","many_one","0","direct_first","1","er05us30","0","20","1","1","3","1","","0","1","0","null","","","<div class = 'row'><div class = 'column'><img src = 'uspos/5600.bmp' width = '100%;'></div><div class = 'column'><img src = 'category4/CS4.png' width = '70%;'></div></div>","null","pos","CS","CS","4","category4/CS4.png","","","","",""
"","html-keyboard-response","40","186017","0.0-6.0-2.0-0.13","kqo3uey7hs","many_one","0","direct_first","1","er05us30","0","20","1","1","3","1","","0","1","0","null","","","<div class = 'row'><div class = 'column'><img src = 'usneg/2900.bmp' width = '100%;'></div><div class = 'column'><img src = 'category1/CS2.png' width = '70%;'></div></div>","null","neg","CS","CS","1","category1/CS2.png","","","","",""
"","html-keyboard-response","41","188540","0.0-6.0-2.0-0.14","kqo3uey7hs","many_one","0","direct_first","1","er05us30","0","20","1","1","3","1","","0","1","0","null","","","<div class = 'row'><div class = 'column'><img src = 'usneg/2141.bmp' width = '100%;'></div><div class = 'column'><img src = 'category3/CS8.png' width = '70%;'></div></div>","null","neg","CS","CS","3","category3/CS8.png","","","","",""
"","html-keyboard-response","42","191056","0.0-6.0-2.0-0.15","kqo3uey7hs","many_one","0","direct_first","1","er05us30","0","20","1","1","3","1","","0","1","0","null","","","<div class = 'row'><div class = 'column'><img src = 'category2/CS3.png' width = '70%;'></div><div class = 'column'><img src = 'uspos/5831.bmp' width = '100%;'></div></div>","null","pos","CS","CS","2","category2/CS3.png","","","","",""
"","html-keyboard-response","43","193571","0.0-6.0-2.0-0.16","kqo3uey7hs","many_one","0","direct_first","1","er05us30","0","20","1","1","3","1","","0","1","0","null","","","<div class = 'row'><div class = 'column'><img src = 'uspos/2150.bmp' width = '100%;'></div><div class = 'column'><img src = 'category2/CS2.png' width = '70%;'></div></div>","null","pos","CS","CS","2","category2/CS2.png","","","","",""
"","html-keyboard-response","44","196079","0.0-6.0-2.0-0.17","kqo3uey7hs","many_one","0","direct_first","1","er05us30","0","20","1","1","3","1","","0","1","0","null","","","<div class = 'row'><div class = 'column'><img src = 'usneg/9435.bmp' width = '100%;'></div><div class = 'column'><img src = 'category3/CS3.png' width = '70%;'></div></div>","null","neg","CS","CS","3","category3/CS3.png","","","","",""
"","html-keyboard-response","45","198593","0.0-6.0-2.0-0.18","kqo3uey7hs","many_one","0","direct_first","1","er05us30","0","20","1","1","3","1","","0","1","0","null","","","<div class = 'row'><div class = 'column'><img src = 'category4/CS8.png' width = '70%;'></div><div class = 'column'><img src = 'uspos/5629.bmp' width = '100%;'></div></div>","null","pos","CS","CS","4","category4/CS8.png","","","","",""
"","html-keyboard-response","46","201112","0.0-6.0-2.0-0.19","kqo3uey7hs","many_one","0","direct_first","1","er05us30","0","20","1","1","3","1","","0","1","0","null","","","<div class = 'row'><div class = 'column'><img src = 'uspos/1340.bmp' width = '100%;'></div><div class = 'column'><img src = 'category4/CS10.png' width = '70%;'></div></div>","null","pos","CS","CS","4","category4/CS10.png","","","","",""
"","survey-html-form","47","204043","0.0-6.0-3.0","kqo3uey7hs","many_one","0","direct_first","1","er05us30","0","20","1","1","3","1","","0","1","0","2419","","{}","","","","","","","","","","","",""
"","html-keyboard-response","48","208069","0.0-6.0-4.0-0.0","kqo3uey7hs","many_one","0","direct_first","1","er05us30","0","20","1","1","3","1","","0","1","0","null","","","<div class = 'row'><div class = 'column'><img src = 'uspos/8080.bmp' width = '100%;'></div><div class = 'column'><img src = 'category4/CS7.png' width = '70%;'></div></div>","null","pos","CS","CS","4","category4/CS7.png","","","","",""
"","html-keyboard-response","49","210590","0.0-6.0-4.0-0.1","kqo3uey7hs","many_one","0","direct_first","1","er05us30","0","20","1","1","3","1","","0","1","0","null","","","<div class = 'row'><div class = 'column'><img src = 'uspos/5831.bmp' width = '100%;'></div><div class = 'column'><img src = 'category2/CS3.png' width = '70%;'></div></div>","null","pos","CS","CS","2","category2/CS3.png","","","","",""
"","html-keyboard-response","50","213107","0.0-6.0-4.0-0.2","kqo3uey7hs","many_one","0","direct_first","1","er05us30","0","20","1","1","3","1","","0","1","0","null","","","<div class = 'row'><div class = 'column'><img src = 'category3/CS3.png' width = '70%;'></div><div class = 'column'><img src = 'usneg/9435.bmp' width = '100%;'></div></div>","null","neg","CS","CS","3","category3/CS3.png","","","","",""
"","html-keyboard-response","51","215622","0.0-6.0-4.0-0.3","kqo3uey7hs","many_one","0","direct_first","1","er05us30","0","20","1","1","3","1","","0","1","0","null","","","<div class = 'row'><div class = 'column'><img src = 'uspos/1710.bmp' width = '100%;'></div><div class = 'column'><img src = 'category2/CS7.png' width = '70%;'></div></div>","null","pos","CS","CS","2","category2/CS7.png","","","","",""
"","html-keyboard-response","52","218144","0.0-6.0-4.0-0.4","kqo3uey7hs","many_one","0","direct_first","1","er05us30","0","20","1","1","3","1","","0","1","0","null","","","<div class = 'row'><div class = 'column'><img src = 'usneg/9041.bmp' width = '100%;'></div><div class = 'column'><img src = 'category3/CS5.png' width = '70%;'></div></div>","null","neg","CS","CS","3","category3/CS5.png","","","","",""
"","html-keyboard-response","53","220672","0.0-6.0-4.0-0.5","kqo3uey7hs","many_one","0","direct_first","1","er05us30","0","20","1","1","3","1","","0","1","0","null","","","<div class = 'row'><div class = 'column'><img src = 'usneg/2900.bmp' width = '100%;'></div><div class = 'column'><img src = 'category1/CS2.png' width = '70%;'></div></div>","null","neg","CS","CS","1","category1/CS2.png","","","","",""
"","html-keyboard-response","54","223177","0.0-6.0-4.0-0.6","kqo3uey7hs","many_one","0","direct_first","1","er05us30","0","20","1","1","3","1","","0","1","0","null","","","<div class = 'row'><div class = 'column'><img src = 'category3/CS1.png' width = '70%;'></div><div class = 'column'><img src = 'usneg/1280.bmp' width = '100%;'></div></div>","null","neg","CS","CS","3","category3/CS1.png","","","","",""
"","html-keyboard-response","55","225693","0.0-6.0-4.0-0.7","kqo3uey7hs","many_one","0","direct_first","1","er05us30","0","20","1","1","3","1","","0","1","0","null","","","<div class = 'row'><div class = 'column'><img src = 'uspos/7580.bmp' width = '100%;'></div><div class = 'column'><img src = 'category4/CS2.png' width = '70%;'></div></div>","null","pos","CS","CS","4","category4/CS2.png","","","","",""
"","html-keyboard-response","56","228213","0.0-6.0-4.0-0.8","kqo3uey7hs","many_one","0","direct_first","1","er05us30","0","20","1","1","3","1","","0","1","0","null","","","<div class = 'row'><div class = 'column'><img src = 'uspos/5621.bmp' width = '100%;'></div><div class = 'column'><img src = 'category2/CS10.png' width = '70%;'></div></div>","null","pos","CS","CS","2","category2/CS10.png","","","","",""
"","html-keyboard-response","57","230736","0.0-6.0-4.0-0.9","kqo3uey7hs","many_one","0","direct_first","1","er05us30","0","20","1","1","3","1","","0","1","0","null","","","<div class = 'row'><div class = 'column'><img src = 'category1/CS3.png' width = '70%;'></div><div class = 'column'><img src = 'usneg/9404.bmp' width = '100%;'></div></div>","null","neg","CS","CS","1","category1/CS3.png","","","","",""
"","html-keyboard-response","58","233252","0.0-6.0-4.0-0.10","kqo3uey7hs","many_one","0","direct_first","1","er05us30","0","20","1","1","3","1","","0","1","0","null","","","<div class = 'row'><div class = 'column'><img src = 'usneg/2205.bmp' width = '100%;'></div><div class = 'column'><img src = 'category1/CS1.png' width = '70%;'></div></div>","null","neg","CS","CS","1","category1/CS1.png","","","","",""
"","html-keyboard-response","59","235772","0.0-6.0-4.0-0.11","kqo3uey7hs","many_one","0","direct_first","1","er05us30","0","20","1","1","3","1","","0","1","0","null","","","<div class = 'row'><div class = 'column'><img src = 'usneg/6020.bmp' width = '100%;'></div><div class = 'column'><img src = 'category1/CS8.png' width = '70%;'></div></div>","null","neg","CS","CS","1","category1/CS8.png","","","","",""
"","html-keyboard-response","60","238286","0.0-6.0-4.0-0.12","kqo3uey7hs","many_one","0","direct_first","1","er05us30","0","20","1","1","3","1","","0","1","0","null","","","<div class = 'row'><div class = 'column'><img src = 'category4/CS10.png' width = '70%;'></div><div class = 'column'><img src = 'uspos/1340.bmp' width = '100%;'></div></div>","null","pos","CS","CS","4","category4/CS10.png","","","","",""
"","html-keyboard-response","61","240810","0.0-6.0-4.0-0.13","kqo3uey7hs","many_one","0","direct_first","1","er05us30","0","20","1","1","3","1","","0","1","0","null","","","<div class = 'row'><div class = 'column'><img src = 'usneg/9181.bmp' width = '100%;'></div><div class = 'column'><img src = 'category3/CS7.png' width = '70%;'></div></div>","null","neg","CS","CS","3","category3/CS7.png","","","","",""
"","html-keyboard-response","62","243327","0.0-6.0-4.0-0.14","kqo3uey7hs","many_one","0","direct_first","1","er05us30","0","20","1","1","3","1","","0","1","0","null","","","<div class = 'row'><div class = 'column'><img src = 'category2/CS4.png' width = '70%;'></div><div class = 'column'><img src = 'uspos/2311.bmp' width = '100%;'></div></div>","null","pos","CS","CS","2","category2/CS4.png","","","","",""
"","html-keyboard-response","63","245837","0.0-6.0-4.0-0.15","kqo3uey7hs","many_one","0","direct_first","1","er05us30","0","20","1","1","3","1","","0","1","0","null","","","<div class = 'row'><div class = 'column'><img src = 'category4/CS4.png' width = '70%;'></div><div class = 'column'><img src = 'uspos/5600.bmp' width = '100%;'></div></div>","null","pos","CS","CS","4","category4/CS4.png","","","","",""
"","html-keyboard-response","64","248342","0.0-6.0-4.0-0.16","kqo3uey7hs","many_one","0","direct_first","1","er05us30","0","20","1","1","3","1","","0","1","0","null","","","<div class = 'row'><div class = 'column'><img src = 'category1/CS5.png' width = '70%;'></div><div class = 'column'><img src = 'usneg/8485.bmp' width = '100%;'></div></div>","null","neg","CS","CS","1","category1/CS5.png","","","","",""
"","html-keyboard-response","65","250862","0.0-6.0-4.0-0.17","kqo3uey7hs","many_one","0","direct_first","1","er05us30","0","20","1","1","3","1","","0","1","0","null","","","<div class = 'row'><div class = 'column'><img src = 'uspos/2150.bmp' width = '100%;'></div><div class = 'column'><img src = 'category2/CS2.png' width = '70%;'></div></div>","null","pos","CS","CS","2","category2/CS2.png","","","","",""
"","html-keyboard-response","66","253376","0.0-6.0-4.0-0.18","kqo3uey7hs","many_one","0","direct_first","1","er05us30","0","20","1","1","3","1","","0","1","0","null","","","<div class = 'row'><div class = 'column'><img src = 'uspos/5629.bmp' width = '100%;'></div><div class = 'column'><img src = 'category4/CS8.png' width = '70%;'></div></div>","null","pos","CS","CS","4","category4/CS8.png","","","","",""
"","html-keyboard-response","67","255902","0.0-6.0-4.0-0.19","kqo3uey7hs","many_one","0","direct_first","1","er05us30","0","20","1","1","3","1","","0","1","0","null","","","<div class = 'row'><div class = 'column'><img src = 'category3/CS8.png' width = '70%;'></div><div class = 'column'><img src = 'usneg/2141.bmp' width = '100%;'></div></div>","null","neg","CS","CS","3","category3/CS8.png","","","","",""
"","survey-html-form","68","260451","0.0-6.0-5.0","kqo3uey7hs","many_one","0","direct_first","1","er05us30","0","20","1","1","3","1","","0","1","0","4039","","{}","","","","","","","","","","","",""
"","html-keyboard-response","69","264469","0.0-6.0-6.0-0.0","kqo3uey7hs","many_one","0","direct_first","1","er05us30","0","20","1","1","3","1","","0","1","0","null","","","<div class = 'row'><div class = 'column'><img src = 'category2/CS2.png' width = '70%;'></div><div class = 'column'><img src = 'uspos/2150.bmp' width = '100%;'></div></div>","null","pos","CS","CS","2","category2/CS2.png","","","","",""
"","html-keyboard-response","70","266986","0.0-6.0-6.0-0.1","kqo3uey7hs","many_one","0","direct_first","1","er05us30","0","20","1","1","3","1","","0","1","0","null","","","<div class = 'row'><div class = 'column'><img src = 'category4/CS7.png' width = '70%;'></div><div class = 'column'><img src = 'uspos/8080.bmp' width = '100%;'></div></div>","null","pos","CS","CS","4","category4/CS7.png","","","","",""
"","html-keyboard-response","71","269501","0.0-6.0-6.0-0.2","kqo3uey7hs","many_one","0","direct_first","1","er05us30","0","20","1","1","3","1","","0","1","0","null","","","<div class = 'row'><div class = 'column'><img src = 'uspos/1340.bmp' width = '100%;'></div><div class = 'column'><img src = 'category4/CS10.png' width = '70%;'></div></div>","null","pos","CS","CS","4","category4/CS10.png","","","","",""
"","html-keyboard-response","72","272022","0.0-6.0-6.0-0.3","kqo3uey7hs","many_one","0","direct_first","1","er05us30","0","20","1","1","3","1","","0","1","0","null","","","<div class = 'row'><div class = 'column'><img src = 'category2/CS4.png' width = '70%;'></div><div class = 'column'><img src = 'uspos/2311.bmp' width = '100%;'></div></div>","null","pos","CS","CS","2","category2/CS4.png","","","","",""
"","html-keyboard-response","73","274547","0.0-6.0-6.0-0.4","kqo3uey7hs","many_one","0","direct_first","1","er05us30","0","20","1","1","3","1","","0","1","0","null","","","<div class = 'row'><div class = 'column'><img src = 'category3/CS5.png' width = '70%;'></div><div class = 'column'><img src = 'usneg/9041.bmp' width = '100%;'></div></div>","null","neg","CS","CS","3","category3/CS5.png","","","","",""
"","html-keyboard-response","74","277056","0.0-6.0-6.0-0.5","kqo3uey7hs","many_one","0","direct_first","1","er05us30","0","20","1","1","3","1","","0","1","0","null","","","<div class = 'row'><div class = 'column'><img src = 'usneg/1280.bmp' width = '100%;'></div><div class = 'column'><img src = 'category3/CS1.png' width = '70%;'></div></div>","null","neg","CS","CS","3","category3/CS1.png","","","","",""
"","html-keyboard-response","75","279578","0.0-6.0-6.0-0.6","kqo3uey7hs","many_one","0","direct_first","1","er05us30","0","20","1","1","3","1","","0","1","0","null","","","<div class = 'row'><div class = 'column'><img src = 'category2/CS7.png' width = '70%;'></div><div class = 'column'><img src = 'uspos/1710.bmp' width = '100%;'></div></div>","null","pos","CS","CS","2","category2/CS7.png","","","","",""
"","html-keyboard-response","76","282091","0.0-6.0-6.0-0.7","kqo3uey7hs","many_one","0","direct_first","1","er05us30","0","20","1","1","3","1","","0","1","0","null","","","<div class = 'row'><div class = 'column'><img src = 'uspos/5831.bmp' width = '100%;'></div><div class = 'column'><img src = 'category2/CS3.png' width = '70%;'></div></div>","null","pos","CS","CS","2","category2/CS3.png","","","","",""
"","html-keyboard-response","77","284602","0.0-6.0-6.0-0.8","kqo3uey7hs","many_one","0","direct_first","1","er05us30","0","20","1","1","3","1","","0","1","0","null","","","<div class = 'row'><div class = 'column'><img src = 'uspos/5629.bmp' width = '100%;'></div><div class = 'column'><img src = 'category4/CS8.png' width = '70%;'></div></div>","null","pos","CS","CS","4","category4/CS8.png","","","","",""
"","html-keyboard-response","78","287122","0.0-6.0-6.0-0.9","kqo3uey7hs","many_one","0","direct_first","1","er05us30","0","20","1","1","3","1","","0","1","0","null","","","<div class = 'row'><div class = 'column'><img src = 'usneg/9181.bmp' width = '100%;'></div><div class = 'column'><img src = 'category3/CS7.png' width = '70%;'></div></div>","null","neg","CS","CS","3","category3/CS7.png","","","","",""
"","html-keyboard-response","79","289643","0.0-6.0-6.0-0.10","kqo3uey7hs","many_one","0","direct_first","1","er05us30","0","20","1","1","3","1","","0","1","0","null","","","<div class = 'row'><div class = 'column'><img src = 'category1/CS5.png' width = '70%;'></div><div class = 'column'><img src = 'usneg/8485.bmp' width = '100%;'></div></div>","null","neg","CS","CS","1","category1/CS5.png","","","","",""
"","html-keyboard-response","80","292156","0.0-6.0-6.0-0.11","kqo3uey7hs","many_one","0","direct_first","1","er05us30","0","20","1","1","3","1","","0","1","0","null","","","<div class = 'row'><div class = 'column'><img src = 'uspos/5621.bmp' width = '100%;'></div><div class = 'column'><img src = 'category2/CS10.png' width = '70%;'></div></div>","null","pos","CS","CS","2","category2/CS10.png","","","","",""
"","html-keyboard-response","81","294673","0.0-6.0-6.0-0.12","kqo3uey7hs","many_one","0","direct_first","1","er05us30","0","20","1","1","3","1","","0","1","0","null","","","<div class = 'row'><div class = 'column'><img src = 'usneg/9404.bmp' width = '100%;'></div><div class = 'column'><img src = 'category1/CS3.png' width = '70%;'></div></div>","null","neg","CS","CS","1","category1/CS3.png","","","","",""
"","html-keyboard-response","82","297192","0.0-6.0-6.0-0.13","kqo3uey7hs","many_one","0","direct_first","1","er05us30","0","20","1","1","3","1","","0","1","0","null","","","<div class = 'row'><div class = 'column'><img src = 'usneg/2900.bmp' width = '100%;'></div><div class = 'column'><img src = 'category1/CS2.png' width = '70%;'></div></div>","null","neg","CS","CS","1","category1/CS2.png","","","","",""
"","html-keyboard-response","83","299707","0.0-6.0-6.0-0.14","kqo3uey7hs","many_one","0","direct_first","1","er05us30","0","20","1","1","3","1","","0","1","0","null","","","<div class = 'row'><div class = 'column'><img src = 'category3/CS8.png' width = '70%;'></div><div class = 'column'><img src = 'usneg/2141.bmp' width = '100%;'></div></div>","null","neg","CS","CS","3","category3/CS8.png","","","","",""
"","html-keyboard-response","84","302217","0.0-6.0-6.0-0.15","kqo3uey7hs","many_one","0","direct_first","1","er05us30","0","20","1","1","3","1","","0","1","0","null","","","<div class = 'row'><div class = 'column'><img src = 'uspos/7580.bmp' width = '100%;'></div><div class = 'column'><img src = 'category4/CS2.png' width = '70%;'></div></div>","null","pos","CS","CS","4","category4/CS2.png","","","","",""
"","html-keyboard-response","85","304731","0.0-6.0-6.0-0.16","kqo3uey7hs","many_one","0","direct_first","1","er05us30","0","20","1","1","3","1","","0","1","0","null","","","<div class = 'row'><div class = 'column'><img src = 'category1/CS8.png' width = '70%;'></div><div class = 'column'><img src = 'usneg/6020.bmp' width = '100%;'></div></div>","null","neg","CS","CS","1","category1/CS8.png","","","","",""
"","html-keyboard-response","86","307245","0.0-6.0-6.0-0.17","kqo3uey7hs","many_one","0","direct_first","1","er05us30","0","20","1","1","3","1","","0","1","0","null","","","<div class = 'row'><div class = 'column'><img src = 'usneg/2205.bmp' width = '100%;'></div><div class = 'column'><img src = 'category1/CS1.png' width = '70%;'></div></div>","null","neg","CS","CS","1","category1/CS1.png","","","","",""
"","html-keyboard-response","87","309766","0.0-6.0-6.0-0.18","kqo3uey7hs","many_one","0","direct_first","1","er05us30","0","20","1","1","3","1","","0","1","0","null","","","<div class = 'row'><div class = 'column'><img src = 'uspos/5600.bmp' width = '100%;'></div><div class = 'column'><img src = 'category4/CS4.png' width = '70%;'></div></div>","null","pos","CS","CS","4","category4/CS4.png","","","","",""
"","html-keyboard-response","88","312282","0.0-6.0-6.0-0.19","kqo3uey7hs","many_one","0","direct_first","1","er05us30","0","20","1","1","3","1","","0","1","0","null","","","<div class = 'row'><div class = 'column'><img src = 'usneg/9435.bmp' width = '100%;'></div><div class = 'column'><img src = 'category3/CS3.png' width = '70%;'></div></div>","null","neg","CS","CS","3","category3/CS3.png","","","","",""
"","survey-html-form","89","320985","0.0-7.0","kqo3uey7hs","many_one","0","direct_first","1","er05us30","0","20","1","1","3","1","","0","1","0","8195","","{}","","","","","","","","","","","",""
"","image-slider-response","90","328872","0.0-8.0-0.0","kqo3uey7hs","many_one","0","direct_first","1","er05us30","0","20","1","1","3","1","","0","1","0","5864","","","","","neg","GS","GSnew","1","category1/GS2.png","7","targets/11.png","direct","",""
"","image-slider-response","91","333783","0.0-8.0-0.1","kqo3uey7hs","many_one","0","direct_first","1","er05us30","0","20","1","1","3","1","","0","1","0","4905","","","","","neg","CS","CS","3","category3/CS8.png","-77","targets/15.png","direct","",""
"","image-slider-response","92","337321","0.0-8.0-0.2","kqo3uey7hs","many_one","0","direct_first","1","er05us30","0","20","1","1","3","1","","0","1","0","3533","","","","","neg","CS","CS","1","category1/CS3.png","-19","targets/46.png","direct","",""
"","image-slider-response","93","341650","0.0-8.0-0.3","kqo3uey7hs","many_one","0","direct_first","1","er05us30","0","20","1","1","3","1","","0","1","0","4323","","","","","pos","GS","GSnew","2","category2/GS2.png","9","targets/18.png","direct","",""
"","image-slider-response","94","344766","0.0-8.0-0.4","kqo3uey7hs","many_one","0","direct_first","1","er05us30","0","20","1","1","3","1","","0","1","0","3112","","","","","pos","GS","GSold","4","category4/CS3.png","-17","targets/3.png","direct","",""
"","image-slider-response","95","347709","0.0-8.0-0.5","kqo3uey7hs","many_one","0","direct_first","1","er05us30","0","20","1","1","3","1","","0","1","0","2937","","","","","pos","CS","CS","4","category4/CS7.png","-34","targets/21.png","direct","",""
"","image-slider-response","96","351982","0.0-8.0-0.6","kqo3uey7hs","many_one","0","direct_first","1","er05us30","0","20","1","1","3","1","","0","1","0","4268","","","","","pos","CS","CS","2","category2/CS7.png","75","targets/5.png","direct","",""
"","image-slider-response","97","354392","0.0-8.0-0.7","kqo3uey7hs","many_one","0","direct_first","1","er05us30","0","20","1","1","3","1","","0","1","0","2403","","","","","pos","CS","CS","4","category4/CS4.png","26","targets/35.png","direct","",""
"","image-slider-response","98","357082","0.0-8.0-0.8","kqo3uey7hs","many_one","0","direct_first","1","er05us30","0","20","1","1","3","1","","0","1","0","2684","","","","","pos","GS","abstract","4","category4/lin.png","14","targets/36.png","direct","",""
"","image-slider-response","99","360543","0.0-8.0-0.9","kqo3uey7hs","many_one","0","direct_first","1","er05us30","0","20","1","1","3","1","","0","1","0","3455","","","","","neg","GS","GSold","3","category3/CS4.png","-47","targets/41.png","direct","",""
"","image-slider-response","100","364331","0.0-8.0-0.10","kqo3uey7hs","many_one","0","direct_first","1","er05us30","0","20","1","1","3","1","","0","1","0","3782","","","","","neg","GS","GSold","3","category3/CS2.png","-42","targets/38.png","direct","",""
"","image-slider-response","101","367212","0.0-8.0-0.11","kqo3uey7hs","many_one","0","direct_first","1","er05us30","0","20","1","1","3","1","","0","1","0","2877","","","","","neg","GS","GSold","1","category1/CS4.png","-68","targets/31.png","direct","",""
"","image-slider-response","102","369278","0.0-8.0-0.12","kqo3uey7hs","many_one","0","direct_first","1","er05us30","0","20","1","1","3","1","","0","1","0","2059","","","","","neg","CS","CS","1","category1/CS8.png","-61","targets/22.png","direct","",""
"","image-slider-response","103","372220","0.0-8.0-0.13","kqo3uey7hs","many_one","0","direct_first","1","er05us30","0","20","1","1","3","1","","0","1","0","2936","","","","","pos","CS","CS","2","category2/CS3.png","55","targets/40.png","direct","",""
"","image-slider-response","104","374308","0.0-8.0-0.14","kqo3uey7hs","many_one","0","direct_first","1","er05us30","0","20","1","1","3","1","","0","1","0","2082","","","","","neg","GS","GSold","1","category1/CS9.png","-30","targets/20.png","direct","",""
"","image-slider-response","105","376422","0.0-8.0-0.15","kqo3uey7hs","many_one","0","direct_first","1","er05us30","0","20","1","1","3","1","","0","1","0","2109","","","","","pos","GS","GSold","4","category4/CS5.png","-18","targets/45.png","direct","",""
"","image-slider-response","106","378396","0.0-8.0-0.16","kqo3uey7hs","many_one","0","direct_first","1","er05us30","0","20","1","1","3","1","","0","1","0","1966","","","","","neg","GS","abstract","1","category1/ma.png","-26","targets/9.png","direct","",""
"","image-slider-response","107","382776","0.0-8.0-0.17","kqo3uey7hs","many_one","0","direct_first","1","er05us30","0","20","1","1","3","1","","0","1","0","4375","","","","","neg","GS","GSold","1","category1/CS7.png","-85","targets/42.png","direct","",""
"","image-slider-response","108","384904","0.0-8.0-0.18","kqo3uey7hs","many_one","0","direct_first","1","er05us30","0","20","1","1","3","1","","0","1","0","2121","","","","","pos","GS","GSnew","4","category4/GS2.png","-62","targets/1.png","direct","",""
"","image-slider-response","109","390663","0.0-8.0-0.19","kqo3uey7hs","many_one","0","direct_first","1","er05us30","0","20","1","1","3","1","","0","1","0","5753","","","","","pos","GS","GSold","4","category4/CS6.png","22","targets/8.png","direct","",""
"","image-slider-response","110","392771","0.0-8.0-0.20","kqo3uey7hs","many_one","0","direct_first","1","er05us30","0","20","1","1","3","1","","0","1","0","2105","","","","","neg","CS","CS","3","category3/CS3.png","-25","targets/19.png","direct","",""
"","image-slider-response","111","395617","0.0-8.0-0.21","kqo3uey7hs","many_one","0","direct_first","1","er05us30","0","20","1","1","3","1","","0","1","0","2840","","","","","pos","GS","GSold","2","category2/CS9.png","49","targets/30.png","direct","",""
"","image-slider-response","112","398865","0.0-8.0-0.22","kqo3uey7hs","many_one","0","direct_first","1","er05us30","0","20","1","1","3","1","","0","1","0","3241","","","","","neg","CS","CS","3","category3/CS7.png","-41","targets/10.png","direct","",""
"","image-slider-response","113","400857","0.0-8.0-0.23","kqo3uey7hs","many_one","0","direct_first","1","er05us30","0","20","1","1","3","1","","0","1","0","1986","","","","","pos","CS","CS","2","category2/CS2.png","43","targets/2.png","direct","",""
"","image-slider-response","114","402951","0.0-8.0-0.24","kqo3uey7hs","many_one","0","direct_first","1","er05us30","0","20","1","1","3","1","","0","1","0","2087","","","","","pos","GS","GSold","2","category2/CS6.png","51","targets/28.png","direct","",""
"","image-slider-response","115","404844","0.0-8.0-0.25","kqo3uey7hs","many_one","0","direct_first","1","er05us30","0","20","1","1","3","1","","0","1","0","1888","","","","","pos","CS","CS","2","category2/CS10.png","40","targets/37.png","direct","",""
"","image-slider-response","116","408866","0.0-8.0-0.26","kqo3uey7hs","many_one","0","direct_first","1","er05us30","0","20","1","1","3","1","","0","1","0","4017","","","","","neg","GS","abstract","3","category3/wang.png","-46","targets/14.png","direct","",""
"","image-slider-response","117","411325","0.0-8.0-0.27","kqo3uey7hs","many_one","0","direct_first","1","er05us30","0","20","1","1","3","1","","0","1","0","2455","","","","","neg","GS","GSnew","1","category1/GS3.png","-26","targets/29.png","direct","",""
"","image-slider-response","118","415306","0.0-8.0-0.28","kqo3uey7hs","many_one","0","direct_first","1","er05us30","0","20","1","1","3","1","","0","1","0","3976","","","","","pos","GS","GSnew","2","category2/GS1.png","-20","targets/4.png","direct","",""
"","image-slider-response","119","417887","0.0-8.0-0.29","kqo3uey7hs","many_one","0","direct_first","1","er05us30","0","20","1","1","3","1","","0","1","0","2575","","","","","neg","GS","GSold","3","category3/CS10.png","-72","targets/25.png","direct","",""
"","image-slider-response","120","421887","0.0-8.0-0.30","kqo3uey7hs","many_one","0","direct_first","1","er05us30","0","20","1","1","3","1","","0","1","0","3995","","","","","neg","CS","CS","1","category1/CS5.png","19","targets/33.png","direct","",""
"","image-slider-response","121","424466","0.0-8.0-0.31","kqo3uey7hs","many_one","0","direct_first","1","er05us30","0","20","1","1","3","1","","0","1","0","2572","","","","","neg","CS","CS","3","category3/CS1.png","-38","targets/26.png","direct","",""
"","image-slider-response","122","427697","0.0-8.0-0.32","kqo3uey7hs","many_one","0","direct_first","1","er05us30","0","20","1","1","3","1","","0","1","0","3227","","","","","neg","GS","GSnew","3","category3/GS1.png","-42","targets/44.png","direct","",""
"","image-slider-response","123","431985","0.0-8.0-0.33","kqo3uey7hs","many_one","0","direct_first","1","er05us30","0","20","1","1","3","1","","0","1","0","4283","","","","","pos","GS","GSnew","4","category4/GS1.png","-73","targets/34.png","direct","",""
"","image-slider-response","124","436905","0.0-8.0-0.34","kqo3uey7hs","many_one","0","direct_first","1","er05us30","0","20","1","1","3","1","","0","1","0","4914","","","","","pos","GS","abstract","2","category2/men.png","91","targets/12.png","direct","",""
"","image-slider-response","125","438983","0.0-8.0-0.35","kqo3uey7hs","many_one","0","direct_first","1","er05us30","0","20","1","1","3","1","","0","1","0","2073","","","","","neg","GS","GSnew","3","category3/GS3.png","-43","targets/16.png","direct","",""
"","image-slider-response","126","441709","0.0-8.0-0.36","kqo3uey7hs","many_one","0","direct_first","1","er05us30","0","20","1","1","3","1","","0","1","0","2722","","","","","pos","GS","GSnew","4","category4/GS3.png","-62","targets/7.png","direct","",""
"","image-slider-response","127","446039","0.0-8.0-0.37","kqo3uey7hs","many_one","0","direct_first","1","er05us30","0","20","1","1","3","1","","0","1","0","4324","","","","","pos","CS","CS","4","category4/CS8.png","43","targets/43.png","direct","",""
"","image-slider-response","128","450041","0.0-8.0-0.38","kqo3uey7hs","many_one","0","direct_first","1","er05us30","0","20","1","1","3","1","","0","1","0","3996","","","","","neg","CS","CS","3","category3/CS5.png","-23","targets/47.png","direct","",""
"","image-slider-response","129","453677","0.0-8.0-0.39","kqo3uey7hs","many_one","0","direct_first","1","er05us30","0","20","1","1","3","1","","0","1","0","3631","","","","","pos","CS","CS","2","category2/CS4.png","46","targets/32.png","direct","",""
"","image-slider-response","130","456652","0.0-8.0-0.40","kqo3uey7hs","many_one","0","direct_first","1","er05us30","0","20","1","1","3","1","","0","1","0","2969","","","","","neg","CS","CS","1","category1/CS2.png","-41","targets/17.png","direct","",""
"","image-slider-response","131","461807","0.0-8.0-0.41","kqo3uey7hs","many_one","0","direct_first","1","er05us30","0","20","1","1","3","1","","0","1","0","5150","","","","","neg","GS","GSnew","3","category3/GS2.png","-85","targets/23.png","direct","",""
"","image-slider-response","132","466001","0.0-8.0-0.42","kqo3uey7hs","many_one","0","direct_first","1","er05us30","0","20","1","1","3","1","","0","1","0","4187","","","","","neg","CS","CS","1","category1/CS1.png","40","targets/39.png","direct","",""
"","image-slider-response","133","470065","0.0-8.0-0.43","kqo3uey7hs","many_one","0","direct_first","1","er05us30","0","20","1","1","3","1","","0","1","0","4059","","","","","pos","CS","CS","4","category4/CS2.png","33","targets/24.png","direct","",""
"","image-slider-response","134","473805","0.0-8.0-0.44","kqo3uey7hs","many_one","0","direct_first","1","er05us30","0","20","1","1","3","1","","0","1","0","3733","","","","","pos","CS","CS","4","category4/CS10.png","20","targets/27.png","direct","",""
"","image-slider-response","135","477227","0.0-8.0-0.45","kqo3uey7hs","many_one","0","direct_first","1","er05us30","0","20","1","1","3","1","","0","1","0","3416","","","","","neg","GS","GSnew","1","category1/GS1.png","20","targets/13.png","direct","",""
"","image-slider-response","136","479333","0.0-8.0-0.46","kqo3uey7hs","many_one","0","direct_first","1","er05us30","0","20","1","1","3","1","","0","1","0","2100","","","","","pos","GS","GSold","2","category2/CS5.png","67","targets/48.png","direct","",""
"","image-slider-response","137","482613","0.0-8.0-0.47","kqo3uey7hs","many_one","0","direct_first","1","er05us30","0","20","1","1","3","1","","0","1","0","3274","","","","","pos","GS","GSnew","2","category2/GS3.png","25","targets/6.png","direct","",""
"","html-keyboard-response","138","506688","0.0-9.0","kqo3uey7hs","many_one","0","direct_first","1","er05us30","0","20","1","1","3","1","","0","1","0","24070","","","<p>Sie sehen nun die chinesischen Zeichen nur ganz kurz. Danach sehen Sie die jeweilige Aussprache der Zeichen als Silbe auf dem Bildschrim. Ihre Aufgabe ist es, für jede Silbe anzugeben, ob diese etwas angenehmes, oder unangenehmes bedeuten könnte. Verlassen Sie sich hier vor allem auf Ihre Intuition.<br><br>Die Zeichen werden nur zur Orientierung dargestellt, beachten Sie sie deshalb nicht. Konzentrieren Sie sich vor allem auf die Silben. <br>Reagieren Sie mit folgenden zwei Tasten: <br><br><b>'D' </b> wenn die Silbe etwas <b>unangenehmes</b> bedeuten könnte. <br><b>'K'</b> wenn die Silbe etwas <b>angenehmes</b> bedeuten könnte. <br><br>Bitte legen Sie nun den Zeigefinger der linken Hand auf die Taste 'D' und den Zeigefinger der rechten Hand auf die Taste 'K'. <br>Reagieren Sie auf jede Silbe so schnell wie möglich. Uns interessiert Ihre spontane Reaktion. <br> <br> <br>Drücken Sie 'D' oder 'K', um die nächste Aufgabe zu starten. </p>","68","","","","","","","","","",""
"","html-keyboard-response","139","509699","0.0-10.0-0.0","kqo3uey7hs","many_one","0","direct_first","1","er05us30","0","20","1","1","3","1","","0","1","0","null","","","<div style=""font-size:60px;"">+</div>","null","","","","","","","","","",""
"","html-keyboard-response","140","509795","0.0-10.0-1.0","kqo3uey7hs","many_one","0","direct_first","1","er05us30","0","20","1","1","3","1","","0","1","0","null","","","<img src = 'category2/CS7.png' width = '100%;'>","null","","","","","","","","","",""
"","html-keyboard-response","141","510055","0.0-10.0-2.0","kqo3uey7hs","many_one","0","direct_first","1","er05us30","0","20","1","1","3","1","","0","1","0","null","","","<img src = 'targets/5.png' width = '100%;'>","null","","","","","","","","","",""
"","html-keyboard-response","142","514915","0.0-10.0-3.0","kqo3uey7hs","many_one","0","direct_first","1","er05us30","0","20","1","1","3","1","","0","1","0","4857","","","<img src = 'targets/mask.png' width = '100%;'>","75","pos","CS","CS","2","category2/CS7.png","","targets/5.png","indirect","1","0"
"","html-keyboard-response","143","516422","0.0-10.0-0.1","kqo3uey7hs","many_one","0","direct_first","1","er05us30","0","20","1","1","3","1","","0","1","0","null","","","<div style=""font-size:60px;"">+</div>","null","","","","","","","","","",""
"","html-keyboard-response","144","516527","0.0-10.0-1.1","kqo3uey7hs","many_one","0","direct_first","1","er05us30","0","20","1","1","3","1","","0","1","0","null","","","<img src = 'category4/CS10.png' width = '100%;'>","null","","","","","","","","","",""
"","html-keyboard-response","145","516796","0.0-10.0-2.1","kqo3uey7hs","many_one","0","direct_first","1","er05us30","0","20","1","1","3","1","","0","1","0","null","","","<img src = 'targets/27.png' width = '100%;'>","null","","","","","","","","","",""
"","html-keyboard-response","146","518242","0.0-10.0-3.1","kqo3uey7hs","many_one","0","direct_first","1","er05us30","0","20","1","1","3","1","","0","1","0","1445","","","<img src = 'targets/mask.png' width = '100%;'>","75","pos","CS","CS","4","category4/CS10.png","","targets/27.png","indirect","1","1"
"","html-keyboard-response","147","519766","0.0-10.0-0.2","kqo3uey7hs","many_one","0","direct_first","1","er05us30","0","20","1","1","3","1","","0","1","0","null","","","<div style=""font-size:60px;"">+</div>","null","","","","","","","","","",""
"","html-keyboard-response","148","519872","0.0-10.0-1.2","kqo3uey7hs","many_one","0","direct_first","1","er05us30","0","20","1","1","3","1","","0","1","0","null","","","<img src = 'category3/CS3.png' width = '100%;'>","null","","","","","","","","","",""
"","html-keyboard-response","149","520131","0.0-10.0-2.2","kqo3uey7hs","many_one","0","direct_first","1","er05us30","0","20","1","1","3","1","","0","1","0","null","","","<img src = 'targets/19.png' width = '100%;'>","null","","","","","","","","","",""
"","html-keyboard-response","150","523045","0.0-10.0-3.2","kqo3uey7hs","many_one","0","direct_first","1","er05us30","0","20","1","1","3","1","","0","1","0","2911","","","<img src = 'targets/mask.png' width = '100%;'>","75","neg","CS","CS","3","category3/CS3.png","","targets/19.png","indirect","1","2"
"","html-keyboard-response","151","524562","0.0-10.0-0.3","kqo3uey7hs","many_one","0","direct_first","1","er05us30","0","20","1","1","3","1","","0","1","0","null","","","<div style=""font-size:60px;"">+</div>","null","","","","","","","","","",""
"","html-keyboard-response","152","524669","0.0-10.0-1.3","kqo3uey7hs","many_one","0","direct_first","1","er05us30","0","20","1","1","3","1","","0","1","0","null","","","<img src = 'category3/CS7.png' width = '100%;'>","null","","","","","","","","","",""
"","html-keyboard-response","153","524931","0.0-10.0-2.3","kqo3uey7hs","many_one","0","direct_first","1","er05us30","0","20","1","1","3","1","","0","1","0","null","","","<img src = 'targets/10.png' width = '100%;'>","null","","","","","","","","","",""
"","html-keyboard-response","154","525754","0.0-10.0-3.3","kqo3uey7hs","many_one","0","direct_first","1","er05us30","0","20","1","1","3","1","","0","1","0","820","","","<img src = 'targets/mask.png' width = '100%;'>","68","neg","CS","CS","3","category3/CS7.png","","targets/10.png","indirect","0","3"
"","html-keyboard-response","155","527272","0.0-10.0-0.4","kqo3uey7hs","many_one","0","direct_first","1","er05us30","0","20","1","1","3","1","","0","1","0","null","","","<div style=""font-size:60px;"">+</div>","null","","","","","","","","","",""
"","html-keyboard-response","156","527375","0.0-10.0-1.4","kqo3uey7hs","many_one","0","direct_first","1","er05us30","0","20","1","1","3","1","","0","1","0","null","","","<img src = 'category3/CS1.png' width = '100%;'>","null","","","","","","","","","",""
"","html-keyboard-response","157","527649","0.0-10.0-2.4","kqo3uey7hs","many_one","0","direct_first","1","er05us30","0","20","1","1","3","1","","0","1","0","null","","","<img src = 'targets/26.png' width = '100%;'>","null","","","","","","","","","",""
"","html-keyboard-response","158","530624","0.0-10.0-3.4","kqo3uey7hs","many_one","0","direct_first","1","er05us30","0","20","1","1","3","1","","0","1","0","2973","","","<img src = 'targets/mask.png' width = '100%;'>","68","neg","CS","CS","3","category3/CS1.png","","targets/26.png","indirect","0","4"
"","html-keyboard-response","159","532138","0.0-10.0-0.5","kqo3uey7hs","many_one","0","direct_first","1","er05us30","0","20","1","1","3","1","","0","1","0","null","","","<div style=""font-size:60px;"">+</div>","null","","","","","","","","","",""
"","html-keyboard-response","160","532232","0.0-10.0-1.5","kqo3uey7hs","many_one","0","direct_first","1","er05us30","0","20","1","1","3","1","","0","1","0","null","","","<img src = 'category4/CS8.png' width = '100%;'>","null","","","","","","","","","",""
"","html-keyboard-response","161","532496","0.0-10.0-2.5","kqo3uey7hs","many_one","0","direct_first","1","er05us30","0","20","1","1","3","1","","0","1","0","null","","","<img src = 'targets/43.png' width = '100%;'>","null","","","","","","","","","",""
"","html-keyboard-response","162","533217","0.0-10.0-3.5","kqo3uey7hs","many_one","0","direct_first","1","er05us30","0","20","1","1","3","1","","0","1","0","719","","","<img src = 'targets/mask.png' width = '100%;'>","75","pos","CS","CS","4","category4/CS8.png","","targets/43.png","indirect","1","5"
"","html-keyboard-response","163","534729","0.0-10.0-0.6","kqo3uey7hs","many_one","0","direct_first","1","er05us30","0","20","1","1","3","1","","0","1","0","null","","","<div style=""font-size:60px;"">+</div>","null","","","","","","","","","",""
"","html-keyboard-response","164","534836","0.0-10.0-1.6","kqo3uey7hs","many_one","0","direct_first","1","er05us30","0","20","1","1","3","1","","0","1","0","null","","","<img src = 'category3/CS4.png' width = '100%;'>","null","","","","","","","","","",""
"","html-keyboard-response","165","535110","0.0-10.0-2.6","kqo3uey7hs","many_one","0","direct_first","1","er05us30","0","20","1","1","3","1","","0","1","0","null","","","<img src = 'targets/41.png' width = '100%;'>","null","","","","","","","","","",""
"","html-keyboard-response","166","536214","0.0-10.0-3.6","kqo3uey7hs","many_one","0","direct_first","1","er05us30","0","20","1","1","3","1","","0","1","0","1104","","","<img src = 'targets/mask.png' width = '100%;'>","68","neg","GS","GSold","3","category3/CS4.png","","targets/41.png","indirect","0","6"
"","html-keyboard-response","167","537736","0.0-10.0-0.7","kqo3uey7hs","many_one","0","direct_first","1","er05us30","0","20","1","1","3","1","","0","1","0","null","","","<div style=""font-size:60px;"">+</div>","null","","","","","","","","","",""
"","html-keyboard-response","168","537842","0.0-10.0-1.7","kqo3uey7hs","many_one","0","direct_first","1","er05us30","0","20","1","1","3","1","","0","1","0","null","","","<img src = 'category2/CS3.png' width = '100%;'>","null","","","","","","","","","",""
"","html-keyboard-response","169","538119","0.0-10.0-2.7","kqo3uey7hs","many_one","0","direct_first","1","er05us30","0","20","1","1","3","1","","0","1","0","null","","","<img src = 'targets/40.png' width = '100%;'>","null","","","","","","","","","",""
"","html-keyboard-response","170","539248","0.0-10.0-3.7","kqo3uey7hs","many_one","0","direct_first","1","er05us30","0","20","1","1","3","1","","0","1","0","1127","","","<img src = 'targets/mask.png' width = '100%;'>","68","pos","CS","CS","2","category2/CS3.png","","targets/40.png","indirect","0","7"
"","html-keyboard-response","171","540772","0.0-10.0-0.8","kqo3uey7hs","many_one","0","direct_first","1","er05us30","0","20","1","1","3","1","","0","1","0","null","","","<div style=""font-size:60px;"">+</div>","null","","","","","","","","","",""
"","html-keyboard-response","172","540865","0.0-10.0-1.8","kqo3uey7hs","many_one","0","direct_first","1","er05us30","0","20","1","1","3","1","","0","1","0","null","","","<img src = 'category3/CS5.png' width = '100%;'>","null","","","","","","","","","",""
"","html-keyboard-response","173","541136","0.0-10.0-2.8","kqo3uey7hs","many_one","0","direct_first","1","er05us30","0","20","1","1","3","1","","0","1","0","null","","","<img src = 'targets/47.png' width = '100%;'>","null","","","","","","","","","",""
"","html-keyboard-response","174","541710","0.0-10.0-3.8","kqo3uey7hs","many_one","0","direct_first","1","er05us30","0","20","1","1","3","1","","0","1","0","571","","","<img src = 'targets/mask.png' width = '100%;'>","75","neg","CS","CS","3","category3/CS5.png","","targets/47.png","indirect","1","8"
"","html-keyboard-response","175","543235","0.0-10.0-0.9","kqo3uey7hs","many_one","0","direct_first","1","er05us30","0","20","1","1","3","1","","0","1","0","null","","","<div style=""font-size:60px;"">+</div>","null","","","","","","","","","",""
"","html-keyboard-response","176","543338","0.0-10.0-1.9","kqo3uey7hs","many_one","0","direct_first","1","er05us30","0","20","1","1","3","1","","0","1","0","null","","","<img src = 'category1/CS2.png' width = '100%;'>","null","","","","","","","","","",""
"","html-keyboard-response","177","543601","0.0-10.0-2.9","kqo3uey7hs","many_one","0","direct_first","1","er05us30","0","20","1","1","3","1","","0","1","0","null","","","<img src = 'targets/17.png' width = '100%;'>","null","","","","","","","","","",""
"","html-keyboard-response","178","544630","0.0-10.0-3.9","kqo3uey7hs","many_one","0","direct_first","1","er05us30","0","20","1","1","3","1","","0","1","0","1027","","","<img src = 'targets/mask.png' width = '100%;'>","68","neg","CS","CS","1","category1/CS2.png","","targets/17.png","indirect","0","9"
"","html-keyboard-response","179","546153","0.0-10.0-0.10","kqo3uey7hs","many_one","0","direct_first","1","er05us30","0","20","1","1","3","1","","0","1","0","null","","","<div style=""font-size:60px;"">+</div>","null","","","","","","","","","",""
"","html-keyboard-response","180","546252","0.0-10.0-1.10","kqo3uey7hs","many_one","0","direct_first","1","er05us30","0","20","1","1","3","1","","0","1","0","null","","","<img src = 'category1/CS3.png' width = '100%;'>","null","","","","","","","","","",""
"","html-keyboard-response","181","546522","0.0-10.0-2.10","kqo3uey7hs","many_one","0","direct_first","1","er05us30","0","20","1","1","3","1","","0","1","0","null","","","<img src = 'targets/46.png' width = '100%;'>","null","","","","","","","","","",""
"","html-keyboard-response","182","547757","0.0-10.0-3.10","kqo3uey7hs","many_one","0","direct_first","1","er05us30","0","20","1","1","3","1","","0","1","0","1233","","","<img src = 'targets/mask.png' width = '100%;'>","75","neg","CS","CS","1","category1/CS3.png","","targets/46.png","indirect","1","10"
"","html-keyboard-response","183","549276","0.0-10.0-0.11","kqo3uey7hs","many_one","0","direct_first","1","er05us30","0","20","1","1","3","1","","0","1","0","null","","","<div style=""font-size:60px;"">+</div>","null","","","","","","","","","",""
"","html-keyboard-response","184","549368","0.0-10.0-1.11","kqo3uey7hs","many_one","0","direct_first","1","er05us30","0","20","1","1","3","1","","0","1","0","null","","","<img src = 'category4/CS4.png' width = '100%;'>","null","","","","","","","","","",""
"","html-keyboard-response","185","549636","0.0-10.0-2.11","kqo3uey7hs","many_one","0","direct_first","1","er05us30","0","20","1","1","3","1","","0","1","0","null","","","<img src = 'targets/35.png' width = '100%;'>","null","","","","","","","","","",""
"","html-keyboard-response","186","550258","0.0-10.0-3.11","kqo3uey7hs","many_one","0","direct_first","1","er05us30","0","20","1","1","3","1","","0","1","0","619","","","<img src = 'targets/mask.png' width = '100%;'>","75","pos","CS","CS","4","category4/CS4.png","","targets/35.png","indirect","1","11"
"","html-keyboard-response","187","551779","0.0-10.0-0.12","kqo3uey7hs","many_one","0","direct_first","1","er05us30","0","20","1","1","3","1","","0","1","0","null","","","<div style=""font-size:60px;"">+</div>","null","","","","","","","","","",""
"","html-keyboard-response","188","551872","0.0-10.0-1.12","kqo3uey7hs","many_one","0","direct_first","1","er05us30","0","20","1","1","3","1","","0","1","0","null","","","<img src = 'category2/CS2.png' width = '100%;'>","null","","","","","","","","","",""
"","html-keyboard-response","189","552134","0.0-10.0-2.12","kqo3uey7hs","many_one","0","direct_first","1","er05us30","0","20","1","1","3","1","","0","1","0","null","","","<img src = 'targets/2.png' width = '100%;'>","null","","","","","","","","","",""
"","html-keyboard-response","190","552711","0.0-10.0-3.12","kqo3uey7hs","many_one","0","direct_first","1","er05us30","0","20","1","1","3","1","","0","1","0","576","","","<img src = 'targets/mask.png' width = '100%;'>","68","pos","CS","CS","2","category2/CS2.png","","targets/2.png","indirect","0","12"
"","html-keyboard-response","191","554236","0.0-10.0-0.13","kqo3uey7hs","many_one","0","direct_first","1","er05us30","0","20","1","1","3","1","","0","1","0","null","","","<div style=""font-size:60px;"">+</div>","null","","","","","","","","","",""
"","html-keyboard-response","192","554341","0.0-10.0-1.13","kqo3uey7hs","many_one","0","direct_first","1","er05us30","0","20","1","1","3","1","","0","1","0","null","","","<img src = 'category4/CS7.png' width = '100%;'>","null","","","","","","","","","",""
"","html-keyboard-response","193","554612","0.0-10.0-2.13","kqo3uey7hs","many_one","0","direct_first","1","er05us30","0","20","1","1","3","1","","0","1","0","null","","","<img src = 'targets/21.png' width = '100%;'>","null","","","","","","","","","",""
"","html-keyboard-response","194","555326","0.0-10.0-3.13","kqo3uey7hs","many_one","0","direct_first","1","er05us30","0","20","1","1","3","1","","0","1","0","713","","","<img src = 'targets/mask.png' width = '100%;'>","75","pos","CS","CS","4","category4/CS7.png","","targets/21.png","indirect","1","13"
"","html-keyboard-response","195","556834","0.0-10.0-0.14","kqo3uey7hs","many_one","0","direct_first","1","er05us30","0","20","1","1","3","1","","0","1","0","null","","","<div style=""font-size:60px;"">+</div>","null","","","","","","","","","",""
"","html-keyboard-response","196","556926","0.0-10.0-1.14","kqo3uey7hs","many_one","0","direct_first","1","er05us30","0","20","1","1","3","1","","0","1","0","null","","","<img src = 'category3/CS8.png' width = '100%;'>","null","","","","","","","","","",""
"","html-keyboard-response","197","557194","0.0-10.0-2.14","kqo3uey7hs","many_one","0","direct_first","1","er05us30","0","20","1","1","3","1","","0","1","0","null","","","<img src = 'targets/15.png' width = '100%;'>","null","","","","","","","","","",""
"","html-keyboard-response","198","558404","0.0-10.0-3.14","kqo3uey7hs","many_one","0","direct_first","1","er05us30","0","20","1","1","3","1","","0","1","0","1209","","","<img src = 'targets/mask.png' width = '100%;'>","68","neg","CS","CS","3","category3/CS8.png","","targets/15.png","indirect","0","14"
"","html-keyboard-response","199","559925","0.0-10.0-0.15","kqo3uey7hs","many_one","0","direct_first","1","er05us30","0","20","1","1","3","1","","0","1","0","null","","","<div style=""font-size:60px;"">+</div>","null","","","","","","","","","",""
"","html-keyboard-response","200","560019","0.0-10.0-1.15","kqo3uey7hs","many_one","0","direct_first","1","er05us30","0","20","1","1","3","1","","0","1","0","null","","","<img src = 'category3/CS2.png' width = '100%;'>","null","","","","","","","","","",""
"","html-keyboard-response","201","560296","0.0-10.0-2.15","kqo3uey7hs","many_one","0","direct_first","1","er05us30","0","20","1","1","3","1","","0","1","0","null","","","<img src = 'targets/38.png' width = '100%;'>","null","","","","","","","","","",""
"","html-keyboard-response","202","561029","0.0-10.0-3.15","kqo3uey7hs","many_one","0","direct_first","1","er05us30","0","20","1","1","3","1","","0","1","0","731","","","<img src = 'targets/mask.png' width = '100%;'>","75","neg","GS","GSold","3","category3/CS2.png","","targets/38.png","indirect","1","15"
"","html-keyboard-response","203","562545","0.0-10.0-0.16","kqo3uey7hs","many_one","0","direct_first","1","er05us30","0","20","1","1","3","1","","0","1","0","null","","","<div style=""font-size:60px;"">+</div>","null","","","","","","","","","",""
"","html-keyboard-response","204","562649","0.0-10.0-1.16","kqo3uey7hs","many_one","0","direct_first","1","er05us30","0","20","1","1","3","1","","0","1","0","null","","","<img src = 'category1/CS1.png' width = '100%;'>","null","","","","","","","","","",""
"","html-keyboard-response","205","562926","0.0-10.0-2.16","kqo3uey7hs","many_one","0","direct_first","1","er05us30","0","20","1","1","3","1","","0","1","0","null","","","<img src = 'targets/39.png' width = '100%;'>","null","","","","","","","","","",""
"","html-keyboard-response","206","564413","0.0-10.0-3.16","kqo3uey7hs","many_one","0","direct_first","1","er05us30","0","20","1","1","3","1","","0","1","0","1485","","","<img src = 'targets/mask.png' width = '100%;'>","68","neg","CS","CS","1","category1/CS1.png","","targets/39.png","indirect","0","16"
"","html-keyboard-response","207","565928","0.0-10.0-0.17","kqo3uey7hs","many_one","0","direct_first","1","er05us30","0","20","1","1","3","1","","0","1","0","null","","","<div style=""font-size:60px;"">+</div>","null","","","","","","","","","",""
"","html-keyboard-response","208","566022","0.0-10.0-1.17","kqo3uey7hs","many_one","0","direct_first","1","er05us30","0","20","1","1","3","1","","0","1","0","null","","","<img src = 'category1/CS8.png' width = '100%;'>","null","","","","","","","","","",""
"","html-keyboard-response","209","566299","0.0-10.0-2.17","kqo3uey7hs","many_one","0","direct_first","1","er05us30","0","20","1","1","3","1","","0","1","0","null","","","<img src = 'targets/22.png' width = '100%;'>","null","","","","","","","","","",""
"","html-keyboard-response","210","567009","0.0-10.0-3.17","kqo3uey7hs","many_one","0","direct_first","1","er05us30","0","20","1","1","3","1","","0","1","0","708","","","<img src = 'targets/mask.png' width = '100%;'>","75","neg","CS","CS","1","category1/CS8.png","","targets/22.png","indirect","1","17"
"","html-keyboard-response","211","568537","0.0-10.0-0.18","kqo3uey7hs","many_one","0","direct_first","1","er05us30","0","20","1","1","3","1","","0","1","0","null","","","<div style=""font-size:60px;"">+</div>","null","","","","","","","","","",""
"","html-keyboard-response","212","568628","0.0-10.0-1.18","kqo3uey7hs","many_one","0","direct_first","1","er05us30","0","20","1","1","3","1","","0","1","0","null","","","<img src = 'category2/CS6.png' width = '100%;'>","null","","","","","","","","","",""
"","html-keyboard-response","213","568892","0.0-10.0-2.18","kqo3uey7hs","many_one","0","direct_first","1","er05us30","0","20","1","1","3","1","","0","1","0","null","","","<img src = 'targets/28.png' width = '100%;'>","null","","","","","","","","","",""
"","html-keyboard-response","214","569646","0.0-10.0-3.18","kqo3uey7hs","many_one","0","direct_first","1","er05us30","0","20","1","1","3","1","","0","1","0","751","","","<img src = 'targets/mask.png' width = '100%;'>","68","pos","GS","GSold","2","category2/CS6.png","","targets/28.png","indirect","0","18"
"","html-keyboard-response","215","571159","0.0-10.0-0.19","kqo3uey7hs","many_one","0","direct_first","1","er05us30","0","20","1","1","3","1","","0","1","0","null","","","<div style=""font-size:60px;"">+</div>","null","","","","","","","","","",""
"","html-keyboard-response","216","571251","0.0-10.0-1.19","kqo3uey7hs","many_one","0","direct_first","1","er05us30","0","20","1","1","3","1","","0","1","0","null","","","<img src = 'category1/CS5.png' width = '100%;'>","null","","","","","","","","","",""
"","html-keyboard-response","217","571523","0.0-10.0-2.19","kqo3uey7hs","many_one","0","direct_first","1","er05us30","0","20","1","1","3","1","","0","1","0","null","","","<img src = 'targets/33.png' width = '100%;'>","null","","","","","","","","","",""
"","html-keyboard-response","218","572159","0.0-10.0-3.19","kqo3uey7hs","many_one","0","direct_first","1","er05us30","0","20","1","1","3","1","","0","1","0","635","","","<img src = 'targets/mask.png' width = '100%;'>","75","neg","CS","CS","1","category1/CS5.png","","targets/33.png","indirect","1","19"
"","html-keyboard-response","219","573667","0.0-10.0-0.20","kqo3uey7hs","many_one","0","direct_first","1","er05us30","0","20","1","1","3","1","","0","1","0","null","","","<div style=""font-size:60px;"">+</div>","null","","","","","","","","","",""
"","html-keyboard-response","220","573759","0.0-10.0-1.20","kqo3uey7hs","many_one","0","direct_first","1","er05us30","0","20","1","1","3","1","","0","1","0","null","","","<img src = 'category2/CS10.png' width = '100%;'>","null","","","","","","","","","",""
"","html-keyboard-response","221","574036","0.0-10.0-2.20","kqo3uey7hs","many_one","0","direct_first","1","er05us30","0","20","1","1","3","1","","0","1","0","null","","","<img src = 'targets/37.png' width = '100%;'>","null","","","","","","","","","",""
"","html-keyboard-response","222","575313","0.0-10.0-3.20","kqo3uey7hs","many_one","0","direct_first","1","er05us30","0","20","1","1","3","1","","0","1","0","1276","","","<img src = 'targets/mask.png' width = '100%;'>","68","pos","CS","CS","2","category2/CS10.png","","targets/37.png","indirect","0","20"
"","html-keyboard-response","223","576839","0.0-10.0-0.21","kqo3uey7hs","many_one","0","direct_first","1","er05us30","0","20","1","1","3","1","","0","1","0","null","","","<div style=""font-size:60px;"">+</div>","null","","","","","","","","","",""
"","html-keyboard-response","224","576931","0.0-10.0-1.21","kqo3uey7hs","many_one","0","direct_first","1","er05us30","0","20","1","1","3","1","","0","1","0","null","","","<img src = 'category3/CS10.png' width = '100%;'>","null","","","","","","","","","",""
"","html-keyboard-response","225","577195","0.0-10.0-2.21","kqo3uey7hs","many_one","0","direct_first","1","er05us30","0","20","1","1","3","1","","0","1","0","null","","","<img src = 'targets/25.png' width = '100%;'>","null","","","","","","","","","",""
"","html-keyboard-response","226","577798","0.0-10.0-3.21","kqo3uey7hs","many_one","0","direct_first","1","er05us30","0","20","1","1","3","1","","0","1","0","602","","","<img src = 'targets/mask.png' width = '100%;'>","75","neg","GS","GSold","3","category3/CS10.png","","targets/25.png","indirect","1","21"
"","html-keyboard-response","227","579321","0.0-10.0-0.22","kqo3uey7hs","many_one","0","direct_first","1","er05us30","0","20","1","1","3","1","","0","1","0","null","","","<div style=""font-size:60px;"">+</div>","null","","","","","","","","","",""
"","html-keyboard-response","228","579425","0.0-10.0-1.22","kqo3uey7hs","many_one","0","direct_first","1","er05us30","0","20","1","1","3","1","","0","1","0","null","","","<img src = 'category2/CS4.png' width = '100%;'>","null","","","","","","","","","",""
"","html-keyboard-response","229","579682","0.0-10.0-2.22","kqo3uey7hs","many_one","0","direct_first","1","er05us30","0","20","1","1","3","1","","0","1","0","null","","","<img src = 'targets/32.png' width = '100%;'>","null","","","","","","","","","",""
"","html-keyboard-response","230","580253","0.0-10.0-3.22","kqo3uey7hs","many_one","0","direct_first","1","er05us30","0","20","1","1","3","1","","0","1","0","569","","","<img src = 'targets/mask.png' width = '100%;'>","75","pos","CS","CS","2","category2/CS4.png","","targets/32.png","indirect","1","22"
"","html-keyboard-response","231","581782","0.0-10.0-0.23","kqo3uey7hs","many_one","0","direct_first","1","er05us30","0","20","1","1","3","1","","0","1","0","null","","","<div style=""font-size:60px;"">+</div>","null","","","","","","","","","",""
"","html-keyboard-response","232","581887","0.0-10.0-1.23","kqo3uey7hs","many_one","0","direct_first","1","er05us30","0","20","1","1","3","1","","0","1","0","null","","","<img src = 'category4/CS2.png' width = '100%;'>","null","","","","","","","","","",""
"","html-keyboard-response","233","582162","0.0-10.0-2.23","kqo3uey7hs","many_one","0","direct_first","1","er05us30","0","20","1","1","3","1","","0","1","0","null","","","<img src = 'targets/24.png' width = '100%;'>","null","","","","","","","","","",""
"","html-keyboard-response","234","582685","0.0-10.0-3.23","kqo3uey7hs","many_one","0","direct_first","1","er05us30","0","20","1","1","3","1","","0","1","0","522","","","<img src = 'targets/mask.png' width = '100%;'>","68","pos","CS","CS","4","category4/CS2.png","","targets/24.png","indirect","0","23"
"","survey-html-form","235","586132","0.0-11.0","kqo3uey7hs","many_one","0","direct_first","1","er05us30","0","20","1","1","3","1","","0","1","0","2934","","{}","","","","","","","","","","","",""
"","html-keyboard-response","236","589142","0.0-12.0-0.0","kqo3uey7hs","many_one","0","direct_first","1","er05us30","0","20","1","1","3","1","","0","1","0","null","","","<div style=""font-size:60px;"">+</div>","null","","","","","","","","","",""
"","html-keyboard-response","237","589245","0.0-12.0-1.0","kqo3uey7hs","many_one","0","direct_first","1","er05us30","0","20","1","1","3","1","","0","1","0","null","","","<img src = 'category4/GS3.png' width = '100%;'>","null","","","","","","","","","",""
"","html-keyboard-response","238","589514","0.0-12.0-2.0","kqo3uey7hs","many_one","0","direct_first","1","er05us30","0","20","1","1","3","1","","0","1","0","null","","","<img src = 'targets/7.png' width = '100%;'>","null","","","","","","","","","",""
"","html-keyboard-response","239","590137","0.0-12.0-3.0","kqo3uey7hs","many_one","0","direct_first","1","er05us30","0","20","1","1","3","1","","0","1","0","622","","","<img src = 'targets/mask.png' width = '100%;'>","68","pos","GS","GSnew","4","category4/GS3.png","","targets/7.png","indirect","0","24"
"","html-keyboard-response","240","591658","0.0-12.0-0.1","kqo3uey7hs","many_one","0","direct_first","1","er05us30","0","20","1","1","3","1","","0","1","0","null","","","<div style=""font-size:60px;"">+</div>","null","","","","","","","","","",""
"","html-keyboard-response","241","591760","0.0-12.0-1.1","kqo3uey7hs","many_one","0","direct_first","1","er05us30","0","20","1","1","3","1","","0","1","0","null","","","<img src = 'category4/CS6.png' width = '100%;'>","null","","","","","","","","","",""
"","html-keyboard-response","242","592040","0.0-12.0-2.1","kqo3uey7hs","many_one","0","direct_first","1","er05us30","0","20","1","1","3","1","","0","1","0","null","","","<img src = 'targets/8.png' width = '100%;'>","null","","","","","","","","","",""
"","html-keyboard-response","243","592481","0.0-12.0-3.1","kqo3uey7hs","many_one","0","direct_first","1","er05us30","0","20","1","1","3","1","","0","1","0","439","","","<img src = 'targets/mask.png' width = '100%;'>","75","pos","GS","GSold","4","category4/CS6.png","","targets/8.png","indirect","1","25"
"","html-keyboard-response","244","593987","0.0-12.0-0.2","kqo3uey7hs","many_one","0","direct_first","1","er05us30","0","20","1","1","3","1","","0","1","0","null","","","<div style=""font-size:60px;"">+</div>","null","","","","","","","","","",""
"","html-keyboard-response","245","594092","0.0-12.0-1.2","kqo3uey7hs","many_one","0","direct_first","1","er05us30","0","20","1","1","3","1","","0","1","0","null","","","<img src = 'category4/GS2.png' width = '100%;'>","null","","","","","","","","","",""
"","html-keyboard-response","246","594368","0.0-12.0-2.2","kqo3uey7hs","many_one","0","direct_first","1","er05us30","0","20","1","1","3","1","","0","1","0","null","","","<img src = 'targets/1.png' width = '100%;'>","null","","","","","","","","","",""
"","html-keyboard-response","247","594882","0.0-12.0-3.2","kqo3uey7hs","many_one","0","direct_first","1","er05us30","0","20","1","1","3","1","","0","1","0","512","","","<img src = 'targets/mask.png' width = '100%;'>","75","pos","GS","GSnew","4","category4/GS2.png","","targets/1.png","indirect","1","26"
"","html-keyboard-response","248","596398","0.0-12.0-0.3","kqo3uey7hs","many_one","0","direct_first","1","er05us30","0","20","1","1","3","1","","0","1","0","null","","","<div style=""font-size:60px;"">+</div>","null","","","","","","","","","",""
"","html-keyboard-response","249","596489","0.0-12.0-1.3","kqo3uey7hs","many_one","0","direct_first","1","er05us30","0","20","1","1","3","1","","0","1","0","null","","","<img src = 'category4/GS1.png' width = '100%;'>","null","","","","","","","","","",""
"","html-keyboard-response","250","596758","0.0-12.0-2.3","kqo3uey7hs","many_one","0","direct_first","1","er05us30","0","20","1","1","3","1","","0","1","0","null","","","<img src = 'targets/34.png' width = '100%;'>","null","","","","","","","","","",""
"","html-keyboard-response","251","597359","0.0-12.0-3.3","kqo3uey7hs","many_one","0","direct_first","1","er05us30","0","20","1","1","3","1","","0","1","0","598","","","<img src = 'targets/mask.png' width = '100%;'>","68","pos","GS","GSnew","4","category4/GS1.png","","targets/34.png","indirect","0","27"
"","html-keyboard-response","252","598866","0.0-12.0-0.4","kqo3uey7hs","many_one","0","direct_first","1","er05us30","0","20","1","1","3","1","","0","1","0","null","","","<div style=""font-size:60px;"">+</div>","null","","","","","","","","","",""
"","html-keyboard-response","253","598972","0.0-12.0-1.4","kqo3uey7hs","many_one","0","direct_first","1","er05us30","0","20","1","1","3","1","","0","1","0","null","","","<img src = 'category3/GS3.png' width = '100%;'>","null","","","","","","","","","",""
"","html-keyboard-response","254","599243","0.0-12.0-2.4","kqo3uey7hs","many_one","0","direct_first","1","er05us30","0","20","1","1","3","1","","0","1","0","null","","","<img src = 'targets/16.png' width = '100%;'>","null","","","","","","","","","",""
"","html-keyboard-response","255","599897","0.0-12.0-3.4","kqo3uey7hs","many_one","0","direct_first","1","er05us30","0","20","1","1","3","1","","0","1","0","653","","","<img src = 'targets/mask.png' width = '100%;'>","68","neg","GS","GSnew","3","category3/GS3.png","","targets/16.png","indirect","0","28"
"","html-keyboard-response","256","601425","0.0-12.0-0.5","kqo3uey7hs","many_one","0","direct_first","1","er05us30","0","20","1","1","3","1","","0","1","0","null","","","<div style=""font-size:60px;"">+</div>","null","","","","","","","","","",""
"","html-keyboard-response","257","601529","0.0-12.0-1.5","kqo3uey7hs","many_one","0","direct_first","1","er05us30","0","20","1","1","3","1","","0","1","0","null","","","<img src = 'category1/CS7.png' width = '100%;'>","null","","","","","","","","","",""
"","html-keyboard-response","258","601807","0.0-12.0-2.5","kqo3uey7hs","many_one","0","direct_first","1","er05us30","0","20","1","1","3","1","","0","1","0","null","","","<img src = 'targets/42.png' width = '100%;'>","null","","","","","","","","","",""
"","html-keyboard-response","259","602308","0.0-12.0-3.5","kqo3uey7hs","many_one","0","direct_first","1","er05us30","0","20","1","1","3","1","","0","1","0","499","","","<img src = 'targets/mask.png' width = '100%;'>","75","neg","GS","GSold","1","category1/CS7.png","","targets/42.png","indirect","1","29"
"","html-keyboard-response","260","603822","0.0-12.0-0.6","kqo3uey7hs","many_one","0","direct_first","1","er05us30","0","20","1","1","3","1","","0","1","0","null","","","<div style=""font-size:60px;"">+</div>","null","","","","","","","","","",""
"","html-keyboard-response","261","603927","0.0-12.0-1.6","kqo3uey7hs","many_one","0","direct_first","1","er05us30","0","20","1","1","3","1","","0","1","0","null","","","<img src = 'category1/GS2.png' width = '100%;'>","null","","","","","","","","","",""
"","html-keyboard-response","262","604199","0.0-12.0-2.6","kqo3uey7hs","many_one","0","direct_first","1","er05us30","0","20","1","1","3","1","","0","1","0","null","","","<img src = 'targets/11.png' width = '100%;'>","null","","","","","","","","","",""
"","html-keyboard-response","263","604690","0.0-12.0-3.6","kqo3uey7hs","many_one","0","direct_first","1","er05us30","0","20","1","1","3","1","","0","1","0","490","","","<img src = 'targets/mask.png' width = '100%;'>","75","neg","GS","GSnew","1","category1/GS2.png","","targets/11.png","indirect","1","30"
"","html-keyboard-response","264","606201","0.0-12.0-0.7","kqo3uey7hs","many_one","0","direct_first","1","er05us30","0","20","1","1","3","1","","0","1","0","null","","","<div style=""font-size:60px;"">+</div>","null","","","","","","","","","",""
"","html-keyboard-response","265","606298","0.0-12.0-1.7","kqo3uey7hs","many_one","0","direct_first","1","er05us30","0","20","1","1","3","1","","0","1","0","null","","","<img src = 'category1/CS9.png' width = '100%;'>","null","","","","","","","","","",""
"","html-keyboard-response","266","606569","0.0-12.0-2.7","kqo3uey7hs","many_one","0","direct_first","1","er05us30","0","20","1","1","3","1","","0","1","0","null","","","<img src = 'targets/20.png' width = '100%;'>","null","","","","","","","","","",""
"","html-keyboard-response","267","606990","0.0-12.0-3.7","kqo3uey7hs","many_one","0","direct_first","1","er05us30","0","20","1","1","3","1","","0","1","0","419","","","<img src = 'targets/mask.png' width = '100%;'>","68","neg","GS","GSold","1","category1/CS9.png","","targets/20.png","indirect","0","31"
"","html-keyboard-response","268","608496","0.0-12.0-0.8","kqo3uey7hs","many_one","0","direct_first","1","er05us30","0","20","1","1","3","1","","0","1","0","null","","","<div style=""font-size:60px;"">+</div>","null","","","","","","","","","",""
"","html-keyboard-response","269","608603","0.0-12.0-1.8","kqo3uey7hs","many_one","0","direct_first","1","er05us30","0","20","1","1","3","1","","0","1","0","null","","","<img src = 'category2/GS3.png' width = '100%;'>","null","","","","","","","","","",""
"","html-keyboard-response","270","608879","0.0-12.0-2.8","kqo3uey7hs","many_one","0","direct_first","1","er05us30","0","20","1","1","3","1","","0","1","0","null","","","<img src = 'targets/6.png' width = '100%;'>","null","","","","","","","","","",""
"","html-keyboard-response","271","609618","0.0-12.0-3.8","kqo3uey7hs","many_one","0","direct_first","1","er05us30","0","20","1","1","3","1","","0","1","0","739","","","<img src = 'targets/mask.png' width = '100%;'>","68","pos","GS","GSnew","2","category2/GS3.png","","targets/6.png","indirect","0","32"
"","html-keyboard-response","272","611135","0.0-12.0-0.9","kqo3uey7hs","many_one","0","direct_first","1","er05us30","0","20","1","1","3","1","","0","1","0","null","","","<div style=""font-size:60px;"">+</div>","null","","","","","","","","","",""
"","html-keyboard-response","273","611239","0.0-12.0-1.9","kqo3uey7hs","many_one","0","direct_first","1","er05us30","0","20","1","1","3","1","","0","1","0","null","","","<img src = 'category1/GS3.png' width = '100%;'>","null","","","","","","","","","",""
"","html-keyboard-response","274","611507","0.0-12.0-2.9","kqo3uey7hs","many_one","0","direct_first","1","er05us30","0","20","1","1","3","1","","0","1","0","null","","","<img src = 'targets/29.png' width = '100%;'>","null","","","","","","","","","",""
"","html-keyboard-response","275","613289","0.0-12.0-3.9","kqo3uey7hs","many_one","0","direct_first","1","er05us30","0","20","1","1","3","1","","0","1","0","1782","","","<img src = 'targets/mask.png' width = '100%;'>","75","neg","GS","GSnew","1","category1/GS3.png","","targets/29.png","indirect","1","33"
"","html-keyboard-response","276","614803","0.0-12.0-0.10","kqo3uey7hs","many_one","0","direct_first","1","er05us30","0","20","1","1","3","1","","0","1","0","null","","","<div style=""font-size:60px;"">+</div>","null","","","","","","","","","",""
"","html-keyboard-response","277","614903","0.0-12.0-1.10","kqo3uey7hs","many_one","0","direct_first","1","er05us30","0","20","1","1","3","1","","0","1","0","null","","","<img src = 'category2/men.png' width = '100%;'>","null","","","","","","","","","",""
"","html-keyboard-response","278","615172","0.0-12.0-2.10","kqo3uey7hs","many_one","0","direct_first","1","er05us30","0","20","1","1","3","1","","0","1","0","null","","","<img src = 'targets/12.png' width = '100%;'>","null","","","","","","","","","",""
"","html-keyboard-response","279","615785","0.0-12.0-3.10","kqo3uey7hs","many_one","0","direct_first","1","er05us30","0","20","1","1","3","1","","0","1","0","612","","","<img src = 'targets/mask.png' width = '100%;'>","75","pos","GS","abstract","2","category2/men.png","","targets/12.png","indirect","1","34"
"","html-keyboard-response","280","617308","0.0-12.0-0.11","kqo3uey7hs","many_one","0","direct_first","1","er05us30","0","20","1","1","3","1","","0","1","0","null","","","<div style=""font-size:60px;"">+</div>","null","","","","","","","","","",""
"","html-keyboard-response","281","617401","0.0-12.0-1.11","kqo3uey7hs","many_one","0","direct_first","1","er05us30","0","20","1","1","3","1","","0","1","0","null","","","<img src = 'category3/GS2.png' width = '100%;'>","null","","","","","","","","","",""
"","html-keyboard-response","282","617677","0.0-12.0-2.11","kqo3uey7hs","many_one","0","direct_first","1","er05us30","0","20","1","1","3","1","","0","1","0","null","","","<img src = 'targets/23.png' width = '100%;'>","null","","","","","","","","","",""
"","html-keyboard-response","283","619265","0.0-12.0-3.11","kqo3uey7hs","many_one","0","direct_first","1","er05us30","0","20","1","1","3","1","","0","1","0","1585","","","<img src = 'targets/mask.png' width = '100%;'>","68","neg","GS","GSnew","3","category3/GS2.png","","targets/23.png","indirect","0","35"
"","html-keyboard-response","284","620787","0.0-12.0-0.12","kqo3uey7hs","many_one","0","direct_first","1","er05us30","0","20","1","1","3","1","","0","1","0","null","","","<div style=""font-size:60px;"">+</div>","null","","","","","","","","","",""
"","html-keyboard-response","285","620882","0.0-12.0-1.12","kqo3uey7hs","many_one","0","direct_first","1","er05us30","0","20","1","1","3","1","","0","1","0","null","","","<img src = 'category2/CS5.png' width = '100%;'>","null","","","","","","","","","",""
"","html-keyboard-response","286","621145","0.0-12.0-2.12","kqo3uey7hs","many_one","0","direct_first","1","er05us30","0","20","1","1","3","1","","0","1","0","null","","","<img src = 'targets/48.png' width = '100%;'>","null","","","","","","","","","",""
"","html-keyboard-response","287","621793","0.0-12.0-3.12","kqo3uey7hs","many_one","0","direct_first","1","er05us30","0","20","1","1","3","1","","0","1","0","647","","","<img src = 'targets/mask.png' width = '100%;'>","68","pos","GS","GSold","2","category2/CS5.png","","targets/48.png","indirect","0","36"
"","html-keyboard-response","288","623315","0.0-12.0-0.13","kqo3uey7hs","many_one","0","direct_first","1","er05us30","0","20","1","1","3","1","","0","1","0","null","","","<div style=""font-size:60px;"">+</div>","null","","","","","","","","","",""
"","html-keyboard-response","289","623409","0.0-12.0-1.13","kqo3uey7hs","many_one","0","direct_first","1","er05us30","0","20","1","1","3","1","","0","1","0","null","","","<img src = 'category1/CS4.png' width = '100%;'>","null","","","","","","","","","",""
"","html-keyboard-response","290","623682","0.0-12.0-2.13","kqo3uey7hs","many_one","0","direct_first","1","er05us30","0","20","1","1","3","1","","0","1","0","null","","","<img src = 'targets/31.png' width = '100%;'>","null","","","","","","","","","",""
"","html-keyboard-response","291","624407","0.0-12.0-3.13","kqo3uey7hs","many_one","0","direct_first","1","er05us30","0","20","1","1","3","1","","0","1","0","725","","","<img src = 'targets/mask.png' width = '100%;'>","75","neg","GS","GSold","1","category1/CS4.png","","targets/31.png","indirect","1","37"
"","html-keyboard-response","292","625928","0.0-12.0-0.14","kqo3uey7hs","many_one","0","direct_first","1","er05us30","0","20","1","1","3","1","","0","1","0","null","","","<div style=""font-size:60px;"">+</div>","null","","","","","","","","","",""
"","html-keyboard-response","293","626032","0.0-12.0-1.14","kqo3uey7hs","many_one","0","direct_first","1","er05us30","0","20","1","1","3","1","","0","1","0","null","","","<img src = 'category2/CS9.png' width = '100%;'>","null","","","","","","","","","",""
"","html-keyboard-response","294","626306","0.0-12.0-2.14","kqo3uey7hs","many_one","0","direct_first","1","er05us30","0","20","1","1","3","1","","0","1","0","null","","","<img src = 'targets/30.png' width = '100%;'>","null","","","","","","","","","",""
"","html-keyboard-response","295","627005","0.0-12.0-3.14","kqo3uey7hs","many_one","0","direct_first","1","er05us30","0","20","1","1","3","1","","0","1","0","697","","","<img src = 'targets/mask.png' width = '100%;'>","75","pos","GS","GSold","2","category2/CS9.png","","targets/30.png","indirect","1","38"
"","html-keyboard-response","296","628535","0.0-12.0-0.15","kqo3uey7hs","many_one","0","direct_first","1","er05us30","0","20","1","1","3","1","","0","1","0","null","","","<div style=""font-size:60px;"">+</div>","null","","","","","","","","","",""
"","html-keyboard-response","297","628642","0.0-12.0-1.15","kqo3uey7hs","many_one","0","direct_first","1","er05us30","0","20","1","1","3","1","","0","1","0","null","","","<img src = 'category2/GS2.png' width = '100%;'>","null","","","","","","","","","",""
"","html-keyboard-response","298","628922","0.0-12.0-2.15","kqo3uey7hs","many_one","0","direct_first","1","er05us30","0","20","1","1","3","1","","0","1","0","null","","","<img src = 'targets/18.png' width = '100%;'>","null","","","","","","","","","",""
"","html-keyboard-response","299","630061","0.0-12.0-3.15","kqo3uey7hs","many_one","0","direct_first","1","er05us30","0","20","1","1","3","1","","0","1","0","1139","","","<img src = 'targets/mask.png' width = '100%;'>","75","pos","GS","GSnew","2","category2/GS2.png","","targets/18.png","indirect","1","39"
"","html-keyboard-response","300","631587","0.0-12.0-0.16","kqo3uey7hs","many_one","0","direct_first","1","er05us30","0","20","1","1","3","1","","0","1","0","null","","","<div style=""font-size:60px;"">+</div>","null","","","","","","","","","",""
"","html-keyboard-response","301","631689","0.0-12.0-1.16","kqo3uey7hs","many_one","0","direct_first","1","er05us30","0","20","1","1","3","1","","0","1","0","null","","","<img src = 'category4/CS5.png' width = '100%;'>","null","","","","","","","","","",""
"","html-keyboard-response","302","631952","0.0-12.0-2.16","kqo3uey7hs","many_one","0","direct_first","1","er05us30","0","20","1","1","3","1","","0","1","0","null","","","<img src = 'targets/45.png' width = '100%;'>","null","","","","","","","","","",""
"","html-keyboard-response","303","632762","0.0-12.0-3.16","kqo3uey7hs","many_one","0","direct_first","1","er05us30","0","20","1","1","3","1","","0","1","0","807","","","<img src = 'targets/mask.png' width = '100%;'>","75","pos","GS","GSold","4","category4/CS5.png","","targets/45.png","indirect","1","40"
"","html-keyboard-response","304","634289","0.0-12.0-0.17","kqo3uey7hs","many_one","0","direct_first","1","er05us30","0","20","1","1","3","1","","0","1","0","null","","","<div style=""font-size:60px;"">+</div>","null","","","","","","","","","",""
"","html-keyboard-response","305","634393","0.0-12.0-1.17","kqo3uey7hs","many_one","0","direct_first","1","er05us30","0","20","1","1","3","1","","0","1","0","null","","","<img src = 'category1/GS1.png' width = '100%;'>","null","","","","","","","","","",""
"","html-keyboard-response","306","634656","0.0-12.0-2.17","kqo3uey7hs","many_one","0","direct_first","1","er05us30","0","20","1","1","3","1","","0","1","0","null","","","<img src = 'targets/13.png' width = '100%;'>","null","","","","","","","","","",""
"","html-keyboard-response","307","635513","0.0-12.0-3.17","kqo3uey7hs","many_one","0","direct_first","1","er05us30","0","20","1","1","3","1","","0","1","0","856","","","<img src = 'targets/mask.png' width = '100%;'>","75","neg","GS","GSnew","1","category1/GS1.png","","targets/13.png","indirect","1","41"
"","html-keyboard-response","308","637028","0.0-12.0-0.18","kqo3uey7hs","many_one","0","direct_first","1","er05us30","0","20","1","1","3","1","","0","1","0","null","","","<div style=""font-size:60px;"">+</div>","null","","","","","","","","","",""
"","html-keyboard-response","309","637131","0.0-12.0-1.18","kqo3uey7hs","many_one","0","direct_first","1","er05us30","0","20","1","1","3","1","","0","1","0","null","","","<img src = 'category1/ma.png' width = '100%;'>","null","","","","","","","","","",""
"","html-keyboard-response","310","637402","0.0-12.0-2.18","kqo3uey7hs","many_one","0","direct_first","1","er05us30","0","20","1","1","3","1","","0","1","0","null","","","<img src = 'targets/9.png' width = '100%;'>","null","","","","","","","","","",""
"","html-keyboard-response","311","638047","0.0-12.0-3.18","kqo3uey7hs","many_one","0","direct_first","1","er05us30","0","20","1","1","3","1","","0","1","0","644","","","<img src = 'targets/mask.png' width = '100%;'>","75","neg","GS","abstract","1","category1/ma.png","","targets/9.png","indirect","1","42"
"","html-keyboard-response","312","639557","0.0-12.0-0.19","kqo3uey7hs","many_one","0","direct_first","1","er05us30","0","20","1","1","3","1","","0","1","0","null","","","<div style=""font-size:60px;"">+</div>","null","","","","","","","","","",""
"","html-keyboard-response","313","639661","0.0-12.0-1.19","kqo3uey7hs","many_one","0","direct_first","1","er05us30","0","20","1","1","3","1","","0","1","0","null","","","<img src = 'category3/GS1.png' width = '100%;'>","null","","","","","","","","","",""
"","html-keyboard-response","314","639940","0.0-12.0-2.19","kqo3uey7hs","many_one","0","direct_first","1","er05us30","0","20","1","1","3","1","","0","1","0","null","","","<img src = 'targets/44.png' width = '100%;'>","null","","","","","","","","","",""
"","html-keyboard-response","315","640653","0.0-12.0-3.19","kqo3uey7hs","many_one","0","direct_first","1","er05us30","0","20","1","1","3","1","","0","1","0","711","","","<img src = 'targets/mask.png' width = '100%;'>","68","neg","GS","GSnew","3","category3/GS1.png","","targets/44.png","indirect","0","43"
"","html-keyboard-response","316","642174","0.0-12.0-0.20","kqo3uey7hs","many_one","0","direct_first","1","er05us30","0","20","1","1","3","1","","0","1","0","null","","","<div style=""font-size:60px;"">+</div>","null","","","","","","","","","",""
"","html-keyboard-response","317","642268","0.0-12.0-1.20","kqo3uey7hs","many_one","0","direct_first","1","er05us30","0","20","1","1","3","1","","0","1","0","null","","","<img src = 'category3/wang.png' width = '100%;'>","null","","","","","","","","","",""
"","html-keyboard-response","318","642529","0.0-12.0-2.20","kqo3uey7hs","many_one","0","direct_first","1","er05us30","0","20","1","1","3","1","","0","1","0","null","","","<img src = 'targets/14.png' width = '100%;'>","null","","","","","","","","","",""
"","html-keyboard-response","319","643248","0.0-12.0-3.20","kqo3uey7hs","many_one","0","direct_first","1","er05us30","0","20","1","1","3","1","","0","1","0","719","","","<img src = 'targets/mask.png' width = '100%;'>","68","neg","GS","abstract","3","category3/wang.png","","targets/14.png","indirect","0","44"
"","html-keyboard-response","320","644774","0.0-12.0-0.21","kqo3uey7hs","many_one","0","direct_first","1","er05us30","0","20","1","1","3","1","","0","1","0","null","","","<div style=""font-size:60px;"">+</div>","null","","","","","","","","","",""
"","html-keyboard-response","321","644866","0.0-12.0-1.21","kqo3uey7hs","many_one","0","direct_first","1","er05us30","0","20","1","1","3","1","","0","1","0","null","","","<img src = 'category4/CS3.png' width = '100%;'>","null","","","","","","","","","",""
"","html-keyboard-response","322","645140","0.0-12.0-2.21","kqo3uey7hs","many_one","0","direct_first","1","er05us30","0","20","1","1","3","1","","0","1","0","null","","","<img src = 'targets/3.png' width = '100%;'>","null","","","","","","","","","",""
"","html-keyboard-response","323","646046","0.0-12.0-3.21","kqo3uey7hs","many_one","0","direct_first","1","er05us30","0","20","1","1","3","1","","0","1","0","906","","","<img src = 'targets/mask.png' width = '100%;'>","68","pos","GS","GSold","4","category4/CS3.png","","targets/3.png","indirect","0","45"
"","html-keyboard-response","324","647560","0.0-12.0-0.22","kqo3uey7hs","many_one","0","direct_first","1","er05us30","0","20","1","1","3","1","","0","1","0","null","","","<div style=""font-size:60px;"">+</div>","null","","","","","","","","","",""
"","html-keyboard-response","325","647663","0.0-12.0-1.22","kqo3uey7hs","many_one","0","direct_first","1","er05us30","0","20","1","1","3","1","","0","1","0","null","","","<img src = 'category4/lin.png' width = '100%;'>","null","","","","","","","","","",""
"","html-keyboard-response","326","647937","0.0-12.0-2.22","kqo3uey7hs","many_one","0","direct_first","1","er05us30","0","20","1","1","3","1","","0","1","0","null","","","<img src = 'targets/36.png' width = '100%;'>","null","","","","","","","","","",""
"","html-keyboard-response","327","648704","0.0-12.0-3.22","kqo3uey7hs","many_one","0","direct_first","1","er05us30","0","20","1","1","3","1","","0","1","0","766","","","<img src = 'targets/mask.png' width = '100%;'>","68","pos","GS","abstract","4","category4/lin.png","","targets/36.png","indirect","0","46"
"","html-keyboard-response","328","650214","0.0-12.0-0.23","kqo3uey7hs","many_one","0","direct_first","1","er05us30","0","20","1","1","3","1","","0","1","0","null","","","<div style=""font-size:60px;"">+</div>","null","","","","","","","","","",""
"","html-keyboard-response","329","650310","0.0-12.0-1.23","kqo3uey7hs","many_one","0","direct_first","1","er05us30","0","20","1","1","3","1","","0","1","0","null","","","<img src = 'category2/GS1.png' width = '100%;'>","null","","","","","","","","","",""
"","html-keyboard-response","330","650586","0.0-12.0-2.23","kqo3uey7hs","many_one","0","direct_first","1","er05us30","0","20","1","1","3","1","","0","1","0","null","","","<img src = 'targets/4.png' width = '100%;'>","null","","","","","","","","","",""
"","html-keyboard-response","331","651341","0.0-12.0-3.23","kqo3uey7hs","many_one","0","direct_first","1","er05us30","0","20","1","1","3","1","","0","1","0","754","","","<img src = 'targets/mask.png' width = '100%;'>","75","pos","GS","GSnew","2","category2/GS1.png","","targets/4.png","indirect","1","47"
"","survey-html-form","332","656637","0.0-13.0","kqo3uey7hs","many_one","0","direct_first","1","er05us30","0","20","1","1","3","1","","0","1","0","4781","","{}","","","","","","","","","","","",""
