"success","trial_type","trial_index","time_elapsed","internal_node_id","subject","condition","condition_code","measure","measure_code","codeword","gender","age","education","chinese","fach","handedness","rt","url","responses","stimulus","key_press","val","type","type_specific","category","cs_selected","target","indirect","task","nr_pres","response"
"true","fullscreen","0","19674","0.0-0.0","5ff83wwpw5","one_one","1","indirect_first","0","ke05or28","0","23","1","1","2","2","","","","","","","","","","","","","","",""
"","external-html","1","81903","0.0-1.0","5ff83wwpw5","one_one","1","indirect_first","0","ke05or28","0","23","1","1","2","2","62213","text/information.html","","","","","","","","","","","","",""
"","external-html","2","101702","0.0-2.0","5ff83wwpw5","one_one","1","indirect_first","0","ke05or28","0","23","1","1","2","2","19772","text/consent.html","","","","","","","","","","","","",""
"","survey-html-form","3","210583","0.0-3.0","5ff83wwpw5","one_one","1","indirect_first","0","ke05or28","0","23","1","1","2","2","108879","","{""codeword_enter"":""ke05or28""}","","","","","","","","","","","",""
"","survey-html-form","4","225856","0.0-4.0","5ff83wwpw5","one_one","1","indirect_first","0","ke05or28","0","23","1","1","2","2","15271","","{""age"":""23"",""education"":""1"",""subject"":""2"",""gender"":""0"",""handedness"":""2"",""chinese"":""1""}","","","","","","","","","","","",""
"","survey-html-form","5","241582","0.0-5.0","5ff83wwpw5","one_one","1","indirect_first","0","ke05or28","0","23","1","1","2","2","15727","","{}","","","","","","","","","","","",""
"","html-keyboard-response","6","245618","0.0-6.0-0.0-0.0","5ff83wwpw5","one_one","1","indirect_first","0","ke05or28","0","23","1","1","2","2","null","","","<div class = 'row'><div class = 'column'><img src = 'category4/CS9.png' width = '70%;'></div><div class = 'column'><img src = 'uspos/1340.bmp' width = '100%;'></div></div>","null","pos","CS","CS","4","category4/CS9.png","","","","",""
"","html-keyboard-response","7","248137","0.0-6.0-0.0-0.1","5ff83wwpw5","one_one","1","indirect_first","0","ke05or28","0","23","1","1","2","2","null","","","<div class = 'row'><div class = 'column'><img src = 'category1/CS5.png' width = '70%;'></div><div class = 'column'><img src = 'usneg/9342.bmp' width = '100%;'></div></div>","null","neg","CS","CS","1","category1/CS5.png","","","","",""
"","html-keyboard-response","8","250677","0.0-6.0-0.0-0.2","5ff83wwpw5","one_one","1","indirect_first","0","ke05or28","0","23","1","1","2","2","null","","","<div class = 'row'><div class = 'column'><img src = 'category2/CS1.png' width = '70%;'></div><div class = 'column'><img src = 'usneg/9435.bmp' width = '100%;'></div></div>","null","neg","CS","CS","2","category2/CS1.png","","","","",""
"","html-keyboard-response","9","253207","0.0-6.0-0.0-0.3","5ff83wwpw5","one_one","1","indirect_first","0","ke05or28","0","23","1","1","2","2","null","","","<div class = 'row'><div class = 'column'><img src = 'usneg/9342.bmp' width = '100%;'></div><div class = 'column'><img src = 'category1/CS5.png' width = '70%;'></div></div>","null","neg","CS","CS","1","category1/CS5.png","","","","",""
"","html-keyboard-response","10","255747","0.0-6.0-0.0-0.4","5ff83wwpw5","one_one","1","indirect_first","0","ke05or28","0","23","1","1","2","2","null","","","<div class = 'row'><div class = 'column'><img src = 'usneg/9435.bmp' width = '100%;'></div><div class = 'column'><img src = 'category2/CS1.png' width = '70%;'></div></div>","null","neg","CS","CS","2","category2/CS1.png","","","","",""
"","html-keyboard-response","11","258257","0.0-6.0-0.0-0.5","5ff83wwpw5","one_one","1","indirect_first","0","ke05or28","0","23","1","1","2","2","null","","","<div class = 'row'><div class = 'column'><img src = 'category3/CS9.png' width = '70%;'></div><div class = 'column'><img src = 'uspos/2900.2.bmp' width = '100%;'></div></div>","null","pos","CS","CS","3","category3/CS9.png","","","","",""
"","html-keyboard-response","12","260797","0.0-6.0-0.0-0.6","5ff83wwpw5","one_one","1","indirect_first","0","ke05or28","0","23","1","1","2","2","null","","","<div class = 'row'><div class = 'column'><img src = 'usneg/9435.bmp' width = '100%;'></div><div class = 'column'><img src = 'category2/CS1.png' width = '70%;'></div></div>","null","neg","CS","CS","2","category2/CS1.png","","","","",""
"","html-keyboard-response","13","263336","0.0-6.0-0.0-0.7","5ff83wwpw5","one_one","1","indirect_first","0","ke05or28","0","23","1","1","2","2","null","","","<div class = 'row'><div class = 'column'><img src = 'uspos/2900.2.bmp' width = '100%;'></div><div class = 'column'><img src = 'category3/CS9.png' width = '70%;'></div></div>","null","pos","CS","CS","3","category3/CS9.png","","","","",""
"","html-keyboard-response","14","265876","0.0-6.0-0.0-0.8","5ff83wwpw5","one_one","1","indirect_first","0","ke05or28","0","23","1","1","2","2","null","","","<div class = 'row'><div class = 'column'><img src = 'category1/CS5.png' width = '70%;'></div><div class = 'column'><img src = 'usneg/9342.bmp' width = '100%;'></div></div>","null","neg","CS","CS","1","category1/CS5.png","","","","",""
"","html-keyboard-response","15","268416","0.0-6.0-0.0-0.9","5ff83wwpw5","one_one","1","indirect_first","0","ke05or28","0","23","1","1","2","2","null","","","<div class = 'row'><div class = 'column'><img src = 'uspos/1340.bmp' width = '100%;'></div><div class = 'column'><img src = 'category4/CS9.png' width = '70%;'></div></div>","null","pos","CS","CS","4","category4/CS9.png","","","","",""
"","html-keyboard-response","16","270957","0.0-6.0-0.0-0.10","5ff83wwpw5","one_one","1","indirect_first","0","ke05or28","0","23","1","1","2","2","null","","","<div class = 'row'><div class = 'column'><img src = 'usneg/9342.bmp' width = '100%;'></div><div class = 'column'><img src = 'category1/CS5.png' width = '70%;'></div></div>","null","neg","CS","CS","1","category1/CS5.png","","","","",""
"","html-keyboard-response","17","273496","0.0-6.0-0.0-0.11","5ff83wwpw5","one_one","1","indirect_first","0","ke05or28","0","23","1","1","2","2","null","","","<div class = 'row'><div class = 'column'><img src = 'category2/CS1.png' width = '70%;'></div><div class = 'column'><img src = 'usneg/9435.bmp' width = '100%;'></div></div>","null","neg","CS","CS","2","category2/CS1.png","","","","",""
"","html-keyboard-response","18","276017","0.0-6.0-0.0-0.12","5ff83wwpw5","one_one","1","indirect_first","0","ke05or28","0","23","1","1","2","2","null","","","<div class = 'row'><div class = 'column'><img src = 'category3/CS9.png' width = '70%;'></div><div class = 'column'><img src = 'uspos/2900.2.bmp' width = '100%;'></div></div>","null","pos","CS","CS","3","category3/CS9.png","","","","",""
"","html-keyboard-response","19","278557","0.0-6.0-0.0-0.13","5ff83wwpw5","one_one","1","indirect_first","0","ke05or28","0","23","1","1","2","2","null","","","<div class = 'row'><div class = 'column'><img src = 'category4/CS9.png' width = '70%;'></div><div class = 'column'><img src = 'uspos/1340.bmp' width = '100%;'></div></div>","null","pos","CS","CS","4","category4/CS9.png","","","","",""
"","html-keyboard-response","20","281097","0.0-6.0-0.0-0.14","5ff83wwpw5","one_one","1","indirect_first","0","ke05or28","0","23","1","1","2","2","null","","","<div class = 'row'><div class = 'column'><img src = 'category1/CS5.png' width = '70%;'></div><div class = 'column'><img src = 'usneg/9342.bmp' width = '100%;'></div></div>","null","neg","CS","CS","1","category1/CS5.png","","","","",""
"","html-keyboard-response","21","283637","0.0-6.0-0.0-0.15","5ff83wwpw5","one_one","1","indirect_first","0","ke05or28","0","23","1","1","2","2","null","","","<div class = 'row'><div class = 'column'><img src = 'uspos/2900.2.bmp' width = '100%;'></div><div class = 'column'><img src = 'category3/CS9.png' width = '70%;'></div></div>","null","pos","CS","CS","3","category3/CS9.png","","","","",""
"","html-keyboard-response","22","286177","0.0-6.0-0.0-0.16","5ff83wwpw5","one_one","1","indirect_first","0","ke05or28","0","23","1","1","2","2","null","","","<div class = 'row'><div class = 'column'><img src = 'category4/CS9.png' width = '70%;'></div><div class = 'column'><img src = 'uspos/1340.bmp' width = '100%;'></div></div>","null","pos","CS","CS","4","category4/CS9.png","","","","",""
"","html-keyboard-response","23","288717","0.0-6.0-0.0-0.17","5ff83wwpw5","one_one","1","indirect_first","0","ke05or28","0","23","1","1","2","2","null","","","<div class = 'row'><div class = 'column'><img src = 'usneg/9435.bmp' width = '100%;'></div><div class = 'column'><img src = 'category2/CS1.png' width = '70%;'></div></div>","null","neg","CS","CS","2","category2/CS1.png","","","","",""
"","html-keyboard-response","24","291256","0.0-6.0-0.0-0.18","5ff83wwpw5","one_one","1","indirect_first","0","ke05or28","0","23","1","1","2","2","null","","","<div class = 'row'><div class = 'column'><img src = 'category4/CS9.png' width = '70%;'></div><div class = 'column'><img src = 'uspos/1340.bmp' width = '100%;'></div></div>","null","pos","CS","CS","4","category4/CS9.png","","","","",""
"","html-keyboard-response","25","293797","0.0-6.0-0.0-0.19","5ff83wwpw5","one_one","1","indirect_first","0","ke05or28","0","23","1","1","2","2","null","","","<div class = 'row'><div class = 'column'><img src = 'category3/CS9.png' width = '70%;'></div><div class = 'column'><img src = 'uspos/2900.2.bmp' width = '100%;'></div></div>","null","pos","CS","CS","3","category3/CS9.png","","","","",""
"","survey-html-form","26","299199","0.0-6.0-1.0","5ff83wwpw5","one_one","1","indirect_first","0","ke05or28","0","23","1","1","2","2","4882","","{}","","","","","","","","","","","",""
"","html-keyboard-response","27","303227","0.0-6.0-2.0-0.0","5ff83wwpw5","one_one","1","indirect_first","0","ke05or28","0","23","1","1","2","2","null","","","<div class = 'row'><div class = 'column'><img src = 'uspos/1340.bmp' width = '100%;'></div><div class = 'column'><img src = 'category4/CS9.png' width = '70%;'></div></div>","null","pos","CS","CS","4","category4/CS9.png","","","","",""
"","html-keyboard-response","28","305766","0.0-6.0-2.0-0.1","5ff83wwpw5","one_one","1","indirect_first","0","ke05or28","0","23","1","1","2","2","null","","","<div class = 'row'><div class = 'column'><img src = 'usneg/9435.bmp' width = '100%;'></div><div class = 'column'><img src = 'category2/CS1.png' width = '70%;'></div></div>","null","neg","CS","CS","2","category2/CS1.png","","","","",""
"","html-keyboard-response","29","308307","0.0-6.0-2.0-0.2","5ff83wwpw5","one_one","1","indirect_first","0","ke05or28","0","23","1","1","2","2","null","","","<div class = 'row'><div class = 'column'><img src = 'category3/CS9.png' width = '70%;'></div><div class = 'column'><img src = 'uspos/2900.2.bmp' width = '100%;'></div></div>","null","pos","CS","CS","3","category3/CS9.png","","","","",""
"","html-keyboard-response","30","310836","0.0-6.0-2.0-0.3","5ff83wwpw5","one_one","1","indirect_first","0","ke05or28","0","23","1","1","2","2","null","","","<div class = 'row'><div class = 'column'><img src = 'category4/CS9.png' width = '70%;'></div><div class = 'column'><img src = 'uspos/1340.bmp' width = '100%;'></div></div>","null","pos","CS","CS","4","category4/CS9.png","","","","",""
"","html-keyboard-response","31","313376","0.0-6.0-2.0-0.4","5ff83wwpw5","one_one","1","indirect_first","0","ke05or28","0","23","1","1","2","2","null","","","<div class = 'row'><div class = 'column'><img src = 'usneg/9435.bmp' width = '100%;'></div><div class = 'column'><img src = 'category2/CS1.png' width = '70%;'></div></div>","null","neg","CS","CS","2","category2/CS1.png","","","","",""
"","html-keyboard-response","32","315916","0.0-6.0-2.0-0.5","5ff83wwpw5","one_one","1","indirect_first","0","ke05or28","0","23","1","1","2","2","null","","","<div class = 'row'><div class = 'column'><img src = 'usneg/9342.bmp' width = '100%;'></div><div class = 'column'><img src = 'category1/CS5.png' width = '70%;'></div></div>","null","neg","CS","CS","1","category1/CS5.png","","","","",""
"","html-keyboard-response","33","318437","0.0-6.0-2.0-0.6","5ff83wwpw5","one_one","1","indirect_first","0","ke05or28","0","23","1","1","2","2","null","","","<div class = 'row'><div class = 'column'><img src = 'category4/CS9.png' width = '70%;'></div><div class = 'column'><img src = 'uspos/1340.bmp' width = '100%;'></div></div>","null","pos","CS","CS","4","category4/CS9.png","","","","",""
"","html-keyboard-response","34","320976","0.0-6.0-2.0-0.7","5ff83wwpw5","one_one","1","indirect_first","0","ke05or28","0","23","1","1","2","2","null","","","<div class = 'row'><div class = 'column'><img src = 'category3/CS9.png' width = '70%;'></div><div class = 'column'><img src = 'uspos/2900.2.bmp' width = '100%;'></div></div>","null","pos","CS","CS","3","category3/CS9.png","","","","",""
"","html-keyboard-response","35","323517","0.0-6.0-2.0-0.8","5ff83wwpw5","one_one","1","indirect_first","0","ke05or28","0","23","1","1","2","2","null","","","<div class = 'row'><div class = 'column'><img src = 'usneg/9342.bmp' width = '100%;'></div><div class = 'column'><img src = 'category1/CS5.png' width = '70%;'></div></div>","null","neg","CS","CS","1","category1/CS5.png","","","","",""
"","html-keyboard-response","36","326057","0.0-6.0-2.0-0.9","5ff83wwpw5","one_one","1","indirect_first","0","ke05or28","0","23","1","1","2","2","null","","","<div class = 'row'><div class = 'column'><img src = 'category4/CS9.png' width = '70%;'></div><div class = 'column'><img src = 'uspos/1340.bmp' width = '100%;'></div></div>","null","pos","CS","CS","4","category4/CS9.png","","","","",""
"","html-keyboard-response","37","328597","0.0-6.0-2.0-0.10","5ff83wwpw5","one_one","1","indirect_first","0","ke05or28","0","23","1","1","2","2","null","","","<div class = 'row'><div class = 'column'><img src = 'category3/CS9.png' width = '70%;'></div><div class = 'column'><img src = 'uspos/2900.2.bmp' width = '100%;'></div></div>","null","pos","CS","CS","3","category3/CS9.png","","","","",""
"","html-keyboard-response","38","331136","0.0-6.0-2.0-0.11","5ff83wwpw5","one_one","1","indirect_first","0","ke05or28","0","23","1","1","2","2","null","","","<div class = 'row'><div class = 'column'><img src = 'usneg/9342.bmp' width = '100%;'></div><div class = 'column'><img src = 'category1/CS5.png' width = '70%;'></div></div>","null","neg","CS","CS","1","category1/CS5.png","","","","",""
"","html-keyboard-response","39","333676","0.0-6.0-2.0-0.12","5ff83wwpw5","one_one","1","indirect_first","0","ke05or28","0","23","1","1","2","2","null","","","<div class = 'row'><div class = 'column'><img src = 'category2/CS1.png' width = '70%;'></div><div class = 'column'><img src = 'usneg/9435.bmp' width = '100%;'></div></div>","null","neg","CS","CS","2","category2/CS1.png","","","","",""
"","html-keyboard-response","40","336197","0.0-6.0-2.0-0.13","5ff83wwpw5","one_one","1","indirect_first","0","ke05or28","0","23","1","1","2","2","null","","","<div class = 'row'><div class = 'column'><img src = 'category1/CS5.png' width = '70%;'></div><div class = 'column'><img src = 'usneg/9342.bmp' width = '100%;'></div></div>","null","neg","CS","CS","1","category1/CS5.png","","","","",""
"","html-keyboard-response","41","338736","0.0-6.0-2.0-0.14","5ff83wwpw5","one_one","1","indirect_first","0","ke05or28","0","23","1","1","2","2","null","","","<div class = 'row'><div class = 'column'><img src = 'category4/CS9.png' width = '70%;'></div><div class = 'column'><img src = 'uspos/1340.bmp' width = '100%;'></div></div>","null","pos","CS","CS","4","category4/CS9.png","","","","",""
"","html-keyboard-response","42","341276","0.0-6.0-2.0-0.15","5ff83wwpw5","one_one","1","indirect_first","0","ke05or28","0","23","1","1","2","2","null","","","<div class = 'row'><div class = 'column'><img src = 'usneg/9435.bmp' width = '100%;'></div><div class = 'column'><img src = 'category2/CS1.png' width = '70%;'></div></div>","null","neg","CS","CS","2","category2/CS1.png","","","","",""
"","html-keyboard-response","43","343797","0.0-6.0-2.0-0.16","5ff83wwpw5","one_one","1","indirect_first","0","ke05or28","0","23","1","1","2","2","null","","","<div class = 'row'><div class = 'column'><img src = 'category1/CS5.png' width = '70%;'></div><div class = 'column'><img src = 'usneg/9342.bmp' width = '100%;'></div></div>","null","neg","CS","CS","1","category1/CS5.png","","","","",""
"","html-keyboard-response","44","346337","0.0-6.0-2.0-0.17","5ff83wwpw5","one_one","1","indirect_first","0","ke05or28","0","23","1","1","2","2","null","","","<div class = 'row'><div class = 'column'><img src = 'category3/CS9.png' width = '70%;'></div><div class = 'column'><img src = 'uspos/2900.2.bmp' width = '100%;'></div></div>","null","pos","CS","CS","3","category3/CS9.png","","","","",""
"","html-keyboard-response","45","348857","0.0-6.0-2.0-0.18","5ff83wwpw5","one_one","1","indirect_first","0","ke05or28","0","23","1","1","2","2","null","","","<div class = 'row'><div class = 'column'><img src = 'category2/CS1.png' width = '70%;'></div><div class = 'column'><img src = 'usneg/9435.bmp' width = '100%;'></div></div>","null","neg","CS","CS","2","category2/CS1.png","","","","",""
"","html-keyboard-response","46","351397","0.0-6.0-2.0-0.19","5ff83wwpw5","one_one","1","indirect_first","0","ke05or28","0","23","1","1","2","2","null","","","<div class = 'row'><div class = 'column'><img src = 'uspos/2900.2.bmp' width = '100%;'></div><div class = 'column'><img src = 'category3/CS9.png' width = '70%;'></div></div>","null","pos","CS","CS","3","category3/CS9.png","","","","",""
"","survey-html-form","47","364783","0.0-6.0-3.0","5ff83wwpw5","one_one","1","indirect_first","0","ke05or28","0","23","1","1","2","2","12865","","{}","","","","","","","","","","","",""
"","html-keyboard-response","48","368796","0.0-6.0-4.0-0.0","5ff83wwpw5","one_one","1","indirect_first","0","ke05or28","0","23","1","1","2","2","null","","","<div class = 'row'><div class = 'column'><img src = 'usneg/9342.bmp' width = '100%;'></div><div class = 'column'><img src = 'category1/CS5.png' width = '70%;'></div></div>","null","neg","CS","CS","1","category1/CS5.png","","","","",""
"","html-keyboard-response","49","371337","0.0-6.0-4.0-0.1","5ff83wwpw5","one_one","1","indirect_first","0","ke05or28","0","23","1","1","2","2","null","","","<div class = 'row'><div class = 'column'><img src = 'category2/CS1.png' width = '70%;'></div><div class = 'column'><img src = 'usneg/9435.bmp' width = '100%;'></div></div>","null","neg","CS","CS","2","category2/CS1.png","","","","",""
"","html-keyboard-response","50","373876","0.0-6.0-4.0-0.2","5ff83wwpw5","one_one","1","indirect_first","0","ke05or28","0","23","1","1","2","2","null","","","<div class = 'row'><div class = 'column'><img src = 'usneg/9342.bmp' width = '100%;'></div><div class = 'column'><img src = 'category1/CS5.png' width = '70%;'></div></div>","null","neg","CS","CS","1","category1/CS5.png","","","","",""
"","html-keyboard-response","51","376396","0.0-6.0-4.0-0.3","5ff83wwpw5","one_one","1","indirect_first","0","ke05or28","0","23","1","1","2","2","null","","","<div class = 'row'><div class = 'column'><img src = 'usneg/9435.bmp' width = '100%;'></div><div class = 'column'><img src = 'category2/CS1.png' width = '70%;'></div></div>","null","neg","CS","CS","2","category2/CS1.png","","","","",""
"","html-keyboard-response","52","378937","0.0-6.0-4.0-0.4","5ff83wwpw5","one_one","1","indirect_first","0","ke05or28","0","23","1","1","2","2","null","","","<div class = 'row'><div class = 'column'><img src = 'category3/CS9.png' width = '70%;'></div><div class = 'column'><img src = 'uspos/2900.2.bmp' width = '100%;'></div></div>","null","pos","CS","CS","3","category3/CS9.png","","","","",""
"","html-keyboard-response","53","381477","0.0-6.0-4.0-0.5","5ff83wwpw5","one_one","1","indirect_first","0","ke05or28","0","23","1","1","2","2","null","","","<div class = 'row'><div class = 'column'><img src = 'uspos/1340.bmp' width = '100%;'></div><div class = 'column'><img src = 'category4/CS9.png' width = '70%;'></div></div>","null","pos","CS","CS","4","category4/CS9.png","","","","",""
"","html-keyboard-response","54","384016","0.0-6.0-4.0-0.6","5ff83wwpw5","one_one","1","indirect_first","0","ke05or28","0","23","1","1","2","2","null","","","<div class = 'row'><div class = 'column'><img src = 'category1/CS5.png' width = '70%;'></div><div class = 'column'><img src = 'usneg/9342.bmp' width = '100%;'></div></div>","null","neg","CS","CS","1","category1/CS5.png","","","","",""
"","html-keyboard-response","55","386556","0.0-6.0-4.0-0.7","5ff83wwpw5","one_one","1","indirect_first","0","ke05or28","0","23","1","1","2","2","null","","","<div class = 'row'><div class = 'column'><img src = 'category4/CS9.png' width = '70%;'></div><div class = 'column'><img src = 'uspos/1340.bmp' width = '100%;'></div></div>","null","pos","CS","CS","4","category4/CS9.png","","","","",""
"","html-keyboard-response","56","389066","0.0-6.0-4.0-0.8","5ff83wwpw5","one_one","1","indirect_first","0","ke05or28","0","23","1","1","2","2","null","","","<div class = 'row'><div class = 'column'><img src = 'category3/CS9.png' width = '70%;'></div><div class = 'column'><img src = 'uspos/2900.2.bmp' width = '100%;'></div></div>","null","pos","CS","CS","3","category3/CS9.png","","","","",""
"","html-keyboard-response","57","391606","0.0-6.0-4.0-0.9","5ff83wwpw5","one_one","1","indirect_first","0","ke05or28","0","23","1","1","2","2","null","","","<div class = 'row'><div class = 'column'><img src = 'uspos/1340.bmp' width = '100%;'></div><div class = 'column'><img src = 'category4/CS9.png' width = '70%;'></div></div>","null","pos","CS","CS","4","category4/CS9.png","","","","",""
"","html-keyboard-response","58","394147","0.0-6.0-4.0-0.10","5ff83wwpw5","one_one","1","indirect_first","0","ke05or28","0","23","1","1","2","2","null","","","<div class = 'row'><div class = 'column'><img src = 'category2/CS1.png' width = '70%;'></div><div class = 'column'><img src = 'usneg/9435.bmp' width = '100%;'></div></div>","null","neg","CS","CS","2","category2/CS1.png","","","","",""
"","html-keyboard-response","59","396686","0.0-6.0-4.0-0.11","5ff83wwpw5","one_one","1","indirect_first","0","ke05or28","0","23","1","1","2","2","null","","","<div class = 'row'><div class = 'column'><img src = 'uspos/2900.2.bmp' width = '100%;'></div><div class = 'column'><img src = 'category3/CS9.png' width = '70%;'></div></div>","null","pos","CS","CS","3","category3/CS9.png","","","","",""
"","html-keyboard-response","60","399217","0.0-6.0-4.0-0.12","5ff83wwpw5","one_one","1","indirect_first","0","ke05or28","0","23","1","1","2","2","null","","","<div class = 'row'><div class = 'column'><img src = 'category1/CS5.png' width = '70%;'></div><div class = 'column'><img src = 'usneg/9342.bmp' width = '100%;'></div></div>","null","neg","CS","CS","1","category1/CS5.png","","","","",""
"","html-keyboard-response","61","401747","0.0-6.0-4.0-0.13","5ff83wwpw5","one_one","1","indirect_first","0","ke05or28","0","23","1","1","2","2","null","","","<div class = 'row'><div class = 'column'><img src = 'category4/CS9.png' width = '70%;'></div><div class = 'column'><img src = 'uspos/1340.bmp' width = '100%;'></div></div>","null","pos","CS","CS","4","category4/CS9.png","","","","",""
"","html-keyboard-response","62","404286","0.0-6.0-4.0-0.14","5ff83wwpw5","one_one","1","indirect_first","0","ke05or28","0","23","1","1","2","2","null","","","<div class = 'row'><div class = 'column'><img src = 'category1/CS5.png' width = '70%;'></div><div class = 'column'><img src = 'usneg/9342.bmp' width = '100%;'></div></div>","null","neg","CS","CS","1","category1/CS5.png","","","","",""
"","html-keyboard-response","63","406827","0.0-6.0-4.0-0.15","5ff83wwpw5","one_one","1","indirect_first","0","ke05or28","0","23","1","1","2","2","null","","","<div class = 'row'><div class = 'column'><img src = 'category2/CS1.png' width = '70%;'></div><div class = 'column'><img src = 'usneg/9435.bmp' width = '100%;'></div></div>","null","neg","CS","CS","2","category2/CS1.png","","","","",""
"","html-keyboard-response","64","409357","0.0-6.0-4.0-0.16","5ff83wwpw5","one_one","1","indirect_first","0","ke05or28","0","23","1","1","2","2","null","","","<div class = 'row'><div class = 'column'><img src = 'category3/CS9.png' width = '70%;'></div><div class = 'column'><img src = 'uspos/2900.2.bmp' width = '100%;'></div></div>","null","pos","CS","CS","3","category3/CS9.png","","","","",""
"","html-keyboard-response","65","411887","0.0-6.0-4.0-0.17","5ff83wwpw5","one_one","1","indirect_first","0","ke05or28","0","23","1","1","2","2","null","","","<div class = 'row'><div class = 'column'><img src = 'category4/CS9.png' width = '70%;'></div><div class = 'column'><img src = 'uspos/1340.bmp' width = '100%;'></div></div>","null","pos","CS","CS","4","category4/CS9.png","","","","",""
"","html-keyboard-response","66","414426","0.0-6.0-4.0-0.18","5ff83wwpw5","one_one","1","indirect_first","0","ke05or28","0","23","1","1","2","2","null","","","<div class = 'row'><div class = 'column'><img src = 'usneg/9435.bmp' width = '100%;'></div><div class = 'column'><img src = 'category2/CS1.png' width = '70%;'></div></div>","null","neg","CS","CS","2","category2/CS1.png","","","","",""
"","html-keyboard-response","67","416967","0.0-6.0-4.0-0.19","5ff83wwpw5","one_one","1","indirect_first","0","ke05or28","0","23","1","1","2","2","null","","","<div class = 'row'><div class = 'column'><img src = 'category3/CS9.png' width = '70%;'></div><div class = 'column'><img src = 'uspos/2900.2.bmp' width = '100%;'></div></div>","null","pos","CS","CS","3","category3/CS9.png","","","","",""
"","survey-html-form","68","420855","0.0-6.0-5.0","5ff83wwpw5","one_one","1","indirect_first","0","ke05or28","0","23","1","1","2","2","3367","","{}","","","","","","","","","","","",""
"","html-keyboard-response","69","424886","0.0-6.0-6.0-0.0","5ff83wwpw5","one_one","1","indirect_first","0","ke05or28","0","23","1","1","2","2","null","","","<div class = 'row'><div class = 'column'><img src = 'uspos/1340.bmp' width = '100%;'></div><div class = 'column'><img src = 'category4/CS9.png' width = '70%;'></div></div>","null","pos","CS","CS","4","category4/CS9.png","","","","",""
"","html-keyboard-response","70","427426","0.0-6.0-6.0-0.1","5ff83wwpw5","one_one","1","indirect_first","0","ke05or28","0","23","1","1","2","2","null","","","<div class = 'row'><div class = 'column'><img src = 'usneg/9435.bmp' width = '100%;'></div><div class = 'column'><img src = 'category2/CS1.png' width = '70%;'></div></div>","null","neg","CS","CS","2","category2/CS1.png","","","","",""
"","html-keyboard-response","71","429967","0.0-6.0-6.0-0.2","5ff83wwpw5","one_one","1","indirect_first","0","ke05or28","0","23","1","1","2","2","null","","","<div class = 'row'><div class = 'column'><img src = 'category4/CS9.png' width = '70%;'></div><div class = 'column'><img src = 'uspos/1340.bmp' width = '100%;'></div></div>","null","pos","CS","CS","4","category4/CS9.png","","","","",""
"","html-keyboard-response","72","432507","0.0-6.0-6.0-0.3","5ff83wwpw5","one_one","1","indirect_first","0","ke05or28","0","23","1","1","2","2","null","","","<div class = 'row'><div class = 'column'><img src = 'usneg/9435.bmp' width = '100%;'></div><div class = 'column'><img src = 'category2/CS1.png' width = '70%;'></div></div>","null","neg","CS","CS","2","category2/CS1.png","","","","",""
"","html-keyboard-response","73","435047","0.0-6.0-6.0-0.4","5ff83wwpw5","one_one","1","indirect_first","0","ke05or28","0","23","1","1","2","2","null","","","<div class = 'row'><div class = 'column'><img src = 'uspos/1340.bmp' width = '100%;'></div><div class = 'column'><img src = 'category4/CS9.png' width = '70%;'></div></div>","null","pos","CS","CS","4","category4/CS9.png","","","","",""
"","html-keyboard-response","74","437586","0.0-6.0-6.0-0.5","5ff83wwpw5","one_one","1","indirect_first","0","ke05or28","0","23","1","1","2","2","null","","","<div class = 'row'><div class = 'column'><img src = 'uspos/2900.2.bmp' width = '100%;'></div><div class = 'column'><img src = 'category3/CS9.png' width = '70%;'></div></div>","null","pos","CS","CS","3","category3/CS9.png","","","","",""
"","html-keyboard-response","75","440127","0.0-6.0-6.0-0.6","5ff83wwpw5","one_one","1","indirect_first","0","ke05or28","0","23","1","1","2","2","null","","","<div class = 'row'><div class = 'column'><img src = 'category4/CS9.png' width = '70%;'></div><div class = 'column'><img src = 'uspos/1340.bmp' width = '100%;'></div></div>","null","pos","CS","CS","4","category4/CS9.png","","","","",""
"","html-keyboard-response","76","442667","0.0-6.0-6.0-0.7","5ff83wwpw5","one_one","1","indirect_first","0","ke05or28","0","23","1","1","2","2","null","","","<div class = 'row'><div class = 'column'><img src = 'usneg/9342.bmp' width = '100%;'></div><div class = 'column'><img src = 'category1/CS5.png' width = '70%;'></div></div>","null","neg","CS","CS","1","category1/CS5.png","","","","",""
"","html-keyboard-response","77","445187","0.0-6.0-6.0-0.8","5ff83wwpw5","one_one","1","indirect_first","0","ke05or28","0","23","1","1","2","2","null","","","<div class = 'row'><div class = 'column'><img src = 'uspos/2900.2.bmp' width = '100%;'></div><div class = 'column'><img src = 'category3/CS9.png' width = '70%;'></div></div>","null","pos","CS","CS","3","category3/CS9.png","","","","",""
"","html-keyboard-response","78","447726","0.0-6.0-6.0-0.9","5ff83wwpw5","one_one","1","indirect_first","0","ke05or28","0","23","1","1","2","2","null","","","<div class = 'row'><div class = 'column'><img src = 'category1/CS5.png' width = '70%;'></div><div class = 'column'><img src = 'usneg/9342.bmp' width = '100%;'></div></div>","null","neg","CS","CS","1","category1/CS5.png","","","","",""
"","html-keyboard-response","79","450267","0.0-6.0-6.0-0.10","5ff83wwpw5","one_one","1","indirect_first","0","ke05or28","0","23","1","1","2","2","null","","","<div class = 'row'><div class = 'column'><img src = 'usneg/9435.bmp' width = '100%;'></div><div class = 'column'><img src = 'category2/CS1.png' width = '70%;'></div></div>","null","neg","CS","CS","2","category2/CS1.png","","","","",""
"","html-keyboard-response","80","452807","0.0-6.0-6.0-0.11","5ff83wwpw5","one_one","1","indirect_first","0","ke05or28","0","23","1","1","2","2","null","","","<div class = 'row'><div class = 'column'><img src = 'uspos/2900.2.bmp' width = '100%;'></div><div class = 'column'><img src = 'category3/CS9.png' width = '70%;'></div></div>","null","pos","CS","CS","3","category3/CS9.png","","","","",""
"","html-keyboard-response","81","455347","0.0-6.0-6.0-0.12","5ff83wwpw5","one_one","1","indirect_first","0","ke05or28","0","23","1","1","2","2","null","","","<div class = 'row'><div class = 'column'><img src = 'uspos/1340.bmp' width = '100%;'></div><div class = 'column'><img src = 'category4/CS9.png' width = '70%;'></div></div>","null","pos","CS","CS","4","category4/CS9.png","","","","",""
"","html-keyboard-response","82","457887","0.0-6.0-6.0-0.13","5ff83wwpw5","one_one","1","indirect_first","0","ke05or28","0","23","1","1","2","2","null","","","<div class = 'row'><div class = 'column'><img src = 'usneg/9342.bmp' width = '100%;'></div><div class = 'column'><img src = 'category1/CS5.png' width = '70%;'></div></div>","null","neg","CS","CS","1","category1/CS5.png","","","","",""
"","html-keyboard-response","83","460426","0.0-6.0-6.0-0.14","5ff83wwpw5","one_one","1","indirect_first","0","ke05or28","0","23","1","1","2","2","null","","","<div class = 'row'><div class = 'column'><img src = 'category3/CS9.png' width = '70%;'></div><div class = 'column'><img src = 'uspos/2900.2.bmp' width = '100%;'></div></div>","null","pos","CS","CS","3","category3/CS9.png","","","","",""
"","html-keyboard-response","84","462946","0.0-6.0-6.0-0.15","5ff83wwpw5","one_one","1","indirect_first","0","ke05or28","0","23","1","1","2","2","null","","","<div class = 'row'><div class = 'column'><img src = 'usneg/9342.bmp' width = '100%;'></div><div class = 'column'><img src = 'category1/CS5.png' width = '70%;'></div></div>","null","neg","CS","CS","1","category1/CS5.png","","","","",""
"","html-keyboard-response","85","465487","0.0-6.0-6.0-0.16","5ff83wwpw5","one_one","1","indirect_first","0","ke05or28","0","23","1","1","2","2","null","","","<div class = 'row'><div class = 'column'><img src = 'category2/CS1.png' width = '70%;'></div><div class = 'column'><img src = 'usneg/9435.bmp' width = '100%;'></div></div>","null","neg","CS","CS","2","category2/CS1.png","","","","",""
"","html-keyboard-response","86","468026","0.0-6.0-6.0-0.17","5ff83wwpw5","one_one","1","indirect_first","0","ke05or28","0","23","1","1","2","2","null","","","<div class = 'row'><div class = 'column'><img src = 'uspos/2900.2.bmp' width = '100%;'></div><div class = 'column'><img src = 'category3/CS9.png' width = '70%;'></div></div>","null","pos","CS","CS","3","category3/CS9.png","","","","",""
"","html-keyboard-response","87","470567","0.0-6.0-6.0-0.18","5ff83wwpw5","one_one","1","indirect_first","0","ke05or28","0","23","1","1","2","2","null","","","<div class = 'row'><div class = 'column'><img src = 'usneg/9342.bmp' width = '100%;'></div><div class = 'column'><img src = 'category1/CS5.png' width = '70%;'></div></div>","null","neg","CS","CS","1","category1/CS5.png","","","","",""
"","html-keyboard-response","88","473097","0.0-6.0-6.0-0.19","5ff83wwpw5","one_one","1","indirect_first","0","ke05or28","0","23","1","1","2","2","null","","","<div class = 'row'><div class = 'column'><img src = 'category2/CS1.png' width = '70%;'></div><div class = 'column'><img src = 'usneg/9435.bmp' width = '100%;'></div></div>","null","neg","CS","CS","2","category2/CS1.png","","","","",""
"","html-keyboard-response","89","552681","0.0-7.0","5ff83wwpw5","one_one","1","indirect_first","0","ke05or28","0","23","1","1","2","2","79063","","","<p>Sie sehen nun die chinesischen Zeichen nur ganz kurz, und danach die jeweilige Aussprache der Zeichen. Ihre Aufgabe ist es, für jede Silbe anzugeben, ob diese etwas angenehmes, oder unangenehmes bedeuten könnte. Verlassen Sie sich hier vor allem auf Ihre Intuition.<br><br>Die Zeichen werden nur zur Orientierung dargestellt, beachten Sie sie deshalb nicht. Konzentrieren Sie sich vor allem auf die Silben. <br>Reagieren Sie mit folgenden zwei Tasten: <br><br><b>'D' </b> wenn die Silbe etwas <b>unangenehmes</b> bedeuten könnte. <br><b>'K'</b> wenn die Silbe etwas <b>angenehmes</b> bedeuten könnte. <br><br>Bitte legen Sie nun den Zeigefinger der linken Hand auf die Taste 'D' und den Zeigefinger der rechten Hand auf die Taste 'K'. <br>Reagieren Sie auf jede Silbe so schnell wie möglich. Uns interessiert Ihre spontane Reaktion. <br> <br> <br>Drücken Sie 'D' oder 'K', um die nächste Aufgabe zu starten. </p>","68","","","","","","","","","",""
"","html-keyboard-response","90","555717","0.0-8.0-0.0","5ff83wwpw5","one_one","1","indirect_first","0","ke05or28","0","23","1","1","2","2","null","","","<div style=""font-size:60px;"">+</div>","null","","","","","","","","","",""
"","html-keyboard-response","91","555817","0.0-8.0-1.0","5ff83wwpw5","one_one","1","indirect_first","0","ke05or28","0","23","1","1","2","2","null","","","<img src = 'category3/CS9.png' width = '100%;'>","null","","","","","","","","","",""
"","html-keyboard-response","92","556097","0.0-8.0-2.0","5ff83wwpw5","one_one","1","indirect_first","0","ke05or28","0","23","1","1","2","2","null","","","<img src = 'targets/5.png' width = '100%;'>","null","","","","","","","","","",""
"","html-keyboard-response","93","560359","0.0-8.0-3.0","5ff83wwpw5","one_one","1","indirect_first","0","ke05or28","0","23","1","1","2","2","4259","","","<img src = 'targets/mask.png' width = '100%;'>","68","pos","CS","CS","3","category3/CS9.png","targets/5.png","0","indirect","0",""
"","html-keyboard-response","94","561877","0.0-8.0-0.1","5ff83wwpw5","one_one","1","indirect_first","0","ke05or28","0","23","1","1","2","2","null","","","<div style=""font-size:60px;"">+</div>","null","","","","","","","","","",""
"","html-keyboard-response","95","561977","0.0-8.0-1.1","5ff83wwpw5","one_one","1","indirect_first","0","ke05or28","0","23","1","1","2","2","null","","","<img src = 'category4/CS9.png' width = '100%;'>","null","","","","","","","","","",""
"","html-keyboard-response","96","562257","0.0-8.0-2.1","5ff83wwpw5","one_one","1","indirect_first","0","ke05or28","0","23","1","1","2","2","null","","","<img src = 'targets/43.png' width = '100%;'>","null","","","","","","","","","",""
"","html-keyboard-response","97","570047","0.0-8.0-3.1","5ff83wwpw5","one_one","1","indirect_first","0","ke05or28","0","23","1","1","2","2","7789","","","<img src = 'targets/mask.png' width = '100%;'>","75","pos","CS","CS","4","category4/CS9.png","targets/43.png","1","indirect","1",""
"","html-keyboard-response","98","571566","0.0-8.0-0.2","5ff83wwpw5","one_one","1","indirect_first","0","ke05or28","0","23","1","1","2","2","null","","","<div style=""font-size:60px;"">+</div>","null","","","","","","","","","",""
"","html-keyboard-response","99","571667","0.0-8.0-1.2","5ff83wwpw5","one_one","1","indirect_first","0","ke05or28","0","23","1","1","2","2","null","","","<img src = 'category2/CS10.png' width = '100%;'>","null","","","","","","","","","",""
"","html-keyboard-response","100","571947","0.0-8.0-2.2","5ff83wwpw5","one_one","1","indirect_first","0","ke05or28","0","23","1","1","2","2","null","","","<img src = 'targets/41.png' width = '100%;'>","null","","","","","","","","","",""
"","html-keyboard-response","101","574351","0.0-8.0-3.2","5ff83wwpw5","one_one","1","indirect_first","0","ke05or28","0","23","1","1","2","2","2402","","","<img src = 'targets/mask.png' width = '100%;'>","68","neg","GS","GSold","2","category2/CS10.png","targets/41.png","0","indirect","2",""
"","html-keyboard-response","102","575886","0.0-8.0-0.3","5ff83wwpw5","one_one","1","indirect_first","0","ke05or28","0","23","1","1","2","2","null","","","<div style=""font-size:60px;"">+</div>","null","","","","","","","","","",""
"","html-keyboard-response","103","575986","0.0-8.0-1.3","5ff83wwpw5","one_one","1","indirect_first","0","ke05or28","0","23","1","1","2","2","null","","","<img src = 'category3/CS3.png' width = '100%;'>","null","","","","","","","","","",""
"","html-keyboard-response","104","576266","0.0-8.0-2.3","5ff83wwpw5","one_one","1","indirect_first","0","ke05or28","0","23","1","1","2","2","null","","","<img src = 'targets/39.png' width = '100%;'>","null","","","","","","","","","",""
"","html-keyboard-response","105","580559","0.0-8.0-3.3","5ff83wwpw5","one_one","1","indirect_first","0","ke05or28","0","23","1","1","2","2","4291","","","<img src = 'targets/mask.png' width = '100%;'>","75","pos","GS","GSold","3","category3/CS3.png","targets/39.png","1","indirect","3",""
"","html-keyboard-response","106","582087","0.0-8.0-0.4","5ff83wwpw5","one_one","1","indirect_first","0","ke05or28","0","23","1","1","2","2","null","","","<div style=""font-size:60px;"">+</div>","null","","","","","","","","","",""
"","html-keyboard-response","107","582186","0.0-8.0-1.4","5ff83wwpw5","one_one","1","indirect_first","0","ke05or28","0","23","1","1","2","2","null","","","<img src = 'category1/CS8.png' width = '100%;'>","null","","","","","","","","","",""
"","html-keyboard-response","108","582466","0.0-8.0-2.4","5ff83wwpw5","one_one","1","indirect_first","0","ke05or28","0","23","1","1","2","2","null","","","<img src = 'targets/46.png' width = '100%;'>","null","","","","","","","","","",""
"","html-keyboard-response","109","584168","0.0-8.0-3.4","5ff83wwpw5","one_one","1","indirect_first","0","ke05or28","0","23","1","1","2","2","1700","","","<img src = 'targets/mask.png' width = '100%;'>","75","neg","GS","GSold","1","category1/CS8.png","targets/46.png","1","indirect","4",""
"","html-keyboard-response","110","585687","0.0-8.0-0.5","5ff83wwpw5","one_one","1","indirect_first","0","ke05or28","0","23","1","1","2","2","null","","","<div style=""font-size:60px;"">+</div>","null","","","","","","","","","",""
"","html-keyboard-response","111","585786","0.0-8.0-1.5","5ff83wwpw5","one_one","1","indirect_first","0","ke05or28","0","23","1","1","2","2","null","","","<img src = 'category2/CS1.png' width = '100%;'>","null","","","","","","","","","",""
"","html-keyboard-response","112","586062","0.0-8.0-2.5","5ff83wwpw5","one_one","1","indirect_first","0","ke05or28","0","23","1","1","2","2","null","","","<img src = 'targets/34.png' width = '100%;'>","null","","","","","","","","","",""
"","html-keyboard-response","113","588615","0.0-8.0-3.5","5ff83wwpw5","one_one","1","indirect_first","0","ke05or28","0","23","1","1","2","2","2551","","","<img src = 'targets/mask.png' width = '100%;'>","68","neg","CS","CS","2","category2/CS1.png","targets/34.png","0","indirect","5",""
"","html-keyboard-response","114","590146","0.0-8.0-0.6","5ff83wwpw5","one_one","1","indirect_first","0","ke05or28","0","23","1","1","2","2","null","","","<div style=""font-size:60px;"">+</div>","null","","","","","","","","","",""
"","html-keyboard-response","115","590247","0.0-8.0-1.6","5ff83wwpw5","one_one","1","indirect_first","0","ke05or28","0","23","1","1","2","2","null","","","<img src = 'category4/CS4.png' width = '100%;'>","null","","","","","","","","","",""
"","html-keyboard-response","116","590526","0.0-8.0-2.6","5ff83wwpw5","one_one","1","indirect_first","0","ke05or28","0","23","1","1","2","2","null","","","<img src = 'targets/1.png' width = '100%;'>","null","","","","","","","","","",""
"","html-keyboard-response","117","591527","0.0-8.0-3.6","5ff83wwpw5","one_one","1","indirect_first","0","ke05or28","0","23","1","1","2","2","1000","","","<img src = 'targets/mask.png' width = '100%;'>","75","pos","GS","GSold","4","category4/CS4.png","targets/1.png","1","indirect","6",""
"","html-keyboard-response","118","593066","0.0-8.0-0.7","5ff83wwpw5","one_one","1","indirect_first","0","ke05or28","0","23","1","1","2","2","null","","","<div style=""font-size:60px;"">+</div>","null","","","","","","","","","",""
"","html-keyboard-response","119","593166","0.0-8.0-1.7","5ff83wwpw5","one_one","1","indirect_first","0","ke05or28","0","23","1","1","2","2","null","","","<img src = 'category4/CS7.png' width = '100%;'>","null","","","","","","","","","",""
"","html-keyboard-response","120","593447","0.0-8.0-2.7","5ff83wwpw5","one_one","1","indirect_first","0","ke05or28","0","23","1","1","2","2","null","","","<img src = 'targets/2.png' width = '100%;'>","null","","","","","","","","","",""
"","html-keyboard-response","121","595367","0.0-8.0-3.7","5ff83wwpw5","one_one","1","indirect_first","0","ke05or28","0","23","1","1","2","2","1918","","","<img src = 'targets/mask.png' width = '100%;'>","75","pos","GS","GSold","4","category4/CS7.png","targets/2.png","1","indirect","7",""
"","html-keyboard-response","122","596886","0.0-8.0-0.8","5ff83wwpw5","one_one","1","indirect_first","0","ke05or28","0","23","1","1","2","2","null","","","<div style=""font-size:60px;"">+</div>","null","","","","","","","","","",""
"","html-keyboard-response","123","596987","0.0-8.0-1.8","5ff83wwpw5","one_one","1","indirect_first","0","ke05or28","0","23","1","1","2","2","null","","","<img src = 'category2/CS7.png' width = '100%;'>","null","","","","","","","","","",""
"","html-keyboard-response","124","597267","0.0-8.0-2.8","5ff83wwpw5","one_one","1","indirect_first","0","ke05or28","0","23","1","1","2","2","null","","","<img src = 'targets/13.png' width = '100%;'>","null","","","","","","","","","",""
"","html-keyboard-response","125","604111","0.0-8.0-3.8","5ff83wwpw5","one_one","1","indirect_first","0","ke05or28","0","23","1","1","2","2","6844","","","<img src = 'targets/mask.png' width = '100%;'>","68","neg","GS","GSold","2","category2/CS7.png","targets/13.png","0","indirect","8",""
"","html-keyboard-response","126","605646","0.0-8.0-0.9","5ff83wwpw5","one_one","1","indirect_first","0","ke05or28","0","23","1","1","2","2","null","","","<div style=""font-size:60px;"">+</div>","null","","","","","","","","","",""
"","html-keyboard-response","127","605747","0.0-8.0-1.9","5ff83wwpw5","one_one","1","indirect_first","0","ke05or28","0","23","1","1","2","2","null","","","<img src = 'category1/CS1.png' width = '100%;'>","null","","","","","","","","","",""
"","html-keyboard-response","128","606026","0.0-8.0-2.9","5ff83wwpw5","one_one","1","indirect_first","0","ke05or28","0","23","1","1","2","2","null","","","<img src = 'targets/28.png' width = '100%;'>","null","","","","","","","","","",""
"","html-keyboard-response","129","618719","0.0-8.0-3.9","5ff83wwpw5","one_one","1","indirect_first","0","ke05or28","0","23","1","1","2","2","12692","","","<img src = 'targets/mask.png' width = '100%;'>","68","neg","GS","GSold","1","category1/CS1.png","targets/28.png","0","indirect","9",""
"","html-keyboard-response","130","620256","0.0-8.0-0.10","5ff83wwpw5","one_one","1","indirect_first","0","ke05or28","0","23","1","1","2","2","null","","","<div style=""font-size:60px;"">+</div>","null","","","","","","","","","",""
"","html-keyboard-response","131","620357","0.0-8.0-1.10","5ff83wwpw5","one_one","1","indirect_first","0","ke05or28","0","23","1","1","2","2","null","","","<img src = 'category2/CS4.png' width = '100%;'>","null","","","","","","","","","",""
"","html-keyboard-response","132","620637","0.0-8.0-2.10","5ff83wwpw5","one_one","1","indirect_first","0","ke05or28","0","23","1","1","2","2","null","","","<img src = 'targets/37.png' width = '100%;'>","null","","","","","","","","","",""
"","html-keyboard-response","133","621719","0.0-8.0-3.10","5ff83wwpw5","one_one","1","indirect_first","0","ke05or28","0","23","1","1","2","2","1080","","","<img src = 'targets/mask.png' width = '100%;'>","75","neg","GS","GSold","2","category2/CS4.png","targets/37.png","1","indirect","10",""
"","html-keyboard-response","134","623256","0.0-8.0-0.11","5ff83wwpw5","one_one","1","indirect_first","0","ke05or28","0","23","1","1","2","2","null","","","<div style=""font-size:60px;"">+</div>","null","","","","","","","","","",""
"","html-keyboard-response","135","623356","0.0-8.0-1.11","5ff83wwpw5","one_one","1","indirect_first","0","ke05or28","0","23","1","1","2","2","null","","","<img src = 'category3/CS6.png' width = '100%;'>","null","","","","","","","","","",""
"","html-keyboard-response","136","623636","0.0-8.0-2.11","5ff83wwpw5","one_one","1","indirect_first","0","ke05or28","0","23","1","1","2","2","null","","","<img src = 'targets/15.png' width = '100%;'>","null","","","","","","","","","",""
"","html-keyboard-response","137","624710","0.0-8.0-3.11","5ff83wwpw5","one_one","1","indirect_first","0","ke05or28","0","23","1","1","2","2","1072","","","<img src = 'targets/mask.png' width = '100%;'>","68","pos","GS","GSold","3","category3/CS6.png","targets/15.png","0","indirect","11",""
"","html-keyboard-response","138","626227","0.0-8.0-0.12","5ff83wwpw5","one_one","1","indirect_first","0","ke05or28","0","23","1","1","2","2","null","","","<div style=""font-size:60px;"">+</div>","null","","","","","","","","","",""
"","html-keyboard-response","139","626326","0.0-8.0-1.12","5ff83wwpw5","one_one","1","indirect_first","0","ke05or28","0","23","1","1","2","2","null","","","<img src = 'category4/CS1.png' width = '100%;'>","null","","","","","","","","","",""
"","html-keyboard-response","140","626607","0.0-8.0-2.12","5ff83wwpw5","one_one","1","indirect_first","0","ke05or28","0","23","1","1","2","2","null","","","<img src = 'targets/18.png' width = '100%;'>","null","","","","","","","","","",""
"","html-keyboard-response","141","627918","0.0-8.0-3.12","5ff83wwpw5","one_one","1","indirect_first","0","ke05or28","0","23","1","1","2","2","1312","","","<img src = 'targets/mask.png' width = '100%;'>","75","pos","GS","GSold","4","category4/CS1.png","targets/18.png","1","indirect","12",""
"","html-keyboard-response","142","629446","0.0-8.0-0.13","5ff83wwpw5","one_one","1","indirect_first","0","ke05or28","0","23","1","1","2","2","null","","","<div style=""font-size:60px;"">+</div>","null","","","","","","","","","",""
"","html-keyboard-response","143","629546","0.0-8.0-1.13","5ff83wwpw5","one_one","1","indirect_first","0","ke05or28","0","23","1","1","2","2","null","","","<img src = 'category1/CS9.png' width = '100%;'>","null","","","","","","","","","",""
"","html-keyboard-response","144","629826","0.0-8.0-2.13","5ff83wwpw5","one_one","1","indirect_first","0","ke05or28","0","23","1","1","2","2","null","","","<img src = 'targets/25.png' width = '100%;'>","null","","","","","","","","","",""
"","html-keyboard-response","145","630774","0.0-8.0-3.13","5ff83wwpw5","one_one","1","indirect_first","0","ke05or28","0","23","1","1","2","2","946","","","<img src = 'targets/mask.png' width = '100%;'>","68","neg","GS","GSold","1","category1/CS9.png","targets/25.png","0","indirect","13",""
"","html-keyboard-response","146","632306","0.0-8.0-0.14","5ff83wwpw5","one_one","1","indirect_first","0","ke05or28","0","23","1","1","2","2","null","","","<div style=""font-size:60px;"">+</div>","null","","","","","","","","","",""
"","html-keyboard-response","147","632406","0.0-8.0-1.14","5ff83wwpw5","one_one","1","indirect_first","0","ke05or28","0","23","1","1","2","2","null","","","<img src = 'category3/CS2.png' width = '100%;'>","null","","","","","","","","","",""
"","html-keyboard-response","148","632686","0.0-8.0-2.14","5ff83wwpw5","one_one","1","indirect_first","0","ke05or28","0","23","1","1","2","2","null","","","<img src = 'targets/8.png' width = '100%;'>","null","","","","","","","","","",""
"","html-keyboard-response","149","633687","0.0-8.0-3.14","5ff83wwpw5","one_one","1","indirect_first","0","ke05or28","0","23","1","1","2","2","1000","","","<img src = 'targets/mask.png' width = '100%;'>","68","pos","GS","GSold","3","category3/CS2.png","targets/8.png","0","indirect","14",""
"","html-keyboard-response","150","635206","0.0-8.0-0.15","5ff83wwpw5","one_one","1","indirect_first","0","ke05or28","0","23","1","1","2","2","null","","","<div style=""font-size:60px;"">+</div>","null","","","","","","","","","",""
"","html-keyboard-response","151","635306","0.0-8.0-1.15","5ff83wwpw5","one_one","1","indirect_first","0","ke05or28","0","23","1","1","2","2","null","","","<img src = 'category1/CS5.png' width = '100%;'>","null","","","","","","","","","",""
"","html-keyboard-response","152","635587","0.0-8.0-2.15","5ff83wwpw5","one_one","1","indirect_first","0","ke05or28","0","23","1","1","2","2","null","","","<img src = 'targets/48.png' width = '100%;'>","null","","","","","","","","","",""
"","html-keyboard-response","153","636407","0.0-8.0-3.15","5ff83wwpw5","one_one","1","indirect_first","0","ke05or28","0","23","1","1","2","2","819","","","<img src = 'targets/mask.png' width = '100%;'>","68","neg","CS","CS","1","category1/CS5.png","targets/48.png","0","indirect","15",""
"","survey-html-form","154","640590","0.0-9.0","5ff83wwpw5","one_one","1","indirect_first","0","ke05or28","0","23","1","1","2","2","3664","","{}","","","","","","","","","","","",""
"","html-keyboard-response","155","643626","0.0-10.0-0.0","5ff83wwpw5","one_one","1","indirect_first","0","ke05or28","0","23","1","1","2","2","null","","","<div style=""font-size:60px;"">+</div>","null","","","","","","","","","",""
"","html-keyboard-response","156","643726","0.0-10.0-1.0","5ff83wwpw5","one_one","1","indirect_first","0","ke05or28","0","23","1","1","2","2","null","","","<img src = 'category1/GS2.png' width = '100%;'>","null","","","","","","","","","",""
"","html-keyboard-response","157","644007","0.0-10.0-2.0","5ff83wwpw5","one_one","1","indirect_first","0","ke05or28","0","23","1","1","2","2","null","","","<img src = 'targets/33.png' width = '100%;'>","null","","","","","","","","","",""
"","html-keyboard-response","158","647511","0.0-10.0-3.0","5ff83wwpw5","one_one","1","indirect_first","0","ke05or28","0","23","1","1","2","2","3503","","","<img src = 'targets/mask.png' width = '100%;'>","75","neg","GS","GSnew","1","category1/GS2.png","targets/33.png","1","indirect","16",""
"","html-keyboard-response","159","649023","0.0-10.0-0.1","5ff83wwpw5","one_one","1","indirect_first","0","ke05or28","0","23","1","1","2","2","null","","","<div style=""font-size:60px;"">+</div>","null","","","","","","","","","",""
"","html-keyboard-response","160","649116","0.0-10.0-1.1","5ff83wwpw5","one_one","1","indirect_first","0","ke05or28","0","23","1","1","2","2","null","","","<img src = 'category3/wang.png' width = '100%;'>","null","","","","","","","","","",""
"","html-keyboard-response","161","649397","0.0-10.0-2.1","5ff83wwpw5","one_one","1","indirect_first","0","ke05or28","0","23","1","1","2","2","null","","","<img src = 'targets/19.png' width = '100%;'>","null","","","","","","","","","",""
"","html-keyboard-response","162","650895","0.0-10.0-3.1","5ff83wwpw5","one_one","1","indirect_first","0","ke05or28","0","23","1","1","2","2","1497","","","<img src = 'targets/mask.png' width = '100%;'>","75","pos","GS","abstract","3","category3/wang.png","targets/19.png","1","indirect","17",""
"","html-keyboard-response","163","652417","0.0-10.0-0.2","5ff83wwpw5","one_one","1","indirect_first","0","ke05or28","0","23","1","1","2","2","null","","","<div style=""font-size:60px;"">+</div>","null","","","","","","","","","",""
"","html-keyboard-response","164","652517","0.0-10.0-1.2","5ff83wwpw5","one_one","1","indirect_first","0","ke05or28","0","23","1","1","2","2","null","","","<img src = 'category4/GS2.png' width = '100%;'>","null","","","","","","","","","",""
"","html-keyboard-response","165","652796","0.0-10.0-2.2","5ff83wwpw5","one_one","1","indirect_first","0","ke05or28","0","23","1","1","2","2","null","","","<img src = 'targets/11.png' width = '100%;'>","null","","","","","","","","","",""
"","html-keyboard-response","166","653846","0.0-10.0-3.2","5ff83wwpw5","one_one","1","indirect_first","0","ke05or28","0","23","1","1","2","2","1049","","","<img src = 'targets/mask.png' width = '100%;'>","68","pos","GS","GSnew","4","category4/GS2.png","targets/11.png","0","indirect","18",""
"","html-keyboard-response","167","655376","0.0-10.0-0.3","5ff83wwpw5","one_one","1","indirect_first","0","ke05or28","0","23","1","1","2","2","null","","","<div style=""font-size:60px;"">+</div>","null","","","","","","","","","",""
"","html-keyboard-response","168","655476","0.0-10.0-1.3","5ff83wwpw5","one_one","1","indirect_first","0","ke05or28","0","23","1","1","2","2","null","","","<img src = 'category3/GS1.png' width = '100%;'>","null","","","","","","","","","",""
"","html-keyboard-response","169","655757","0.0-10.0-2.3","5ff83wwpw5","one_one","1","indirect_first","0","ke05or28","0","23","1","1","2","2","null","","","<img src = 'targets/35.png' width = '100%;'>","null","","","","","","","","","",""
"","html-keyboard-response","170","656981","0.0-10.0-3.3","5ff83wwpw5","one_one","1","indirect_first","0","ke05or28","0","23","1","1","2","2","1225","","","<img src = 'targets/mask.png' width = '100%;'>","68","pos","GS","GSnew","3","category3/GS1.png","targets/35.png","0","indirect","19",""
"","html-keyboard-response","171","658497","0.0-10.0-0.4","5ff83wwpw5","one_one","1","indirect_first","0","ke05or28","0","23","1","1","2","2","null","","","<div style=""font-size:60px;"">+</div>","null","","","","","","","","","",""
"","html-keyboard-response","172","658596","0.0-10.0-1.4","5ff83wwpw5","one_one","1","indirect_first","0","ke05or28","0","23","1","1","2","2","null","","","<img src = 'category2/GS1.png' width = '100%;'>","null","","","","","","","","","",""
"","html-keyboard-response","173","658877","0.0-10.0-2.4","5ff83wwpw5","one_one","1","indirect_first","0","ke05or28","0","23","1","1","2","2","null","","","<img src = 'targets/16.png' width = '100%;'>","null","","","","","","","","","",""
"","html-keyboard-response","174","663631","0.0-10.0-3.4","5ff83wwpw5","one_one","1","indirect_first","0","ke05or28","0","23","1","1","2","2","4752","","","<img src = 'targets/mask.png' width = '100%;'>","75","neg","GS","GSnew","2","category2/GS1.png","targets/16.png","1","indirect","20",""
"","html-keyboard-response","175","665166","0.0-10.0-0.5","5ff83wwpw5","one_one","1","indirect_first","0","ke05or28","0","23","1","1","2","2","null","","","<div style=""font-size:60px;"">+</div>","null","","","","","","","","","",""
"","html-keyboard-response","176","665266","0.0-10.0-1.5","5ff83wwpw5","one_one","1","indirect_first","0","ke05or28","0","23","1","1","2","2","null","","","<img src = 'category2/GS3.png' width = '100%;'>","null","","","","","","","","","",""
"","html-keyboard-response","177","665546","0.0-10.0-2.5","5ff83wwpw5","one_one","1","indirect_first","0","ke05or28","0","23","1","1","2","2","null","","","<img src = 'targets/40.png' width = '100%;'>","null","","","","","","","","","",""
"","html-keyboard-response","178","666175","0.0-10.0-3.5","5ff83wwpw5","one_one","1","indirect_first","0","ke05or28","0","23","1","1","2","2","627","","","<img src = 'targets/mask.png' width = '100%;'>","75","neg","GS","GSnew","2","category2/GS3.png","targets/40.png","1","indirect","21",""
"","html-keyboard-response","179","667686","0.0-10.0-0.6","5ff83wwpw5","one_one","1","indirect_first","0","ke05or28","0","23","1","1","2","2","null","","","<div style=""font-size:60px;"">+</div>","null","","","","","","","","","",""
"","html-keyboard-response","180","667787","0.0-10.0-1.6","5ff83wwpw5","one_one","1","indirect_first","0","ke05or28","0","23","1","1","2","2","null","","","<img src = 'category4/GS1.png' width = '100%;'>","null","","","","","","","","","",""
"","html-keyboard-response","181","668066","0.0-10.0-2.6","5ff83wwpw5","one_one","1","indirect_first","0","ke05or28","0","23","1","1","2","2","null","","","<img src = 'targets/44.png' width = '100%;'>","null","","","","","","","","","",""
"","html-keyboard-response","182","669319","0.0-10.0-3.6","5ff83wwpw5","one_one","1","indirect_first","0","ke05or28","0","23","1","1","2","2","1250","","","<img src = 'targets/mask.png' width = '100%;'>","75","pos","GS","GSnew","4","category4/GS1.png","targets/44.png","1","indirect","22",""
"","html-keyboard-response","183","670846","0.0-10.0-0.7","5ff83wwpw5","one_one","1","indirect_first","0","ke05or28","0","23","1","1","2","2","null","","","<div style=""font-size:60px;"">+</div>","null","","","","","","","","","",""
"","html-keyboard-response","184","670947","0.0-10.0-1.7","5ff83wwpw5","one_one","1","indirect_first","0","ke05or28","0","23","1","1","2","2","null","","","<img src = 'category1/GS1.png' width = '100%;'>","null","","","","","","","","","",""
"","html-keyboard-response","185","671226","0.0-10.0-2.7","5ff83wwpw5","one_one","1","indirect_first","0","ke05or28","0","23","1","1","2","2","null","","","<img src = 'targets/26.png' width = '100%;'>","null","","","","","","","","","",""
"","html-keyboard-response","186","672207","0.0-10.0-3.7","5ff83wwpw5","one_one","1","indirect_first","0","ke05or28","0","23","1","1","2","2","980","","","<img src = 'targets/mask.png' width = '100%;'>","68","neg","GS","GSnew","1","category1/GS1.png","targets/26.png","0","indirect","23",""
"","html-keyboard-response","187","673746","0.0-10.0-0.8","5ff83wwpw5","one_one","1","indirect_first","0","ke05or28","0","23","1","1","2","2","null","","","<div style=""font-size:60px;"">+</div>","null","","","","","","","","","",""
"","html-keyboard-response","188","673846","0.0-10.0-1.8","5ff83wwpw5","one_one","1","indirect_first","0","ke05or28","0","23","1","1","2","2","null","","","<img src = 'category3/GS3.png' width = '100%;'>","null","","","","","","","","","",""
"","html-keyboard-response","189","674126","0.0-10.0-2.8","5ff83wwpw5","one_one","1","indirect_first","0","ke05or28","0","23","1","1","2","2","null","","","<img src = 'targets/30.png' width = '100%;'>","null","","","","","","","","","",""
"","html-keyboard-response","190","675423","0.0-10.0-3.8","5ff83wwpw5","one_one","1","indirect_first","0","ke05or28","0","23","1","1","2","2","1294","","","<img src = 'targets/mask.png' width = '100%;'>","68","pos","GS","GSnew","3","category3/GS3.png","targets/30.png","0","indirect","24",""
"","html-keyboard-response","191","676956","0.0-10.0-0.9","5ff83wwpw5","one_one","1","indirect_first","0","ke05or28","0","23","1","1","2","2","null","","","<div style=""font-size:60px;"">+</div>","null","","","","","","","","","",""
"","html-keyboard-response","192","677057","0.0-10.0-1.9","5ff83wwpw5","one_one","1","indirect_first","0","ke05or28","0","23","1","1","2","2","null","","","<img src = 'category4/lin.png' width = '100%;'>","null","","","","","","","","","",""
"","html-keyboard-response","193","677337","0.0-10.0-2.9","5ff83wwpw5","one_one","1","indirect_first","0","ke05or28","0","23","1","1","2","2","null","","","<img src = 'targets/31.png' width = '100%;'>","null","","","","","","","","","",""
"","html-keyboard-response","194","677870","0.0-10.0-3.9","5ff83wwpw5","one_one","1","indirect_first","0","ke05or28","0","23","1","1","2","2","534","","","<img src = 'targets/mask.png' width = '100%;'>","75","pos","GS","abstract","4","category4/lin.png","targets/31.png","1","indirect","25",""
"","html-keyboard-response","195","679386","0.0-10.0-0.10","5ff83wwpw5","one_one","1","indirect_first","0","ke05or28","0","23","1","1","2","2","null","","","<div style=""font-size:60px;"">+</div>","null","","","","","","","","","",""
"","html-keyboard-response","196","679486","0.0-10.0-1.10","5ff83wwpw5","one_one","1","indirect_first","0","ke05or28","0","23","1","1","2","2","null","","","<img src = 'category2/men.png' width = '100%;'>","null","","","","","","","","","",""
"","html-keyboard-response","197","679766","0.0-10.0-2.10","5ff83wwpw5","one_one","1","indirect_first","0","ke05or28","0","23","1","1","2","2","null","","","<img src = 'targets/32.png' width = '100%;'>","null","","","","","","","","","",""
"","html-keyboard-response","198","680535","0.0-10.0-3.10","5ff83wwpw5","one_one","1","indirect_first","0","ke05or28","0","23","1","1","2","2","767","","","<img src = 'targets/mask.png' width = '100%;'>","75","neg","GS","abstract","2","category2/men.png","targets/32.png","1","indirect","26",""
"","html-keyboard-response","199","682047","0.0-10.0-0.11","5ff83wwpw5","one_one","1","indirect_first","0","ke05or28","0","23","1","1","2","2","null","","","<div style=""font-size:60px;"">+</div>","null","","","","","","","","","",""
"","html-keyboard-response","200","682146","0.0-10.0-1.11","5ff83wwpw5","one_one","1","indirect_first","0","ke05or28","0","23","1","1","2","2","null","","","<img src = 'category2/GS2.png' width = '100%;'>","null","","","","","","","","","",""
"","html-keyboard-response","201","682427","0.0-10.0-2.11","5ff83wwpw5","one_one","1","indirect_first","0","ke05or28","0","23","1","1","2","2","null","","","<img src = 'targets/14.png' width = '100%;'>","null","","","","","","","","","",""
"","html-keyboard-response","202","684190","0.0-10.0-3.11","5ff83wwpw5","one_one","1","indirect_first","0","ke05or28","0","23","1","1","2","2","1763","","","<img src = 'targets/mask.png' width = '100%;'>","75","neg","GS","GSnew","2","category2/GS2.png","targets/14.png","1","indirect","27",""
"","html-keyboard-response","203","685707","0.0-10.0-0.12","5ff83wwpw5","one_one","1","indirect_first","0","ke05or28","0","23","1","1","2","2","null","","","<div style=""font-size:60px;"">+</div>","null","","","","","","","","","",""
"","html-keyboard-response","204","685806","0.0-10.0-1.12","5ff83wwpw5","one_one","1","indirect_first","0","ke05or28","0","23","1","1","2","2","null","","","<img src = 'category4/GS3.png' width = '100%;'>","null","","","","","","","","","",""
"","html-keyboard-response","205","686086","0.0-10.0-2.12","5ff83wwpw5","one_one","1","indirect_first","0","ke05or28","0","23","1","1","2","2","null","","","<img src = 'targets/9.png' width = '100%;'>","null","","","","","","","","","",""
"","html-keyboard-response","206","686830","0.0-10.0-3.12","5ff83wwpw5","one_one","1","indirect_first","0","ke05or28","0","23","1","1","2","2","743","","","<img src = 'targets/mask.png' width = '100%;'>","75","pos","GS","GSnew","4","category4/GS3.png","targets/9.png","1","indirect","28",""
"","html-keyboard-response","207","688366","0.0-10.0-0.13","5ff83wwpw5","one_one","1","indirect_first","0","ke05or28","0","23","1","1","2","2","null","","","<div style=""font-size:60px;"">+</div>","null","","","","","","","","","",""
"","html-keyboard-response","208","688466","0.0-10.0-1.13","5ff83wwpw5","one_one","1","indirect_first","0","ke05or28","0","23","1","1","2","2","null","","","<img src = 'category1/GS3.png' width = '100%;'>","null","","","","","","","","","",""
"","html-keyboard-response","209","688746","0.0-10.0-2.13","5ff83wwpw5","one_one","1","indirect_first","0","ke05or28","0","23","1","1","2","2","null","","","<img src = 'targets/38.png' width = '100%;'>","null","","","","","","","","","",""
"","html-keyboard-response","210","689455","0.0-10.0-3.13","5ff83wwpw5","one_one","1","indirect_first","0","ke05or28","0","23","1","1","2","2","708","","","<img src = 'targets/mask.png' width = '100%;'>","68","neg","GS","GSnew","1","category1/GS3.png","targets/38.png","0","indirect","29",""
"","html-keyboard-response","211","690966","0.0-10.0-0.14","5ff83wwpw5","one_one","1","indirect_first","0","ke05or28","0","23","1","1","2","2","null","","","<div style=""font-size:60px;"">+</div>","null","","","","","","","","","",""
"","html-keyboard-response","212","691067","0.0-10.0-1.14","5ff83wwpw5","one_one","1","indirect_first","0","ke05or28","0","23","1","1","2","2","null","","","<img src = 'category3/GS2.png' width = '100%;'>","null","","","","","","","","","",""
"","html-keyboard-response","213","691346","0.0-10.0-2.14","5ff83wwpw5","one_one","1","indirect_first","0","ke05or28","0","23","1","1","2","2","null","","","<img src = 'targets/3.png' width = '100%;'>","null","","","","","","","","","",""
"","html-keyboard-response","214","692047","0.0-10.0-3.14","5ff83wwpw5","one_one","1","indirect_first","0","ke05or28","0","23","1","1","2","2","700","","","<img src = 'targets/mask.png' width = '100%;'>","68","pos","GS","GSnew","3","category3/GS2.png","targets/3.png","0","indirect","30",""
"","html-keyboard-response","215","693576","0.0-10.0-0.15","5ff83wwpw5","one_one","1","indirect_first","0","ke05or28","0","23","1","1","2","2","null","","","<div style=""font-size:60px;"">+</div>","null","","","","","","","","","",""
"","html-keyboard-response","216","693677","0.0-10.0-1.15","5ff83wwpw5","one_one","1","indirect_first","0","ke05or28","0","23","1","1","2","2","null","","","<img src = 'category1/ma.png' width = '100%;'>","null","","","","","","","","","",""
"","html-keyboard-response","217","693956","0.0-10.0-2.15","5ff83wwpw5","one_one","1","indirect_first","0","ke05or28","0","23","1","1","2","2","null","","","<img src = 'targets/24.png' width = '100%;'>","null","","","","","","","","","",""
"","html-keyboard-response","218","694526","0.0-10.0-3.15","5ff83wwpw5","one_one","1","indirect_first","0","ke05or28","0","23","1","1","2","2","570","","","<img src = 'targets/mask.png' width = '100%;'>","75","neg","GS","abstract","1","category1/ma.png","targets/24.png","1","indirect","31",""
"","survey-html-form","219","712111","0.0-11.0","5ff83wwpw5","one_one","1","indirect_first","0","ke05or28","0","23","1","1","2","2","17074","","{}","","","","","","","","","","","",""
"","image-slider-response","220","721158","0.0-12.0-0.0","5ff83wwpw5","one_one","1","indirect_first","0","ke05or28","0","23","1","1","2","2","7035","","","","","pos","GS","abstract","3","category3/wang.png","targets/19.png","","direct","","80"
"","image-slider-response","221","728166","0.0-12.0-0.1","5ff83wwpw5","one_one","1","indirect_first","0","ke05or28","0","23","1","1","2","2","7007","","","","","neg","GS","GSnew","1","category1/GS1.png","targets/26.png","","direct","","-33"
"","image-slider-response","222","732061","0.0-12.0-0.2","5ff83wwpw5","one_one","1","indirect_first","0","ke05or28","0","23","1","1","2","2","3894","","","","","pos","GS","GSnew","4","category4/GS1.png","targets/44.png","","direct","","78"
"","image-slider-response","223","738213","0.0-12.0-0.3","5ff83wwpw5","one_one","1","indirect_first","0","ke05or28","0","23","1","1","2","2","6150","","","","","pos","GS","GSold","3","category3/CS2.png","targets/8.png","","direct","","-1"
"","image-slider-response","224","744286","0.0-12.0-0.4","5ff83wwpw5","one_one","1","indirect_first","0","ke05or28","0","23","1","1","2","2","6070","","","","","pos","CS","CS","4","category4/CS9.png","targets/43.png","","direct","","50"
"","image-slider-response","225","747485","0.0-12.0-0.5","5ff83wwpw5","one_one","1","indirect_first","0","ke05or28","0","23","1","1","2","2","3199","","","","","neg","GS","GSnew","2","category2/GS1.png","targets/16.png","","direct","","-5"
"","image-slider-response","226","752014","0.0-12.0-0.6","5ff83wwpw5","one_one","1","indirect_first","0","ke05or28","0","23","1","1","2","2","4527","","","","","neg","GS","GSnew","1","category1/GS2.png","targets/33.png","","direct","","-59"
"","image-slider-response","227","754950","0.0-12.0-0.7","5ff83wwpw5","one_one","1","indirect_first","0","ke05or28","0","23","1","1","2","2","2935","","","","","neg","GS","GSold","1","category1/CS1.png","targets/28.png","","direct","","-9"
"","image-slider-response","228","761901","0.0-12.0-0.8","5ff83wwpw5","one_one","1","indirect_first","0","ke05or28","0","23","1","1","2","2","6951","","","","","neg","GS","GSold","2","category2/CS10.png","targets/41.png","","direct","","4"
"","image-slider-response","229","772190","0.0-12.0-0.9","5ff83wwpw5","one_one","1","indirect_first","0","ke05or28","0","23","1","1","2","2","10287","","","","","pos","CS","CS","3","category3/CS9.png","targets/5.png","","direct","","6"
"","image-slider-response","230","776541","0.0-12.0-0.10","5ff83wwpw5","one_one","1","indirect_first","0","ke05or28","0","23","1","1","2","2","4351","","","","","neg","GS","abstract","2","category2/men.png","targets/32.png","","direct","","71"
"","image-slider-response","231","779238","0.0-12.0-0.11","5ff83wwpw5","one_one","1","indirect_first","0","ke05or28","0","23","1","1","2","2","2694","","","","","pos","GS","GSold","4","category4/CS4.png","targets/1.png","","direct","","85"
"","image-slider-response","232","781613","0.0-12.0-0.12","5ff83wwpw5","one_one","1","indirect_first","0","ke05or28","0","23","1","1","2","2","2375","","","","","neg","GS","abstract","1","category1/ma.png","targets/24.png","","direct","","51"
"","image-slider-response","233","783686","0.0-12.0-0.13","5ff83wwpw5","one_one","1","indirect_first","0","ke05or28","0","23","1","1","2","2","2071","","","","","pos","GS","GSnew","3","category3/GS3.png","targets/30.png","","direct","","-28"
"","image-slider-response","234","785709","0.0-12.0-0.14","5ff83wwpw5","one_one","1","indirect_first","0","ke05or28","0","23","1","1","2","2","2022","","","","","pos","GS","GSold","3","category3/CS3.png","targets/39.png","","direct","","-42"
"","image-slider-response","235","791733","0.0-12.0-0.15","5ff83wwpw5","one_one","1","indirect_first","0","ke05or28","0","23","1","1","2","2","6024","","","","","neg","GS","GSold","2","category2/CS7.png","targets/13.png","","direct","","6"
"","image-slider-response","236","794676","0.0-12.0-0.16","5ff83wwpw5","one_one","1","indirect_first","0","ke05or28","0","23","1","1","2","2","2943","","","","","pos","GS","GSnew","4","category4/GS3.png","targets/9.png","","direct","","68"
"","image-slider-response","237","798805","0.0-12.0-0.17","5ff83wwpw5","one_one","1","indirect_first","0","ke05or28","0","23","1","1","2","2","4127","","","","","pos","GS","GSold","3","category3/CS6.png","targets/15.png","","direct","","-59"
"","image-slider-response","238","802933","0.0-12.0-0.18","5ff83wwpw5","one_one","1","indirect_first","0","ke05or28","0","23","1","1","2","2","4127","","","","","pos","GS","abstract","4","category4/lin.png","targets/31.png","","direct","","89"
"","image-slider-response","239","806341","0.0-12.0-0.19","5ff83wwpw5","one_one","1","indirect_first","0","ke05or28","0","23","1","1","2","2","3407","","","","","neg","CS","CS","1","category1/CS5.png","targets/48.png","","direct","","-36"
"","image-slider-response","240","809149","0.0-12.0-0.20","5ff83wwpw5","one_one","1","indirect_first","0","ke05or28","0","23","1","1","2","2","2806","","","","","neg","GS","GSold","1","category1/CS9.png","targets/25.png","","direct","","-86"
"","image-slider-response","241","812469","0.0-12.0-0.21","5ff83wwpw5","one_one","1","indirect_first","0","ke05or28","0","23","1","1","2","2","3319","","","","","pos","GS","GSnew","3","category3/GS1.png","targets/35.png","","direct","","-65"
"","image-slider-response","242","817692","0.0-12.0-0.22","5ff83wwpw5","one_one","1","indirect_first","0","ke05or28","0","23","1","1","2","2","5222","","","","","pos","GS","GSnew","4","category4/GS2.png","targets/11.png","","direct","","57"
"","image-slider-response","243","820820","0.0-12.0-0.23","5ff83wwpw5","one_one","1","indirect_first","0","ke05or28","0","23","1","1","2","2","3126","","","","","neg","GS","GSnew","2","category2/GS3.png","targets/40.png","","direct","","82"
"","image-slider-response","244","823468","0.0-12.0-0.24","5ff83wwpw5","one_one","1","indirect_first","0","ke05or28","0","23","1","1","2","2","2646","","","","","neg","CS","CS","2","category2/CS1.png","targets/34.png","","direct","","-22"
"","image-slider-response","245","828428","0.0-12.0-0.25","5ff83wwpw5","one_one","1","indirect_first","0","ke05or28","0","23","1","1","2","2","4959","","","","","neg","GS","GSold","1","category1/CS8.png","targets/46.png","","direct","","-74"
"","image-slider-response","246","836236","0.0-12.0-0.26","5ff83wwpw5","one_one","1","indirect_first","0","ke05or28","0","23","1","1","2","2","7806","","","","","pos","GS","GSold","4","category4/CS7.png","targets/2.png","","direct","","22"
"","image-slider-response","247","839060","0.0-12.0-0.27","5ff83wwpw5","one_one","1","indirect_first","0","ke05or28","0","23","1","1","2","2","2823","","","","","neg","GS","GSnew","1","category1/GS3.png","targets/38.png","","direct","","-71"
"","image-slider-response","248","843523","0.0-12.0-0.28","5ff83wwpw5","one_one","1","indirect_first","0","ke05or28","0","23","1","1","2","2","4462","","","","","pos","GS","GSold","4","category4/CS1.png","targets/18.png","","direct","","86"
"","image-slider-response","249","846675","0.0-12.0-0.29","5ff83wwpw5","one_one","1","indirect_first","0","ke05or28","0","23","1","1","2","2","3150","","","","","pos","GS","GSnew","3","category3/GS2.png","targets/3.png","","direct","","-33"
"","image-slider-response","250","848987","0.0-12.0-0.30","5ff83wwpw5","one_one","1","indirect_first","0","ke05or28","0","23","1","1","2","2","2311","","","","","neg","GS","GSnew","2","category2/GS2.png","targets/14.png","","direct","","70"
"","image-slider-response","251","851379","0.0-12.0-0.31","5ff83wwpw5","one_one","1","indirect_first","0","ke05or28","0","23","1","1","2","2","2391","","","","","neg","GS","GSold","2","category2/CS4.png","targets/37.png","","direct","","-8"
"","survey-html-form","252","859412","0.0-13.0","5ff83wwpw5","one_one","1","indirect_first","0","ke05or28","0","23","1","1","2","2","8032","","{}","","","","","","","","","","","",""
"","image-slider-response","253","869140","0.0-14.0-0.0","5ff83wwpw5","one_one","1","indirect_first","0","ke05or28","0","23","1","1","2","2","8723","","","","","neg","All","all","1","category1/ma_all.png","","","all","","-63"
"","image-slider-response","254","872340","0.0-14.0-0.1","5ff83wwpw5","one_one","1","indirect_first","0","ke05or28","0","23","1","1","2","2","3198","","","","","neg","All","all","2","category2/men_all.png","","","all","","26"
"","image-slider-response","255","876987","0.0-14.0-0.2","5ff83wwpw5","one_one","1","indirect_first","0","ke05or28","0","23","1","1","2","2","4645","","","","","pos","All","all","4","category4/lin_all.png","","","all","","14"
"","image-slider-response","256","879411","0.0-14.0-0.3","5ff83wwpw5","one_one","1","indirect_first","0","ke05or28","0","23","1","1","2","2","2422","","","","","pos","All","all","3","category3/wang_all.png","","","all","","-79"
"","survey-text","257","988337","0.0-15.0","5ff83wwpw5","one_one","1","indirect_first","0","ke05or28","0","23","1","1","2","2","108925","","{""Q0"":""Die spontane Einschätzung von den chinesischen Zeichen über die Tasten viel mir sehr schwer, weil es so kurz eingeblendet wurde. Und die Unterteilung in angenehm und unangenehm ist bei mir gefühlt in asthetisch und unastetisch gerutscht. ""}","","","","","","","","","","","",""
