"success","trial_type","trial_index","time_elapsed","internal_node_id","subject","condition","condition_code","measure","measure_code","codeword","gender","age","education","chinese","fach","handedness","comment","hinschauen","ablenkung","gewissenhaft","rt","url","responses","stimulus","key_press","val","type","type_specific","category","cs_selected","response","target","task","indirect","nr_pres"
"true","fullscreen","0","17927","0.0-0.0","uj0tx3tyow","many_one","0","direct_first","1","er06as20","1","35","1","0","3","1","OK. Ich habe ein bisschen Vorkenntnisse in Chinesisch. Ich glaube, wie (un)angenehm ich ein Zeichen fand, war oft davon abhängig, wie angenehm es zu schreiben ist. Die meisten Silben waren eher angenehm, weil ich die chinesische Sprache etwas gewohnt bin. Ich glaube nicht, dass die Bilder einen großen Einfluss hatten. Auch fand ich keinen allzu großen Unterschied zwischen den Zeichen und vor allem den Silben. Wurde die Silbe ""goa"" als Test benutzt, oder war das ein Schreibfehler?","0","1","0","","","","","","","","","","","","","","",""
"","external-html","1","49852","0.0-1.0","uj0tx3tyow","many_one","0","direct_first","1","er06as20","1","35","1","0","3","1","OK. Ich habe ein bisschen Vorkenntnisse in Chinesisch. Ich glaube, wie (un)angenehm ich ein Zeichen fand, war oft davon abhängig, wie angenehm es zu schreiben ist. Die meisten Silben waren eher angenehm, weil ich die chinesische Sprache etwas gewohnt bin. Ich glaube nicht, dass die Bilder einen großen Einfluss hatten. Auch fand ich keinen allzu großen Unterschied zwischen den Zeichen und vor allem den Silben. Wurde die Silbe ""goa"" als Test benutzt, oder war das ein Schreibfehler?","0","1","0","31889.18999978341","text/information.html","","","","","","","","","","","","",""
"","external-html","2","58931","0.0-2.0","uj0tx3tyow","many_one","0","direct_first","1","er06as20","1","35","1","0","3","1","OK. Ich habe ein bisschen Vorkenntnisse in Chinesisch. Ich glaube, wie (un)angenehm ich ein Zeichen fand, war oft davon abhängig, wie angenehm es zu schreiben ist. Die meisten Silben waren eher angenehm, weil ich die chinesische Sprache etwas gewohnt bin. Ich glaube nicht, dass die Bilder einen großen Einfluss hatten. Auch fand ich keinen allzu großen Unterschied zwischen den Zeichen und vor allem den Silben. Wurde die Silbe ""goa"" als Test benutzt, oder war das ein Schreibfehler?","0","1","0","9052.834999980405","text/consent.html","","","","","","","","","","","","",""
"","survey-html-form","3","119446","0.0-3.0","uj0tx3tyow","many_one","0","direct_first","1","er06as20","1","35","1","0","3","1","OK. Ich habe ein bisschen Vorkenntnisse in Chinesisch. Ich glaube, wie (un)angenehm ich ein Zeichen fand, war oft davon abhängig, wie angenehm es zu schreiben ist. Die meisten Silben waren eher angenehm, weil ich die chinesische Sprache etwas gewohnt bin. Ich glaube nicht, dass die Bilder einen großen Einfluss hatten. Auch fand ich keinen allzu großen Unterschied zwischen den Zeichen und vor allem den Silben. Wurde die Silbe ""goa"" als Test benutzt, oder war das ein Schreibfehler?","0","1","0","60510.77000005171","","{""codeword_enter"":""er06as20""}","","","","","","","","","","","",""
"","survey-html-form","4","138287","0.0-4.0","uj0tx3tyow","many_one","0","direct_first","1","er06as20","1","35","1","0","3","1","OK. Ich habe ein bisschen Vorkenntnisse in Chinesisch. Ich glaube, wie (un)angenehm ich ein Zeichen fand, war oft davon abhängig, wie angenehm es zu schreiben ist. Die meisten Silben waren eher angenehm, weil ich die chinesische Sprache etwas gewohnt bin. Ich glaube nicht, dass die Bilder einen großen Einfluss hatten. Auch fand ich keinen allzu großen Unterschied zwischen den Zeichen und vor allem den Silben. Wurde die Silbe ""goa"" als Test benutzt, oder war das ein Schreibfehler?","0","1","0","18833.680000156164","","{""age"":""35"",""education"":""1"",""subject"":""3"",""gender"":""1"",""handedness"":""1"",""chinese"":""0""}","","","","","","","","","","","",""
"","survey-html-form","5","146932","0.0-5.0","uj0tx3tyow","many_one","0","direct_first","1","er06as20","1","35","1","0","3","1","OK. Ich habe ein bisschen Vorkenntnisse in Chinesisch. Ich glaube, wie (un)angenehm ich ein Zeichen fand, war oft davon abhängig, wie angenehm es zu schreiben ist. Die meisten Silben waren eher angenehm, weil ich die chinesische Sprache etwas gewohnt bin. Ich glaube nicht, dass die Bilder einen großen Einfluss hatten. Auch fand ich keinen allzu großen Unterschied zwischen den Zeichen und vor allem den Silben. Wurde die Silbe ""goa"" als Test benutzt, oder war das ein Schreibfehler?","0","1","0","8642.430000007153","","{}","","","","","","","","","","","",""
"","html-keyboard-response","6","150939","0.0-6.0-0.0-0.0","uj0tx3tyow","many_one","0","direct_first","1","er06as20","1","35","1","0","3","1","OK. Ich habe ein bisschen Vorkenntnisse in Chinesisch. Ich glaube, wie (un)angenehm ich ein Zeichen fand, war oft davon abhängig, wie angenehm es zu schreiben ist. Die meisten Silben waren eher angenehm, weil ich die chinesische Sprache etwas gewohnt bin. Ich glaube nicht, dass die Bilder einen großen Einfluss hatten. Auch fand ich keinen allzu großen Unterschied zwischen den Zeichen und vor allem den Silben. Wurde die Silbe ""goa"" als Test benutzt, oder war das ein Schreibfehler?","0","1","0","null","","","<div class = 'row'><div class = 'column'><img src = 'usneg/9635.2.bmp' width = '100%;'></div><div class = 'column'><img src = 'category4/CS5.png' width = '70%;'></div></div>","null","neg","CS","CS","4","category4/CS5.png","","","","",""
"","html-keyboard-response","7","153445","0.0-6.0-0.0-0.1","uj0tx3tyow","many_one","0","direct_first","1","er06as20","1","35","1","0","3","1","OK. Ich habe ein bisschen Vorkenntnisse in Chinesisch. Ich glaube, wie (un)angenehm ich ein Zeichen fand, war oft davon abhängig, wie angenehm es zu schreiben ist. Die meisten Silben waren eher angenehm, weil ich die chinesische Sprache etwas gewohnt bin. Ich glaube nicht, dass die Bilder einen großen Einfluss hatten. Auch fand ich keinen allzu großen Unterschied zwischen den Zeichen und vor allem den Silben. Wurde die Silbe ""goa"" als Test benutzt, oder war das ein Schreibfehler?","0","1","0","null","","","<div class = 'row'><div class = 'column'><img src = 'category1/CS9.png' width = '70%;'></div><div class = 'column'><img src = 'uspos/2341.bmp' width = '100%;'></div></div>","null","pos","CS","CS","1","category1/CS9.png","","","","",""
"","html-keyboard-response","8","155948","0.0-6.0-0.0-0.2","uj0tx3tyow","many_one","0","direct_first","1","er06as20","1","35","1","0","3","1","OK. Ich habe ein bisschen Vorkenntnisse in Chinesisch. Ich glaube, wie (un)angenehm ich ein Zeichen fand, war oft davon abhängig, wie angenehm es zu schreiben ist. Die meisten Silben waren eher angenehm, weil ich die chinesische Sprache etwas gewohnt bin. Ich glaube nicht, dass die Bilder einen großen Einfluss hatten. Auch fand ich keinen allzu großen Unterschied zwischen den Zeichen und vor allem den Silben. Wurde die Silbe ""goa"" als Test benutzt, oder war das ein Schreibfehler?","0","1","0","null","","","<div class = 'row'><div class = 'column'><img src = 'usneg/9560.bmp' width = '100%;'></div><div class = 'column'><img src = 'category2/CS5.png' width = '70%;'></div></div>","null","neg","CS","CS","2","category2/CS5.png","","","","",""
"","html-keyboard-response","9","158454","0.0-6.0-0.0-0.3","uj0tx3tyow","many_one","0","direct_first","1","er06as20","1","35","1","0","3","1","OK. Ich habe ein bisschen Vorkenntnisse in Chinesisch. Ich glaube, wie (un)angenehm ich ein Zeichen fand, war oft davon abhängig, wie angenehm es zu schreiben ist. Die meisten Silben waren eher angenehm, weil ich die chinesische Sprache etwas gewohnt bin. Ich glaube nicht, dass die Bilder einen großen Einfluss hatten. Auch fand ich keinen allzu großen Unterschied zwischen den Zeichen und vor allem den Silben. Wurde die Silbe ""goa"" als Test benutzt, oder war das ein Schreibfehler?","0","1","0","null","","","<div class = 'row'><div class = 'column'><img src = 'usneg/9421.bmp' width = '100%;'></div><div class = 'column'><img src = 'category4/CS9.png' width = '70%;'></div></div>","null","neg","CS","CS","4","category4/CS9.png","","","","",""
"","html-keyboard-response","10","160959","0.0-6.0-0.0-0.4","uj0tx3tyow","many_one","0","direct_first","1","er06as20","1","35","1","0","3","1","OK. Ich habe ein bisschen Vorkenntnisse in Chinesisch. Ich glaube, wie (un)angenehm ich ein Zeichen fand, war oft davon abhängig, wie angenehm es zu schreiben ist. Die meisten Silben waren eher angenehm, weil ich die chinesische Sprache etwas gewohnt bin. Ich glaube nicht, dass die Bilder einen großen Einfluss hatten. Auch fand ich keinen allzu großen Unterschied zwischen den Zeichen und vor allem den Silben. Wurde die Silbe ""goa"" als Test benutzt, oder war das ein Schreibfehler?","0","1","0","null","","","<div class = 'row'><div class = 'column'><img src = 'usneg/6570.1.bmp' width = '100%;'></div><div class = 'column'><img src = 'category4/CS1.png' width = '70%;'></div></div>","null","neg","CS","CS","4","category4/CS1.png","","","","",""
"","html-keyboard-response","11","163463","0.0-6.0-0.0-0.5","uj0tx3tyow","many_one","0","direct_first","1","er06as20","1","35","1","0","3","1","OK. Ich habe ein bisschen Vorkenntnisse in Chinesisch. Ich glaube, wie (un)angenehm ich ein Zeichen fand, war oft davon abhängig, wie angenehm es zu schreiben ist. Die meisten Silben waren eher angenehm, weil ich die chinesische Sprache etwas gewohnt bin. Ich glaube nicht, dass die Bilder einen großen Einfluss hatten. Auch fand ich keinen allzu großen Unterschied zwischen den Zeichen und vor allem den Silben. Wurde die Silbe ""goa"" als Test benutzt, oder war das ein Schreibfehler?","0","1","0","null","","","<div class = 'row'><div class = 'column'><img src = 'usneg/1280.bmp' width = '100%;'></div><div class = 'column'><img src = 'category2/CS10.png' width = '70%;'></div></div>","null","neg","CS","CS","2","category2/CS10.png","","","","",""
"","html-keyboard-response","12","165966","0.0-6.0-0.0-0.6","uj0tx3tyow","many_one","0","direct_first","1","er06as20","1","35","1","0","3","1","OK. Ich habe ein bisschen Vorkenntnisse in Chinesisch. Ich glaube, wie (un)angenehm ich ein Zeichen fand, war oft davon abhängig, wie angenehm es zu schreiben ist. Die meisten Silben waren eher angenehm, weil ich die chinesische Sprache etwas gewohnt bin. Ich glaube nicht, dass die Bilder einen großen Einfluss hatten. Auch fand ich keinen allzu großen Unterschied zwischen den Zeichen und vor allem den Silben. Wurde die Silbe ""goa"" als Test benutzt, oder war das ein Schreibfehler?","0","1","0","null","","","<div class = 'row'><div class = 'column'><img src = 'category3/CS3.png' width = '70%;'></div><div class = 'column'><img src = 'uspos/5830.bmp' width = '100%;'></div></div>","null","pos","CS","CS","3","category3/CS3.png","","","","",""
"","html-keyboard-response","13","168474","0.0-6.0-0.0-0.7","uj0tx3tyow","many_one","0","direct_first","1","er06as20","1","35","1","0","3","1","OK. Ich habe ein bisschen Vorkenntnisse in Chinesisch. Ich glaube, wie (un)angenehm ich ein Zeichen fand, war oft davon abhängig, wie angenehm es zu schreiben ist. Die meisten Silben waren eher angenehm, weil ich die chinesische Sprache etwas gewohnt bin. Ich glaube nicht, dass die Bilder einen großen Einfluss hatten. Auch fand ich keinen allzu großen Unterschied zwischen den Zeichen und vor allem den Silben. Wurde die Silbe ""goa"" als Test benutzt, oder war das ein Schreibfehler?","0","1","0","null","","","<div class = 'row'><div class = 'column'><img src = 'usneg/9404.bmp' width = '100%;'></div><div class = 'column'><img src = 'category4/CS3.png' width = '70%;'></div></div>","null","neg","CS","CS","4","category4/CS3.png","","","","",""
"","html-keyboard-response","14","170978","0.0-6.0-0.0-0.8","uj0tx3tyow","many_one","0","direct_first","1","er06as20","1","35","1","0","3","1","OK. Ich habe ein bisschen Vorkenntnisse in Chinesisch. Ich glaube, wie (un)angenehm ich ein Zeichen fand, war oft davon abhängig, wie angenehm es zu schreiben ist. Die meisten Silben waren eher angenehm, weil ich die chinesische Sprache etwas gewohnt bin. Ich glaube nicht, dass die Bilder einen großen Einfluss hatten. Auch fand ich keinen allzu großen Unterschied zwischen den Zeichen und vor allem den Silben. Wurde die Silbe ""goa"" als Test benutzt, oder war das ein Schreibfehler?","0","1","0","null","","","<div class = 'row'><div class = 'column'><img src = 'uspos/2311.bmp' width = '100%;'></div><div class = 'column'><img src = 'category3/CS5.png' width = '70%;'></div></div>","null","pos","CS","CS","3","category3/CS5.png","","","","",""
"","html-keyboard-response","15","173488","0.0-6.0-0.0-0.9","uj0tx3tyow","many_one","0","direct_first","1","er06as20","1","35","1","0","3","1","OK. Ich habe ein bisschen Vorkenntnisse in Chinesisch. Ich glaube, wie (un)angenehm ich ein Zeichen fand, war oft davon abhängig, wie angenehm es zu schreiben ist. Die meisten Silben waren eher angenehm, weil ich die chinesische Sprache etwas gewohnt bin. Ich glaube nicht, dass die Bilder einen großen Einfluss hatten. Auch fand ich keinen allzu großen Unterschied zwischen den Zeichen und vor allem den Silben. Wurde die Silbe ""goa"" als Test benutzt, oder war das ein Schreibfehler?","0","1","0","null","","","<div class = 'row'><div class = 'column'><img src = 'category1/CS8.png' width = '70%;'></div><div class = 'column'><img src = 'uspos/7325.bmp' width = '100%;'></div></div>","null","pos","CS","CS","1","category1/CS8.png","","","","",""
"","html-keyboard-response","16","175991","0.0-6.0-0.0-0.10","uj0tx3tyow","many_one","0","direct_first","1","er06as20","1","35","1","0","3","1","OK. Ich habe ein bisschen Vorkenntnisse in Chinesisch. Ich glaube, wie (un)angenehm ich ein Zeichen fand, war oft davon abhängig, wie angenehm es zu schreiben ist. Die meisten Silben waren eher angenehm, weil ich die chinesische Sprache etwas gewohnt bin. Ich glaube nicht, dass die Bilder einen großen Einfluss hatten. Auch fand ich keinen allzu großen Unterschied zwischen den Zeichen und vor allem den Silben. Wurde die Silbe ""goa"" als Test benutzt, oder war das ein Schreibfehler?","0","1","0","null","","","<div class = 'row'><div class = 'column'><img src = 'uspos/2150.bmp' width = '100%;'></div><div class = 'column'><img src = 'category1/CS4.png' width = '70%;'></div></div>","null","pos","CS","CS","1","category1/CS4.png","","","","",""
"","html-keyboard-response","17","178496","0.0-6.0-0.0-0.11","uj0tx3tyow","many_one","0","direct_first","1","er06as20","1","35","1","0","3","1","OK. Ich habe ein bisschen Vorkenntnisse in Chinesisch. Ich glaube, wie (un)angenehm ich ein Zeichen fand, war oft davon abhängig, wie angenehm es zu schreiben ist. Die meisten Silben waren eher angenehm, weil ich die chinesische Sprache etwas gewohnt bin. Ich glaube nicht, dass die Bilder einen großen Einfluss hatten. Auch fand ich keinen allzu großen Unterschied zwischen den Zeichen und vor allem den Silben. Wurde die Silbe ""goa"" als Test benutzt, oder war das ein Schreibfehler?","0","1","0","null","","","<div class = 'row'><div class = 'column'><img src = 'usneg/9330.bmp' width = '100%;'></div><div class = 'column'><img src = 'category2/CS2.png' width = '70%;'></div></div>","null","neg","CS","CS","2","category2/CS2.png","","","","",""
"","html-keyboard-response","18","181000","0.0-6.0-0.0-0.12","uj0tx3tyow","many_one","0","direct_first","1","er06as20","1","35","1","0","3","1","OK. Ich habe ein bisschen Vorkenntnisse in Chinesisch. Ich glaube, wie (un)angenehm ich ein Zeichen fand, war oft davon abhängig, wie angenehm es zu schreiben ist. Die meisten Silben waren eher angenehm, weil ich die chinesische Sprache etwas gewohnt bin. Ich glaube nicht, dass die Bilder einen großen Einfluss hatten. Auch fand ich keinen allzu großen Unterschied zwischen den Zeichen und vor allem den Silben. Wurde die Silbe ""goa"" als Test benutzt, oder war das ein Schreibfehler?","0","1","0","null","","","<div class = 'row'><div class = 'column'><img src = 'category3/CS10.png' width = '70%;'></div><div class = 'column'><img src = 'uspos/5600.bmp' width = '100%;'></div></div>","null","pos","CS","CS","3","category3/CS10.png","","","","",""
"","html-keyboard-response","19","183507","0.0-6.0-0.0-0.13","uj0tx3tyow","many_one","0","direct_first","1","er06as20","1","35","1","0","3","1","OK. Ich habe ein bisschen Vorkenntnisse in Chinesisch. Ich glaube, wie (un)angenehm ich ein Zeichen fand, war oft davon abhängig, wie angenehm es zu schreiben ist. Die meisten Silben waren eher angenehm, weil ich die chinesische Sprache etwas gewohnt bin. Ich glaube nicht, dass die Bilder einen großen Einfluss hatten. Auch fand ich keinen allzu großen Unterschied zwischen den Zeichen und vor allem den Silben. Wurde die Silbe ""goa"" als Test benutzt, oder war das ein Schreibfehler?","0","1","0","null","","","<div class = 'row'><div class = 'column'><img src = 'category1/CS5.png' width = '70%;'></div><div class = 'column'><img src = 'uspos/2550.bmp' width = '100%;'></div></div>","null","pos","CS","CS","1","category1/CS5.png","","","","",""
"","html-keyboard-response","20","186010","0.0-6.0-0.0-0.14","uj0tx3tyow","many_one","0","direct_first","1","er06as20","1","35","1","0","3","1","OK. Ich habe ein bisschen Vorkenntnisse in Chinesisch. Ich glaube, wie (un)angenehm ich ein Zeichen fand, war oft davon abhängig, wie angenehm es zu schreiben ist. Die meisten Silben waren eher angenehm, weil ich die chinesische Sprache etwas gewohnt bin. Ich glaube nicht, dass die Bilder einen großen Einfluss hatten. Auch fand ich keinen allzu großen Unterschied zwischen den Zeichen und vor allem den Silben. Wurde die Silbe ""goa"" als Test benutzt, oder war das ein Schreibfehler?","0","1","0","null","","","<div class = 'row'><div class = 'column'><img src = 'category2/CS9.png' width = '70%;'></div><div class = 'column'><img src = 'usneg/2900.bmp' width = '100%;'></div></div>","null","neg","CS","CS","2","category2/CS9.png","","","","",""
"","html-keyboard-response","21","188519","0.0-6.0-0.0-0.15","uj0tx3tyow","many_one","0","direct_first","1","er06as20","1","35","1","0","3","1","OK. Ich habe ein bisschen Vorkenntnisse in Chinesisch. Ich glaube, wie (un)angenehm ich ein Zeichen fand, war oft davon abhängig, wie angenehm es zu schreiben ist. Die meisten Silben waren eher angenehm, weil ich die chinesische Sprache etwas gewohnt bin. Ich glaube nicht, dass die Bilder einen großen Einfluss hatten. Auch fand ich keinen allzu großen Unterschied zwischen den Zeichen und vor allem den Silben. Wurde die Silbe ""goa"" als Test benutzt, oder war das ein Schreibfehler?","0","1","0","null","","","<div class = 'row'><div class = 'column'><img src = 'category3/CS6.png' width = '70%;'></div><div class = 'column'><img src = 'uspos/1463.bmp' width = '100%;'></div></div>","null","pos","CS","CS","3","category3/CS6.png","","","","",""
"","html-keyboard-response","22","191023","0.0-6.0-0.0-0.16","uj0tx3tyow","many_one","0","direct_first","1","er06as20","1","35","1","0","3","1","OK. Ich habe ein bisschen Vorkenntnisse in Chinesisch. Ich glaube, wie (un)angenehm ich ein Zeichen fand, war oft davon abhängig, wie angenehm es zu schreiben ist. Die meisten Silben waren eher angenehm, weil ich die chinesische Sprache etwas gewohnt bin. Ich glaube nicht, dass die Bilder einen großen Einfluss hatten. Auch fand ich keinen allzu großen Unterschied zwischen den Zeichen und vor allem den Silben. Wurde die Silbe ""goa"" als Test benutzt, oder war das ein Schreibfehler?","0","1","0","null","","","<div class = 'row'><div class = 'column'><img src = 'usneg/2205.bmp' width = '100%;'></div><div class = 'column'><img src = 'category2/CS8.png' width = '70%;'></div></div>","null","neg","CS","CS","2","category2/CS8.png","","","","",""
"","html-keyboard-response","23","193526","0.0-6.0-0.0-0.17","uj0tx3tyow","many_one","0","direct_first","1","er06as20","1","35","1","0","3","1","OK. Ich habe ein bisschen Vorkenntnisse in Chinesisch. Ich glaube, wie (un)angenehm ich ein Zeichen fand, war oft davon abhängig, wie angenehm es zu schreiben ist. Die meisten Silben waren eher angenehm, weil ich die chinesische Sprache etwas gewohnt bin. Ich glaube nicht, dass die Bilder einen großen Einfluss hatten. Auch fand ich keinen allzu großen Unterschied zwischen den Zeichen und vor allem den Silben. Wurde die Silbe ""goa"" als Test benutzt, oder war das ein Schreibfehler?","0","1","0","null","","","<div class = 'row'><div class = 'column'><img src = 'uspos/1340.bmp' width = '100%;'></div><div class = 'column'><img src = 'category1/CS6.png' width = '70%;'></div></div>","null","pos","CS","CS","1","category1/CS6.png","","","","",""
"","html-keyboard-response","24","196028","0.0-6.0-0.0-0.18","uj0tx3tyow","many_one","0","direct_first","1","er06as20","1","35","1","0","3","1","OK. Ich habe ein bisschen Vorkenntnisse in Chinesisch. Ich glaube, wie (un)angenehm ich ein Zeichen fand, war oft davon abhängig, wie angenehm es zu schreiben ist. Die meisten Silben waren eher angenehm, weil ich die chinesische Sprache etwas gewohnt bin. Ich glaube nicht, dass die Bilder einen großen Einfluss hatten. Auch fand ich keinen allzu großen Unterschied zwischen den Zeichen und vor allem den Silben. Wurde die Silbe ""goa"" als Test benutzt, oder war das ein Schreibfehler?","0","1","0","null","","","<div class = 'row'><div class = 'column'><img src = 'category3/CS4.png' width = '70%;'></div><div class = 'column'><img src = 'uspos/7580.bmp' width = '100%;'></div></div>","null","pos","CS","CS","3","category3/CS4.png","","","","",""
"","html-keyboard-response","25","198535","0.0-6.0-0.0-0.19","uj0tx3tyow","many_one","0","direct_first","1","er06as20","1","35","1","0","3","1","OK. Ich habe ein bisschen Vorkenntnisse in Chinesisch. Ich glaube, wie (un)angenehm ich ein Zeichen fand, war oft davon abhängig, wie angenehm es zu schreiben ist. Die meisten Silben waren eher angenehm, weil ich die chinesische Sprache etwas gewohnt bin. Ich glaube nicht, dass die Bilder einen großen Einfluss hatten. Auch fand ich keinen allzu großen Unterschied zwischen den Zeichen und vor allem den Silben. Wurde die Silbe ""goa"" als Test benutzt, oder war das ein Schreibfehler?","0","1","0","null","","","<div class = 'row'><div class = 'column'><img src = 'category4/CS2.png' width = '70%;'></div><div class = 'column'><img src = 'usneg/7380.bmp' width = '100%;'></div></div>","null","neg","CS","CS","4","category4/CS2.png","","","","",""
"","survey-html-form","26","253852","0.0-6.0-1.0","uj0tx3tyow","many_one","0","direct_first","1","er06as20","1","35","1","0","3","1","OK. Ich habe ein bisschen Vorkenntnisse in Chinesisch. Ich glaube, wie (un)angenehm ich ein Zeichen fand, war oft davon abhängig, wie angenehm es zu schreiben ist. Die meisten Silben waren eher angenehm, weil ich die chinesische Sprache etwas gewohnt bin. Ich glaube nicht, dass die Bilder einen großen Einfluss hatten. Auch fand ich keinen allzu großen Unterschied zwischen den Zeichen und vor allem den Silben. Wurde die Silbe ""goa"" als Test benutzt, oder war das ein Schreibfehler?","0","1","0","54814.36499999836","","{}","","","","","","","","","","","",""
"","html-keyboard-response","27","257862","0.0-6.0-2.0-0.0","uj0tx3tyow","many_one","0","direct_first","1","er06as20","1","35","1","0","3","1","OK. Ich habe ein bisschen Vorkenntnisse in Chinesisch. Ich glaube, wie (un)angenehm ich ein Zeichen fand, war oft davon abhängig, wie angenehm es zu schreiben ist. Die meisten Silben waren eher angenehm, weil ich die chinesische Sprache etwas gewohnt bin. Ich glaube nicht, dass die Bilder einen großen Einfluss hatten. Auch fand ich keinen allzu großen Unterschied zwischen den Zeichen und vor allem den Silben. Wurde die Silbe ""goa"" als Test benutzt, oder war das ein Schreibfehler?","0","1","0","null","","","<div class = 'row'><div class = 'column'><img src = 'uspos/2150.bmp' width = '100%;'></div><div class = 'column'><img src = 'category1/CS4.png' width = '70%;'></div></div>","null","pos","CS","CS","1","category1/CS4.png","","","","",""
"","html-keyboard-response","28","260371","0.0-6.0-2.0-0.1","uj0tx3tyow","many_one","0","direct_first","1","er06as20","1","35","1","0","3","1","OK. Ich habe ein bisschen Vorkenntnisse in Chinesisch. Ich glaube, wie (un)angenehm ich ein Zeichen fand, war oft davon abhängig, wie angenehm es zu schreiben ist. Die meisten Silben waren eher angenehm, weil ich die chinesische Sprache etwas gewohnt bin. Ich glaube nicht, dass die Bilder einen großen Einfluss hatten. Auch fand ich keinen allzu großen Unterschied zwischen den Zeichen und vor allem den Silben. Wurde die Silbe ""goa"" als Test benutzt, oder war das ein Schreibfehler?","0","1","0","null","","","<div class = 'row'><div class = 'column'><img src = 'usneg/9404.bmp' width = '100%;'></div><div class = 'column'><img src = 'category4/CS3.png' width = '70%;'></div></div>","null","neg","CS","CS","4","category4/CS3.png","","","","",""
"","html-keyboard-response","29","262878","0.0-6.0-2.0-0.2","uj0tx3tyow","many_one","0","direct_first","1","er06as20","1","35","1","0","3","1","OK. Ich habe ein bisschen Vorkenntnisse in Chinesisch. Ich glaube, wie (un)angenehm ich ein Zeichen fand, war oft davon abhängig, wie angenehm es zu schreiben ist. Die meisten Silben waren eher angenehm, weil ich die chinesische Sprache etwas gewohnt bin. Ich glaube nicht, dass die Bilder einen großen Einfluss hatten. Auch fand ich keinen allzu großen Unterschied zwischen den Zeichen und vor allem den Silben. Wurde die Silbe ""goa"" als Test benutzt, oder war das ein Schreibfehler?","0","1","0","null","","","<div class = 'row'><div class = 'column'><img src = 'uspos/5600.bmp' width = '100%;'></div><div class = 'column'><img src = 'category3/CS10.png' width = '70%;'></div></div>","null","pos","CS","CS","3","category3/CS10.png","","","","",""
"","html-keyboard-response","30","265385","0.0-6.0-2.0-0.3","uj0tx3tyow","many_one","0","direct_first","1","er06as20","1","35","1","0","3","1","OK. Ich habe ein bisschen Vorkenntnisse in Chinesisch. Ich glaube, wie (un)angenehm ich ein Zeichen fand, war oft davon abhängig, wie angenehm es zu schreiben ist. Die meisten Silben waren eher angenehm, weil ich die chinesische Sprache etwas gewohnt bin. Ich glaube nicht, dass die Bilder einen großen Einfluss hatten. Auch fand ich keinen allzu großen Unterschied zwischen den Zeichen und vor allem den Silben. Wurde die Silbe ""goa"" als Test benutzt, oder war das ein Schreibfehler?","0","1","0","null","","","<div class = 'row'><div class = 'column'><img src = 'category4/CS9.png' width = '70%;'></div><div class = 'column'><img src = 'usneg/9421.bmp' width = '100%;'></div></div>","null","neg","CS","CS","4","category4/CS9.png","","","","",""
"","html-keyboard-response","31","267891","0.0-6.0-2.0-0.4","uj0tx3tyow","many_one","0","direct_first","1","er06as20","1","35","1","0","3","1","OK. Ich habe ein bisschen Vorkenntnisse in Chinesisch. Ich glaube, wie (un)angenehm ich ein Zeichen fand, war oft davon abhängig, wie angenehm es zu schreiben ist. Die meisten Silben waren eher angenehm, weil ich die chinesische Sprache etwas gewohnt bin. Ich glaube nicht, dass die Bilder einen großen Einfluss hatten. Auch fand ich keinen allzu großen Unterschied zwischen den Zeichen und vor allem den Silben. Wurde die Silbe ""goa"" als Test benutzt, oder war das ein Schreibfehler?","0","1","0","null","","","<div class = 'row'><div class = 'column'><img src = 'usneg/1280.bmp' width = '100%;'></div><div class = 'column'><img src = 'category2/CS10.png' width = '70%;'></div></div>","null","neg","CS","CS","2","category2/CS10.png","","","","",""
"","html-keyboard-response","32","270399","0.0-6.0-2.0-0.5","uj0tx3tyow","many_one","0","direct_first","1","er06as20","1","35","1","0","3","1","OK. Ich habe ein bisschen Vorkenntnisse in Chinesisch. Ich glaube, wie (un)angenehm ich ein Zeichen fand, war oft davon abhängig, wie angenehm es zu schreiben ist. Die meisten Silben waren eher angenehm, weil ich die chinesische Sprache etwas gewohnt bin. Ich glaube nicht, dass die Bilder einen großen Einfluss hatten. Auch fand ich keinen allzu großen Unterschied zwischen den Zeichen und vor allem den Silben. Wurde die Silbe ""goa"" als Test benutzt, oder war das ein Schreibfehler?","0","1","0","null","","","<div class = 'row'><div class = 'column'><img src = 'category3/CS3.png' width = '70%;'></div><div class = 'column'><img src = 'uspos/5830.bmp' width = '100%;'></div></div>","null","pos","CS","CS","3","category3/CS3.png","","","","",""
"","html-keyboard-response","33","272905","0.0-6.0-2.0-0.6","uj0tx3tyow","many_one","0","direct_first","1","er06as20","1","35","1","0","3","1","OK. Ich habe ein bisschen Vorkenntnisse in Chinesisch. Ich glaube, wie (un)angenehm ich ein Zeichen fand, war oft davon abhängig, wie angenehm es zu schreiben ist. Die meisten Silben waren eher angenehm, weil ich die chinesische Sprache etwas gewohnt bin. Ich glaube nicht, dass die Bilder einen großen Einfluss hatten. Auch fand ich keinen allzu großen Unterschied zwischen den Zeichen und vor allem den Silben. Wurde die Silbe ""goa"" als Test benutzt, oder war das ein Schreibfehler?","0","1","0","null","","","<div class = 'row'><div class = 'column'><img src = 'usneg/9635.2.bmp' width = '100%;'></div><div class = 'column'><img src = 'category4/CS5.png' width = '70%;'></div></div>","null","neg","CS","CS","4","category4/CS5.png","","","","",""
"","html-keyboard-response","34","275412","0.0-6.0-2.0-0.7","uj0tx3tyow","many_one","0","direct_first","1","er06as20","1","35","1","0","3","1","OK. Ich habe ein bisschen Vorkenntnisse in Chinesisch. Ich glaube, wie (un)angenehm ich ein Zeichen fand, war oft davon abhängig, wie angenehm es zu schreiben ist. Die meisten Silben waren eher angenehm, weil ich die chinesische Sprache etwas gewohnt bin. Ich glaube nicht, dass die Bilder einen großen Einfluss hatten. Auch fand ich keinen allzu großen Unterschied zwischen den Zeichen und vor allem den Silben. Wurde die Silbe ""goa"" als Test benutzt, oder war das ein Schreibfehler?","0","1","0","null","","","<div class = 'row'><div class = 'column'><img src = 'category2/CS9.png' width = '70%;'></div><div class = 'column'><img src = 'usneg/2900.bmp' width = '100%;'></div></div>","null","neg","CS","CS","2","category2/CS9.png","","","","",""
"","html-keyboard-response","35","277919","0.0-6.0-2.0-0.8","uj0tx3tyow","many_one","0","direct_first","1","er06as20","1","35","1","0","3","1","OK. Ich habe ein bisschen Vorkenntnisse in Chinesisch. Ich glaube, wie (un)angenehm ich ein Zeichen fand, war oft davon abhängig, wie angenehm es zu schreiben ist. Die meisten Silben waren eher angenehm, weil ich die chinesische Sprache etwas gewohnt bin. Ich glaube nicht, dass die Bilder einen großen Einfluss hatten. Auch fand ich keinen allzu großen Unterschied zwischen den Zeichen und vor allem den Silben. Wurde die Silbe ""goa"" als Test benutzt, oder war das ein Schreibfehler?","0","1","0","null","","","<div class = 'row'><div class = 'column'><img src = 'category1/CS9.png' width = '70%;'></div><div class = 'column'><img src = 'uspos/2341.bmp' width = '100%;'></div></div>","null","pos","CS","CS","1","category1/CS9.png","","","","",""
"","html-keyboard-response","36","280422","0.0-6.0-2.0-0.9","uj0tx3tyow","many_one","0","direct_first","1","er06as20","1","35","1","0","3","1","OK. Ich habe ein bisschen Vorkenntnisse in Chinesisch. Ich glaube, wie (un)angenehm ich ein Zeichen fand, war oft davon abhängig, wie angenehm es zu schreiben ist. Die meisten Silben waren eher angenehm, weil ich die chinesische Sprache etwas gewohnt bin. Ich glaube nicht, dass die Bilder einen großen Einfluss hatten. Auch fand ich keinen allzu großen Unterschied zwischen den Zeichen und vor allem den Silben. Wurde die Silbe ""goa"" als Test benutzt, oder war das ein Schreibfehler?","0","1","0","null","","","<div class = 'row'><div class = 'column'><img src = 'category3/CS6.png' width = '70%;'></div><div class = 'column'><img src = 'uspos/1463.bmp' width = '100%;'></div></div>","null","pos","CS","CS","3","category3/CS6.png","","","","",""
"","html-keyboard-response","37","282928","0.0-6.0-2.0-0.10","uj0tx3tyow","many_one","0","direct_first","1","er06as20","1","35","1","0","3","1","OK. Ich habe ein bisschen Vorkenntnisse in Chinesisch. Ich glaube, wie (un)angenehm ich ein Zeichen fand, war oft davon abhängig, wie angenehm es zu schreiben ist. Die meisten Silben waren eher angenehm, weil ich die chinesische Sprache etwas gewohnt bin. Ich glaube nicht, dass die Bilder einen großen Einfluss hatten. Auch fand ich keinen allzu großen Unterschied zwischen den Zeichen und vor allem den Silben. Wurde die Silbe ""goa"" als Test benutzt, oder war das ein Schreibfehler?","0","1","0","null","","","<div class = 'row'><div class = 'column'><img src = 'usneg/6570.1.bmp' width = '100%;'></div><div class = 'column'><img src = 'category4/CS1.png' width = '70%;'></div></div>","null","neg","CS","CS","4","category4/CS1.png","","","","",""
"","html-keyboard-response","38","285434","0.0-6.0-2.0-0.11","uj0tx3tyow","many_one","0","direct_first","1","er06as20","1","35","1","0","3","1","OK. Ich habe ein bisschen Vorkenntnisse in Chinesisch. Ich glaube, wie (un)angenehm ich ein Zeichen fand, war oft davon abhängig, wie angenehm es zu schreiben ist. Die meisten Silben waren eher angenehm, weil ich die chinesische Sprache etwas gewohnt bin. Ich glaube nicht, dass die Bilder einen großen Einfluss hatten. Auch fand ich keinen allzu großen Unterschied zwischen den Zeichen und vor allem den Silben. Wurde die Silbe ""goa"" als Test benutzt, oder war das ein Schreibfehler?","0","1","0","null","","","<div class = 'row'><div class = 'column'><img src = 'category1/CS5.png' width = '70%;'></div><div class = 'column'><img src = 'uspos/2550.bmp' width = '100%;'></div></div>","null","pos","CS","CS","1","category1/CS5.png","","","","",""
"","html-keyboard-response","39","287942","0.0-6.0-2.0-0.12","uj0tx3tyow","many_one","0","direct_first","1","er06as20","1","35","1","0","3","1","OK. Ich habe ein bisschen Vorkenntnisse in Chinesisch. Ich glaube, wie (un)angenehm ich ein Zeichen fand, war oft davon abhängig, wie angenehm es zu schreiben ist. Die meisten Silben waren eher angenehm, weil ich die chinesische Sprache etwas gewohnt bin. Ich glaube nicht, dass die Bilder einen großen Einfluss hatten. Auch fand ich keinen allzu großen Unterschied zwischen den Zeichen und vor allem den Silben. Wurde die Silbe ""goa"" als Test benutzt, oder war das ein Schreibfehler?","0","1","0","null","","","<div class = 'row'><div class = 'column'><img src = 'category1/CS6.png' width = '70%;'></div><div class = 'column'><img src = 'uspos/1340.bmp' width = '100%;'></div></div>","null","pos","CS","CS","1","category1/CS6.png","","","","",""
"","html-keyboard-response","40","290448","0.0-6.0-2.0-0.13","uj0tx3tyow","many_one","0","direct_first","1","er06as20","1","35","1","0","3","1","OK. Ich habe ein bisschen Vorkenntnisse in Chinesisch. Ich glaube, wie (un)angenehm ich ein Zeichen fand, war oft davon abhängig, wie angenehm es zu schreiben ist. Die meisten Silben waren eher angenehm, weil ich die chinesische Sprache etwas gewohnt bin. Ich glaube nicht, dass die Bilder einen großen Einfluss hatten. Auch fand ich keinen allzu großen Unterschied zwischen den Zeichen und vor allem den Silben. Wurde die Silbe ""goa"" als Test benutzt, oder war das ein Schreibfehler?","0","1","0","null","","","<div class = 'row'><div class = 'column'><img src = 'uspos/7580.bmp' width = '100%;'></div><div class = 'column'><img src = 'category3/CS4.png' width = '70%;'></div></div>","null","pos","CS","CS","3","category3/CS4.png","","","","",""
"","html-keyboard-response","41","292951","0.0-6.0-2.0-0.14","uj0tx3tyow","many_one","0","direct_first","1","er06as20","1","35","1","0","3","1","OK. Ich habe ein bisschen Vorkenntnisse in Chinesisch. Ich glaube, wie (un)angenehm ich ein Zeichen fand, war oft davon abhängig, wie angenehm es zu schreiben ist. Die meisten Silben waren eher angenehm, weil ich die chinesische Sprache etwas gewohnt bin. Ich glaube nicht, dass die Bilder einen großen Einfluss hatten. Auch fand ich keinen allzu großen Unterschied zwischen den Zeichen und vor allem den Silben. Wurde die Silbe ""goa"" als Test benutzt, oder war das ein Schreibfehler?","0","1","0","null","","","<div class = 'row'><div class = 'column'><img src = 'category3/CS5.png' width = '70%;'></div><div class = 'column'><img src = 'uspos/2311.bmp' width = '100%;'></div></div>","null","pos","CS","CS","3","category3/CS5.png","","","","",""
"","html-keyboard-response","42","295457","0.0-6.0-2.0-0.15","uj0tx3tyow","many_one","0","direct_first","1","er06as20","1","35","1","0","3","1","OK. Ich habe ein bisschen Vorkenntnisse in Chinesisch. Ich glaube, wie (un)angenehm ich ein Zeichen fand, war oft davon abhängig, wie angenehm es zu schreiben ist. Die meisten Silben waren eher angenehm, weil ich die chinesische Sprache etwas gewohnt bin. Ich glaube nicht, dass die Bilder einen großen Einfluss hatten. Auch fand ich keinen allzu großen Unterschied zwischen den Zeichen und vor allem den Silben. Wurde die Silbe ""goa"" als Test benutzt, oder war das ein Schreibfehler?","0","1","0","null","","","<div class = 'row'><div class = 'column'><img src = 'category1/CS8.png' width = '70%;'></div><div class = 'column'><img src = 'uspos/7325.bmp' width = '100%;'></div></div>","null","pos","CS","CS","1","category1/CS8.png","","","","",""
"","html-keyboard-response","43","297963","0.0-6.0-2.0-0.16","uj0tx3tyow","many_one","0","direct_first","1","er06as20","1","35","1","0","3","1","OK. Ich habe ein bisschen Vorkenntnisse in Chinesisch. Ich glaube, wie (un)angenehm ich ein Zeichen fand, war oft davon abhängig, wie angenehm es zu schreiben ist. Die meisten Silben waren eher angenehm, weil ich die chinesische Sprache etwas gewohnt bin. Ich glaube nicht, dass die Bilder einen großen Einfluss hatten. Auch fand ich keinen allzu großen Unterschied zwischen den Zeichen und vor allem den Silben. Wurde die Silbe ""goa"" als Test benutzt, oder war das ein Schreibfehler?","0","1","0","null","","","<div class = 'row'><div class = 'column'><img src = 'usneg/9560.bmp' width = '100%;'></div><div class = 'column'><img src = 'category2/CS5.png' width = '70%;'></div></div>","null","neg","CS","CS","2","category2/CS5.png","","","","",""
"","html-keyboard-response","44","300469","0.0-6.0-2.0-0.17","uj0tx3tyow","many_one","0","direct_first","1","er06as20","1","35","1","0","3","1","OK. Ich habe ein bisschen Vorkenntnisse in Chinesisch. Ich glaube, wie (un)angenehm ich ein Zeichen fand, war oft davon abhängig, wie angenehm es zu schreiben ist. Die meisten Silben waren eher angenehm, weil ich die chinesische Sprache etwas gewohnt bin. Ich glaube nicht, dass die Bilder einen großen Einfluss hatten. Auch fand ich keinen allzu großen Unterschied zwischen den Zeichen und vor allem den Silben. Wurde die Silbe ""goa"" als Test benutzt, oder war das ein Schreibfehler?","0","1","0","null","","","<div class = 'row'><div class = 'column'><img src = 'usneg/7380.bmp' width = '100%;'></div><div class = 'column'><img src = 'category4/CS2.png' width = '70%;'></div></div>","null","neg","CS","CS","4","category4/CS2.png","","","","",""
"","html-keyboard-response","45","302973","0.0-6.0-2.0-0.18","uj0tx3tyow","many_one","0","direct_first","1","er06as20","1","35","1","0","3","1","OK. Ich habe ein bisschen Vorkenntnisse in Chinesisch. Ich glaube, wie (un)angenehm ich ein Zeichen fand, war oft davon abhängig, wie angenehm es zu schreiben ist. Die meisten Silben waren eher angenehm, weil ich die chinesische Sprache etwas gewohnt bin. Ich glaube nicht, dass die Bilder einen großen Einfluss hatten. Auch fand ich keinen allzu großen Unterschied zwischen den Zeichen und vor allem den Silben. Wurde die Silbe ""goa"" als Test benutzt, oder war das ein Schreibfehler?","0","1","0","null","","","<div class = 'row'><div class = 'column'><img src = 'category2/CS2.png' width = '70%;'></div><div class = 'column'><img src = 'usneg/9330.bmp' width = '100%;'></div></div>","null","neg","CS","CS","2","category2/CS2.png","","","","",""
"","html-keyboard-response","46","305478","0.0-6.0-2.0-0.19","uj0tx3tyow","many_one","0","direct_first","1","er06as20","1","35","1","0","3","1","OK. Ich habe ein bisschen Vorkenntnisse in Chinesisch. Ich glaube, wie (un)angenehm ich ein Zeichen fand, war oft davon abhängig, wie angenehm es zu schreiben ist. Die meisten Silben waren eher angenehm, weil ich die chinesische Sprache etwas gewohnt bin. Ich glaube nicht, dass die Bilder einen großen Einfluss hatten. Auch fand ich keinen allzu großen Unterschied zwischen den Zeichen und vor allem den Silben. Wurde die Silbe ""goa"" als Test benutzt, oder war das ein Schreibfehler?","0","1","0","null","","","<div class = 'row'><div class = 'column'><img src = 'category2/CS8.png' width = '70%;'></div><div class = 'column'><img src = 'usneg/2205.bmp' width = '100%;'></div></div>","null","neg","CS","CS","2","category2/CS8.png","","","","",""
"","survey-html-form","47","314044","0.0-6.0-3.0","uj0tx3tyow","many_one","0","direct_first","1","er06as20","1","35","1","0","3","1","OK. Ich habe ein bisschen Vorkenntnisse in Chinesisch. Ich glaube, wie (un)angenehm ich ein Zeichen fand, war oft davon abhängig, wie angenehm es zu schreiben ist. Die meisten Silben waren eher angenehm, weil ich die chinesische Sprache etwas gewohnt bin. Ich glaube nicht, dass die Bilder einen großen Einfluss hatten. Auch fand ich keinen allzu großen Unterschied zwischen den Zeichen und vor allem den Silben. Wurde die Silbe ""goa"" als Test benutzt, oder war das ein Schreibfehler?","0","1","0","8063.414999982342","","{}","","","","","","","","","","","",""
"","html-keyboard-response","48","318048","0.0-6.0-4.0-0.0","uj0tx3tyow","many_one","0","direct_first","1","er06as20","1","35","1","0","3","1","OK. Ich habe ein bisschen Vorkenntnisse in Chinesisch. Ich glaube, wie (un)angenehm ich ein Zeichen fand, war oft davon abhängig, wie angenehm es zu schreiben ist. Die meisten Silben waren eher angenehm, weil ich die chinesische Sprache etwas gewohnt bin. Ich glaube nicht, dass die Bilder einen großen Einfluss hatten. Auch fand ich keinen allzu großen Unterschied zwischen den Zeichen und vor allem den Silben. Wurde die Silbe ""goa"" als Test benutzt, oder war das ein Schreibfehler?","0","1","0","null","","","<div class = 'row'><div class = 'column'><img src = 'uspos/1340.bmp' width = '100%;'></div><div class = 'column'><img src = 'category1/CS6.png' width = '70%;'></div></div>","null","pos","CS","CS","1","category1/CS6.png","","","","",""
"","html-keyboard-response","49","320555","0.0-6.0-4.0-0.1","uj0tx3tyow","many_one","0","direct_first","1","er06as20","1","35","1","0","3","1","OK. Ich habe ein bisschen Vorkenntnisse in Chinesisch. Ich glaube, wie (un)angenehm ich ein Zeichen fand, war oft davon abhängig, wie angenehm es zu schreiben ist. Die meisten Silben waren eher angenehm, weil ich die chinesische Sprache etwas gewohnt bin. Ich glaube nicht, dass die Bilder einen großen Einfluss hatten. Auch fand ich keinen allzu großen Unterschied zwischen den Zeichen und vor allem den Silben. Wurde die Silbe ""goa"" als Test benutzt, oder war das ein Schreibfehler?","0","1","0","null","","","<div class = 'row'><div class = 'column'><img src = 'category2/CS10.png' width = '70%;'></div><div class = 'column'><img src = 'usneg/1280.bmp' width = '100%;'></div></div>","null","neg","CS","CS","2","category2/CS10.png","","","","",""
"","html-keyboard-response","50","323063","0.0-6.0-4.0-0.2","uj0tx3tyow","many_one","0","direct_first","1","er06as20","1","35","1","0","3","1","OK. Ich habe ein bisschen Vorkenntnisse in Chinesisch. Ich glaube, wie (un)angenehm ich ein Zeichen fand, war oft davon abhängig, wie angenehm es zu schreiben ist. Die meisten Silben waren eher angenehm, weil ich die chinesische Sprache etwas gewohnt bin. Ich glaube nicht, dass die Bilder einen großen Einfluss hatten. Auch fand ich keinen allzu großen Unterschied zwischen den Zeichen und vor allem den Silben. Wurde die Silbe ""goa"" als Test benutzt, oder war das ein Schreibfehler?","0","1","0","null","","","<div class = 'row'><div class = 'column'><img src = 'category4/CS1.png' width = '70%;'></div><div class = 'column'><img src = 'usneg/6570.1.bmp' width = '100%;'></div></div>","null","neg","CS","CS","4","category4/CS1.png","","","","",""
"","html-keyboard-response","51","325573","0.0-6.0-4.0-0.3","uj0tx3tyow","many_one","0","direct_first","1","er06as20","1","35","1","0","3","1","OK. Ich habe ein bisschen Vorkenntnisse in Chinesisch. Ich glaube, wie (un)angenehm ich ein Zeichen fand, war oft davon abhängig, wie angenehm es zu schreiben ist. Die meisten Silben waren eher angenehm, weil ich die chinesische Sprache etwas gewohnt bin. Ich glaube nicht, dass die Bilder einen großen Einfluss hatten. Auch fand ich keinen allzu großen Unterschied zwischen den Zeichen und vor allem den Silben. Wurde die Silbe ""goa"" als Test benutzt, oder war das ein Schreibfehler?","0","1","0","null","","","<div class = 'row'><div class = 'column'><img src = 'category3/CS6.png' width = '70%;'></div><div class = 'column'><img src = 'uspos/1463.bmp' width = '100%;'></div></div>","null","pos","CS","CS","3","category3/CS6.png","","","","",""
"","html-keyboard-response","52","328076","0.0-6.0-4.0-0.4","uj0tx3tyow","many_one","0","direct_first","1","er06as20","1","35","1","0","3","1","OK. Ich habe ein bisschen Vorkenntnisse in Chinesisch. Ich glaube, wie (un)angenehm ich ein Zeichen fand, war oft davon abhängig, wie angenehm es zu schreiben ist. Die meisten Silben waren eher angenehm, weil ich die chinesische Sprache etwas gewohnt bin. Ich glaube nicht, dass die Bilder einen großen Einfluss hatten. Auch fand ich keinen allzu großen Unterschied zwischen den Zeichen und vor allem den Silben. Wurde die Silbe ""goa"" als Test benutzt, oder war das ein Schreibfehler?","0","1","0","null","","","<div class = 'row'><div class = 'column'><img src = 'category1/CS4.png' width = '70%;'></div><div class = 'column'><img src = 'uspos/2150.bmp' width = '100%;'></div></div>","null","pos","CS","CS","1","category1/CS4.png","","","","",""
"","html-keyboard-response","53","330582","0.0-6.0-4.0-0.5","uj0tx3tyow","many_one","0","direct_first","1","er06as20","1","35","1","0","3","1","OK. Ich habe ein bisschen Vorkenntnisse in Chinesisch. Ich glaube, wie (un)angenehm ich ein Zeichen fand, war oft davon abhängig, wie angenehm es zu schreiben ist. Die meisten Silben waren eher angenehm, weil ich die chinesische Sprache etwas gewohnt bin. Ich glaube nicht, dass die Bilder einen großen Einfluss hatten. Auch fand ich keinen allzu großen Unterschied zwischen den Zeichen und vor allem den Silben. Wurde die Silbe ""goa"" als Test benutzt, oder war das ein Schreibfehler?","0","1","0","null","","","<div class = 'row'><div class = 'column'><img src = 'category4/CS3.png' width = '70%;'></div><div class = 'column'><img src = 'usneg/9404.bmp' width = '100%;'></div></div>","null","neg","CS","CS","4","category4/CS3.png","","","","",""
"","html-keyboard-response","54","333087","0.0-6.0-4.0-0.6","uj0tx3tyow","many_one","0","direct_first","1","er06as20","1","35","1","0","3","1","OK. Ich habe ein bisschen Vorkenntnisse in Chinesisch. Ich glaube, wie (un)angenehm ich ein Zeichen fand, war oft davon abhängig, wie angenehm es zu schreiben ist. Die meisten Silben waren eher angenehm, weil ich die chinesische Sprache etwas gewohnt bin. Ich glaube nicht, dass die Bilder einen großen Einfluss hatten. Auch fand ich keinen allzu großen Unterschied zwischen den Zeichen und vor allem den Silben. Wurde die Silbe ""goa"" als Test benutzt, oder war das ein Schreibfehler?","0","1","0","null","","","<div class = 'row'><div class = 'column'><img src = 'uspos/2311.bmp' width = '100%;'></div><div class = 'column'><img src = 'category3/CS5.png' width = '70%;'></div></div>","null","pos","CS","CS","3","category3/CS5.png","","","","",""
"","html-keyboard-response","55","335591","0.0-6.0-4.0-0.7","uj0tx3tyow","many_one","0","direct_first","1","er06as20","1","35","1","0","3","1","OK. Ich habe ein bisschen Vorkenntnisse in Chinesisch. Ich glaube, wie (un)angenehm ich ein Zeichen fand, war oft davon abhängig, wie angenehm es zu schreiben ist. Die meisten Silben waren eher angenehm, weil ich die chinesische Sprache etwas gewohnt bin. Ich glaube nicht, dass die Bilder einen großen Einfluss hatten. Auch fand ich keinen allzu großen Unterschied zwischen den Zeichen und vor allem den Silben. Wurde die Silbe ""goa"" als Test benutzt, oder war das ein Schreibfehler?","0","1","0","null","","","<div class = 'row'><div class = 'column'><img src = 'category1/CS9.png' width = '70%;'></div><div class = 'column'><img src = 'uspos/2341.bmp' width = '100%;'></div></div>","null","pos","CS","CS","1","category1/CS9.png","","","","",""
"","html-keyboard-response","56","338096","0.0-6.0-4.0-0.8","uj0tx3tyow","many_one","0","direct_first","1","er06as20","1","35","1","0","3","1","OK. Ich habe ein bisschen Vorkenntnisse in Chinesisch. Ich glaube, wie (un)angenehm ich ein Zeichen fand, war oft davon abhängig, wie angenehm es zu schreiben ist. Die meisten Silben waren eher angenehm, weil ich die chinesische Sprache etwas gewohnt bin. Ich glaube nicht, dass die Bilder einen großen Einfluss hatten. Auch fand ich keinen allzu großen Unterschied zwischen den Zeichen und vor allem den Silben. Wurde die Silbe ""goa"" als Test benutzt, oder war das ein Schreibfehler?","0","1","0","null","","","<div class = 'row'><div class = 'column'><img src = 'category2/CS8.png' width = '70%;'></div><div class = 'column'><img src = 'usneg/2205.bmp' width = '100%;'></div></div>","null","neg","CS","CS","2","category2/CS8.png","","","","",""
"","html-keyboard-response","57","340599","0.0-6.0-4.0-0.9","uj0tx3tyow","many_one","0","direct_first","1","er06as20","1","35","1","0","3","1","OK. Ich habe ein bisschen Vorkenntnisse in Chinesisch. Ich glaube, wie (un)angenehm ich ein Zeichen fand, war oft davon abhängig, wie angenehm es zu schreiben ist. Die meisten Silben waren eher angenehm, weil ich die chinesische Sprache etwas gewohnt bin. Ich glaube nicht, dass die Bilder einen großen Einfluss hatten. Auch fand ich keinen allzu großen Unterschied zwischen den Zeichen und vor allem den Silben. Wurde die Silbe ""goa"" als Test benutzt, oder war das ein Schreibfehler?","0","1","0","null","","","<div class = 'row'><div class = 'column'><img src = 'usneg/9330.bmp' width = '100%;'></div><div class = 'column'><img src = 'category2/CS2.png' width = '70%;'></div></div>","null","neg","CS","CS","2","category2/CS2.png","","","","",""
"","html-keyboard-response","58","343103","0.0-6.0-4.0-0.10","uj0tx3tyow","many_one","0","direct_first","1","er06as20","1","35","1","0","3","1","OK. Ich habe ein bisschen Vorkenntnisse in Chinesisch. Ich glaube, wie (un)angenehm ich ein Zeichen fand, war oft davon abhängig, wie angenehm es zu schreiben ist. Die meisten Silben waren eher angenehm, weil ich die chinesische Sprache etwas gewohnt bin. Ich glaube nicht, dass die Bilder einen großen Einfluss hatten. Auch fand ich keinen allzu großen Unterschied zwischen den Zeichen und vor allem den Silben. Wurde die Silbe ""goa"" als Test benutzt, oder war das ein Schreibfehler?","0","1","0","null","","","<div class = 'row'><div class = 'column'><img src = 'uspos/7580.bmp' width = '100%;'></div><div class = 'column'><img src = 'category3/CS4.png' width = '70%;'></div></div>","null","pos","CS","CS","3","category3/CS4.png","","","","",""
"","html-keyboard-response","59","345608","0.0-6.0-4.0-0.11","uj0tx3tyow","many_one","0","direct_first","1","er06as20","1","35","1","0","3","1","OK. Ich habe ein bisschen Vorkenntnisse in Chinesisch. Ich glaube, wie (un)angenehm ich ein Zeichen fand, war oft davon abhängig, wie angenehm es zu schreiben ist. Die meisten Silben waren eher angenehm, weil ich die chinesische Sprache etwas gewohnt bin. Ich glaube nicht, dass die Bilder einen großen Einfluss hatten. Auch fand ich keinen allzu großen Unterschied zwischen den Zeichen und vor allem den Silben. Wurde die Silbe ""goa"" als Test benutzt, oder war das ein Schreibfehler?","0","1","0","null","","","<div class = 'row'><div class = 'column'><img src = 'category4/CS5.png' width = '70%;'></div><div class = 'column'><img src = 'usneg/9635.2.bmp' width = '100%;'></div></div>","null","neg","CS","CS","4","category4/CS5.png","","","","",""
"","html-keyboard-response","60","348113","0.0-6.0-4.0-0.12","uj0tx3tyow","many_one","0","direct_first","1","er06as20","1","35","1","0","3","1","OK. Ich habe ein bisschen Vorkenntnisse in Chinesisch. Ich glaube, wie (un)angenehm ich ein Zeichen fand, war oft davon abhängig, wie angenehm es zu schreiben ist. Die meisten Silben waren eher angenehm, weil ich die chinesische Sprache etwas gewohnt bin. Ich glaube nicht, dass die Bilder einen großen Einfluss hatten. Auch fand ich keinen allzu großen Unterschied zwischen den Zeichen und vor allem den Silben. Wurde die Silbe ""goa"" als Test benutzt, oder war das ein Schreibfehler?","0","1","0","null","","","<div class = 'row'><div class = 'column'><img src = 'category3/CS10.png' width = '70%;'></div><div class = 'column'><img src = 'uspos/5600.bmp' width = '100%;'></div></div>","null","pos","CS","CS","3","category3/CS10.png","","","","",""
"","html-keyboard-response","61","350618","0.0-6.0-4.0-0.13","uj0tx3tyow","many_one","0","direct_first","1","er06as20","1","35","1","0","3","1","OK. Ich habe ein bisschen Vorkenntnisse in Chinesisch. Ich glaube, wie (un)angenehm ich ein Zeichen fand, war oft davon abhängig, wie angenehm es zu schreiben ist. Die meisten Silben waren eher angenehm, weil ich die chinesische Sprache etwas gewohnt bin. Ich glaube nicht, dass die Bilder einen großen Einfluss hatten. Auch fand ich keinen allzu großen Unterschied zwischen den Zeichen und vor allem den Silben. Wurde die Silbe ""goa"" als Test benutzt, oder war das ein Schreibfehler?","0","1","0","null","","","<div class = 'row'><div class = 'column'><img src = 'usneg/9560.bmp' width = '100%;'></div><div class = 'column'><img src = 'category2/CS5.png' width = '70%;'></div></div>","null","neg","CS","CS","2","category2/CS5.png","","","","",""
"","html-keyboard-response","62","353122","0.0-6.0-4.0-0.14","uj0tx3tyow","many_one","0","direct_first","1","er06as20","1","35","1","0","3","1","OK. Ich habe ein bisschen Vorkenntnisse in Chinesisch. Ich glaube, wie (un)angenehm ich ein Zeichen fand, war oft davon abhängig, wie angenehm es zu schreiben ist. Die meisten Silben waren eher angenehm, weil ich die chinesische Sprache etwas gewohnt bin. Ich glaube nicht, dass die Bilder einen großen Einfluss hatten. Auch fand ich keinen allzu großen Unterschied zwischen den Zeichen und vor allem den Silben. Wurde die Silbe ""goa"" als Test benutzt, oder war das ein Schreibfehler?","0","1","0","null","","","<div class = 'row'><div class = 'column'><img src = 'usneg/7380.bmp' width = '100%;'></div><div class = 'column'><img src = 'category4/CS2.png' width = '70%;'></div></div>","null","neg","CS","CS","4","category4/CS2.png","","","","",""
"","html-keyboard-response","63","355628","0.0-6.0-4.0-0.15","uj0tx3tyow","many_one","0","direct_first","1","er06as20","1","35","1","0","3","1","OK. Ich habe ein bisschen Vorkenntnisse in Chinesisch. Ich glaube, wie (un)angenehm ich ein Zeichen fand, war oft davon abhängig, wie angenehm es zu schreiben ist. Die meisten Silben waren eher angenehm, weil ich die chinesische Sprache etwas gewohnt bin. Ich glaube nicht, dass die Bilder einen großen Einfluss hatten. Auch fand ich keinen allzu großen Unterschied zwischen den Zeichen und vor allem den Silben. Wurde die Silbe ""goa"" als Test benutzt, oder war das ein Schreibfehler?","0","1","0","null","","","<div class = 'row'><div class = 'column'><img src = 'uspos/5830.bmp' width = '100%;'></div><div class = 'column'><img src = 'category3/CS3.png' width = '70%;'></div></div>","null","pos","CS","CS","3","category3/CS3.png","","","","",""
"","html-keyboard-response","64","358132","0.0-6.0-4.0-0.16","uj0tx3tyow","many_one","0","direct_first","1","er06as20","1","35","1","0","3","1","OK. Ich habe ein bisschen Vorkenntnisse in Chinesisch. Ich glaube, wie (un)angenehm ich ein Zeichen fand, war oft davon abhängig, wie angenehm es zu schreiben ist. Die meisten Silben waren eher angenehm, weil ich die chinesische Sprache etwas gewohnt bin. Ich glaube nicht, dass die Bilder einen großen Einfluss hatten. Auch fand ich keinen allzu großen Unterschied zwischen den Zeichen und vor allem den Silben. Wurde die Silbe ""goa"" als Test benutzt, oder war das ein Schreibfehler?","0","1","0","null","","","<div class = 'row'><div class = 'column'><img src = 'usneg/9421.bmp' width = '100%;'></div><div class = 'column'><img src = 'category4/CS9.png' width = '70%;'></div></div>","null","neg","CS","CS","4","category4/CS9.png","","","","",""
"","html-keyboard-response","65","360637","0.0-6.0-4.0-0.17","uj0tx3tyow","many_one","0","direct_first","1","er06as20","1","35","1","0","3","1","OK. Ich habe ein bisschen Vorkenntnisse in Chinesisch. Ich glaube, wie (un)angenehm ich ein Zeichen fand, war oft davon abhängig, wie angenehm es zu schreiben ist. Die meisten Silben waren eher angenehm, weil ich die chinesische Sprache etwas gewohnt bin. Ich glaube nicht, dass die Bilder einen großen Einfluss hatten. Auch fand ich keinen allzu großen Unterschied zwischen den Zeichen und vor allem den Silben. Wurde die Silbe ""goa"" als Test benutzt, oder war das ein Schreibfehler?","0","1","0","null","","","<div class = 'row'><div class = 'column'><img src = 'usneg/2900.bmp' width = '100%;'></div><div class = 'column'><img src = 'category2/CS9.png' width = '70%;'></div></div>","null","neg","CS","CS","2","category2/CS9.png","","","","",""
"","html-keyboard-response","66","363142","0.0-6.0-4.0-0.18","uj0tx3tyow","many_one","0","direct_first","1","er06as20","1","35","1","0","3","1","OK. Ich habe ein bisschen Vorkenntnisse in Chinesisch. Ich glaube, wie (un)angenehm ich ein Zeichen fand, war oft davon abhängig, wie angenehm es zu schreiben ist. Die meisten Silben waren eher angenehm, weil ich die chinesische Sprache etwas gewohnt bin. Ich glaube nicht, dass die Bilder einen großen Einfluss hatten. Auch fand ich keinen allzu großen Unterschied zwischen den Zeichen und vor allem den Silben. Wurde die Silbe ""goa"" als Test benutzt, oder war das ein Schreibfehler?","0","1","0","null","","","<div class = 'row'><div class = 'column'><img src = 'uspos/2550.bmp' width = '100%;'></div><div class = 'column'><img src = 'category1/CS5.png' width = '70%;'></div></div>","null","pos","CS","CS","1","category1/CS5.png","","","","",""
"","html-keyboard-response","67","365647","0.0-6.0-4.0-0.19","uj0tx3tyow","many_one","0","direct_first","1","er06as20","1","35","1","0","3","1","OK. Ich habe ein bisschen Vorkenntnisse in Chinesisch. Ich glaube, wie (un)angenehm ich ein Zeichen fand, war oft davon abhängig, wie angenehm es zu schreiben ist. Die meisten Silben waren eher angenehm, weil ich die chinesische Sprache etwas gewohnt bin. Ich glaube nicht, dass die Bilder einen großen Einfluss hatten. Auch fand ich keinen allzu großen Unterschied zwischen den Zeichen und vor allem den Silben. Wurde die Silbe ""goa"" als Test benutzt, oder war das ein Schreibfehler?","0","1","0","null","","","<div class = 'row'><div class = 'column'><img src = 'uspos/7325.bmp' width = '100%;'></div><div class = 'column'><img src = 'category1/CS8.png' width = '70%;'></div></div>","null","pos","CS","CS","1","category1/CS8.png","","","","",""
"","survey-html-form","68","390478","0.0-6.0-5.0","uj0tx3tyow","many_one","0","direct_first","1","er06as20","1","35","1","0","3","1","OK. Ich habe ein bisschen Vorkenntnisse in Chinesisch. Ich glaube, wie (un)angenehm ich ein Zeichen fand, war oft davon abhängig, wie angenehm es zu schreiben ist. Die meisten Silben waren eher angenehm, weil ich die chinesische Sprache etwas gewohnt bin. Ich glaube nicht, dass die Bilder einen großen Einfluss hatten. Auch fand ich keinen allzu großen Unterschied zwischen den Zeichen und vor allem den Silben. Wurde die Silbe ""goa"" als Test benutzt, oder war das ein Schreibfehler?","0","1","0","24327.664999989793","","{}","","","","","","","","","","","",""
"","html-keyboard-response","69","394490","0.0-6.0-6.0-0.0","uj0tx3tyow","many_one","0","direct_first","1","er06as20","1","35","1","0","3","1","OK. Ich habe ein bisschen Vorkenntnisse in Chinesisch. Ich glaube, wie (un)angenehm ich ein Zeichen fand, war oft davon abhängig, wie angenehm es zu schreiben ist. Die meisten Silben waren eher angenehm, weil ich die chinesische Sprache etwas gewohnt bin. Ich glaube nicht, dass die Bilder einen großen Einfluss hatten. Auch fand ich keinen allzu großen Unterschied zwischen den Zeichen und vor allem den Silben. Wurde die Silbe ""goa"" als Test benutzt, oder war das ein Schreibfehler?","0","1","0","null","","","<div class = 'row'><div class = 'column'><img src = 'category4/CS3.png' width = '70%;'></div><div class = 'column'><img src = 'usneg/9404.bmp' width = '100%;'></div></div>","null","neg","CS","CS","4","category4/CS3.png","","","","",""
"","html-keyboard-response","70","396998","0.0-6.0-6.0-0.1","uj0tx3tyow","many_one","0","direct_first","1","er06as20","1","35","1","0","3","1","OK. Ich habe ein bisschen Vorkenntnisse in Chinesisch. Ich glaube, wie (un)angenehm ich ein Zeichen fand, war oft davon abhängig, wie angenehm es zu schreiben ist. Die meisten Silben waren eher angenehm, weil ich die chinesische Sprache etwas gewohnt bin. Ich glaube nicht, dass die Bilder einen großen Einfluss hatten. Auch fand ich keinen allzu großen Unterschied zwischen den Zeichen und vor allem den Silben. Wurde die Silbe ""goa"" als Test benutzt, oder war das ein Schreibfehler?","0","1","0","null","","","<div class = 'row'><div class = 'column'><img src = 'category1/CS5.png' width = '70%;'></div><div class = 'column'><img src = 'uspos/2550.bmp' width = '100%;'></div></div>","null","pos","CS","CS","1","category1/CS5.png","","","","",""
"","html-keyboard-response","71","399504","0.0-6.0-6.0-0.2","uj0tx3tyow","many_one","0","direct_first","1","er06as20","1","35","1","0","3","1","OK. Ich habe ein bisschen Vorkenntnisse in Chinesisch. Ich glaube, wie (un)angenehm ich ein Zeichen fand, war oft davon abhängig, wie angenehm es zu schreiben ist. Die meisten Silben waren eher angenehm, weil ich die chinesische Sprache etwas gewohnt bin. Ich glaube nicht, dass die Bilder einen großen Einfluss hatten. Auch fand ich keinen allzu großen Unterschied zwischen den Zeichen und vor allem den Silben. Wurde die Silbe ""goa"" als Test benutzt, oder war das ein Schreibfehler?","0","1","0","null","","","<div class = 'row'><div class = 'column'><img src = 'usneg/6570.1.bmp' width = '100%;'></div><div class = 'column'><img src = 'category4/CS1.png' width = '70%;'></div></div>","null","neg","CS","CS","4","category4/CS1.png","","","","",""
"","html-keyboard-response","72","402011","0.0-6.0-6.0-0.3","uj0tx3tyow","many_one","0","direct_first","1","er06as20","1","35","1","0","3","1","OK. Ich habe ein bisschen Vorkenntnisse in Chinesisch. Ich glaube, wie (un)angenehm ich ein Zeichen fand, war oft davon abhängig, wie angenehm es zu schreiben ist. Die meisten Silben waren eher angenehm, weil ich die chinesische Sprache etwas gewohnt bin. Ich glaube nicht, dass die Bilder einen großen Einfluss hatten. Auch fand ich keinen allzu großen Unterschied zwischen den Zeichen und vor allem den Silben. Wurde die Silbe ""goa"" als Test benutzt, oder war das ein Schreibfehler?","0","1","0","null","","","<div class = 'row'><div class = 'column'><img src = 'category3/CS5.png' width = '70%;'></div><div class = 'column'><img src = 'uspos/2311.bmp' width = '100%;'></div></div>","null","pos","CS","CS","3","category3/CS5.png","","","","",""
"","html-keyboard-response","73","404517","0.0-6.0-6.0-0.4","uj0tx3tyow","many_one","0","direct_first","1","er06as20","1","35","1","0","3","1","OK. Ich habe ein bisschen Vorkenntnisse in Chinesisch. Ich glaube, wie (un)angenehm ich ein Zeichen fand, war oft davon abhängig, wie angenehm es zu schreiben ist. Die meisten Silben waren eher angenehm, weil ich die chinesische Sprache etwas gewohnt bin. Ich glaube nicht, dass die Bilder einen großen Einfluss hatten. Auch fand ich keinen allzu großen Unterschied zwischen den Zeichen und vor allem den Silben. Wurde die Silbe ""goa"" als Test benutzt, oder war das ein Schreibfehler?","0","1","0","null","","","<div class = 'row'><div class = 'column'><img src = 'category4/CS5.png' width = '70%;'></div><div class = 'column'><img src = 'usneg/9635.2.bmp' width = '100%;'></div></div>","null","neg","CS","CS","4","category4/CS5.png","","","","",""
"","html-keyboard-response","74","407022","0.0-6.0-6.0-0.5","uj0tx3tyow","many_one","0","direct_first","1","er06as20","1","35","1","0","3","1","OK. Ich habe ein bisschen Vorkenntnisse in Chinesisch. Ich glaube, wie (un)angenehm ich ein Zeichen fand, war oft davon abhängig, wie angenehm es zu schreiben ist. Die meisten Silben waren eher angenehm, weil ich die chinesische Sprache etwas gewohnt bin. Ich glaube nicht, dass die Bilder einen großen Einfluss hatten. Auch fand ich keinen allzu großen Unterschied zwischen den Zeichen und vor allem den Silben. Wurde die Silbe ""goa"" als Test benutzt, oder war das ein Schreibfehler?","0","1","0","null","","","<div class = 'row'><div class = 'column'><img src = 'category2/CS5.png' width = '70%;'></div><div class = 'column'><img src = 'usneg/9560.bmp' width = '100%;'></div></div>","null","neg","CS","CS","2","category2/CS5.png","","","","",""
"","html-keyboard-response","75","409527","0.0-6.0-6.0-0.6","uj0tx3tyow","many_one","0","direct_first","1","er06as20","1","35","1","0","3","1","OK. Ich habe ein bisschen Vorkenntnisse in Chinesisch. Ich glaube, wie (un)angenehm ich ein Zeichen fand, war oft davon abhängig, wie angenehm es zu schreiben ist. Die meisten Silben waren eher angenehm, weil ich die chinesische Sprache etwas gewohnt bin. Ich glaube nicht, dass die Bilder einen großen Einfluss hatten. Auch fand ich keinen allzu großen Unterschied zwischen den Zeichen und vor allem den Silben. Wurde die Silbe ""goa"" als Test benutzt, oder war das ein Schreibfehler?","0","1","0","null","","","<div class = 'row'><div class = 'column'><img src = 'category3/CS6.png' width = '70%;'></div><div class = 'column'><img src = 'uspos/1463.bmp' width = '100%;'></div></div>","null","pos","CS","CS","3","category3/CS6.png","","","","",""
"","html-keyboard-response","76","412032","0.0-6.0-6.0-0.7","uj0tx3tyow","many_one","0","direct_first","1","er06as20","1","35","1","0","3","1","OK. Ich habe ein bisschen Vorkenntnisse in Chinesisch. Ich glaube, wie (un)angenehm ich ein Zeichen fand, war oft davon abhängig, wie angenehm es zu schreiben ist. Die meisten Silben waren eher angenehm, weil ich die chinesische Sprache etwas gewohnt bin. Ich glaube nicht, dass die Bilder einen großen Einfluss hatten. Auch fand ich keinen allzu großen Unterschied zwischen den Zeichen und vor allem den Silben. Wurde die Silbe ""goa"" als Test benutzt, oder war das ein Schreibfehler?","0","1","0","null","","","<div class = 'row'><div class = 'column'><img src = 'category1/CS9.png' width = '70%;'></div><div class = 'column'><img src = 'uspos/2341.bmp' width = '100%;'></div></div>","null","pos","CS","CS","1","category1/CS9.png","","","","",""
"","html-keyboard-response","77","414535","0.0-6.0-6.0-0.8","uj0tx3tyow","many_one","0","direct_first","1","er06as20","1","35","1","0","3","1","OK. Ich habe ein bisschen Vorkenntnisse in Chinesisch. Ich glaube, wie (un)angenehm ich ein Zeichen fand, war oft davon abhängig, wie angenehm es zu schreiben ist. Die meisten Silben waren eher angenehm, weil ich die chinesische Sprache etwas gewohnt bin. Ich glaube nicht, dass die Bilder einen großen Einfluss hatten. Auch fand ich keinen allzu großen Unterschied zwischen den Zeichen und vor allem den Silben. Wurde die Silbe ""goa"" als Test benutzt, oder war das ein Schreibfehler?","0","1","0","null","","","<div class = 'row'><div class = 'column'><img src = 'category1/CS6.png' width = '70%;'></div><div class = 'column'><img src = 'uspos/1340.bmp' width = '100%;'></div></div>","null","pos","CS","CS","1","category1/CS6.png","","","","",""
"","html-keyboard-response","78","417040","0.0-6.0-6.0-0.9","uj0tx3tyow","many_one","0","direct_first","1","er06as20","1","35","1","0","3","1","OK. Ich habe ein bisschen Vorkenntnisse in Chinesisch. Ich glaube, wie (un)angenehm ich ein Zeichen fand, war oft davon abhängig, wie angenehm es zu schreiben ist. Die meisten Silben waren eher angenehm, weil ich die chinesische Sprache etwas gewohnt bin. Ich glaube nicht, dass die Bilder einen großen Einfluss hatten. Auch fand ich keinen allzu großen Unterschied zwischen den Zeichen und vor allem den Silben. Wurde die Silbe ""goa"" als Test benutzt, oder war das ein Schreibfehler?","0","1","0","null","","","<div class = 'row'><div class = 'column'><img src = 'category2/CS9.png' width = '70%;'></div><div class = 'column'><img src = 'usneg/2900.bmp' width = '100%;'></div></div>","null","neg","CS","CS","2","category2/CS9.png","","","","",""
"","html-keyboard-response","79","419542","0.0-6.0-6.0-0.10","uj0tx3tyow","many_one","0","direct_first","1","er06as20","1","35","1","0","3","1","OK. Ich habe ein bisschen Vorkenntnisse in Chinesisch. Ich glaube, wie (un)angenehm ich ein Zeichen fand, war oft davon abhängig, wie angenehm es zu schreiben ist. Die meisten Silben waren eher angenehm, weil ich die chinesische Sprache etwas gewohnt bin. Ich glaube nicht, dass die Bilder einen großen Einfluss hatten. Auch fand ich keinen allzu großen Unterschied zwischen den Zeichen und vor allem den Silben. Wurde die Silbe ""goa"" als Test benutzt, oder war das ein Schreibfehler?","0","1","0","null","","","<div class = 'row'><div class = 'column'><img src = 'category4/CS2.png' width = '70%;'></div><div class = 'column'><img src = 'usneg/7380.bmp' width = '100%;'></div></div>","null","neg","CS","CS","4","category4/CS2.png","","","","",""
"","html-keyboard-response","80","422045","0.0-6.0-6.0-0.11","uj0tx3tyow","many_one","0","direct_first","1","er06as20","1","35","1","0","3","1","OK. Ich habe ein bisschen Vorkenntnisse in Chinesisch. Ich glaube, wie (un)angenehm ich ein Zeichen fand, war oft davon abhängig, wie angenehm es zu schreiben ist. Die meisten Silben waren eher angenehm, weil ich die chinesische Sprache etwas gewohnt bin. Ich glaube nicht, dass die Bilder einen großen Einfluss hatten. Auch fand ich keinen allzu großen Unterschied zwischen den Zeichen und vor allem den Silben. Wurde die Silbe ""goa"" als Test benutzt, oder war das ein Schreibfehler?","0","1","0","null","","","<div class = 'row'><div class = 'column'><img src = 'category4/CS9.png' width = '70%;'></div><div class = 'column'><img src = 'usneg/9421.bmp' width = '100%;'></div></div>","null","neg","CS","CS","4","category4/CS9.png","","","","",""
"","html-keyboard-response","81","424550","0.0-6.0-6.0-0.12","uj0tx3tyow","many_one","0","direct_first","1","er06as20","1","35","1","0","3","1","OK. Ich habe ein bisschen Vorkenntnisse in Chinesisch. Ich glaube, wie (un)angenehm ich ein Zeichen fand, war oft davon abhängig, wie angenehm es zu schreiben ist. Die meisten Silben waren eher angenehm, weil ich die chinesische Sprache etwas gewohnt bin. Ich glaube nicht, dass die Bilder einen großen Einfluss hatten. Auch fand ich keinen allzu großen Unterschied zwischen den Zeichen und vor allem den Silben. Wurde die Silbe ""goa"" als Test benutzt, oder war das ein Schreibfehler?","0","1","0","null","","","<div class = 'row'><div class = 'column'><img src = 'category1/CS4.png' width = '70%;'></div><div class = 'column'><img src = 'uspos/2150.bmp' width = '100%;'></div></div>","null","pos","CS","CS","1","category1/CS4.png","","","","",""
"","html-keyboard-response","82","427055","0.0-6.0-6.0-0.13","uj0tx3tyow","many_one","0","direct_first","1","er06as20","1","35","1","0","3","1","OK. Ich habe ein bisschen Vorkenntnisse in Chinesisch. Ich glaube, wie (un)angenehm ich ein Zeichen fand, war oft davon abhängig, wie angenehm es zu schreiben ist. Die meisten Silben waren eher angenehm, weil ich die chinesische Sprache etwas gewohnt bin. Ich glaube nicht, dass die Bilder einen großen Einfluss hatten. Auch fand ich keinen allzu großen Unterschied zwischen den Zeichen und vor allem den Silben. Wurde die Silbe ""goa"" als Test benutzt, oder war das ein Schreibfehler?","0","1","0","null","","","<div class = 'row'><div class = 'column'><img src = 'category2/CS10.png' width = '70%;'></div><div class = 'column'><img src = 'usneg/1280.bmp' width = '100%;'></div></div>","null","neg","CS","CS","2","category2/CS10.png","","","","",""
"","html-keyboard-response","83","429560","0.0-6.0-6.0-0.14","uj0tx3tyow","many_one","0","direct_first","1","er06as20","1","35","1","0","3","1","OK. Ich habe ein bisschen Vorkenntnisse in Chinesisch. Ich glaube, wie (un)angenehm ich ein Zeichen fand, war oft davon abhängig, wie angenehm es zu schreiben ist. Die meisten Silben waren eher angenehm, weil ich die chinesische Sprache etwas gewohnt bin. Ich glaube nicht, dass die Bilder einen großen Einfluss hatten. Auch fand ich keinen allzu großen Unterschied zwischen den Zeichen und vor allem den Silben. Wurde die Silbe ""goa"" als Test benutzt, oder war das ein Schreibfehler?","0","1","0","null","","","<div class = 'row'><div class = 'column'><img src = 'category2/CS2.png' width = '70%;'></div><div class = 'column'><img src = 'usneg/9330.bmp' width = '100%;'></div></div>","null","neg","CS","CS","2","category2/CS2.png","","","","",""
"","html-keyboard-response","84","432065","0.0-6.0-6.0-0.15","uj0tx3tyow","many_one","0","direct_first","1","er06as20","1","35","1","0","3","1","OK. Ich habe ein bisschen Vorkenntnisse in Chinesisch. Ich glaube, wie (un)angenehm ich ein Zeichen fand, war oft davon abhängig, wie angenehm es zu schreiben ist. Die meisten Silben waren eher angenehm, weil ich die chinesische Sprache etwas gewohnt bin. Ich glaube nicht, dass die Bilder einen großen Einfluss hatten. Auch fand ich keinen allzu großen Unterschied zwischen den Zeichen und vor allem den Silben. Wurde die Silbe ""goa"" als Test benutzt, oder war das ein Schreibfehler?","0","1","0","null","","","<div class = 'row'><div class = 'column'><img src = 'uspos/7325.bmp' width = '100%;'></div><div class = 'column'><img src = 'category1/CS8.png' width = '70%;'></div></div>","null","pos","CS","CS","1","category1/CS8.png","","","","",""
"","html-keyboard-response","85","434570","0.0-6.0-6.0-0.16","uj0tx3tyow","many_one","0","direct_first","1","er06as20","1","35","1","0","3","1","OK. Ich habe ein bisschen Vorkenntnisse in Chinesisch. Ich glaube, wie (un)angenehm ich ein Zeichen fand, war oft davon abhängig, wie angenehm es zu schreiben ist. Die meisten Silben waren eher angenehm, weil ich die chinesische Sprache etwas gewohnt bin. Ich glaube nicht, dass die Bilder einen großen Einfluss hatten. Auch fand ich keinen allzu großen Unterschied zwischen den Zeichen und vor allem den Silben. Wurde die Silbe ""goa"" als Test benutzt, oder war das ein Schreibfehler?","0","1","0","null","","","<div class = 'row'><div class = 'column'><img src = 'category3/CS10.png' width = '70%;'></div><div class = 'column'><img src = 'uspos/5600.bmp' width = '100%;'></div></div>","null","pos","CS","CS","3","category3/CS10.png","","","","",""
"","html-keyboard-response","86","437075","0.0-6.0-6.0-0.17","uj0tx3tyow","many_one","0","direct_first","1","er06as20","1","35","1","0","3","1","OK. Ich habe ein bisschen Vorkenntnisse in Chinesisch. Ich glaube, wie (un)angenehm ich ein Zeichen fand, war oft davon abhängig, wie angenehm es zu schreiben ist. Die meisten Silben waren eher angenehm, weil ich die chinesische Sprache etwas gewohnt bin. Ich glaube nicht, dass die Bilder einen großen Einfluss hatten. Auch fand ich keinen allzu großen Unterschied zwischen den Zeichen und vor allem den Silben. Wurde die Silbe ""goa"" als Test benutzt, oder war das ein Schreibfehler?","0","1","0","null","","","<div class = 'row'><div class = 'column'><img src = 'category2/CS8.png' width = '70%;'></div><div class = 'column'><img src = 'usneg/2205.bmp' width = '100%;'></div></div>","null","neg","CS","CS","2","category2/CS8.png","","","","",""
"","html-keyboard-response","87","439580","0.0-6.0-6.0-0.18","uj0tx3tyow","many_one","0","direct_first","1","er06as20","1","35","1","0","3","1","OK. Ich habe ein bisschen Vorkenntnisse in Chinesisch. Ich glaube, wie (un)angenehm ich ein Zeichen fand, war oft davon abhängig, wie angenehm es zu schreiben ist. Die meisten Silben waren eher angenehm, weil ich die chinesische Sprache etwas gewohnt bin. Ich glaube nicht, dass die Bilder einen großen Einfluss hatten. Auch fand ich keinen allzu großen Unterschied zwischen den Zeichen und vor allem den Silben. Wurde die Silbe ""goa"" als Test benutzt, oder war das ein Schreibfehler?","0","1","0","null","","","<div class = 'row'><div class = 'column'><img src = 'category3/CS3.png' width = '70%;'></div><div class = 'column'><img src = 'uspos/5830.bmp' width = '100%;'></div></div>","null","pos","CS","CS","3","category3/CS3.png","","","","",""
"","html-keyboard-response","88","442086","0.0-6.0-6.0-0.19","uj0tx3tyow","many_one","0","direct_first","1","er06as20","1","35","1","0","3","1","OK. Ich habe ein bisschen Vorkenntnisse in Chinesisch. Ich glaube, wie (un)angenehm ich ein Zeichen fand, war oft davon abhängig, wie angenehm es zu schreiben ist. Die meisten Silben waren eher angenehm, weil ich die chinesische Sprache etwas gewohnt bin. Ich glaube nicht, dass die Bilder einen großen Einfluss hatten. Auch fand ich keinen allzu großen Unterschied zwischen den Zeichen und vor allem den Silben. Wurde die Silbe ""goa"" als Test benutzt, oder war das ein Schreibfehler?","0","1","0","null","","","<div class = 'row'><div class = 'column'><img src = 'uspos/7580.bmp' width = '100%;'></div><div class = 'column'><img src = 'category3/CS4.png' width = '70%;'></div></div>","null","pos","CS","CS","3","category3/CS4.png","","","","",""
"","survey-html-form","89","451853","0.0-7.0","uj0tx3tyow","many_one","0","direct_first","1","er06as20","1","35","1","0","3","1","OK. Ich habe ein bisschen Vorkenntnisse in Chinesisch. Ich glaube, wie (un)angenehm ich ein Zeichen fand, war oft davon abhängig, wie angenehm es zu schreiben ist. Die meisten Silben waren eher angenehm, weil ich die chinesische Sprache etwas gewohnt bin. Ich glaube nicht, dass die Bilder einen großen Einfluss hatten. Auch fand ich keinen allzu großen Unterschied zwischen den Zeichen und vor allem den Silben. Wurde die Silbe ""goa"" als Test benutzt, oder war das ein Schreibfehler?","0","1","0","9265.290000010282","","{}","","","","","","","","","","","",""
"","image-slider-response","90","465902","0.0-8.0-0.0","uj0tx3tyow","many_one","0","direct_first","1","er06as20","1","35","1","0","3","1","OK. Ich habe ein bisschen Vorkenntnisse in Chinesisch. Ich glaube, wie (un)angenehm ich ein Zeichen fand, war oft davon abhängig, wie angenehm es zu schreiben ist. Die meisten Silben waren eher angenehm, weil ich die chinesische Sprache etwas gewohnt bin. Ich glaube nicht, dass die Bilder einen großen Einfluss hatten. Auch fand ich keinen allzu großen Unterschied zwischen den Zeichen und vor allem den Silben. Wurde die Silbe ""goa"" als Test benutzt, oder war das ein Schreibfehler?","0","1","0","12042.714999988675","","","","","neg","CS","CS","4","category4/CS3.png","24","targets/31.png","direct","",""
"","image-slider-response","91","473541","0.0-8.0-0.1","uj0tx3tyow","many_one","0","direct_first","1","er06as20","1","35","1","0","3","1","OK. Ich habe ein bisschen Vorkenntnisse in Chinesisch. Ich glaube, wie (un)angenehm ich ein Zeichen fand, war oft davon abhängig, wie angenehm es zu schreiben ist. Die meisten Silben waren eher angenehm, weil ich die chinesische Sprache etwas gewohnt bin. Ich glaube nicht, dass die Bilder einen großen Einfluss hatten. Auch fand ich keinen allzu großen Unterschied zwischen den Zeichen und vor allem den Silben. Wurde die Silbe ""goa"" als Test benutzt, oder war das ein Schreibfehler?","0","1","0","7634.7200002055615","","","","","pos","GS","GSold","3","category3/CS8.png","-34","targets/38.png","direct","",""
"","image-slider-response","92","477252","0.0-8.0-0.2","uj0tx3tyow","many_one","0","direct_first","1","er06as20","1","35","1","0","3","1","OK. Ich habe ein bisschen Vorkenntnisse in Chinesisch. Ich glaube, wie (un)angenehm ich ein Zeichen fand, war oft davon abhängig, wie angenehm es zu schreiben ist. Die meisten Silben waren eher angenehm, weil ich die chinesische Sprache etwas gewohnt bin. Ich glaube nicht, dass die Bilder einen großen Einfluss hatten. Auch fand ich keinen allzu großen Unterschied zwischen den Zeichen und vor allem den Silben. Wurde die Silbe ""goa"" als Test benutzt, oder war das ein Schreibfehler?","0","1","0","3706.2450000084937","","","","","neg","CS","CS","2","category2/CS10.png","-14","targets/4.png","direct","",""
"","image-slider-response","93","484205","0.0-8.0-0.3","uj0tx3tyow","many_one","0","direct_first","1","er06as20","1","35","1","0","3","1","OK. Ich habe ein bisschen Vorkenntnisse in Chinesisch. Ich glaube, wie (un)angenehm ich ein Zeichen fand, war oft davon abhängig, wie angenehm es zu schreiben ist. Die meisten Silben waren eher angenehm, weil ich die chinesische Sprache etwas gewohnt bin. Ich glaube nicht, dass die Bilder einen großen Einfluss hatten. Auch fand ich keinen allzu großen Unterschied zwischen den Zeichen und vor allem den Silben. Wurde die Silbe ""goa"" als Test benutzt, oder war das ein Schreibfehler?","0","1","0","6950.804999796674","","","","","neg","GS","GSnew","2","category2/GS2.png","-19","targets/15.png","direct","",""
"","image-slider-response","94","487157","0.0-8.0-0.4","uj0tx3tyow","many_one","0","direct_first","1","er06as20","1","35","1","0","3","1","OK. Ich habe ein bisschen Vorkenntnisse in Chinesisch. Ich glaube, wie (un)angenehm ich ein Zeichen fand, war oft davon abhängig, wie angenehm es zu schreiben ist. Die meisten Silben waren eher angenehm, weil ich die chinesische Sprache etwas gewohnt bin. Ich glaube nicht, dass die Bilder einen großen Einfluss hatten. Auch fand ich keinen allzu großen Unterschied zwischen den Zeichen und vor allem den Silben. Wurde die Silbe ""goa"" als Test benutzt, oder war das ein Schreibfehler?","0","1","0","2946.574999950826","","","","","pos","CS","CS","3","category3/CS5.png","-24","targets/33.png","direct","",""
"","image-slider-response","95","492765","0.0-8.0-0.5","uj0tx3tyow","many_one","0","direct_first","1","er06as20","1","35","1","0","3","1","OK. Ich habe ein bisschen Vorkenntnisse in Chinesisch. Ich glaube, wie (un)angenehm ich ein Zeichen fand, war oft davon abhängig, wie angenehm es zu schreiben ist. Die meisten Silben waren eher angenehm, weil ich die chinesische Sprache etwas gewohnt bin. Ich glaube nicht, dass die Bilder einen großen Einfluss hatten. Auch fand ich keinen allzu großen Unterschied zwischen den Zeichen und vor allem den Silben. Wurde die Silbe ""goa"" als Test benutzt, oder war das ein Schreibfehler?","0","1","0","5603.855000110343","","","","","neg","GS","GSold","2","category2/CS1.png","2","targets/37.png","direct","",""
"","image-slider-response","96","495276","0.0-8.0-0.6","uj0tx3tyow","many_one","0","direct_first","1","er06as20","1","35","1","0","3","1","OK. Ich habe ein bisschen Vorkenntnisse in Chinesisch. Ich glaube, wie (un)angenehm ich ein Zeichen fand, war oft davon abhängig, wie angenehm es zu schreiben ist. Die meisten Silben waren eher angenehm, weil ich die chinesische Sprache etwas gewohnt bin. Ich glaube nicht, dass die Bilder einen großen Einfluss hatten. Auch fand ich keinen allzu großen Unterschied zwischen den Zeichen und vor allem den Silben. Wurde die Silbe ""goa"" als Test benutzt, oder war das ein Schreibfehler?","0","1","0","2505.94999990426","","","","","pos","CS","CS","3","category3/CS6.png","-7","targets/39.png","direct","",""
"","image-slider-response","97","499038","0.0-8.0-0.7","uj0tx3tyow","many_one","0","direct_first","1","er06as20","1","35","1","0","3","1","OK. Ich habe ein bisschen Vorkenntnisse in Chinesisch. Ich glaube, wie (un)angenehm ich ein Zeichen fand, war oft davon abhängig, wie angenehm es zu schreiben ist. Die meisten Silben waren eher angenehm, weil ich die chinesische Sprache etwas gewohnt bin. Ich glaube nicht, dass die Bilder einen großen Einfluss hatten. Auch fand ich keinen allzu großen Unterschied zwischen den Zeichen und vor allem den Silben. Wurde die Silbe ""goa"" als Test benutzt, oder war das ein Schreibfehler?","0","1","0","3759.2050000093877","","","","","neg","CS","CS","4","category4/CS1.png","-7","targets/7.png","direct","",""
"","image-slider-response","98","502637","0.0-8.0-0.8","uj0tx3tyow","many_one","0","direct_first","1","er06as20","1","35","1","0","3","1","OK. Ich habe ein bisschen Vorkenntnisse in Chinesisch. Ich glaube, wie (un)angenehm ich ein Zeichen fand, war oft davon abhängig, wie angenehm es zu schreiben ist. Die meisten Silben waren eher angenehm, weil ich die chinesische Sprache etwas gewohnt bin. Ich glaube nicht, dass die Bilder einen großen Einfluss hatten. Auch fand ich keinen allzu großen Unterschied zwischen den Zeichen und vor allem den Silben. Wurde die Silbe ""goa"" als Test benutzt, oder war das ein Schreibfehler?","0","1","0","3592.494999989867","","","","","neg","GS","GSold","4","category4/CS8.png","-7","targets/18.png","direct","",""
"","image-slider-response","99","505558","0.0-8.0-0.9","uj0tx3tyow","many_one","0","direct_first","1","er06as20","1","35","1","0","3","1","OK. Ich habe ein bisschen Vorkenntnisse in Chinesisch. Ich glaube, wie (un)angenehm ich ein Zeichen fand, war oft davon abhängig, wie angenehm es zu schreiben ist. Die meisten Silben waren eher angenehm, weil ich die chinesische Sprache etwas gewohnt bin. Ich glaube nicht, dass die Bilder einen großen Einfluss hatten. Auch fand ich keinen allzu großen Unterschied zwischen den Zeichen und vor allem den Silben. Wurde die Silbe ""goa"" als Test benutzt, oder war das ein Schreibfehler?","0","1","0","2915.0799999479204","","","","","pos","CS","CS","3","category3/CS10.png","-16","targets/17.png","direct","",""
"","image-slider-response","100","510468","0.0-8.0-0.10","uj0tx3tyow","many_one","0","direct_first","1","er06as20","1","35","1","0","3","1","OK. Ich habe ein bisschen Vorkenntnisse in Chinesisch. Ich glaube, wie (un)angenehm ich ein Zeichen fand, war oft davon abhängig, wie angenehm es zu schreiben ist. Die meisten Silben waren eher angenehm, weil ich die chinesische Sprache etwas gewohnt bin. Ich glaube nicht, dass die Bilder einen großen Einfluss hatten. Auch fand ich keinen allzu großen Unterschied zwischen den Zeichen und vor allem den Silben. Wurde die Silbe ""goa"" als Test benutzt, oder war das ein Schreibfehler?","0","1","0","4906.345000024885","","","","","neg","GS","GSnew","4","category4/GS2.png","6","targets/19.png","direct","",""
"","image-slider-response","101","514511","0.0-8.0-0.11","uj0tx3tyow","many_one","0","direct_first","1","er06as20","1","35","1","0","3","1","OK. Ich habe ein bisschen Vorkenntnisse in Chinesisch. Ich glaube, wie (un)angenehm ich ein Zeichen fand, war oft davon abhängig, wie angenehm es zu schreiben ist. Die meisten Silben waren eher angenehm, weil ich die chinesische Sprache etwas gewohnt bin. Ich glaube nicht, dass die Bilder einen großen Einfluss hatten. Auch fand ich keinen allzu großen Unterschied zwischen den Zeichen und vor allem den Silben. Wurde die Silbe ""goa"" als Test benutzt, oder war das ein Schreibfehler?","0","1","0","4038.5300000198185","","","","","pos","GS","GSnew","3","category3/GS1.png","35","targets/28.png","direct","",""
"","image-slider-response","102","519564","0.0-8.0-0.12","uj0tx3tyow","many_one","0","direct_first","1","er06as20","1","35","1","0","3","1","OK. Ich habe ein bisschen Vorkenntnisse in Chinesisch. Ich glaube, wie (un)angenehm ich ein Zeichen fand, war oft davon abhängig, wie angenehm es zu schreiben ist. Die meisten Silben waren eher angenehm, weil ich die chinesische Sprache etwas gewohnt bin. Ich glaube nicht, dass die Bilder einen großen Einfluss hatten. Auch fand ich keinen allzu großen Unterschied zwischen den Zeichen und vor allem den Silben. Wurde die Silbe ""goa"" als Test benutzt, oder war das ein Schreibfehler?","0","1","0","5049.355000024661","","","","","pos","CS","CS","1","category1/CS5.png","-14","targets/48.png","direct","",""
"","image-slider-response","103","523629","0.0-8.0-0.13","uj0tx3tyow","many_one","0","direct_first","1","er06as20","1","35","1","0","3","1","OK. Ich habe ein bisschen Vorkenntnisse in Chinesisch. Ich glaube, wie (un)angenehm ich ein Zeichen fand, war oft davon abhängig, wie angenehm es zu schreiben ist. Die meisten Silben waren eher angenehm, weil ich die chinesische Sprache etwas gewohnt bin. Ich glaube nicht, dass die Bilder einen großen Einfluss hatten. Auch fand ich keinen allzu großen Unterschied zwischen den Zeichen und vor allem den Silben. Wurde die Silbe ""goa"" als Test benutzt, oder war das ein Schreibfehler?","0","1","0","4062.4299999326468","","","","","pos","GS","GSold","1","category1/CS2.png","-3","targets/41.png","direct","",""
"","image-slider-response","104","526989","0.0-8.0-0.14","uj0tx3tyow","many_one","0","direct_first","1","er06as20","1","35","1","0","3","1","OK. Ich habe ein bisschen Vorkenntnisse in Chinesisch. Ich glaube, wie (un)angenehm ich ein Zeichen fand, war oft davon abhängig, wie angenehm es zu schreiben ist. Die meisten Silben waren eher angenehm, weil ich die chinesische Sprache etwas gewohnt bin. Ich glaube nicht, dass die Bilder einen großen Einfluss hatten. Auch fand ich keinen allzu großen Unterschied zwischen den Zeichen und vor allem den Silben. Wurde die Silbe ""goa"" als Test benutzt, oder war das ein Schreibfehler?","0","1","0","3354.710000101477","","","","","neg","GS","GSold","4","category4/CS6.png","-12","targets/43.png","direct","",""
"","image-slider-response","105","530628","0.0-8.0-0.15","uj0tx3tyow","many_one","0","direct_first","1","er06as20","1","35","1","0","3","1","OK. Ich habe ein bisschen Vorkenntnisse in Chinesisch. Ich glaube, wie (un)angenehm ich ein Zeichen fand, war oft davon abhängig, wie angenehm es zu schreiben ist. Die meisten Silben waren eher angenehm, weil ich die chinesische Sprache etwas gewohnt bin. Ich glaube nicht, dass die Bilder einen großen Einfluss hatten. Auch fand ich keinen allzu großen Unterschied zwischen den Zeichen und vor allem den Silben. Wurde die Silbe ""goa"" als Test benutzt, oder war das ein Schreibfehler?","0","1","0","3634.3000000342727","","","","","neg","CS","CS","4","category4/CS9.png","32","targets/42.png","direct","",""
"","image-slider-response","106","533869","0.0-8.0-0.16","uj0tx3tyow","many_one","0","direct_first","1","er06as20","1","35","1","0","3","1","OK. Ich habe ein bisschen Vorkenntnisse in Chinesisch. Ich glaube, wie (un)angenehm ich ein Zeichen fand, war oft davon abhängig, wie angenehm es zu schreiben ist. Die meisten Silben waren eher angenehm, weil ich die chinesische Sprache etwas gewohnt bin. Ich glaube nicht, dass die Bilder einen großen Einfluss hatten. Auch fand ich keinen allzu großen Unterschied zwischen den Zeichen und vor allem den Silben. Wurde die Silbe ""goa"" als Test benutzt, oder war das ein Schreibfehler?","0","1","0","3238.2849999703467","","","","","pos","GS","GSold","1","category1/CS10.png","16","targets/24.png","direct","",""
"","image-slider-response","107","538477","0.0-8.0-0.17","uj0tx3tyow","many_one","0","direct_first","1","er06as20","1","35","1","0","3","1","OK. Ich habe ein bisschen Vorkenntnisse in Chinesisch. Ich glaube, wie (un)angenehm ich ein Zeichen fand, war oft davon abhängig, wie angenehm es zu schreiben ist. Die meisten Silben waren eher angenehm, weil ich die chinesische Sprache etwas gewohnt bin. Ich glaube nicht, dass die Bilder einen großen Einfluss hatten. Auch fand ich keinen allzu großen Unterschied zwischen den Zeichen und vor allem den Silben. Wurde die Silbe ""goa"" als Test benutzt, oder war das ein Schreibfehler?","0","1","0","4605.469999834895","","","","","neg","GS","GSnew","2","category2/GS3.png","18","targets/30.png","direct","",""
"","image-slider-response","108","541438","0.0-8.0-0.18","uj0tx3tyow","many_one","0","direct_first","1","er06as20","1","35","1","0","3","1","OK. Ich habe ein bisschen Vorkenntnisse in Chinesisch. Ich glaube, wie (un)angenehm ich ein Zeichen fand, war oft davon abhängig, wie angenehm es zu schreiben ist. Die meisten Silben waren eher angenehm, weil ich die chinesische Sprache etwas gewohnt bin. Ich glaube nicht, dass die Bilder einen großen Einfluss hatten. Auch fand ich keinen allzu großen Unterschied zwischen den Zeichen und vor allem den Silben. Wurde die Silbe ""goa"" als Test benutzt, oder war das ein Schreibfehler?","0","1","0","2955.9400000143796","","","","","neg","CS","CS","4","category4/CS5.png","8","targets/27.png","direct","",""
"","image-slider-response","109","545949","0.0-8.0-0.19","uj0tx3tyow","many_one","0","direct_first","1","er06as20","1","35","1","0","3","1","OK. Ich habe ein bisschen Vorkenntnisse in Chinesisch. Ich glaube, wie (un)angenehm ich ein Zeichen fand, war oft davon abhängig, wie angenehm es zu schreiben ist. Die meisten Silben waren eher angenehm, weil ich die chinesische Sprache etwas gewohnt bin. Ich glaube nicht, dass die Bilder einen großen Einfluss hatten. Auch fand ich keinen allzu großen Unterschied zwischen den Zeichen und vor allem den Silben. Wurde die Silbe ""goa"" als Test benutzt, oder war das ein Schreibfehler?","0","1","0","4507.734999991953","","","","","neg","CS","CS","2","category2/CS2.png","4","targets/14.png","direct","",""
"","image-slider-response","110","550085","0.0-8.0-0.20","uj0tx3tyow","many_one","0","direct_first","1","er06as20","1","35","1","0","3","1","OK. Ich habe ein bisschen Vorkenntnisse in Chinesisch. Ich glaube, wie (un)angenehm ich ein Zeichen fand, war oft davon abhängig, wie angenehm es zu schreiben ist. Die meisten Silben waren eher angenehm, weil ich die chinesische Sprache etwas gewohnt bin. Ich glaube nicht, dass die Bilder einen großen Einfluss hatten. Auch fand ich keinen allzu großen Unterschied zwischen den Zeichen und vor allem den Silben. Wurde die Silbe ""goa"" als Test benutzt, oder war das ein Schreibfehler?","0","1","0","4130.134999984875","","","","","neg","GS","GSold","4","category4/CS4.png","15","targets/13.png","direct","",""
"","image-slider-response","111","554493","0.0-8.0-0.21","uj0tx3tyow","many_one","0","direct_first","1","er06as20","1","35","1","0","3","1","OK. Ich habe ein bisschen Vorkenntnisse in Chinesisch. Ich glaube, wie (un)angenehm ich ein Zeichen fand, war oft davon abhängig, wie angenehm es zu schreiben ist. Die meisten Silben waren eher angenehm, weil ich die chinesische Sprache etwas gewohnt bin. Ich glaube nicht, dass die Bilder einen großen Einfluss hatten. Auch fand ich keinen allzu großen Unterschied zwischen den Zeichen und vor allem den Silben. Wurde die Silbe ""goa"" als Test benutzt, oder war das ein Schreibfehler?","0","1","0","4402.364999987185","","","","","pos","CS","CS","3","category3/CS3.png","-13","targets/26.png","direct","",""
"","image-slider-response","112","557917","0.0-8.0-0.22","uj0tx3tyow","many_one","0","direct_first","1","er06as20","1","35","1","0","3","1","OK. Ich habe ein bisschen Vorkenntnisse in Chinesisch. Ich glaube, wie (un)angenehm ich ein Zeichen fand, war oft davon abhängig, wie angenehm es zu schreiben ist. Die meisten Silben waren eher angenehm, weil ich die chinesische Sprache etwas gewohnt bin. Ich glaube nicht, dass die Bilder einen großen Einfluss hatten. Auch fand ich keinen allzu großen Unterschied zwischen den Zeichen und vor allem den Silben. Wurde die Silbe ""goa"" als Test benutzt, oder war das ein Schreibfehler?","0","1","0","3420.6350001040846","","","","","neg","GS","abstract","4","category4/lin.png","29","targets/10.png","direct","",""
"","image-slider-response","113","561341","0.0-8.0-0.23","uj0tx3tyow","many_one","0","direct_first","1","er06as20","1","35","1","0","3","1","OK. Ich habe ein bisschen Vorkenntnisse in Chinesisch. Ich glaube, wie (un)angenehm ich ein Zeichen fand, war oft davon abhängig, wie angenehm es zu schreiben ist. Die meisten Silben waren eher angenehm, weil ich die chinesische Sprache etwas gewohnt bin. Ich glaube nicht, dass die Bilder einen großen Einfluss hatten. Auch fand ich keinen allzu großen Unterschied zwischen den Zeichen und vor allem den Silben. Wurde die Silbe ""goa"" als Test benutzt, oder war das ein Schreibfehler?","0","1","0","3419.339999789372","","","","","neg","GS","GSnew","4","category4/GS3.png","11","targets/23.png","direct","",""
"","image-slider-response","114","565877","0.0-8.0-0.24","uj0tx3tyow","many_one","0","direct_first","1","er06as20","1","35","1","0","3","1","OK. Ich habe ein bisschen Vorkenntnisse in Chinesisch. Ich glaube, wie (un)angenehm ich ein Zeichen fand, war oft davon abhängig, wie angenehm es zu schreiben ist. Die meisten Silben waren eher angenehm, weil ich die chinesische Sprache etwas gewohnt bin. Ich glaube nicht, dass die Bilder einen großen Einfluss hatten. Auch fand ich keinen allzu großen Unterschied zwischen den Zeichen und vor allem den Silben. Wurde die Silbe ""goa"" als Test benutzt, oder war das ein Schreibfehler?","0","1","0","4531.935000093654","","","","","neg","CS","CS","2","category2/CS5.png","-3","targets/32.png","direct","",""
"","image-slider-response","115","571550","0.0-8.0-0.25","uj0tx3tyow","many_one","0","direct_first","1","er06as20","1","35","1","0","3","1","OK. Ich habe ein bisschen Vorkenntnisse in Chinesisch. Ich glaube, wie (un)angenehm ich ein Zeichen fand, war oft davon abhängig, wie angenehm es zu schreiben ist. Die meisten Silben waren eher angenehm, weil ich die chinesische Sprache etwas gewohnt bin. Ich glaube nicht, dass die Bilder einen großen Einfluss hatten. Auch fand ich keinen allzu großen Unterschied zwischen den Zeichen und vor allem den Silben. Wurde die Silbe ""goa"" als Test benutzt, oder war das ein Schreibfehler?","0","1","0","5665.409999899566","","","","","pos","GS","GSnew","1","category1/GS1.png","6","targets/46.png","direct","",""
"","image-slider-response","116","574174","0.0-8.0-0.26","uj0tx3tyow","many_one","0","direct_first","1","er06as20","1","35","1","0","3","1","OK. Ich habe ein bisschen Vorkenntnisse in Chinesisch. Ich glaube, wie (un)angenehm ich ein Zeichen fand, war oft davon abhängig, wie angenehm es zu schreiben ist. Die meisten Silben waren eher angenehm, weil ich die chinesische Sprache etwas gewohnt bin. Ich glaube nicht, dass die Bilder einen großen Einfluss hatten. Auch fand ich keinen allzu großen Unterschied zwischen den Zeichen und vor allem den Silben. Wurde die Silbe ""goa"" als Test benutzt, oder war das ein Schreibfehler?","0","1","0","2617.94999986887","","","","","neg","GS","abstract","2","category2/men.png","18","targets/11.png","direct","",""
