"success","trial_type","trial_index","time_elapsed","internal_node_id","subject","condition","condition_code","measure","measure_code","codeword","gender","age","education","chinese","fach","handedness","comment","hinschauen","ablenkung","gewissenhaft","rt","url","responses","stimulus","key_press","val","type","type_specific","category","cs_selected","target","indirect","task","nr_pres","response"
"true","fullscreen","0","7590","0.0-0.0","kczkhhpz7h","one_one","1","indirect_first","0","IC06AN26","0","19","1","1","1","1","","0","1","0","","","","","","","","","","","","","","",""
"","external-html","1","47517","0.0-1.0","kczkhhpz7h","one_one","1","indirect_first","0","IC06AN26","0","19","1","1","1","1","","0","1","0","39889","text/information.html","","","","","","","","","","","","",""
"","external-html","2","61606","0.0-2.0","kczkhhpz7h","one_one","1","indirect_first","0","IC06AN26","0","19","1","1","1","1","","0","1","0","14026","text/consent.html","","","","","","","","","","","","",""
"","survey-html-form","3","133035","0.0-3.0","kczkhhpz7h","one_one","1","indirect_first","0","IC06AN26","0","19","1","1","1","1","","0","1","0","71428","","{""codeword_enter"":""IC06AN26""}","","","","","","","","","","","",""
"","survey-html-form","4","150502","0.0-4.0","kczkhhpz7h","one_one","1","indirect_first","0","IC06AN26","0","19","1","1","1","1","","0","1","0","17465","","{""age"":""19"",""education"":""1"",""subject"":""1"",""gender"":""0"",""handedness"":""1"",""chinese"":""1""}","","","","","","","","","","","",""
"","survey-html-form","5","164409","0.0-5.0","kczkhhpz7h","one_one","1","indirect_first","0","IC06AN26","0","19","1","1","1","1","","0","1","0","13907","","{}","","","","","","","","","","","",""
"","html-keyboard-response","6","168440","0.0-6.0-0.0-0.0","kczkhhpz7h","one_one","1","indirect_first","0","IC06AN26","0","19","1","1","1","1","","0","1","0","null","","","<div class = 'row'><div class = 'column'><img src = 'uspos/2030.bmp' width = '100%;'></div><div class = 'column'><img src = 'category3/CS5.png' width = '70%;'></div></div>","null","pos","CS","CS","3","category3/CS5.png","","","","",""
"","html-keyboard-response","7","170980","0.0-6.0-0.0-0.1","kczkhhpz7h","one_one","1","indirect_first","0","IC06AN26","0","19","1","1","1","1","","0","1","0","null","","","<div class = 'row'><div class = 'column'><img src = 'uspos/2360.bmp' width = '100%;'></div><div class = 'column'><img src = 'category1/CS1.png' width = '70%;'></div></div>","null","pos","CS","CS","1","category1/CS1.png","","","","",""
"","html-keyboard-response","8","173510","0.0-6.0-0.0-0.2","kczkhhpz7h","one_one","1","indirect_first","0","IC06AN26","0","19","1","1","1","1","","0","1","0","null","","","<div class = 'row'><div class = 'column'><img src = 'category4/CS3.png' width = '70%;'></div><div class = 'column'><img src = 'usneg/9635.2.bmp' width = '100%;'></div></div>","null","neg","CS","CS","4","category4/CS3.png","","","","",""
"","html-keyboard-response","9","176040","0.0-6.0-0.0-0.3","kczkhhpz7h","one_one","1","indirect_first","0","IC06AN26","0","19","1","1","1","1","","0","1","0","null","","","<div class = 'row'><div class = 'column'><img src = 'uspos/2360.bmp' width = '100%;'></div><div class = 'column'><img src = 'category1/CS1.png' width = '70%;'></div></div>","null","pos","CS","CS","1","category1/CS1.png","","","","",""
"","html-keyboard-response","10","178560","0.0-6.0-0.0-0.4","kczkhhpz7h","one_one","1","indirect_first","0","IC06AN26","0","19","1","1","1","1","","0","1","0","null","","","<div class = 'row'><div class = 'column'><img src = 'uspos/2030.bmp' width = '100%;'></div><div class = 'column'><img src = 'category3/CS5.png' width = '70%;'></div></div>","null","pos","CS","CS","3","category3/CS5.png","","","","",""
"","html-keyboard-response","11","181080","0.0-6.0-0.0-0.5","kczkhhpz7h","one_one","1","indirect_first","0","IC06AN26","0","19","1","1","1","1","","0","1","0","null","","","<div class = 'row'><div class = 'column'><img src = 'uspos/2360.bmp' width = '100%;'></div><div class = 'column'><img src = 'category1/CS1.png' width = '70%;'></div></div>","null","pos","CS","CS","1","category1/CS1.png","","","","",""
"","html-keyboard-response","12","183619","0.0-6.0-0.0-0.6","kczkhhpz7h","one_one","1","indirect_first","0","IC06AN26","0","19","1","1","1","1","","0","1","0","null","","","<div class = 'row'><div class = 'column'><img src = 'category2/CS9.png' width = '70%;'></div><div class = 'column'><img src = 'usneg/6838.bmp' width = '100%;'></div></div>","null","neg","CS","CS","2","category2/CS9.png","","","","",""
"","html-keyboard-response","13","186150","0.0-6.0-0.0-0.7","kczkhhpz7h","one_one","1","indirect_first","0","IC06AN26","0","19","1","1","1","1","","0","1","0","null","","","<div class = 'row'><div class = 'column'><img src = 'uspos/2030.bmp' width = '100%;'></div><div class = 'column'><img src = 'category3/CS5.png' width = '70%;'></div></div>","null","pos","CS","CS","3","category3/CS5.png","","","","",""
"","html-keyboard-response","14","188680","0.0-6.0-0.0-0.8","kczkhhpz7h","one_one","1","indirect_first","0","IC06AN26","0","19","1","1","1","1","","0","1","0","null","","","<div class = 'row'><div class = 'column'><img src = 'usneg/9635.2.bmp' width = '100%;'></div><div class = 'column'><img src = 'category4/CS3.png' width = '70%;'></div></div>","null","neg","CS","CS","4","category4/CS3.png","","","","",""
"","html-keyboard-response","15","191210","0.0-6.0-0.0-0.9","kczkhhpz7h","one_one","1","indirect_first","0","IC06AN26","0","19","1","1","1","1","","0","1","0","null","","","<div class = 'row'><div class = 'column'><img src = 'uspos/2360.bmp' width = '100%;'></div><div class = 'column'><img src = 'category1/CS1.png' width = '70%;'></div></div>","null","pos","CS","CS","1","category1/CS1.png","","","","",""
"","html-keyboard-response","16","193750","0.0-6.0-0.0-0.10","kczkhhpz7h","one_one","1","indirect_first","0","IC06AN26","0","19","1","1","1","1","","0","1","0","null","","","<div class = 'row'><div class = 'column'><img src = 'category2/CS9.png' width = '70%;'></div><div class = 'column'><img src = 'usneg/6838.bmp' width = '100%;'></div></div>","null","neg","CS","CS","2","category2/CS9.png","","","","",""
"","html-keyboard-response","17","196289","0.0-6.0-0.0-0.11","kczkhhpz7h","one_one","1","indirect_first","0","IC06AN26","0","19","1","1","1","1","","0","1","0","null","","","<div class = 'row'><div class = 'column'><img src = 'usneg/9635.2.bmp' width = '100%;'></div><div class = 'column'><img src = 'category4/CS3.png' width = '70%;'></div></div>","null","neg","CS","CS","4","category4/CS3.png","","","","",""
"","html-keyboard-response","18","198800","0.0-6.0-0.0-0.12","kczkhhpz7h","one_one","1","indirect_first","0","IC06AN26","0","19","1","1","1","1","","0","1","0","null","","","<div class = 'row'><div class = 'column'><img src = 'uspos/2360.bmp' width = '100%;'></div><div class = 'column'><img src = 'category1/CS1.png' width = '70%;'></div></div>","null","pos","CS","CS","1","category1/CS1.png","","","","",""
"","html-keyboard-response","19","201340","0.0-6.0-0.0-0.13","kczkhhpz7h","one_one","1","indirect_first","0","IC06AN26","0","19","1","1","1","1","","0","1","0","null","","","<div class = 'row'><div class = 'column'><img src = 'category2/CS9.png' width = '70%;'></div><div class = 'column'><img src = 'usneg/6838.bmp' width = '100%;'></div></div>","null","neg","CS","CS","2","category2/CS9.png","","","","",""
"","html-keyboard-response","20","203859","0.0-6.0-0.0-0.14","kczkhhpz7h","one_one","1","indirect_first","0","IC06AN26","0","19","1","1","1","1","","0","1","0","null","","","<div class = 'row'><div class = 'column'><img src = 'category3/CS5.png' width = '70%;'></div><div class = 'column'><img src = 'uspos/2030.bmp' width = '100%;'></div></div>","null","pos","CS","CS","3","category3/CS5.png","","","","",""
"","html-keyboard-response","21","206399","0.0-6.0-0.0-0.15","kczkhhpz7h","one_one","1","indirect_first","0","IC06AN26","0","19","1","1","1","1","","0","1","0","null","","","<div class = 'row'><div class = 'column'><img src = 'category4/CS3.png' width = '70%;'></div><div class = 'column'><img src = 'usneg/9635.2.bmp' width = '100%;'></div></div>","null","neg","CS","CS","4","category4/CS3.png","","","","",""
"","html-keyboard-response","22","208940","0.0-6.0-0.0-0.16","kczkhhpz7h","one_one","1","indirect_first","0","IC06AN26","0","19","1","1","1","1","","0","1","0","null","","","<div class = 'row'><div class = 'column'><img src = 'usneg/6838.bmp' width = '100%;'></div><div class = 'column'><img src = 'category2/CS9.png' width = '70%;'></div></div>","null","neg","CS","CS","2","category2/CS9.png","","","","",""
"","html-keyboard-response","23","211460","0.0-6.0-0.0-0.17","kczkhhpz7h","one_one","1","indirect_first","0","IC06AN26","0","19","1","1","1","1","","0","1","0","null","","","<div class = 'row'><div class = 'column'><img src = 'usneg/9635.2.bmp' width = '100%;'></div><div class = 'column'><img src = 'category4/CS3.png' width = '70%;'></div></div>","null","neg","CS","CS","4","category4/CS3.png","","","","",""
"","html-keyboard-response","24","214000","0.0-6.0-0.0-0.18","kczkhhpz7h","one_one","1","indirect_first","0","IC06AN26","0","19","1","1","1","1","","0","1","0","null","","","<div class = 'row'><div class = 'column'><img src = 'uspos/2030.bmp' width = '100%;'></div><div class = 'column'><img src = 'category3/CS5.png' width = '70%;'></div></div>","null","pos","CS","CS","3","category3/CS5.png","","","","",""
"","html-keyboard-response","25","216540","0.0-6.0-0.0-0.19","kczkhhpz7h","one_one","1","indirect_first","0","IC06AN26","0","19","1","1","1","1","","0","1","0","null","","","<div class = 'row'><div class = 'column'><img src = 'usneg/6838.bmp' width = '100%;'></div><div class = 'column'><img src = 'category2/CS9.png' width = '70%;'></div></div>","null","neg","CS","CS","2","category2/CS9.png","","","","",""
"","survey-html-form","26","220665","0.0-6.0-1.0","kczkhhpz7h","one_one","1","indirect_first","0","IC06AN26","0","19","1","1","1","1","","0","1","0","3605","","{}","","","","","","","","","","","",""
"","html-keyboard-response","27","224690","0.0-6.0-2.0-0.0","kczkhhpz7h","one_one","1","indirect_first","0","IC06AN26","0","19","1","1","1","1","","0","1","0","null","","","<div class = 'row'><div class = 'column'><img src = 'category1/CS1.png' width = '70%;'></div><div class = 'column'><img src = 'uspos/2360.bmp' width = '100%;'></div></div>","null","pos","CS","CS","1","category1/CS1.png","","","","",""
"","html-keyboard-response","28","227229","0.0-6.0-2.0-0.1","kczkhhpz7h","one_one","1","indirect_first","0","IC06AN26","0","19","1","1","1","1","","0","1","0","null","","","<div class = 'row'><div class = 'column'><img src = 'usneg/6838.bmp' width = '100%;'></div><div class = 'column'><img src = 'category2/CS9.png' width = '70%;'></div></div>","null","neg","CS","CS","2","category2/CS9.png","","","","",""
"","html-keyboard-response","29","229749","0.0-6.0-2.0-0.2","kczkhhpz7h","one_one","1","indirect_first","0","IC06AN26","0","19","1","1","1","1","","0","1","0","null","","","<div class = 'row'><div class = 'column'><img src = 'category3/CS5.png' width = '70%;'></div><div class = 'column'><img src = 'uspos/2030.bmp' width = '100%;'></div></div>","null","pos","CS","CS","3","category3/CS5.png","","","","",""
"","html-keyboard-response","30","232290","0.0-6.0-2.0-0.3","kczkhhpz7h","one_one","1","indirect_first","0","IC06AN26","0","19","1","1","1","1","","0","1","0","null","","","<div class = 'row'><div class = 'column'><img src = 'category4/CS3.png' width = '70%;'></div><div class = 'column'><img src = 'usneg/9635.2.bmp' width = '100%;'></div></div>","null","neg","CS","CS","4","category4/CS3.png","","","","",""
"","html-keyboard-response","31","234819","0.0-6.0-2.0-0.4","kczkhhpz7h","one_one","1","indirect_first","0","IC06AN26","0","19","1","1","1","1","","0","1","0","null","","","<div class = 'row'><div class = 'column'><img src = 'uspos/2030.bmp' width = '100%;'></div><div class = 'column'><img src = 'category3/CS5.png' width = '70%;'></div></div>","null","pos","CS","CS","3","category3/CS5.png","","","","",""
"","html-keyboard-response","32","237350","0.0-6.0-2.0-0.5","kczkhhpz7h","one_one","1","indirect_first","0","IC06AN26","0","19","1","1","1","1","","0","1","0","null","","","<div class = 'row'><div class = 'column'><img src = 'category1/CS1.png' width = '70%;'></div><div class = 'column'><img src = 'uspos/2360.bmp' width = '100%;'></div></div>","null","pos","CS","CS","1","category1/CS1.png","","","","",""
"","html-keyboard-response","33","239890","0.0-6.0-2.0-0.6","kczkhhpz7h","one_one","1","indirect_first","0","IC06AN26","0","19","1","1","1","1","","0","1","0","null","","","<div class = 'row'><div class = 'column'><img src = 'category3/CS5.png' width = '70%;'></div><div class = 'column'><img src = 'uspos/2030.bmp' width = '100%;'></div></div>","null","pos","CS","CS","3","category3/CS5.png","","","","",""
"","html-keyboard-response","34","242409","0.0-6.0-2.0-0.7","kczkhhpz7h","one_one","1","indirect_first","0","IC06AN26","0","19","1","1","1","1","","0","1","0","null","","","<div class = 'row'><div class = 'column'><img src = 'category2/CS9.png' width = '70%;'></div><div class = 'column'><img src = 'usneg/6838.bmp' width = '100%;'></div></div>","null","neg","CS","CS","2","category2/CS9.png","","","","",""
"","html-keyboard-response","35","244945","0.0-6.0-2.0-0.8","kczkhhpz7h","one_one","1","indirect_first","0","IC06AN26","0","19","1","1","1","1","","0","1","0","null","","","<div class = 'row'><div class = 'column'><img src = 'uspos/2360.bmp' width = '100%;'></div><div class = 'column'><img src = 'category1/CS1.png' width = '70%;'></div></div>","null","pos","CS","CS","1","category1/CS1.png","","","","",""
"","html-keyboard-response","36","247470","0.0-6.0-2.0-0.9","kczkhhpz7h","one_one","1","indirect_first","0","IC06AN26","0","19","1","1","1","1","","0","1","0","null","","","<div class = 'row'><div class = 'column'><img src = 'usneg/9635.2.bmp' width = '100%;'></div><div class = 'column'><img src = 'category4/CS3.png' width = '70%;'></div></div>","null","neg","CS","CS","4","category4/CS3.png","","","","",""
"","html-keyboard-response","37","249990","0.0-6.0-2.0-0.10","kczkhhpz7h","one_one","1","indirect_first","0","IC06AN26","0","19","1","1","1","1","","0","1","0","null","","","<div class = 'row'><div class = 'column'><img src = 'category2/CS9.png' width = '70%;'></div><div class = 'column'><img src = 'usneg/6838.bmp' width = '100%;'></div></div>","null","neg","CS","CS","2","category2/CS9.png","","","","",""
"","html-keyboard-response","38","252500","0.0-6.0-2.0-0.11","kczkhhpz7h","one_one","1","indirect_first","0","IC06AN26","0","19","1","1","1","1","","0","1","0","null","","","<div class = 'row'><div class = 'column'><img src = 'category3/CS5.png' width = '70%;'></div><div class = 'column'><img src = 'uspos/2030.bmp' width = '100%;'></div></div>","null","pos","CS","CS","3","category3/CS5.png","","","","",""
"","html-keyboard-response","39","255009","0.0-6.0-2.0-0.12","kczkhhpz7h","one_one","1","indirect_first","0","IC06AN26","0","19","1","1","1","1","","0","1","0","null","","","<div class = 'row'><div class = 'column'><img src = 'category4/CS3.png' width = '70%;'></div><div class = 'column'><img src = 'usneg/9635.2.bmp' width = '100%;'></div></div>","null","neg","CS","CS","4","category4/CS3.png","","","","",""
"","html-keyboard-response","40","257530","0.0-6.0-2.0-0.13","kczkhhpz7h","one_one","1","indirect_first","0","IC06AN26","0","19","1","1","1","1","","0","1","0","null","","","<div class = 'row'><div class = 'column'><img src = 'category2/CS9.png' width = '70%;'></div><div class = 'column'><img src = 'usneg/6838.bmp' width = '100%;'></div></div>","null","neg","CS","CS","2","category2/CS9.png","","","","",""
"","html-keyboard-response","41","260060","0.0-6.0-2.0-0.14","kczkhhpz7h","one_one","1","indirect_first","0","IC06AN26","0","19","1","1","1","1","","0","1","0","null","","","<div class = 'row'><div class = 'column'><img src = 'uspos/2360.bmp' width = '100%;'></div><div class = 'column'><img src = 'category1/CS1.png' width = '70%;'></div></div>","null","pos","CS","CS","1","category1/CS1.png","","","","",""
"","html-keyboard-response","42","262589","0.0-6.0-2.0-0.15","kczkhhpz7h","one_one","1","indirect_first","0","IC06AN26","0","19","1","1","1","1","","0","1","0","null","","","<div class = 'row'><div class = 'column'><img src = 'category4/CS3.png' width = '70%;'></div><div class = 'column'><img src = 'usneg/9635.2.bmp' width = '100%;'></div></div>","null","neg","CS","CS","4","category4/CS3.png","","","","",""
"","html-keyboard-response","43","265110","0.0-6.0-2.0-0.16","kczkhhpz7h","one_one","1","indirect_first","0","IC06AN26","0","19","1","1","1","1","","0","1","0","null","","","<div class = 'row'><div class = 'column'><img src = 'uspos/2360.bmp' width = '100%;'></div><div class = 'column'><img src = 'category1/CS1.png' width = '70%;'></div></div>","null","pos","CS","CS","1","category1/CS1.png","","","","",""
"","html-keyboard-response","44","267630","0.0-6.0-2.0-0.17","kczkhhpz7h","one_one","1","indirect_first","0","IC06AN26","0","19","1","1","1","1","","0","1","0","null","","","<div class = 'row'><div class = 'column'><img src = 'category4/CS3.png' width = '70%;'></div><div class = 'column'><img src = 'usneg/9635.2.bmp' width = '100%;'></div></div>","null","neg","CS","CS","4","category4/CS3.png","","","","",""
"","html-keyboard-response","45","270170","0.0-6.0-2.0-0.18","kczkhhpz7h","one_one","1","indirect_first","0","IC06AN26","0","19","1","1","1","1","","0","1","0","null","","","<div class = 'row'><div class = 'column'><img src = 'uspos/2030.bmp' width = '100%;'></div><div class = 'column'><img src = 'category3/CS5.png' width = '70%;'></div></div>","null","pos","CS","CS","3","category3/CS5.png","","","","",""
"","html-keyboard-response","46","272700","0.0-6.0-2.0-0.19","kczkhhpz7h","one_one","1","indirect_first","0","IC06AN26","0","19","1","1","1","1","","0","1","0","null","","","<div class = 'row'><div class = 'column'><img src = 'usneg/6838.bmp' width = '100%;'></div><div class = 'column'><img src = 'category2/CS9.png' width = '70%;'></div></div>","null","neg","CS","CS","2","category2/CS9.png","","","","",""
"","survey-html-form","47","278333","0.0-6.0-3.0","kczkhhpz7h","one_one","1","indirect_first","0","IC06AN26","0","19","1","1","1","1","","0","1","0","5113","","{}","","","","","","","","","","","",""
"","html-keyboard-response","48","282370","0.0-6.0-4.0-0.0","kczkhhpz7h","one_one","1","indirect_first","0","IC06AN26","0","19","1","1","1","1","","0","1","0","null","","","<div class = 'row'><div class = 'column'><img src = 'usneg/9635.2.bmp' width = '100%;'></div><div class = 'column'><img src = 'category4/CS3.png' width = '70%;'></div></div>","null","neg","CS","CS","4","category4/CS3.png","","","","",""
"","html-keyboard-response","49","284910","0.0-6.0-4.0-0.1","kczkhhpz7h","one_one","1","indirect_first","0","IC06AN26","0","19","1","1","1","1","","0","1","0","null","","","<div class = 'row'><div class = 'column'><img src = 'uspos/2360.bmp' width = '100%;'></div><div class = 'column'><img src = 'category1/CS1.png' width = '70%;'></div></div>","null","pos","CS","CS","1","category1/CS1.png","","","","",""
"","html-keyboard-response","50","287431","0.0-6.0-4.0-0.2","kczkhhpz7h","one_one","1","indirect_first","0","IC06AN26","0","19","1","1","1","1","","0","1","0","null","","","<div class = 'row'><div class = 'column'><img src = 'uspos/2030.bmp' width = '100%;'></div><div class = 'column'><img src = 'category3/CS5.png' width = '70%;'></div></div>","null","pos","CS","CS","3","category3/CS5.png","","","","",""
"","html-keyboard-response","51","289960","0.0-6.0-4.0-0.3","kczkhhpz7h","one_one","1","indirect_first","0","IC06AN26","0","19","1","1","1","1","","0","1","0","null","","","<div class = 'row'><div class = 'column'><img src = 'usneg/6838.bmp' width = '100%;'></div><div class = 'column'><img src = 'category2/CS9.png' width = '70%;'></div></div>","null","neg","CS","CS","2","category2/CS9.png","","","","",""
"","html-keyboard-response","52","292490","0.0-6.0-4.0-0.4","kczkhhpz7h","one_one","1","indirect_first","0","IC06AN26","0","19","1","1","1","1","","0","1","0","null","","","<div class = 'row'><div class = 'column'><img src = 'uspos/2360.bmp' width = '100%;'></div><div class = 'column'><img src = 'category1/CS1.png' width = '70%;'></div></div>","null","pos","CS","CS","1","category1/CS1.png","","","","",""
"","html-keyboard-response","53","295020","0.0-6.0-4.0-0.5","kczkhhpz7h","one_one","1","indirect_first","0","IC06AN26","0","19","1","1","1","1","","0","1","0","null","","","<div class = 'row'><div class = 'column'><img src = 'category2/CS9.png' width = '70%;'></div><div class = 'column'><img src = 'usneg/6838.bmp' width = '100%;'></div></div>","null","neg","CS","CS","2","category2/CS9.png","","","","",""
"","html-keyboard-response","54","297550","0.0-6.0-4.0-0.6","kczkhhpz7h","one_one","1","indirect_first","0","IC06AN26","0","19","1","1","1","1","","0","1","0","null","","","<div class = 'row'><div class = 'column'><img src = 'usneg/9635.2.bmp' width = '100%;'></div><div class = 'column'><img src = 'category4/CS3.png' width = '70%;'></div></div>","null","neg","CS","CS","4","category4/CS3.png","","","","",""
"","html-keyboard-response","55","300080","0.0-6.0-4.0-0.7","kczkhhpz7h","one_one","1","indirect_first","0","IC06AN26","0","19","1","1","1","1","","0","1","0","null","","","<div class = 'row'><div class = 'column'><img src = 'uspos/2030.bmp' width = '100%;'></div><div class = 'column'><img src = 'category3/CS5.png' width = '70%;'></div></div>","null","pos","CS","CS","3","category3/CS5.png","","","","",""
"","html-keyboard-response","56","302610","0.0-6.0-4.0-0.8","kczkhhpz7h","one_one","1","indirect_first","0","IC06AN26","0","19","1","1","1","1","","0","1","0","null","","","<div class = 'row'><div class = 'column'><img src = 'category1/CS1.png' width = '70%;'></div><div class = 'column'><img src = 'uspos/2360.bmp' width = '100%;'></div></div>","null","pos","CS","CS","1","category1/CS1.png","","","","",""
"","html-keyboard-response","57","305150","0.0-6.0-4.0-0.9","kczkhhpz7h","one_one","1","indirect_first","0","IC06AN26","0","19","1","1","1","1","","0","1","0","null","","","<div class = 'row'><div class = 'column'><img src = 'usneg/6838.bmp' width = '100%;'></div><div class = 'column'><img src = 'category2/CS9.png' width = '70%;'></div></div>","null","neg","CS","CS","2","category2/CS9.png","","","","",""
"","html-keyboard-response","58","307689","0.0-6.0-4.0-0.10","kczkhhpz7h","one_one","1","indirect_first","0","IC06AN26","0","19","1","1","1","1","","0","1","0","null","","","<div class = 'row'><div class = 'column'><img src = 'category1/CS1.png' width = '70%;'></div><div class = 'column'><img src = 'uspos/2360.bmp' width = '100%;'></div></div>","null","pos","CS","CS","1","category1/CS1.png","","","","",""
"","html-keyboard-response","59","310210","0.0-6.0-4.0-0.11","kczkhhpz7h","one_one","1","indirect_first","0","IC06AN26","0","19","1","1","1","1","","0","1","0","null","","","<div class = 'row'><div class = 'column'><img src = 'usneg/9635.2.bmp' width = '100%;'></div><div class = 'column'><img src = 'category4/CS3.png' width = '70%;'></div></div>","null","neg","CS","CS","4","category4/CS3.png","","","","",""
"","html-keyboard-response","60","312740","0.0-6.0-4.0-0.12","kczkhhpz7h","one_one","1","indirect_first","0","IC06AN26","0","19","1","1","1","1","","0","1","0","null","","","<div class = 'row'><div class = 'column'><img src = 'uspos/2360.bmp' width = '100%;'></div><div class = 'column'><img src = 'category1/CS1.png' width = '70%;'></div></div>","null","pos","CS","CS","1","category1/CS1.png","","","","",""
"","html-keyboard-response","61","315250","0.0-6.0-4.0-0.13","kczkhhpz7h","one_one","1","indirect_first","0","IC06AN26","0","19","1","1","1","1","","0","1","0","null","","","<div class = 'row'><div class = 'column'><img src = 'usneg/6838.bmp' width = '100%;'></div><div class = 'column'><img src = 'category2/CS9.png' width = '70%;'></div></div>","null","neg","CS","CS","2","category2/CS9.png","","","","",""
"","html-keyboard-response","62","317790","0.0-6.0-4.0-0.14","kczkhhpz7h","one_one","1","indirect_first","0","IC06AN26","0","19","1","1","1","1","","0","1","0","null","","","<div class = 'row'><div class = 'column'><img src = 'category3/CS5.png' width = '70%;'></div><div class = 'column'><img src = 'uspos/2030.bmp' width = '100%;'></div></div>","null","pos","CS","CS","3","category3/CS5.png","","","","",""
"","html-keyboard-response","63","320320","0.0-6.0-4.0-0.15","kczkhhpz7h","one_one","1","indirect_first","0","IC06AN26","0","19","1","1","1","1","","0","1","0","null","","","<div class = 'row'><div class = 'column'><img src = 'category4/CS3.png' width = '70%;'></div><div class = 'column'><img src = 'usneg/9635.2.bmp' width = '100%;'></div></div>","null","neg","CS","CS","4","category4/CS3.png","","","","",""
"","html-keyboard-response","64","322849","0.0-6.0-4.0-0.16","kczkhhpz7h","one_one","1","indirect_first","0","IC06AN26","0","19","1","1","1","1","","0","1","0","null","","","<div class = 'row'><div class = 'column'><img src = 'uspos/2030.bmp' width = '100%;'></div><div class = 'column'><img src = 'category3/CS5.png' width = '70%;'></div></div>","null","pos","CS","CS","3","category3/CS5.png","","","","",""
"","html-keyboard-response","65","325380","0.0-6.0-4.0-0.17","kczkhhpz7h","one_one","1","indirect_first","0","IC06AN26","0","19","1","1","1","1","","0","1","0","null","","","<div class = 'row'><div class = 'column'><img src = 'usneg/6838.bmp' width = '100%;'></div><div class = 'column'><img src = 'category2/CS9.png' width = '70%;'></div></div>","null","neg","CS","CS","2","category2/CS9.png","","","","",""
"","html-keyboard-response","66","327909","0.0-6.0-4.0-0.18","kczkhhpz7h","one_one","1","indirect_first","0","IC06AN26","0","19","1","1","1","1","","0","1","0","null","","","<div class = 'row'><div class = 'column'><img src = 'uspos/2030.bmp' width = '100%;'></div><div class = 'column'><img src = 'category3/CS5.png' width = '70%;'></div></div>","null","pos","CS","CS","3","category3/CS5.png","","","","",""
"","html-keyboard-response","67","330440","0.0-6.0-4.0-0.19","kczkhhpz7h","one_one","1","indirect_first","0","IC06AN26","0","19","1","1","1","1","","0","1","0","null","","","<div class = 'row'><div class = 'column'><img src = 'usneg/9635.2.bmp' width = '100%;'></div><div class = 'column'><img src = 'category4/CS3.png' width = '70%;'></div></div>","null","neg","CS","CS","4","category4/CS3.png","","","","",""
"","survey-html-form","68","334000","0.0-6.0-5.0","kczkhhpz7h","one_one","1","indirect_first","0","IC06AN26","0","19","1","1","1","1","","0","1","0","3051","","{}","","","","","","","","","","","",""
"","html-keyboard-response","69","338021","0.0-6.0-6.0-0.0","kczkhhpz7h","one_one","1","indirect_first","0","IC06AN26","0","19","1","1","1","1","","0","1","0","null","","","<div class = 'row'><div class = 'column'><img src = 'category2/CS9.png' width = '70%;'></div><div class = 'column'><img src = 'usneg/6838.bmp' width = '100%;'></div></div>","null","neg","CS","CS","2","category2/CS9.png","","","","",""
"","html-keyboard-response","70","340539","0.0-6.0-6.0-0.1","kczkhhpz7h","one_one","1","indirect_first","0","IC06AN26","0","19","1","1","1","1","","0","1","0","null","","","<div class = 'row'><div class = 'column'><img src = 'category4/CS3.png' width = '70%;'></div><div class = 'column'><img src = 'usneg/9635.2.bmp' width = '100%;'></div></div>","null","neg","CS","CS","4","category4/CS3.png","","","","",""
"","html-keyboard-response","71","343070","0.0-6.0-6.0-0.2","kczkhhpz7h","one_one","1","indirect_first","0","IC06AN26","0","19","1","1","1","1","","0","1","0","null","","","<div class = 'row'><div class = 'column'><img src = 'category2/CS9.png' width = '70%;'></div><div class = 'column'><img src = 'usneg/6838.bmp' width = '100%;'></div></div>","null","neg","CS","CS","2","category2/CS9.png","","","","",""
"","html-keyboard-response","72","345599","0.0-6.0-6.0-0.3","kczkhhpz7h","one_one","1","indirect_first","0","IC06AN26","0","19","1","1","1","1","","0","1","0","null","","","<div class = 'row'><div class = 'column'><img src = 'uspos/2030.bmp' width = '100%;'></div><div class = 'column'><img src = 'category3/CS5.png' width = '70%;'></div></div>","null","pos","CS","CS","3","category3/CS5.png","","","","",""
"","html-keyboard-response","73","348130","0.0-6.0-6.0-0.4","kczkhhpz7h","one_one","1","indirect_first","0","IC06AN26","0","19","1","1","1","1","","0","1","0","null","","","<div class = 'row'><div class = 'column'><img src = 'category1/CS1.png' width = '70%;'></div><div class = 'column'><img src = 'uspos/2360.bmp' width = '100%;'></div></div>","null","pos","CS","CS","1","category1/CS1.png","","","","",""
"","html-keyboard-response","74","350660","0.0-6.0-6.0-0.5","kczkhhpz7h","one_one","1","indirect_first","0","IC06AN26","0","19","1","1","1","1","","0","1","0","null","","","<div class = 'row'><div class = 'column'><img src = 'category4/CS3.png' width = '70%;'></div><div class = 'column'><img src = 'usneg/9635.2.bmp' width = '100%;'></div></div>","null","neg","CS","CS","4","category4/CS3.png","","","","",""
"","html-keyboard-response","75","353185","0.0-6.0-6.0-0.6","kczkhhpz7h","one_one","1","indirect_first","0","IC06AN26","0","19","1","1","1","1","","0","1","0","null","","","<div class = 'row'><div class = 'column'><img src = 'category1/CS1.png' width = '70%;'></div><div class = 'column'><img src = 'uspos/2360.bmp' width = '100%;'></div></div>","null","pos","CS","CS","1","category1/CS1.png","","","","",""
"","html-keyboard-response","76","355700","0.0-6.0-6.0-0.7","kczkhhpz7h","one_one","1","indirect_first","0","IC06AN26","0","19","1","1","1","1","","0","1","0","null","","","<div class = 'row'><div class = 'column'><img src = 'usneg/9635.2.bmp' width = '100%;'></div><div class = 'column'><img src = 'category4/CS3.png' width = '70%;'></div></div>","null","neg","CS","CS","4","category4/CS3.png","","","","",""
"","html-keyboard-response","77","358221","0.0-6.0-6.0-0.8","kczkhhpz7h","one_one","1","indirect_first","0","IC06AN26","0","19","1","1","1","1","","0","1","0","null","","","<div class = 'row'><div class = 'column'><img src = 'uspos/2360.bmp' width = '100%;'></div><div class = 'column'><img src = 'category1/CS1.png' width = '70%;'></div></div>","null","pos","CS","CS","1","category1/CS1.png","","","","",""
"","html-keyboard-response","78","360750","0.0-6.0-6.0-0.9","kczkhhpz7h","one_one","1","indirect_first","0","IC06AN26","0","19","1","1","1","1","","0","1","0","null","","","<div class = 'row'><div class = 'column'><img src = 'usneg/6838.bmp' width = '100%;'></div><div class = 'column'><img src = 'category2/CS9.png' width = '70%;'></div></div>","null","neg","CS","CS","2","category2/CS9.png","","","","",""
"","html-keyboard-response","79","363280","0.0-6.0-6.0-0.10","kczkhhpz7h","one_one","1","indirect_first","0","IC06AN26","0","19","1","1","1","1","","0","1","0","null","","","<div class = 'row'><div class = 'column'><img src = 'usneg/9635.2.bmp' width = '100%;'></div><div class = 'column'><img src = 'category4/CS3.png' width = '70%;'></div></div>","null","neg","CS","CS","4","category4/CS3.png","","","","",""
"","html-keyboard-response","80","365799","0.0-6.0-6.0-0.11","kczkhhpz7h","one_one","1","indirect_first","0","IC06AN26","0","19","1","1","1","1","","0","1","0","null","","","<div class = 'row'><div class = 'column'><img src = 'uspos/2360.bmp' width = '100%;'></div><div class = 'column'><img src = 'category1/CS1.png' width = '70%;'></div></div>","null","pos","CS","CS","1","category1/CS1.png","","","","",""
"","html-keyboard-response","81","368309","0.0-6.0-6.0-0.12","kczkhhpz7h","one_one","1","indirect_first","0","IC06AN26","0","19","1","1","1","1","","0","1","0","null","","","<div class = 'row'><div class = 'column'><img src = 'category3/CS5.png' width = '70%;'></div><div class = 'column'><img src = 'uspos/2030.bmp' width = '100%;'></div></div>","null","pos","CS","CS","3","category3/CS5.png","","","","",""
"","html-keyboard-response","82","370830","0.0-6.0-6.0-0.13","kczkhhpz7h","one_one","1","indirect_first","0","IC06AN26","0","19","1","1","1","1","","0","1","0","null","","","<div class = 'row'><div class = 'column'><img src = 'usneg/6838.bmp' width = '100%;'></div><div class = 'column'><img src = 'category2/CS9.png' width = '70%;'></div></div>","null","neg","CS","CS","2","category2/CS9.png","","","","",""
"","html-keyboard-response","83","373350","0.0-6.0-6.0-0.14","kczkhhpz7h","one_one","1","indirect_first","0","IC06AN26","0","19","1","1","1","1","","0","1","0","null","","","<div class = 'row'><div class = 'column'><img src = 'uspos/2030.bmp' width = '100%;'></div><div class = 'column'><img src = 'category3/CS5.png' width = '70%;'></div></div>","null","pos","CS","CS","3","category3/CS5.png","","","","",""
"","html-keyboard-response","84","375870","0.0-6.0-6.0-0.15","kczkhhpz7h","one_one","1","indirect_first","0","IC06AN26","0","19","1","1","1","1","","0","1","0","null","","","<div class = 'row'><div class = 'column'><img src = 'category4/CS3.png' width = '70%;'></div><div class = 'column'><img src = 'usneg/9635.2.bmp' width = '100%;'></div></div>","null","neg","CS","CS","4","category4/CS3.png","","","","",""
"","html-keyboard-response","85","378380","0.0-6.0-6.0-0.16","kczkhhpz7h","one_one","1","indirect_first","0","IC06AN26","0","19","1","1","1","1","","0","1","0","null","","","<div class = 'row'><div class = 'column'><img src = 'category3/CS5.png' width = '70%;'></div><div class = 'column'><img src = 'uspos/2030.bmp' width = '100%;'></div></div>","null","pos","CS","CS","3","category3/CS5.png","","","","",""
"","html-keyboard-response","86","380920","0.0-6.0-6.0-0.17","kczkhhpz7h","one_one","1","indirect_first","0","IC06AN26","0","19","1","1","1","1","","0","1","0","null","","","<div class = 'row'><div class = 'column'><img src = 'usneg/6838.bmp' width = '100%;'></div><div class = 'column'><img src = 'category2/CS9.png' width = '70%;'></div></div>","null","neg","CS","CS","2","category2/CS9.png","","","","",""
"","html-keyboard-response","87","383450","0.0-6.0-6.0-0.18","kczkhhpz7h","one_one","1","indirect_first","0","IC06AN26","0","19","1","1","1","1","","0","1","0","null","","","<div class = 'row'><div class = 'column'><img src = 'category3/CS5.png' width = '70%;'></div><div class = 'column'><img src = 'uspos/2030.bmp' width = '100%;'></div></div>","null","pos","CS","CS","3","category3/CS5.png","","","","",""
"","html-keyboard-response","88","385969","0.0-6.0-6.0-0.19","kczkhhpz7h","one_one","1","indirect_first","0","IC06AN26","0","19","1","1","1","1","","0","1","0","null","","","<div class = 'row'><div class = 'column'><img src = 'category1/CS1.png' width = '70%;'></div><div class = 'column'><img src = 'uspos/2360.bmp' width = '100%;'></div></div>","null","pos","CS","CS","1","category1/CS1.png","","","","",""
"","html-keyboard-response","89","436581","0.0-7.0","kczkhhpz7h","one_one","1","indirect_first","0","IC06AN26","0","19","1","1","1","1","","0","1","0","50110","","","<p>Sie sehen nun die chinesischen Zeichen nur ganz kurz. Danach sehen Sie die jeweilige Aussprache der Zeichen als Silbe auf dem Bildschrim. Ihre Aufgabe ist es, für jede Silbe anzugeben, ob diese etwas angenehmes, oder unangenehmes bedeuten könnte. Verlassen Sie sich hier vor allem auf Ihre Intuition.<br><br>Die Zeichen werden nur zur Orientierung dargestellt, beachten Sie sie deshalb nicht. Konzentrieren Sie sich vor allem auf die Silben. <br>Reagieren Sie mit folgenden zwei Tasten: <br><br><b>'D' </b> wenn die Silbe etwas <b>unangenehmes</b> bedeuten könnte. <br><b>'K'</b> wenn die Silbe etwas <b>angenehmes</b> bedeuten könnte. <br><br>Bitte legen Sie nun den Zeigefinger der linken Hand auf die Taste 'D' und den Zeigefinger der rechten Hand auf die Taste 'K'. <br>Reagieren Sie auf jede Silbe so schnell wie möglich. Uns interessiert Ihre spontane Reaktion. <br> <br> <br>Drücken Sie 'D' oder 'K', um die nächste Aufgabe zu starten. </p>","68","","","","","","","","","",""
"","html-keyboard-response","90","439610","0.0-8.0-0.0","kczkhhpz7h","one_one","1","indirect_first","0","IC06AN26","0","19","1","1","1","1","","0","1","0","null","","","<div style=""font-size:60px;"">+</div>","null","","","","","","","","","",""
"","html-keyboard-response","91","439719","0.0-8.0-1.0","kczkhhpz7h","one_one","1","indirect_first","0","IC06AN26","0","19","1","1","1","1","","0","1","0","null","","","<img src = 'category3/CS6.png' width = '100%;'>","null","","","","","","","","","",""
"","html-keyboard-response","92","440000","0.0-8.0-2.0","kczkhhpz7h","one_one","1","indirect_first","0","IC06AN26","0","19","1","1","1","1","","0","1","0","null","","","<img src = 'targets/36.png' width = '100%;'>","null","","","","","","","","","",""
"","html-keyboard-response","93","445397","0.0-8.0-3.0","kczkhhpz7h","one_one","1","indirect_first","0","IC06AN26","0","19","1","1","1","1","","0","1","0","5396","","","<img src = 'targets/mask.png' width = '100%;'>","68","pos","GS","GSold","3","category3/CS6.png","targets/36.png","0","indirect","0",""
"","html-keyboard-response","94","446909","0.0-8.0-0.1","kczkhhpz7h","one_one","1","indirect_first","0","IC06AN26","0","19","1","1","1","1","","0","1","0","null","","","<div style=""font-size:60px;"">+</div>","null","","","","","","","","","",""
"","html-keyboard-response","95","447010","0.0-8.0-1.1","kczkhhpz7h","one_one","1","indirect_first","0","IC06AN26","0","19","1","1","1","1","","0","1","0","null","","","<img src = 'category3/CS3.png' width = '100%;'>","null","","","","","","","","","",""
"","html-keyboard-response","96","447290","0.0-8.0-2.1","kczkhhpz7h","one_one","1","indirect_first","0","IC06AN26","0","19","1","1","1","1","","0","1","0","null","","","<img src = 'targets/20.png' width = '100%;'>","null","","","","","","","","","",""
"","html-keyboard-response","97","449165","0.0-8.0-3.1","kczkhhpz7h","one_one","1","indirect_first","0","IC06AN26","0","19","1","1","1","1","","0","1","0","1875","","","<img src = 'targets/mask.png' width = '100%;'>","75","pos","GS","GSold","3","category3/CS3.png","targets/20.png","1","indirect","1",""
"","html-keyboard-response","98","450690","0.0-8.0-0.2","kczkhhpz7h","one_one","1","indirect_first","0","IC06AN26","0","19","1","1","1","1","","0","1","0","null","","","<div style=""font-size:60px;"">+</div>","null","","","","","","","","","",""
"","html-keyboard-response","99","450790","0.0-8.0-1.2","kczkhhpz7h","one_one","1","indirect_first","0","IC06AN26","0","19","1","1","1","1","","0","1","0","null","","","<img src = 'category2/CS3.png' width = '100%;'>","null","","","","","","","","","",""
"","html-keyboard-response","100","451069","0.0-8.0-2.2","kczkhhpz7h","one_one","1","indirect_first","0","IC06AN26","0","19","1","1","1","1","","0","1","0","null","","","<img src = 'targets/26.png' width = '100%;'>","null","","","","","","","","","",""
"","html-keyboard-response","101","452205","0.0-8.0-3.2","kczkhhpz7h","one_one","1","indirect_first","0","IC06AN26","0","19","1","1","1","1","","0","1","0","1136","","","<img src = 'targets/mask.png' width = '100%;'>","75","neg","GS","GSold","2","category2/CS3.png","targets/26.png","1","indirect","2",""
"","html-keyboard-response","102","453730","0.0-8.0-0.3","kczkhhpz7h","one_one","1","indirect_first","0","IC06AN26","0","19","1","1","1","1","","0","1","0","null","","","<div style=""font-size:60px;"">+</div>","null","","","","","","","","","",""
"","html-keyboard-response","103","453829","0.0-8.0-1.3","kczkhhpz7h","one_one","1","indirect_first","0","IC06AN26","0","19","1","1","1","1","","0","1","0","null","","","<img src = 'category1/CS5.png' width = '100%;'>","null","","","","","","","","","",""
"","html-keyboard-response","104","454109","0.0-8.0-2.3","kczkhhpz7h","one_one","1","indirect_first","0","IC06AN26","0","19","1","1","1","1","","0","1","0","null","","","<img src = 'targets/46.png' width = '100%;'>","null","","","","","","","","","",""
"","html-keyboard-response","105","455837","0.0-8.0-3.3","kczkhhpz7h","one_one","1","indirect_first","0","IC06AN26","0","19","1","1","1","1","","0","1","0","1727","","","<img src = 'targets/mask.png' width = '100%;'>","75","pos","GS","GSold","1","category1/CS5.png","targets/46.png","1","indirect","3",""
"","html-keyboard-response","106","457359","0.0-8.0-0.4","kczkhhpz7h","one_one","1","indirect_first","0","IC06AN26","0","19","1","1","1","1","","0","1","0","null","","","<div style=""font-size:60px;"">+</div>","null","","","","","","","","","",""
"","html-keyboard-response","107","457470","0.0-8.0-1.4","kczkhhpz7h","one_one","1","indirect_first","0","IC06AN26","0","19","1","1","1","1","","0","1","0","null","","","<img src = 'category2/CS10.png' width = '100%;'>","null","","","","","","","","","",""
"","html-keyboard-response","108","457739","0.0-8.0-2.4","kczkhhpz7h","one_one","1","indirect_first","0","IC06AN26","0","19","1","1","1","1","","0","1","0","null","","","<img src = 'targets/23.png' width = '100%;'>","null","","","","","","","","","",""
"","html-keyboard-response","109","460390","0.0-8.0-3.4","kczkhhpz7h","one_one","1","indirect_first","0","IC06AN26","0","19","1","1","1","1","","0","1","0","2649","","","<img src = 'targets/mask.png' width = '100%;'>","68","neg","GS","GSold","2","category2/CS10.png","targets/23.png","0","indirect","4",""
"","html-keyboard-response","110","461909","0.0-8.0-0.5","kczkhhpz7h","one_one","1","indirect_first","0","IC06AN26","0","19","1","1","1","1","","0","1","0","null","","","<div style=""font-size:60px;"">+</div>","null","","","","","","","","","",""
"","html-keyboard-response","111","462009","0.0-8.0-1.5","kczkhhpz7h","one_one","1","indirect_first","0","IC06AN26","0","19","1","1","1","1","","0","1","0","null","","","<img src = 'category3/CS5.png' width = '100%;'>","null","","","","","","","","","",""
"","html-keyboard-response","112","462270","0.0-8.0-2.5","kczkhhpz7h","one_one","1","indirect_first","0","IC06AN26","0","19","1","1","1","1","","0","1","0","null","","","<img src = 'targets/11.png' width = '100%;'>","null","","","","","","","","","",""
"","html-keyboard-response","113","464750","0.0-8.0-3.5","kczkhhpz7h","one_one","1","indirect_first","0","IC06AN26","0","19","1","1","1","1","","0","1","0","2478","","","<img src = 'targets/mask.png' width = '100%;'>","75","pos","CS","CS","3","category3/CS5.png","targets/11.png","1","indirect","5",""
"","html-keyboard-response","114","466290","0.0-8.0-0.6","kczkhhpz7h","one_one","1","indirect_first","0","IC06AN26","0","19","1","1","1","1","","0","1","0","null","","","<div style=""font-size:60px;"">+</div>","null","","","","","","","","","",""
"","html-keyboard-response","115","466389","0.0-8.0-1.6","kczkhhpz7h","one_one","1","indirect_first","0","IC06AN26","0","19","1","1","1","1","","0","1","0","null","","","<img src = 'category1/CS6.png' width = '100%;'>","null","","","","","","","","","",""
"","html-keyboard-response","116","466660","0.0-8.0-2.6","kczkhhpz7h","one_one","1","indirect_first","0","IC06AN26","0","19","1","1","1","1","","0","1","0","null","","","<img src = 'targets/22.png' width = '100%;'>","null","","","","","","","","","",""
"","html-keyboard-response","117","468126","0.0-8.0-3.6","kczkhhpz7h","one_one","1","indirect_first","0","IC06AN26","0","19","1","1","1","1","","0","1","0","1465","","","<img src = 'targets/mask.png' width = '100%;'>","68","pos","GS","GSold","1","category1/CS6.png","targets/22.png","0","indirect","6",""
"","html-keyboard-response","118","469630","0.0-8.0-0.7","kczkhhpz7h","one_one","1","indirect_first","0","IC06AN26","0","19","1","1","1","1","","0","1","0","null","","","<div style=""font-size:60px;"">+</div>","null","","","","","","","","","",""
"","html-keyboard-response","119","469730","0.0-8.0-1.7","kczkhhpz7h","one_one","1","indirect_first","0","IC06AN26","0","19","1","1","1","1","","0","1","0","null","","","<img src = 'category2/CS9.png' width = '100%;'>","null","","","","","","","","","",""
"","html-keyboard-response","120","469999","0.0-8.0-2.7","kczkhhpz7h","one_one","1","indirect_first","0","IC06AN26","0","19","1","1","1","1","","0","1","0","null","","","<img src = 'targets/13.png' width = '100%;'>","null","","","","","","","","","",""
"","html-keyboard-response","121","471855","0.0-8.0-3.7","kczkhhpz7h","one_one","1","indirect_first","0","IC06AN26","0","19","1","1","1","1","","0","1","0","1854","","","<img src = 'targets/mask.png' width = '100%;'>","75","neg","CS","CS","2","category2/CS9.png","targets/13.png","1","indirect","7",""
"","html-keyboard-response","122","473380","0.0-8.0-0.8","kczkhhpz7h","one_one","1","indirect_first","0","IC06AN26","0","19","1","1","1","1","","0","1","0","null","","","<div style=""font-size:60px;"">+</div>","null","","","","","","","","","",""
"","html-keyboard-response","123","473480","0.0-8.0-1.8","kczkhhpz7h","one_one","1","indirect_first","0","IC06AN26","0","19","1","1","1","1","","0","1","0","null","","","<img src = 'category1/CS1.png' width = '100%;'>","null","","","","","","","","","",""
"","html-keyboard-response","124","473746","0.0-8.0-2.8","kczkhhpz7h","one_one","1","indirect_first","0","IC06AN26","0","19","1","1","1","1","","0","1","0","null","","","<img src = 'targets/39.png' width = '100%;'>","null","","","","","","","","","",""
"","html-keyboard-response","125","476102","0.0-8.0-3.8","kczkhhpz7h","one_one","1","indirect_first","0","IC06AN26","0","19","1","1","1","1","","0","1","0","2357","","","<img src = 'targets/mask.png' width = '100%;'>","75","pos","CS","CS","1","category1/CS1.png","targets/39.png","1","indirect","8",""
"","html-keyboard-response","126","477630","0.0-8.0-0.9","kczkhhpz7h","one_one","1","indirect_first","0","IC06AN26","0","19","1","1","1","1","","0","1","0","null","","","<div style=""font-size:60px;"">+</div>","null","","","","","","","","","",""
"","html-keyboard-response","127","477740","0.0-8.0-1.9","kczkhhpz7h","one_one","1","indirect_first","0","IC06AN26","0","19","1","1","1","1","","0","1","0","null","","","<img src = 'category1/CS9.png' width = '100%;'>","null","","","","","","","","","",""
"","html-keyboard-response","128","478010","0.0-8.0-2.9","kczkhhpz7h","one_one","1","indirect_first","0","IC06AN26","0","19","1","1","1","1","","0","1","0","null","","","<img src = 'targets/40.png' width = '100%;'>","null","","","","","","","","","",""
"","html-keyboard-response","129","480439","0.0-8.0-3.9","kczkhhpz7h","one_one","1","indirect_first","0","IC06AN26","0","19","1","1","1","1","","0","1","0","2427","","","<img src = 'targets/mask.png' width = '100%;'>","75","pos","GS","GSold","1","category1/CS9.png","targets/40.png","1","indirect","9",""
"","html-keyboard-response","130","481970","0.0-8.0-0.10","kczkhhpz7h","one_one","1","indirect_first","0","IC06AN26","0","19","1","1","1","1","","0","1","0","null","","","<div style=""font-size:60px;"">+</div>","null","","","","","","","","","",""
"","html-keyboard-response","131","482070","0.0-8.0-1.10","kczkhhpz7h","one_one","1","indirect_first","0","IC06AN26","0","19","1","1","1","1","","0","1","0","null","","","<img src = 'category2/CS4.png' width = '100%;'>","null","","","","","","","","","",""
"","html-keyboard-response","132","482349","0.0-8.0-2.10","kczkhhpz7h","one_one","1","indirect_first","0","IC06AN26","0","19","1","1","1","1","","0","1","0","null","","","<img src = 'targets/30.png' width = '100%;'>","null","","","","","","","","","",""
"","html-keyboard-response","133","487416","0.0-8.0-3.10","kczkhhpz7h","one_one","1","indirect_first","0","IC06AN26","0","19","1","1","1","1","","0","1","0","5065","","","<img src = 'targets/mask.png' width = '100%;'>","68","neg","GS","GSold","2","category2/CS4.png","targets/30.png","0","indirect","10",""
"","html-keyboard-response","134","488950","0.0-8.0-0.11","kczkhhpz7h","one_one","1","indirect_first","0","IC06AN26","0","19","1","1","1","1","","0","1","0","null","","","<div style=""font-size:60px;"">+</div>","null","","","","","","","","","",""
"","html-keyboard-response","135","489059","0.0-8.0-1.11","kczkhhpz7h","one_one","1","indirect_first","0","IC06AN26","0","19","1","1","1","1","","0","1","0","null","","","<img src = 'category4/CS9.png' width = '100%;'>","null","","","","","","","","","",""
"","html-keyboard-response","136","489330","0.0-8.0-2.11","kczkhhpz7h","one_one","1","indirect_first","0","IC06AN26","0","19","1","1","1","1","","0","1","0","null","","","<img src = 'targets/42.png' width = '100%;'>","null","","","","","","","","","",""
"","html-keyboard-response","137","491167","0.0-8.0-3.11","kczkhhpz7h","one_one","1","indirect_first","0","IC06AN26","0","19","1","1","1","1","","0","1","0","1837","","","<img src = 'targets/mask.png' width = '100%;'>","68","neg","GS","GSold","4","category4/CS9.png","targets/42.png","0","indirect","11",""
"","html-keyboard-response","138","492690","0.0-8.0-0.12","kczkhhpz7h","one_one","1","indirect_first","0","IC06AN26","0","19","1","1","1","1","","0","1","0","null","","","<div style=""font-size:60px;"">+</div>","null","","","","","","","","","",""
"","html-keyboard-response","139","492790","0.0-8.0-1.12","kczkhhpz7h","one_one","1","indirect_first","0","IC06AN26","0","19","1","1","1","1","","0","1","0","null","","","<img src = 'category4/CS10.png' width = '100%;'>","null","","","","","","","","","",""
"","html-keyboard-response","140","493060","0.0-8.0-2.12","kczkhhpz7h","one_one","1","indirect_first","0","IC06AN26","0","19","1","1","1","1","","0","1","0","null","","","<img src = 'targets/41.png' width = '100%;'>","null","","","","","","","","","",""
"","html-keyboard-response","141","494216","0.0-8.0-3.12","kczkhhpz7h","one_one","1","indirect_first","0","IC06AN26","0","19","1","1","1","1","","0","1","0","1155","","","<img src = 'targets/mask.png' width = '100%;'>","68","neg","GS","GSold","4","category4/CS10.png","targets/41.png","0","indirect","12",""
"","html-keyboard-response","142","495740","0.0-8.0-0.13","kczkhhpz7h","one_one","1","indirect_first","0","IC06AN26","0","19","1","1","1","1","","0","1","0","null","","","<div style=""font-size:60px;"">+</div>","null","","","","","","","","","",""
"","html-keyboard-response","143","495840","0.0-8.0-1.13","kczkhhpz7h","one_one","1","indirect_first","0","IC06AN26","0","19","1","1","1","1","","0","1","0","null","","","<img src = 'category4/CS6.png' width = '100%;'>","null","","","","","","","","","",""
"","html-keyboard-response","144","496120","0.0-8.0-2.13","kczkhhpz7h","one_one","1","indirect_first","0","IC06AN26","0","19","1","1","1","1","","0","1","0","null","","","<img src = 'targets/12.png' width = '100%;'>","null","","","","","","","","","",""
"","html-keyboard-response","145","498400","0.0-8.0-3.13","kczkhhpz7h","one_one","1","indirect_first","0","IC06AN26","0","19","1","1","1","1","","0","1","0","2280","","","<img src = 'targets/mask.png' width = '100%;'>","68","neg","GS","GSold","4","category4/CS6.png","targets/12.png","0","indirect","13",""
"","html-keyboard-response","146","499930","0.0-8.0-0.14","kczkhhpz7h","one_one","1","indirect_first","0","IC06AN26","0","19","1","1","1","1","","0","1","0","null","","","<div style=""font-size:60px;"">+</div>","null","","","","","","","","","",""
"","html-keyboard-response","147","500040","0.0-8.0-1.14","kczkhhpz7h","one_one","1","indirect_first","0","IC06AN26","0","19","1","1","1","1","","0","1","0","null","","","<img src = 'category4/CS3.png' width = '100%;'>","null","","","","","","","","","",""
"","html-keyboard-response","148","500310","0.0-8.0-2.14","kczkhhpz7h","one_one","1","indirect_first","0","IC06AN26","0","19","1","1","1","1","","0","1","0","null","","","<img src = 'targets/5.png' width = '100%;'>","null","","","","","","","","","",""
"","html-keyboard-response","149","502191","0.0-8.0-3.14","kczkhhpz7h","one_one","1","indirect_first","0","IC06AN26","0","19","1","1","1","1","","0","1","0","1881","","","<img src = 'targets/mask.png' width = '100%;'>","75","neg","CS","CS","4","category4/CS3.png","targets/5.png","1","indirect","14",""
"","html-keyboard-response","150","503710","0.0-8.0-0.15","kczkhhpz7h","one_one","1","indirect_first","0","IC06AN26","0","19","1","1","1","1","","0","1","0","null","","","<div style=""font-size:60px;"">+</div>","null","","","","","","","","","",""
"","html-keyboard-response","151","503810","0.0-8.0-1.15","kczkhhpz7h","one_one","1","indirect_first","0","IC06AN26","0","19","1","1","1","1","","0","1","0","null","","","<img src = 'category3/CS8.png' width = '100%;'>","null","","","","","","","","","",""
"","html-keyboard-response","152","504070","0.0-8.0-2.15","kczkhhpz7h","one_one","1","indirect_first","0","IC06AN26","0","19","1","1","1","1","","0","1","0","null","","","<img src = 'targets/24.png' width = '100%;'>","null","","","","","","","","","",""
"","html-keyboard-response","153","505168","0.0-8.0-3.15","kczkhhpz7h","one_one","1","indirect_first","0","IC06AN26","0","19","1","1","1","1","","0","1","0","1098","","","<img src = 'targets/mask.png' width = '100%;'>","68","pos","GS","GSold","3","category3/CS8.png","targets/24.png","0","indirect","15",""
"","survey-html-form","154","509402","0.0-9.0","kczkhhpz7h","one_one","1","indirect_first","0","IC06AN26","0","19","1","1","1","1","","0","1","0","3732","","{}","","","","","","","","","","","",""
"","html-keyboard-response","155","512439","0.0-10.0-0.0","kczkhhpz7h","one_one","1","indirect_first","0","IC06AN26","0","19","1","1","1","1","","0","1","0","null","","","<div style=""font-size:60px;"">+</div>","null","","","","","","","","","",""
"","html-keyboard-response","156","512540","0.0-10.0-1.0","kczkhhpz7h","one_one","1","indirect_first","0","IC06AN26","0","19","1","1","1","1","","0","1","0","null","","","<img src = 'category2/GS1.png' width = '100%;'>","null","","","","","","","","","",""
"","html-keyboard-response","157","512800","0.0-10.0-2.0","kczkhhpz7h","one_one","1","indirect_first","0","IC06AN26","0","19","1","1","1","1","","0","1","0","null","","","<img src = 'targets/4.png' width = '100%;'>","null","","","","","","","","","",""
"","html-keyboard-response","158","516064","0.0-10.0-3.0","kczkhhpz7h","one_one","1","indirect_first","0","IC06AN26","0","19","1","1","1","1","","0","1","0","3263","","","<img src = 'targets/mask.png' width = '100%;'>","68","neg","GS","GSnew","2","category2/GS1.png","targets/4.png","0","indirect","16",""
"","html-keyboard-response","159","517580","0.0-10.0-0.1","kczkhhpz7h","one_one","1","indirect_first","0","IC06AN26","0","19","1","1","1","1","","0","1","0","null","","","<div style=""font-size:60px;"">+</div>","null","","","","","","","","","",""
"","html-keyboard-response","160","517675","0.0-10.0-1.1","kczkhhpz7h","one_one","1","indirect_first","0","IC06AN26","0","19","1","1","1","1","","0","1","0","null","","","<img src = 'category1/ma.png' width = '100%;'>","null","","","","","","","","","",""
"","html-keyboard-response","161","517940","0.0-10.0-2.1","kczkhhpz7h","one_one","1","indirect_first","0","IC06AN26","0","19","1","1","1","1","","0","1","0","null","","","<img src = 'targets/25.png' width = '100%;'>","null","","","","","","","","","",""
"","html-keyboard-response","162","520105","0.0-10.0-3.1","kczkhhpz7h","one_one","1","indirect_first","0","IC06AN26","0","19","1","1","1","1","","0","1","0","2165","","","<img src = 'targets/mask.png' width = '100%;'>","68","pos","GS","abstract","1","category1/ma.png","targets/25.png","0","indirect","17",""
"","html-keyboard-response","163","521621","0.0-10.0-0.2","kczkhhpz7h","one_one","1","indirect_first","0","IC06AN26","0","19","1","1","1","1","","0","1","0","null","","","<div style=""font-size:60px;"">+</div>","null","","","","","","","","","",""
"","html-keyboard-response","164","521729","0.0-10.0-1.2","kczkhhpz7h","one_one","1","indirect_first","0","IC06AN26","0","19","1","1","1","1","","0","1","0","null","","","<img src = 'category2/GS3.png' width = '100%;'>","null","","","","","","","","","",""
"","html-keyboard-response","165","522010","0.0-10.0-2.2","kczkhhpz7h","one_one","1","indirect_first","0","IC06AN26","0","19","1","1","1","1","","0","1","0","null","","","<img src = 'targets/19.png' width = '100%;'>","null","","","","","","","","","",""
"","html-keyboard-response","166","526240","0.0-10.0-3.2","kczkhhpz7h","one_one","1","indirect_first","0","IC06AN26","0","19","1","1","1","1","","0","1","0","4230","","","<img src = 'targets/mask.png' width = '100%;'>","75","neg","GS","GSnew","2","category2/GS3.png","targets/19.png","1","indirect","18",""
"","html-keyboard-response","167","527769","0.0-10.0-0.3","kczkhhpz7h","one_one","1","indirect_first","0","IC06AN26","0","19","1","1","1","1","","0","1","0","null","","","<div style=""font-size:60px;"">+</div>","null","","","","","","","","","",""
"","html-keyboard-response","168","527869","0.0-10.0-1.3","kczkhhpz7h","one_one","1","indirect_first","0","IC06AN26","0","19","1","1","1","1","","0","1","0","null","","","<img src = 'category3/GS1.png' width = '100%;'>","null","","","","","","","","","",""
"","html-keyboard-response","169","528130","0.0-10.0-2.3","kczkhhpz7h","one_one","1","indirect_first","0","IC06AN26","0","19","1","1","1","1","","0","1","0","null","","","<img src = 'targets/8.png' width = '100%;'>","null","","","","","","","","","",""
"","html-keyboard-response","170","529361","0.0-10.0-3.3","kczkhhpz7h","one_one","1","indirect_first","0","IC06AN26","0","19","1","1","1","1","","0","1","0","1230","","","<img src = 'targets/mask.png' width = '100%;'>","75","pos","GS","GSnew","3","category3/GS1.png","targets/8.png","1","indirect","19",""
"","html-keyboard-response","171","530889","0.0-10.0-0.4","kczkhhpz7h","one_one","1","indirect_first","0","IC06AN26","0","19","1","1","1","1","","0","1","0","null","","","<div style=""font-size:60px;"">+</div>","null","","","","","","","","","",""
"","html-keyboard-response","172","530989","0.0-10.0-1.4","kczkhhpz7h","one_one","1","indirect_first","0","IC06AN26","0","19","1","1","1","1","","0","1","0","null","","","<img src = 'category4/lin.png' width = '100%;'>","null","","","","","","","","","",""
"","html-keyboard-response","173","531250","0.0-10.0-2.4","kczkhhpz7h","one_one","1","indirect_first","0","IC06AN26","0","19","1","1","1","1","","0","1","0","null","","","<img src = 'targets/35.png' width = '100%;'>","null","","","","","","","","","",""
"","html-keyboard-response","174","531921","0.0-10.0-3.4","kczkhhpz7h","one_one","1","indirect_first","0","IC06AN26","0","19","1","1","1","1","","0","1","0","671","","","<img src = 'targets/mask.png' width = '100%;'>","75","neg","GS","abstract","4","category4/lin.png","targets/35.png","1","indirect","20",""
"","html-keyboard-response","175","533460","0.0-10.0-0.5","kczkhhpz7h","one_one","1","indirect_first","0","IC06AN26","0","19","1","1","1","1","","0","1","0","null","","","<div style=""font-size:60px;"">+</div>","null","","","","","","","","","",""
"","html-keyboard-response","176","533559","0.0-10.0-1.5","kczkhhpz7h","one_one","1","indirect_first","0","IC06AN26","0","19","1","1","1","1","","0","1","0","null","","","<img src = 'category4/GS3.png' width = '100%;'>","null","","","","","","","","","",""
"","html-keyboard-response","177","533839","0.0-10.0-2.5","kczkhhpz7h","one_one","1","indirect_first","0","IC06AN26","0","19","1","1","1","1","","0","1","0","null","","","<img src = 'targets/48.png' width = '100%;'>","null","","","","","","","","","",""
"","html-keyboard-response","178","534753","0.0-10.0-3.5","kczkhhpz7h","one_one","1","indirect_first","0","IC06AN26","0","19","1","1","1","1","","0","1","0","913","","","<img src = 'targets/mask.png' width = '100%;'>","68","neg","GS","GSnew","4","category4/GS3.png","targets/48.png","0","indirect","21",""
"","html-keyboard-response","179","536265","0.0-10.0-0.6","kczkhhpz7h","one_one","1","indirect_first","0","IC06AN26","0","19","1","1","1","1","","0","1","0","null","","","<div style=""font-size:60px;"">+</div>","null","","","","","","","","","",""
"","html-keyboard-response","180","536365","0.0-10.0-1.6","kczkhhpz7h","one_one","1","indirect_first","0","IC06AN26","0","19","1","1","1","1","","0","1","0","null","","","<img src = 'category3/wang.png' width = '100%;'>","null","","","","","","","","","",""
"","html-keyboard-response","181","536650","0.0-10.0-2.6","kczkhhpz7h","one_one","1","indirect_first","0","IC06AN26","0","19","1","1","1","1","","0","1","0","null","","","<img src = 'targets/6.png' width = '100%;'>","null","","","","","","","","","",""
"","html-keyboard-response","182","537674","0.0-10.0-3.6","kczkhhpz7h","one_one","1","indirect_first","0","IC06AN26","0","19","1","1","1","1","","0","1","0","1023","","","<img src = 'targets/mask.png' width = '100%;'>","68","pos","GS","abstract","3","category3/wang.png","targets/6.png","0","indirect","22",""
"","html-keyboard-response","183","539210","0.0-10.0-0.7","kczkhhpz7h","one_one","1","indirect_first","0","IC06AN26","0","19","1","1","1","1","","0","1","0","null","","","<div style=""font-size:60px;"">+</div>","null","","","","","","","","","",""
"","html-keyboard-response","184","539319","0.0-10.0-1.7","kczkhhpz7h","one_one","1","indirect_first","0","IC06AN26","0","19","1","1","1","1","","0","1","0","null","","","<img src = 'category3/GS3.png' width = '100%;'>","null","","","","","","","","","",""
"","html-keyboard-response","185","539590","0.0-10.0-2.7","kczkhhpz7h","one_one","1","indirect_first","0","IC06AN26","0","19","1","1","1","1","","0","1","0","null","","","<img src = 'targets/17.png' width = '100%;'>","null","","","","","","","","","",""
"","html-keyboard-response","186","540761","0.0-10.0-3.7","kczkhhpz7h","one_one","1","indirect_first","0","IC06AN26","0","19","1","1","1","1","","0","1","0","1170","","","<img src = 'targets/mask.png' width = '100%;'>","68","pos","GS","GSnew","3","category3/GS3.png","targets/17.png","0","indirect","23",""
"","html-keyboard-response","187","542300","0.0-10.0-0.8","kczkhhpz7h","one_one","1","indirect_first","0","IC06AN26","0","19","1","1","1","1","","0","1","0","null","","","<div style=""font-size:60px;"">+</div>","null","","","","","","","","","",""
"","html-keyboard-response","188","542399","0.0-10.0-1.8","kczkhhpz7h","one_one","1","indirect_first","0","IC06AN26","0","19","1","1","1","1","","0","1","0","null","","","<img src = 'category3/GS2.png' width = '100%;'>","null","","","","","","","","","",""
"","html-keyboard-response","189","542679","0.0-10.0-2.8","kczkhhpz7h","one_one","1","indirect_first","0","IC06AN26","0","19","1","1","1","1","","0","1","0","null","","","<img src = 'targets/37.png' width = '100%;'>","null","","","","","","","","","",""
"","html-keyboard-response","190","543810","0.0-10.0-3.8","kczkhhpz7h","one_one","1","indirect_first","0","IC06AN26","0","19","1","1","1","1","","0","1","0","1129","","","<img src = 'targets/mask.png' width = '100%;'>","75","pos","GS","GSnew","3","category3/GS2.png","targets/37.png","1","indirect","24",""
"","html-keyboard-response","191","545330","0.0-10.0-0.9","kczkhhpz7h","one_one","1","indirect_first","0","IC06AN26","0","19","1","1","1","1","","0","1","0","null","","","<div style=""font-size:60px;"">+</div>","null","","","","","","","","","",""
"","html-keyboard-response","192","545429","0.0-10.0-1.9","kczkhhpz7h","one_one","1","indirect_first","0","IC06AN26","0","19","1","1","1","1","","0","1","0","null","","","<img src = 'category1/GS1.png' width = '100%;'>","null","","","","","","","","","",""
"","html-keyboard-response","193","545700","0.0-10.0-2.9","kczkhhpz7h","one_one","1","indirect_first","0","IC06AN26","0","19","1","1","1","1","","0","1","0","null","","","<img src = 'targets/21.png' width = '100%;'>","null","","","","","","","","","",""
"","html-keyboard-response","194","549090","0.0-10.0-3.9","kczkhhpz7h","one_one","1","indirect_first","0","IC06AN26","0","19","1","1","1","1","","0","1","0","3389","","","<img src = 'targets/mask.png' width = '100%;'>","68","pos","GS","GSnew","1","category1/GS1.png","targets/21.png","0","indirect","25",""
"","html-keyboard-response","195","550610","0.0-10.0-0.10","kczkhhpz7h","one_one","1","indirect_first","0","IC06AN26","0","19","1","1","1","1","","0","1","0","null","","","<div style=""font-size:60px;"">+</div>","null","","","","","","","","","",""
"","html-keyboard-response","196","550710","0.0-10.0-1.10","kczkhhpz7h","one_one","1","indirect_first","0","IC06AN26","0","19","1","1","1","1","","0","1","0","null","","","<img src = 'category1/GS3.png' width = '100%;'>","null","","","","","","","","","",""
"","html-keyboard-response","197","550980","0.0-10.0-2.10","kczkhhpz7h","one_one","1","indirect_first","0","IC06AN26","0","19","1","1","1","1","","0","1","0","null","","","<img src = 'targets/9.png' width = '100%;'>","null","","","","","","","","","",""
"","html-keyboard-response","198","552674","0.0-10.0-3.10","kczkhhpz7h","one_one","1","indirect_first","0","IC06AN26","0","19","1","1","1","1","","0","1","0","1693","","","<img src = 'targets/mask.png' width = '100%;'>","75","pos","GS","GSnew","1","category1/GS3.png","targets/9.png","1","indirect","26",""
"","html-keyboard-response","199","554190","0.0-10.0-0.11","kczkhhpz7h","one_one","1","indirect_first","0","IC06AN26","0","19","1","1","1","1","","0","1","0","null","","","<div style=""font-size:60px;"">+</div>","null","","","","","","","","","",""
"","html-keyboard-response","200","554299","0.0-10.0-1.11","kczkhhpz7h","one_one","1","indirect_first","0","IC06AN26","0","19","1","1","1","1","","0","1","0","null","","","<img src = 'category2/GS2.png' width = '100%;'>","null","","","","","","","","","",""
"","html-keyboard-response","201","554579","0.0-10.0-2.11","kczkhhpz7h","one_one","1","indirect_first","0","IC06AN26","0","19","1","1","1","1","","0","1","0","null","","","<img src = 'targets/3.png' width = '100%;'>","null","","","","","","","","","",""
"","html-keyboard-response","202","556634","0.0-10.0-3.11","kczkhhpz7h","one_one","1","indirect_first","0","IC06AN26","0","19","1","1","1","1","","0","1","0","2053","","","<img src = 'targets/mask.png' width = '100%;'>","68","neg","GS","GSnew","2","category2/GS2.png","targets/3.png","0","indirect","27",""
"","html-keyboard-response","203","558160","0.0-10.0-0.12","kczkhhpz7h","one_one","1","indirect_first","0","IC06AN26","0","19","1","1","1","1","","0","1","0","null","","","<div style=""font-size:60px;"">+</div>","null","","","","","","","","","",""
"","html-keyboard-response","204","558260","0.0-10.0-1.12","kczkhhpz7h","one_one","1","indirect_first","0","IC06AN26","0","19","1","1","1","1","","0","1","0","null","","","<img src = 'category4/GS2.png' width = '100%;'>","null","","","","","","","","","",""
"","html-keyboard-response","205","558539","0.0-10.0-2.12","kczkhhpz7h","one_one","1","indirect_first","0","IC06AN26","0","19","1","1","1","1","","0","1","0","null","","","<img src = 'targets/47.png' width = '100%;'>","null","","","","","","","","","",""
"","html-keyboard-response","206","560538","0.0-10.0-3.12","kczkhhpz7h","one_one","1","indirect_first","0","IC06AN26","0","19","1","1","1","1","","0","1","0","1998","","","<img src = 'targets/mask.png' width = '100%;'>","68","neg","GS","GSnew","4","category4/GS2.png","targets/47.png","0","indirect","28",""
"","html-keyboard-response","207","562050","0.0-10.0-0.13","kczkhhpz7h","one_one","1","indirect_first","0","IC06AN26","0","19","1","1","1","1","","0","1","0","null","","","<div style=""font-size:60px;"">+</div>","null","","","","","","","","","",""
"","html-keyboard-response","208","562150","0.0-10.0-1.13","kczkhhpz7h","one_one","1","indirect_first","0","IC06AN26","0","19","1","1","1","1","","0","1","0","null","","","<img src = 'category4/GS1.png' width = '100%;'>","null","","","","","","","","","",""
"","html-keyboard-response","209","562420","0.0-10.0-2.13","kczkhhpz7h","one_one","1","indirect_first","0","IC06AN26","0","19","1","1","1","1","","0","1","0","null","","","<img src = 'targets/32.png' width = '100%;'>","null","","","","","","","","","",""
"","html-keyboard-response","210","563930","0.0-10.0-3.13","kczkhhpz7h","one_one","1","indirect_first","0","IC06AN26","0","19","1","1","1","1","","0","1","0","1509","","","<img src = 'targets/mask.png' width = '100%;'>","75","neg","GS","GSnew","4","category4/GS1.png","targets/32.png","1","indirect","29",""
"","html-keyboard-response","211","565455","0.0-10.0-0.14","kczkhhpz7h","one_one","1","indirect_first","0","IC06AN26","0","19","1","1","1","1","","0","1","0","null","","","<div style=""font-size:60px;"">+</div>","null","","","","","","","","","",""
"","html-keyboard-response","212","565555","0.0-10.0-1.14","kczkhhpz7h","one_one","1","indirect_first","0","IC06AN26","0","19","1","1","1","1","","0","1","0","null","","","<img src = 'category1/GS2.png' width = '100%;'>","null","","","","","","","","","",""
"","html-keyboard-response","213","565840","0.0-10.0-2.14","kczkhhpz7h","one_one","1","indirect_first","0","IC06AN26","0","19","1","1","1","1","","0","1","0","null","","","<img src = 'targets/15.png' width = '100%;'>","null","","","","","","","","","",""
"","html-keyboard-response","214","566899","0.0-10.0-3.14","kczkhhpz7h","one_one","1","indirect_first","0","IC06AN26","0","19","1","1","1","1","","0","1","0","1059","","","<img src = 'targets/mask.png' width = '100%;'>","75","pos","GS","GSnew","1","category1/GS2.png","targets/15.png","1","indirect","30",""
"","html-keyboard-response","215","568419","0.0-10.0-0.15","kczkhhpz7h","one_one","1","indirect_first","0","IC06AN26","0","19","1","1","1","1","","0","1","0","null","","","<div style=""font-size:60px;"">+</div>","null","","","","","","","","","",""
"","html-keyboard-response","216","568520","0.0-10.0-1.15","kczkhhpz7h","one_one","1","indirect_first","0","IC06AN26","0","19","1","1","1","1","","0","1","0","null","","","<img src = 'category2/men.png' width = '100%;'>","null","","","","","","","","","",""
"","html-keyboard-response","217","568790","0.0-10.0-2.15","kczkhhpz7h","one_one","1","indirect_first","0","IC06AN26","0","19","1","1","1","1","","0","1","0","null","","","<img src = 'targets/2.png' width = '100%;'>","null","","","","","","","","","",""
"","html-keyboard-response","218","569932","0.0-10.0-3.15","kczkhhpz7h","one_one","1","indirect_first","0","IC06AN26","0","19","1","1","1","1","","0","1","0","1141","","","<img src = 'targets/mask.png' width = '100%;'>","68","neg","GS","abstract","2","category2/men.png","targets/2.png","0","indirect","31",""
"","survey-html-form","219","584027","0.0-11.0","kczkhhpz7h","one_one","1","indirect_first","0","IC06AN26","0","19","1","1","1","1","","0","1","0","13577","","{}","","","","","","","","","","","",""
"","image-slider-response","220","591828","0.0-12.0-0.0","kczkhhpz7h","one_one","1","indirect_first","0","IC06AN26","0","19","1","1","1","1","","0","1","0","5781","","","","","pos","CS","CS","3","category3/CS5.png","targets/11.png","","direct","","59"
"","image-slider-response","221","595129","0.0-12.0-0.1","kczkhhpz7h","one_one","1","indirect_first","0","IC06AN26","0","19","1","1","1","1","","0","1","0","3301","","","","","neg","GS","GSold","2","category2/CS4.png","targets/30.png","","direct","","-38"
"","image-slider-response","222","599970","0.0-12.0-0.2","kczkhhpz7h","one_one","1","indirect_first","0","IC06AN26","0","19","1","1","1","1","","0","1","0","4838","","","","","neg","CS","CS","4","category4/CS3.png","targets/5.png","","direct","","72"
"","image-slider-response","223","604622","0.0-12.0-0.3","kczkhhpz7h","one_one","1","indirect_first","0","IC06AN26","0","19","1","1","1","1","","0","1","0","4650","","","","","neg","GS","GSnew","2","category2/GS1.png","targets/4.png","","direct","","-67"
"","image-slider-response","224","607025","0.0-12.0-0.4","kczkhhpz7h","one_one","1","indirect_first","0","IC06AN26","0","19","1","1","1","1","","0","1","0","2401","","","","","neg","GS","GSnew","2","category2/GS2.png","targets/3.png","","direct","","-57"
"","image-slider-response","225","609361","0.0-12.0-0.5","kczkhhpz7h","one_one","1","indirect_first","0","IC06AN26","0","19","1","1","1","1","","0","1","0","2335","","","","","neg","GS","GSnew","4","category4/GS1.png","targets/32.png","","direct","","57"
"","image-slider-response","226","613774","0.0-12.0-0.6","kczkhhpz7h","one_one","1","indirect_first","0","IC06AN26","0","19","1","1","1","1","","0","1","0","4412","","","","","neg","GS","GSold","2","category2/CS3.png","targets/26.png","","direct","","-26"
"","image-slider-response","227","619411","0.0-12.0-0.7","kczkhhpz7h","one_one","1","indirect_first","0","IC06AN26","0","19","1","1","1","1","","0","1","0","5634","","","","","neg","GS","GSold","4","category4/CS6.png","targets/12.png","","direct","","41"
"","image-slider-response","228","621942","0.0-12.0-0.8","kczkhhpz7h","one_one","1","indirect_first","0","IC06AN26","0","19","1","1","1","1","","0","1","0","2530","","","","","neg","GS","GSnew","2","category2/GS3.png","targets/19.png","","direct","","-68"
"","image-slider-response","229","624233","0.0-12.0-0.9","kczkhhpz7h","one_one","1","indirect_first","0","IC06AN26","0","19","1","1","1","1","","0","1","0","2290","","","","","neg","GS","abstract","4","category4/lin.png","targets/35.png","","direct","","79"
"","image-slider-response","230","627259","0.0-12.0-0.10","kczkhhpz7h","one_one","1","indirect_first","0","IC06AN26","0","19","1","1","1","1","","0","1","0","3025","","","","","pos","GS","GSnew","3","category3/GS1.png","targets/8.png","","direct","","27"
"","image-slider-response","231","629637","0.0-12.0-0.11","kczkhhpz7h","one_one","1","indirect_first","0","IC06AN26","0","19","1","1","1","1","","0","1","0","2376","","","","","pos","GS","abstract","3","category3/wang.png","targets/6.png","","direct","","-21"
"","image-slider-response","232","632081","0.0-12.0-0.12","kczkhhpz7h","one_one","1","indirect_first","0","IC06AN26","0","19","1","1","1","1","","0","1","0","2443","","","","","pos","GS","GSold","1","category1/CS6.png","targets/22.png","","direct","","27"
"","image-slider-response","233","634406","0.0-12.0-0.13","kczkhhpz7h","one_one","1","indirect_first","0","IC06AN26","0","19","1","1","1","1","","0","1","0","2323","","","","","neg","GS","GSold","4","category4/CS9.png","targets/42.png","","direct","","71"
"","image-slider-response","234","636828","0.0-12.0-0.14","kczkhhpz7h","one_one","1","indirect_first","0","IC06AN26","0","19","1","1","1","1","","0","1","0","2421","","","","","neg","GS","GSnew","4","category4/GS2.png","targets/47.png","","direct","","68"
"","image-slider-response","235","639546","0.0-12.0-0.15","kczkhhpz7h","one_one","1","indirect_first","0","IC06AN26","0","19","1","1","1","1","","0","1","0","2717","","","","","pos","GS","GSold","1","category1/CS5.png","targets/46.png","","direct","","54"
"","image-slider-response","236","641883","0.0-12.0-0.16","kczkhhpz7h","one_one","1","indirect_first","0","IC06AN26","0","19","1","1","1","1","","0","1","0","2338","","","","","neg","GS","GSnew","4","category4/GS3.png","targets/48.png","","direct","","70"
"","image-slider-response","237","645565","0.0-12.0-0.17","kczkhhpz7h","one_one","1","indirect_first","0","IC06AN26","0","19","1","1","1","1","","0","1","0","3681","","","","","pos","GS","GSold","3","category3/CS6.png","targets/36.png","","direct","","18"
"","image-slider-response","238","648843","0.0-12.0-0.18","kczkhhpz7h","one_one","1","indirect_first","0","IC06AN26","0","19","1","1","1","1","","0","1","0","3276","","","","","pos","GS","GSnew","1","category1/GS3.png","targets/9.png","","direct","","-28"
"","image-slider-response","239","651048","0.0-12.0-0.19","kczkhhpz7h","one_one","1","indirect_first","0","IC06AN26","0","19","1","1","1","1","","0","1","0","2203","","","","","pos","GS","GSold","1","category1/CS9.png","targets/40.png","","direct","","41"
"","image-slider-response","240","654077","0.0-12.0-0.20","kczkhhpz7h","one_one","1","indirect_first","0","IC06AN26","0","19","1","1","1","1","","0","1","0","3029","","","","","pos","CS","CS","1","category1/CS1.png","targets/39.png","","direct","","-28"
"","image-slider-response","241","656474","0.0-12.0-0.21","kczkhhpz7h","one_one","1","indirect_first","0","IC06AN26","0","19","1","1","1","1","","0","1","0","2395","","","","","neg","GS","GSold","4","category4/CS10.png","targets/41.png","","direct","","32"
"","image-slider-response","242","660085","0.0-12.0-0.22","kczkhhpz7h","one_one","1","indirect_first","0","IC06AN26","0","19","1","1","1","1","","0","1","0","3609","","","","","pos","GS","abstract","1","category1/ma.png","targets/25.png","","direct","","-74"
"","image-slider-response","243","662396","0.0-12.0-0.23","kczkhhpz7h","one_one","1","indirect_first","0","IC06AN26","0","19","1","1","1","1","","0","1","0","2311","","","","","pos","GS","GSold","3","category3/CS8.png","targets/24.png","","direct","","-40"
"","image-slider-response","244","664419","0.0-12.0-0.24","kczkhhpz7h","one_one","1","indirect_first","0","IC06AN26","0","19","1","1","1","1","","0","1","0","2022","","","","","neg","GS","GSold","2","category2/CS10.png","targets/23.png","","direct","","-39"
"","image-slider-response","245","666397","0.0-12.0-0.25","kczkhhpz7h","one_one","1","indirect_first","0","IC06AN26","0","19","1","1","1","1","","0","1","0","1978","","","","","pos","GS","GSnew","3","category3/GS3.png","targets/17.png","","direct","","-19"
"","image-slider-response","246","668827","0.0-12.0-0.26","kczkhhpz7h","one_one","1","indirect_first","0","IC06AN26","0","19","1","1","1","1","","0","1","0","2430","","","","","pos","GS","GSnew","1","category1/GS1.png","targets/21.png","","direct","","-36"
"","image-slider-response","247","671425","0.0-12.0-0.27","kczkhhpz7h","one_one","1","indirect_first","0","IC06AN26","0","19","1","1","1","1","","0","1","0","2597","","","","","neg","CS","CS","2","category2/CS9.png","targets/13.png","","direct","","-41"
"","image-slider-response","248","673605","0.0-12.0-0.28","kczkhhpz7h","one_one","1","indirect_first","0","IC06AN26","0","19","1","1","1","1","","0","1","0","2179","","","","","neg","GS","abstract","2","category2/men.png","targets/2.png","","direct","","-74"
"","image-slider-response","249","677627","0.0-12.0-0.29","kczkhhpz7h","one_one","1","indirect_first","0","IC06AN26","0","19","1","1","1","1","","0","1","0","4021","","","","","pos","GS","GSnew","1","category1/GS2.png","targets/15.png","","direct","","-36"
"","image-slider-response","250","680495","0.0-12.0-0.30","kczkhhpz7h","one_one","1","indirect_first","0","IC06AN26","0","19","1","1","1","1","","0","1","0","2866","","","","","pos","GS","GSnew","3","category3/GS2.png","targets/37.png","","direct","","-32"
"","image-slider-response","251","682959","0.0-12.0-0.31","kczkhhpz7h","one_one","1","indirect_first","0","IC06AN26","0","19","1","1","1","1","","0","1","0","2464","","","","","pos","GS","GSold","3","category3/CS3.png","targets/20.png","","direct","","-35"
"","survey-html-form","252","688478","0.0-13.0","kczkhhpz7h","one_one","1","indirect_first","0","IC06AN26","0","19","1","1","1","1","","0","1","0","5518","","{}","","","","","","","","","","","",""
"","image-slider-response","253","693256","0.0-14.0-0.0","kczkhhpz7h","one_one","1","indirect_first","0","IC06AN26","0","19","1","1","1","1","","0","1","0","3774","","","","","neg","All","all","2","category2/men_all.png","","","all","","-42"
"","image-slider-response","254","699230","0.0-14.0-0.1","kczkhhpz7h","one_one","1","indirect_first","0","IC06AN26","0","19","1","1","1","1","","0","1","0","5972","","","","","pos","All","all","1","category1/ma_all.png","","","all","","20"
"","image-slider-response","255","701260","0.0-14.0-0.2","kczkhhpz7h","one_one","1","indirect_first","0","IC06AN26","0","19","1","1","1","1","","0","1","0","2029","","","","","pos","All","all","3","category3/wang_all.png","","","all","","-15"
"","image-slider-response","256","703688","0.0-14.0-0.3","kczkhhpz7h","one_one","1","indirect_first","0","IC06AN26","0","19","1","1","1","1","","0","1","0","2427","","","","","neg","All","all","4","category4/lin_all.png","","","all","","75"
"","survey-text","257","708224","0.0-15.0","kczkhhpz7h","one_one","1","indirect_first","0","IC06AN26","0","19","1","1","1","1","","0","1","0","4530","","{""comment"":""""}","","","","","","","","","","","",""
"","survey-html-form","258","717010","0.0-16.0","kczkhhpz7h","one_one","1","indirect_first","0","IC06AN26","0","19","1","1","1","1","","0","1","0","8786","","{""hinschauen"":""0"",""ablenkung"":""1"",""gewissenhaft"":""0""}","","","","","","","","","","","",""
