"success","trial_type","trial_index","time_elapsed","internal_node_id","subject","condition","condition_code","measure","measure_code","codeword","gender","age","education","chinese","fach","handedness","rt","url","responses","stimulus","key_press","val","type","type_specific","category","cs_selected","target","indirect","task","nr_pres","response"
"true","fullscreen","0","11438","0.0-0.0","4p8v0yf7wk","one_one","1","indirect_first","0","to04nd07","0","21","1","1","3","1","","","","","","","","","","","","","","",""
"","external-html","1","59226","0.0-1.0","4p8v0yf7wk","one_one","1","indirect_first","0","to04nd07","0","21","1","1","3","1","47780","text/information.html","","","","","","","","","","","","",""
"","external-html","2","77530","0.0-2.0","4p8v0yf7wk","one_one","1","indirect_first","0","to04nd07","0","21","1","1","3","1","18299","text/consent.html","","","","","","","","","","","","",""
"","survey-html-form","3","132467","0.0-3.0","4p8v0yf7wk","one_one","1","indirect_first","0","to04nd07","0","21","1","1","3","1","54935","","{""codeword_enter"":""to04nd07""}","","","","","","","","","","","",""
"","survey-html-form","4","155244","0.0-4.0","4p8v0yf7wk","one_one","1","indirect_first","0","to04nd07","0","21","1","1","3","1","22775","","{""age"":""21"",""education"":""1"",""subject"":""3"",""gender"":""0"",""handedness"":""1"",""chinese"":""1""}","","","","","","","","","","","",""
"","survey-html-form","5","157394","0.0-5.0","4p8v0yf7wk","one_one","1","indirect_first","0","to04nd07","0","21","1","1","3","1","2149","","{}","","","","","","","","","","","",""
"","html-keyboard-response","6","161422","0.0-6.0-0.0-0.0","4p8v0yf7wk","one_one","1","indirect_first","0","to04nd07","0","21","1","1","3","1","null","","","<div class = 'row'><div class = 'column'><img src = 'category3/CS3.png' width = '70%;'></div><div class = 'column'><img src = 'usneg/9290.bmp' width = '100%;'></div></div>","null","neg","CS","CS","3","category3/CS3.png","","","","",""
"","html-keyboard-response","7","163938","0.0-6.0-0.0-0.1","4p8v0yf7wk","one_one","1","indirect_first","0","to04nd07","0","21","1","1","3","1","null","","","<div class = 'row'><div class = 'column'><img src = 'uspos/2900.2.bmp' width = '100%;'></div><div class = 'column'><img src = 'category4/CS8.png' width = '70%;'></div></div>","null","pos","CS","CS","4","category4/CS8.png","","","","",""
"","html-keyboard-response","8","166472","0.0-6.0-0.0-0.2","4p8v0yf7wk","one_one","1","indirect_first","0","to04nd07","0","21","1","1","3","1","null","","","<div class = 'row'><div class = 'column'><img src = 'uspos/1440.bmp' width = '100%;'></div><div class = 'column'><img src = 'category1/CS2.png' width = '70%;'></div></div>","null","pos","CS","CS","1","category1/CS2.png","","","","",""
"","html-keyboard-response","9","169011","0.0-6.0-0.0-0.3","4p8v0yf7wk","one_one","1","indirect_first","0","to04nd07","0","21","1","1","3","1","null","","","<div class = 'row'><div class = 'column'><img src = 'uspos/2900.2.bmp' width = '100%;'></div><div class = 'column'><img src = 'category4/CS8.png' width = '70%;'></div></div>","null","pos","CS","CS","4","category4/CS8.png","","","","",""
"","html-keyboard-response","10","171552","0.0-6.0-0.0-0.4","4p8v0yf7wk","one_one","1","indirect_first","0","to04nd07","0","21","1","1","3","1","null","","","<div class = 'row'><div class = 'column'><img src = 'category2/CS7.png' width = '70%;'></div><div class = 'column'><img src = 'usneg/8485.bmp' width = '100%;'></div></div>","null","neg","CS","CS","2","category2/CS7.png","","","","",""
"","html-keyboard-response","11","174091","0.0-6.0-0.0-0.5","4p8v0yf7wk","one_one","1","indirect_first","0","to04nd07","0","21","1","1","3","1","null","","","<div class = 'row'><div class = 'column'><img src = 'category4/CS8.png' width = '70%;'></div><div class = 'column'><img src = 'uspos/2900.2.bmp' width = '100%;'></div></div>","null","pos","CS","CS","4","category4/CS8.png","","","","",""
"","html-keyboard-response","12","176631","0.0-6.0-0.0-0.6","4p8v0yf7wk","one_one","1","indirect_first","0","to04nd07","0","21","1","1","3","1","null","","","<div class = 'row'><div class = 'column'><img src = 'usneg/8485.bmp' width = '100%;'></div><div class = 'column'><img src = 'category2/CS7.png' width = '70%;'></div></div>","null","neg","CS","CS","2","category2/CS7.png","","","","",""
"","html-keyboard-response","13","179171","0.0-6.0-0.0-0.7","4p8v0yf7wk","one_one","1","indirect_first","0","to04nd07","0","21","1","1","3","1","null","","","<div class = 'row'><div class = 'column'><img src = 'usneg/9290.bmp' width = '100%;'></div><div class = 'column'><img src = 'category3/CS3.png' width = '70%;'></div></div>","null","neg","CS","CS","3","category3/CS3.png","","","","",""
"","html-keyboard-response","14","181711","0.0-6.0-0.0-0.8","4p8v0yf7wk","one_one","1","indirect_first","0","to04nd07","0","21","1","1","3","1","null","","","<div class = 'row'><div class = 'column'><img src = 'uspos/1440.bmp' width = '100%;'></div><div class = 'column'><img src = 'category1/CS2.png' width = '70%;'></div></div>","null","pos","CS","CS","1","category1/CS2.png","","","","",""
"","html-keyboard-response","15","184252","0.0-6.0-0.0-0.9","4p8v0yf7wk","one_one","1","indirect_first","0","to04nd07","0","21","1","1","3","1","null","","","<div class = 'row'><div class = 'column'><img src = 'category2/CS7.png' width = '70%;'></div><div class = 'column'><img src = 'usneg/8485.bmp' width = '100%;'></div></div>","null","neg","CS","CS","2","category2/CS7.png","","","","",""
"","html-keyboard-response","16","186788","0.0-6.0-0.0-0.10","4p8v0yf7wk","one_one","1","indirect_first","0","to04nd07","0","21","1","1","3","1","null","","","<div class = 'row'><div class = 'column'><img src = 'uspos/1440.bmp' width = '100%;'></div><div class = 'column'><img src = 'category1/CS2.png' width = '70%;'></div></div>","null","pos","CS","CS","1","category1/CS2.png","","","","",""
"","html-keyboard-response","17","189301","0.0-6.0-0.0-0.11","4p8v0yf7wk","one_one","1","indirect_first","0","to04nd07","0","21","1","1","3","1","null","","","<div class = 'row'><div class = 'column'><img src = 'uspos/2900.2.bmp' width = '100%;'></div><div class = 'column'><img src = 'category4/CS8.png' width = '70%;'></div></div>","null","pos","CS","CS","4","category4/CS8.png","","","","",""
"","html-keyboard-response","18","191821","0.0-6.0-0.0-0.12","4p8v0yf7wk","one_one","1","indirect_first","0","to04nd07","0","21","1","1","3","1","null","","","<div class = 'row'><div class = 'column'><img src = 'usneg/9290.bmp' width = '100%;'></div><div class = 'column'><img src = 'category3/CS3.png' width = '70%;'></div></div>","null","neg","CS","CS","3","category3/CS3.png","","","","",""
"","html-keyboard-response","19","194341","0.0-6.0-0.0-0.13","4p8v0yf7wk","one_one","1","indirect_first","0","to04nd07","0","21","1","1","3","1","null","","","<div class = 'row'><div class = 'column'><img src = 'category4/CS8.png' width = '70%;'></div><div class = 'column'><img src = 'uspos/2900.2.bmp' width = '100%;'></div></div>","null","pos","CS","CS","4","category4/CS8.png","","","","",""
"","html-keyboard-response","20","196870","0.0-6.0-0.0-0.14","4p8v0yf7wk","one_one","1","indirect_first","0","to04nd07","0","21","1","1","3","1","null","","","<div class = 'row'><div class = 'column'><img src = 'uspos/1440.bmp' width = '100%;'></div><div class = 'column'><img src = 'category1/CS2.png' width = '70%;'></div></div>","null","pos","CS","CS","1","category1/CS2.png","","","","",""
"","html-keyboard-response","21","199404","0.0-6.0-0.0-0.15","4p8v0yf7wk","one_one","1","indirect_first","0","to04nd07","0","21","1","1","3","1","null","","","<div class = 'row'><div class = 'column'><img src = 'category2/CS7.png' width = '70%;'></div><div class = 'column'><img src = 'usneg/8485.bmp' width = '100%;'></div></div>","null","neg","CS","CS","2","category2/CS7.png","","","","",""
"","html-keyboard-response","22","201931","0.0-6.0-0.0-0.16","4p8v0yf7wk","one_one","1","indirect_first","0","to04nd07","0","21","1","1","3","1","null","","","<div class = 'row'><div class = 'column'><img src = 'category3/CS3.png' width = '70%;'></div><div class = 'column'><img src = 'usneg/9290.bmp' width = '100%;'></div></div>","null","neg","CS","CS","3","category3/CS3.png","","","","",""
"","html-keyboard-response","23","204451","0.0-6.0-0.0-0.17","4p8v0yf7wk","one_one","1","indirect_first","0","to04nd07","0","21","1","1","3","1","null","","","<div class = 'row'><div class = 'column'><img src = 'category2/CS7.png' width = '70%;'></div><div class = 'column'><img src = 'usneg/8485.bmp' width = '100%;'></div></div>","null","neg","CS","CS","2","category2/CS7.png","","","","",""
"","html-keyboard-response","24","206987","0.0-6.0-0.0-0.18","4p8v0yf7wk","one_one","1","indirect_first","0","to04nd07","0","21","1","1","3","1","null","","","<div class = 'row'><div class = 'column'><img src = 'category1/CS2.png' width = '70%;'></div><div class = 'column'><img src = 'uspos/1440.bmp' width = '100%;'></div></div>","null","pos","CS","CS","1","category1/CS2.png","","","","",""
"","html-keyboard-response","25","209511","0.0-6.0-0.0-0.19","4p8v0yf7wk","one_one","1","indirect_first","0","to04nd07","0","21","1","1","3","1","null","","","<div class = 'row'><div class = 'column'><img src = 'category3/CS3.png' width = '70%;'></div><div class = 'column'><img src = 'usneg/9290.bmp' width = '100%;'></div></div>","null","neg","CS","CS","3","category3/CS3.png","","","","",""
"","survey-html-form","26","211347","0.0-6.0-1.0","4p8v0yf7wk","one_one","1","indirect_first","0","to04nd07","0","21","1","1","3","1","1314","","{}","","","","","","","","","","","",""
"","html-keyboard-response","27","215371","0.0-6.0-2.0-0.0","4p8v0yf7wk","one_one","1","indirect_first","0","to04nd07","0","21","1","1","3","1","null","","","<div class = 'row'><div class = 'column'><img src = 'category4/CS8.png' width = '70%;'></div><div class = 'column'><img src = 'uspos/2900.2.bmp' width = '100%;'></div></div>","null","pos","CS","CS","4","category4/CS8.png","","","","",""
"","html-keyboard-response","28","217891","0.0-6.0-2.0-0.1","4p8v0yf7wk","one_one","1","indirect_first","0","to04nd07","0","21","1","1","3","1","null","","","<div class = 'row'><div class = 'column'><img src = 'usneg/8485.bmp' width = '100%;'></div><div class = 'column'><img src = 'category2/CS7.png' width = '70%;'></div></div>","null","neg","CS","CS","2","category2/CS7.png","","","","",""
"","html-keyboard-response","29","220431","0.0-6.0-2.0-0.2","4p8v0yf7wk","one_one","1","indirect_first","0","to04nd07","0","21","1","1","3","1","null","","","<div class = 'row'><div class = 'column'><img src = 'uspos/1440.bmp' width = '100%;'></div><div class = 'column'><img src = 'category1/CS2.png' width = '70%;'></div></div>","null","pos","CS","CS","1","category1/CS2.png","","","","",""
"","html-keyboard-response","30","222961","0.0-6.0-2.0-0.3","4p8v0yf7wk","one_one","1","indirect_first","0","to04nd07","0","21","1","1","3","1","null","","","<div class = 'row'><div class = 'column'><img src = 'uspos/2900.2.bmp' width = '100%;'></div><div class = 'column'><img src = 'category4/CS8.png' width = '70%;'></div></div>","null","pos","CS","CS","4","category4/CS8.png","","","","",""
"","html-keyboard-response","31","225501","0.0-6.0-2.0-0.4","4p8v0yf7wk","one_one","1","indirect_first","0","to04nd07","0","21","1","1","3","1","null","","","<div class = 'row'><div class = 'column'><img src = 'usneg/8485.bmp' width = '100%;'></div><div class = 'column'><img src = 'category2/CS7.png' width = '70%;'></div></div>","null","neg","CS","CS","2","category2/CS7.png","","","","",""
"","html-keyboard-response","32","228031","0.0-6.0-2.0-0.5","4p8v0yf7wk","one_one","1","indirect_first","0","to04nd07","0","21","1","1","3","1","null","","","<div class = 'row'><div class = 'column'><img src = 'uspos/1440.bmp' width = '100%;'></div><div class = 'column'><img src = 'category1/CS2.png' width = '70%;'></div></div>","null","pos","CS","CS","1","category1/CS2.png","","","","",""
"","html-keyboard-response","33","230572","0.0-6.0-2.0-0.6","4p8v0yf7wk","one_one","1","indirect_first","0","to04nd07","0","21","1","1","3","1","null","","","<div class = 'row'><div class = 'column'><img src = 'category3/CS3.png' width = '70%;'></div><div class = 'column'><img src = 'usneg/9290.bmp' width = '100%;'></div></div>","null","neg","CS","CS","3","category3/CS3.png","","","","",""
"","html-keyboard-response","34","233112","0.0-6.0-2.0-0.7","4p8v0yf7wk","one_one","1","indirect_first","0","to04nd07","0","21","1","1","3","1","null","","","<div class = 'row'><div class = 'column'><img src = 'category2/CS7.png' width = '70%;'></div><div class = 'column'><img src = 'usneg/8485.bmp' width = '100%;'></div></div>","null","neg","CS","CS","2","category2/CS7.png","","","","",""
"","html-keyboard-response","35","235651","0.0-6.0-2.0-0.8","4p8v0yf7wk","one_one","1","indirect_first","0","to04nd07","0","21","1","1","3","1","null","","","<div class = 'row'><div class = 'column'><img src = 'category3/CS3.png' width = '70%;'></div><div class = 'column'><img src = 'usneg/9290.bmp' width = '100%;'></div></div>","null","neg","CS","CS","3","category3/CS3.png","","","","",""
"","html-keyboard-response","36","238192","0.0-6.0-2.0-0.9","4p8v0yf7wk","one_one","1","indirect_first","0","to04nd07","0","21","1","1","3","1","null","","","<div class = 'row'><div class = 'column'><img src = 'uspos/1440.bmp' width = '100%;'></div><div class = 'column'><img src = 'category1/CS2.png' width = '70%;'></div></div>","null","pos","CS","CS","1","category1/CS2.png","","","","",""
"","html-keyboard-response","37","240711","0.0-6.0-2.0-0.10","4p8v0yf7wk","one_one","1","indirect_first","0","to04nd07","0","21","1","1","3","1","null","","","<div class = 'row'><div class = 'column'><img src = 'category4/CS8.png' width = '70%;'></div><div class = 'column'><img src = 'uspos/2900.2.bmp' width = '100%;'></div></div>","null","pos","CS","CS","4","category4/CS8.png","","","","",""
"","html-keyboard-response","38","243231","0.0-6.0-2.0-0.11","4p8v0yf7wk","one_one","1","indirect_first","0","to04nd07","0","21","1","1","3","1","null","","","<div class = 'row'><div class = 'column'><img src = 'usneg/9290.bmp' width = '100%;'></div><div class = 'column'><img src = 'category3/CS3.png' width = '70%;'></div></div>","null","neg","CS","CS","3","category3/CS3.png","","","","",""
"","html-keyboard-response","39","245751","0.0-6.0-2.0-0.12","4p8v0yf7wk","one_one","1","indirect_first","0","to04nd07","0","21","1","1","3","1","null","","","<div class = 'row'><div class = 'column'><img src = 'uspos/2900.2.bmp' width = '100%;'></div><div class = 'column'><img src = 'category4/CS8.png' width = '70%;'></div></div>","null","pos","CS","CS","4","category4/CS8.png","","","","",""
"","html-keyboard-response","40","248291","0.0-6.0-2.0-0.13","4p8v0yf7wk","one_one","1","indirect_first","0","to04nd07","0","21","1","1","3","1","null","","","<div class = 'row'><div class = 'column'><img src = 'category3/CS3.png' width = '70%;'></div><div class = 'column'><img src = 'usneg/9290.bmp' width = '100%;'></div></div>","null","neg","CS","CS","3","category3/CS3.png","","","","",""
"","html-keyboard-response","41","250831","0.0-6.0-2.0-0.14","4p8v0yf7wk","one_one","1","indirect_first","0","to04nd07","0","21","1","1","3","1","null","","","<div class = 'row'><div class = 'column'><img src = 'usneg/8485.bmp' width = '100%;'></div><div class = 'column'><img src = 'category2/CS7.png' width = '70%;'></div></div>","null","neg","CS","CS","2","category2/CS7.png","","","","",""
"","html-keyboard-response","42","253371","0.0-6.0-2.0-0.15","4p8v0yf7wk","one_one","1","indirect_first","0","to04nd07","0","21","1","1","3","1","null","","","<div class = 'row'><div class = 'column'><img src = 'uspos/1440.bmp' width = '100%;'></div><div class = 'column'><img src = 'category1/CS2.png' width = '70%;'></div></div>","null","pos","CS","CS","1","category1/CS2.png","","","","",""
"","html-keyboard-response","43","255911","0.0-6.0-2.0-0.16","4p8v0yf7wk","one_one","1","indirect_first","0","to04nd07","0","21","1","1","3","1","null","","","<div class = 'row'><div class = 'column'><img src = 'category2/CS7.png' width = '70%;'></div><div class = 'column'><img src = 'usneg/8485.bmp' width = '100%;'></div></div>","null","neg","CS","CS","2","category2/CS7.png","","","","",""
"","html-keyboard-response","44","258431","0.0-6.0-2.0-0.17","4p8v0yf7wk","one_one","1","indirect_first","0","to04nd07","0","21","1","1","3","1","null","","","<div class = 'row'><div class = 'column'><img src = 'uspos/1440.bmp' width = '100%;'></div><div class = 'column'><img src = 'category1/CS2.png' width = '70%;'></div></div>","null","pos","CS","CS","1","category1/CS2.png","","","","",""
"","html-keyboard-response","45","260961","0.0-6.0-2.0-0.18","4p8v0yf7wk","one_one","1","indirect_first","0","to04nd07","0","21","1","1","3","1","null","","","<div class = 'row'><div class = 'column'><img src = 'usneg/9290.bmp' width = '100%;'></div><div class = 'column'><img src = 'category3/CS3.png' width = '70%;'></div></div>","null","neg","CS","CS","3","category3/CS3.png","","","","",""
"","html-keyboard-response","46","263501","0.0-6.0-2.0-0.19","4p8v0yf7wk","one_one","1","indirect_first","0","to04nd07","0","21","1","1","3","1","null","","","<div class = 'row'><div class = 'column'><img src = 'category4/CS8.png' width = '70%;'></div><div class = 'column'><img src = 'uspos/2900.2.bmp' width = '100%;'></div></div>","null","pos","CS","CS","4","category4/CS8.png","","","","",""
"","survey-html-form","47","265146","0.0-6.0-3.0","4p8v0yf7wk","one_one","1","indirect_first","0","to04nd07","0","21","1","1","3","1","1142","","{}","","","","","","","","","","","",""
"","html-keyboard-response","48","269164","0.0-6.0-4.0-0.0","4p8v0yf7wk","one_one","1","indirect_first","0","to04nd07","0","21","1","1","3","1","null","","","<div class = 'row'><div class = 'column'><img src = 'category2/CS7.png' width = '70%;'></div><div class = 'column'><img src = 'usneg/8485.bmp' width = '100%;'></div></div>","null","neg","CS","CS","2","category2/CS7.png","","","","",""
"","html-keyboard-response","49","271691","0.0-6.0-4.0-0.1","4p8v0yf7wk","one_one","1","indirect_first","0","to04nd07","0","21","1","1","3","1","null","","","<div class = 'row'><div class = 'column'><img src = 'uspos/2900.2.bmp' width = '100%;'></div><div class = 'column'><img src = 'category4/CS8.png' width = '70%;'></div></div>","null","pos","CS","CS","4","category4/CS8.png","","","","",""
"","html-keyboard-response","50","274221","0.0-6.0-4.0-0.2","4p8v0yf7wk","one_one","1","indirect_first","0","to04nd07","0","21","1","1","3","1","null","","","<div class = 'row'><div class = 'column'><img src = 'category3/CS3.png' width = '70%;'></div><div class = 'column'><img src = 'usneg/9290.bmp' width = '100%;'></div></div>","null","neg","CS","CS","3","category3/CS3.png","","","","",""
"","html-keyboard-response","51","276761","0.0-6.0-4.0-0.3","4p8v0yf7wk","one_one","1","indirect_first","0","to04nd07","0","21","1","1","3","1","null","","","<div class = 'row'><div class = 'column'><img src = 'uspos/2900.2.bmp' width = '100%;'></div><div class = 'column'><img src = 'category4/CS8.png' width = '70%;'></div></div>","null","pos","CS","CS","4","category4/CS8.png","","","","",""
"","html-keyboard-response","52","279301","0.0-6.0-4.0-0.4","4p8v0yf7wk","one_one","1","indirect_first","0","to04nd07","0","21","1","1","3","1","null","","","<div class = 'row'><div class = 'column'><img src = 'uspos/1440.bmp' width = '100%;'></div><div class = 'column'><img src = 'category1/CS2.png' width = '70%;'></div></div>","null","pos","CS","CS","1","category1/CS2.png","","","","",""
"","html-keyboard-response","53","281831","0.0-6.0-4.0-0.5","4p8v0yf7wk","one_one","1","indirect_first","0","to04nd07","0","21","1","1","3","1","null","","","<div class = 'row'><div class = 'column'><img src = 'category3/CS3.png' width = '70%;'></div><div class = 'column'><img src = 'usneg/9290.bmp' width = '100%;'></div></div>","null","neg","CS","CS","3","category3/CS3.png","","","","",""
"","html-keyboard-response","54","284371","0.0-6.0-4.0-0.6","4p8v0yf7wk","one_one","1","indirect_first","0","to04nd07","0","21","1","1","3","1","null","","","<div class = 'row'><div class = 'column'><img src = 'usneg/8485.bmp' width = '100%;'></div><div class = 'column'><img src = 'category2/CS7.png' width = '70%;'></div></div>","null","neg","CS","CS","2","category2/CS7.png","","","","",""
"","html-keyboard-response","55","286891","0.0-6.0-4.0-0.7","4p8v0yf7wk","one_one","1","indirect_first","0","to04nd07","0","21","1","1","3","1","null","","","<div class = 'row'><div class = 'column'><img src = 'uspos/2900.2.bmp' width = '100%;'></div><div class = 'column'><img src = 'category4/CS8.png' width = '70%;'></div></div>","null","pos","CS","CS","4","category4/CS8.png","","","","",""
"","html-keyboard-response","56","289431","0.0-6.0-4.0-0.8","4p8v0yf7wk","one_one","1","indirect_first","0","to04nd07","0","21","1","1","3","1","null","","","<div class = 'row'><div class = 'column'><img src = 'category1/CS2.png' width = '70%;'></div><div class = 'column'><img src = 'uspos/1440.bmp' width = '100%;'></div></div>","null","pos","CS","CS","1","category1/CS2.png","","","","",""
"","html-keyboard-response","57","291971","0.0-6.0-4.0-0.9","4p8v0yf7wk","one_one","1","indirect_first","0","to04nd07","0","21","1","1","3","1","null","","","<div class = 'row'><div class = 'column'><img src = 'category3/CS3.png' width = '70%;'></div><div class = 'column'><img src = 'usneg/9290.bmp' width = '100%;'></div></div>","null","neg","CS","CS","3","category3/CS3.png","","","","",""
"","html-keyboard-response","58","294509","0.0-6.0-4.0-0.10","4p8v0yf7wk","one_one","1","indirect_first","0","to04nd07","0","21","1","1","3","1","null","","","<div class = 'row'><div class = 'column'><img src = 'uspos/1440.bmp' width = '100%;'></div><div class = 'column'><img src = 'category1/CS2.png' width = '70%;'></div></div>","null","pos","CS","CS","1","category1/CS2.png","","","","",""
"","html-keyboard-response","59","297010","0.0-6.0-4.0-0.11","4p8v0yf7wk","one_one","1","indirect_first","0","to04nd07","0","21","1","1","3","1","null","","","<div class = 'row'><div class = 'column'><img src = 'category3/CS3.png' width = '70%;'></div><div class = 'column'><img src = 'usneg/9290.bmp' width = '100%;'></div></div>","null","neg","CS","CS","3","category3/CS3.png","","","","",""
"","html-keyboard-response","60","299540","0.0-6.0-4.0-0.12","4p8v0yf7wk","one_one","1","indirect_first","0","to04nd07","0","21","1","1","3","1","null","","","<div class = 'row'><div class = 'column'><img src = 'category1/CS2.png' width = '70%;'></div><div class = 'column'><img src = 'uspos/1440.bmp' width = '100%;'></div></div>","null","pos","CS","CS","1","category1/CS2.png","","","","",""
"","html-keyboard-response","61","302043","0.0-6.0-4.0-0.13","4p8v0yf7wk","one_one","1","indirect_first","0","to04nd07","0","21","1","1","3","1","null","","","<div class = 'row'><div class = 'column'><img src = 'usneg/9290.bmp' width = '100%;'></div><div class = 'column'><img src = 'category3/CS3.png' width = '70%;'></div></div>","null","neg","CS","CS","3","category3/CS3.png","","","","",""
"","html-keyboard-response","62","304561","0.0-6.0-4.0-0.14","4p8v0yf7wk","one_one","1","indirect_first","0","to04nd07","0","21","1","1","3","1","null","","","<div class = 'row'><div class = 'column'><img src = 'usneg/8485.bmp' width = '100%;'></div><div class = 'column'><img src = 'category2/CS7.png' width = '70%;'></div></div>","null","neg","CS","CS","2","category2/CS7.png","","","","",""
"","html-keyboard-response","63","307081","0.0-6.0-4.0-0.15","4p8v0yf7wk","one_one","1","indirect_first","0","to04nd07","0","21","1","1","3","1","null","","","<div class = 'row'><div class = 'column'><img src = 'category4/CS8.png' width = '70%;'></div><div class = 'column'><img src = 'uspos/2900.2.bmp' width = '100%;'></div></div>","null","pos","CS","CS","4","category4/CS8.png","","","","",""
"","html-keyboard-response","64","309620","0.0-6.0-4.0-0.16","4p8v0yf7wk","one_one","1","indirect_first","0","to04nd07","0","21","1","1","3","1","null","","","<div class = 'row'><div class = 'column'><img src = 'usneg/8485.bmp' width = '100%;'></div><div class = 'column'><img src = 'category2/CS7.png' width = '70%;'></div></div>","null","neg","CS","CS","2","category2/CS7.png","","","","",""
"","html-keyboard-response","65","312150","0.0-6.0-4.0-0.17","4p8v0yf7wk","one_one","1","indirect_first","0","to04nd07","0","21","1","1","3","1","null","","","<div class = 'row'><div class = 'column'><img src = 'uspos/2900.2.bmp' width = '100%;'></div><div class = 'column'><img src = 'category4/CS8.png' width = '70%;'></div></div>","null","pos","CS","CS","4","category4/CS8.png","","","","",""
"","html-keyboard-response","66","314690","0.0-6.0-4.0-0.18","4p8v0yf7wk","one_one","1","indirect_first","0","to04nd07","0","21","1","1","3","1","null","","","<div class = 'row'><div class = 'column'><img src = 'category1/CS2.png' width = '70%;'></div><div class = 'column'><img src = 'uspos/1440.bmp' width = '100%;'></div></div>","null","pos","CS","CS","1","category1/CS2.png","","","","",""
"","html-keyboard-response","67","317220","0.0-6.0-4.0-0.19","4p8v0yf7wk","one_one","1","indirect_first","0","to04nd07","0","21","1","1","3","1","null","","","<div class = 'row'><div class = 'column'><img src = 'usneg/8485.bmp' width = '100%;'></div><div class = 'column'><img src = 'category2/CS7.png' width = '70%;'></div></div>","null","neg","CS","CS","2","category2/CS7.png","","","","",""
"","survey-html-form","68","319426","0.0-6.0-5.0","4p8v0yf7wk","one_one","1","indirect_first","0","to04nd07","0","21","1","1","3","1","1695","","{}","","","","","","","","","","","",""
"","html-keyboard-response","69","323437","0.0-6.0-6.0-0.0","4p8v0yf7wk","one_one","1","indirect_first","0","to04nd07","0","21","1","1","3","1","null","","","<div class = 'row'><div class = 'column'><img src = 'category1/CS2.png' width = '70%;'></div><div class = 'column'><img src = 'uspos/1440.bmp' width = '100%;'></div></div>","null","pos","CS","CS","1","category1/CS2.png","","","","",""
"","html-keyboard-response","70","325970","0.0-6.0-6.0-0.1","4p8v0yf7wk","one_one","1","indirect_first","0","to04nd07","0","21","1","1","3","1","null","","","<div class = 'row'><div class = 'column'><img src = 'usneg/9290.bmp' width = '100%;'></div><div class = 'column'><img src = 'category3/CS3.png' width = '70%;'></div></div>","null","neg","CS","CS","3","category3/CS3.png","","","","",""
"","html-keyboard-response","71","328500","0.0-6.0-6.0-0.2","4p8v0yf7wk","one_one","1","indirect_first","0","to04nd07","0","21","1","1","3","1","null","","","<div class = 'row'><div class = 'column'><img src = 'category2/CS7.png' width = '70%;'></div><div class = 'column'><img src = 'usneg/8485.bmp' width = '100%;'></div></div>","null","neg","CS","CS","2","category2/CS7.png","","","","",""
"","html-keyboard-response","72","331040","0.0-6.0-6.0-0.3","4p8v0yf7wk","one_one","1","indirect_first","0","to04nd07","0","21","1","1","3","1","null","","","<div class = 'row'><div class = 'column'><img src = 'usneg/9290.bmp' width = '100%;'></div><div class = 'column'><img src = 'category3/CS3.png' width = '70%;'></div></div>","null","neg","CS","CS","3","category3/CS3.png","","","","",""
"","html-keyboard-response","73","333580","0.0-6.0-6.0-0.4","4p8v0yf7wk","one_one","1","indirect_first","0","to04nd07","0","21","1","1","3","1","null","","","<div class = 'row'><div class = 'column'><img src = 'uspos/2900.2.bmp' width = '100%;'></div><div class = 'column'><img src = 'category4/CS8.png' width = '70%;'></div></div>","null","pos","CS","CS","4","category4/CS8.png","","","","",""
"","html-keyboard-response","74","336120","0.0-6.0-6.0-0.5","4p8v0yf7wk","one_one","1","indirect_first","0","to04nd07","0","21","1","1","3","1","null","","","<div class = 'row'><div class = 'column'><img src = 'usneg/9290.bmp' width = '100%;'></div><div class = 'column'><img src = 'category3/CS3.png' width = '70%;'></div></div>","null","neg","CS","CS","3","category3/CS3.png","","","","",""
"","html-keyboard-response","75","338640","0.0-6.0-6.0-0.6","4p8v0yf7wk","one_one","1","indirect_first","0","to04nd07","0","21","1","1","3","1","null","","","<div class = 'row'><div class = 'column'><img src = 'category4/CS8.png' width = '70%;'></div><div class = 'column'><img src = 'uspos/2900.2.bmp' width = '100%;'></div></div>","null","pos","CS","CS","4","category4/CS8.png","","","","",""
"","html-keyboard-response","76","341180","0.0-6.0-6.0-0.7","4p8v0yf7wk","one_one","1","indirect_first","0","to04nd07","0","21","1","1","3","1","null","","","<div class = 'row'><div class = 'column'><img src = 'usneg/8485.bmp' width = '100%;'></div><div class = 'column'><img src = 'category2/CS7.png' width = '70%;'></div></div>","null","neg","CS","CS","2","category2/CS7.png","","","","",""
"","html-keyboard-response","77","343710","0.0-6.0-6.0-0.8","4p8v0yf7wk","one_one","1","indirect_first","0","to04nd07","0","21","1","1","3","1","null","","","<div class = 'row'><div class = 'column'><img src = 'category3/CS3.png' width = '70%;'></div><div class = 'column'><img src = 'usneg/9290.bmp' width = '100%;'></div></div>","null","neg","CS","CS","3","category3/CS3.png","","","","",""
"","html-keyboard-response","78","346230","0.0-6.0-6.0-0.9","4p8v0yf7wk","one_one","1","indirect_first","0","to04nd07","0","21","1","1","3","1","null","","","<div class = 'row'><div class = 'column'><img src = 'uspos/1440.bmp' width = '100%;'></div><div class = 'column'><img src = 'category1/CS2.png' width = '70%;'></div></div>","null","pos","CS","CS","1","category1/CS2.png","","","","",""
"","html-keyboard-response","79","348752","0.0-6.0-6.0-0.10","4p8v0yf7wk","one_one","1","indirect_first","0","to04nd07","0","21","1","1","3","1","null","","","<div class = 'row'><div class = 'column'><img src = 'category4/CS8.png' width = '70%;'></div><div class = 'column'><img src = 'uspos/2900.2.bmp' width = '100%;'></div></div>","null","pos","CS","CS","4","category4/CS8.png","","","","",""
"","html-keyboard-response","80","351286","0.0-6.0-6.0-0.11","4p8v0yf7wk","one_one","1","indirect_first","0","to04nd07","0","21","1","1","3","1","null","","","<div class = 'row'><div class = 'column'><img src = 'category1/CS2.png' width = '70%;'></div><div class = 'column'><img src = 'uspos/1440.bmp' width = '100%;'></div></div>","null","pos","CS","CS","1","category1/CS2.png","","","","",""
"","html-keyboard-response","81","353809","0.0-6.0-6.0-0.12","4p8v0yf7wk","one_one","1","indirect_first","0","to04nd07","0","21","1","1","3","1","null","","","<div class = 'row'><div class = 'column'><img src = 'category4/CS8.png' width = '70%;'></div><div class = 'column'><img src = 'uspos/2900.2.bmp' width = '100%;'></div></div>","null","pos","CS","CS","4","category4/CS8.png","","","","",""
"","html-keyboard-response","82","356339","0.0-6.0-6.0-0.13","4p8v0yf7wk","one_one","1","indirect_first","0","to04nd07","0","21","1","1","3","1","null","","","<div class = 'row'><div class = 'column'><img src = 'category2/CS7.png' width = '70%;'></div><div class = 'column'><img src = 'usneg/8485.bmp' width = '100%;'></div></div>","null","neg","CS","CS","2","category2/CS7.png","","","","",""
"","html-keyboard-response","83","358869","0.0-6.0-6.0-0.14","4p8v0yf7wk","one_one","1","indirect_first","0","to04nd07","0","21","1","1","3","1","null","","","<div class = 'row'><div class = 'column'><img src = 'uspos/1440.bmp' width = '100%;'></div><div class = 'column'><img src = 'category1/CS2.png' width = '70%;'></div></div>","null","pos","CS","CS","1","category1/CS2.png","","","","",""
"","html-keyboard-response","84","361389","0.0-6.0-6.0-0.15","4p8v0yf7wk","one_one","1","indirect_first","0","to04nd07","0","21","1","1","3","1","null","","","<div class = 'row'><div class = 'column'><img src = 'category3/CS3.png' width = '70%;'></div><div class = 'column'><img src = 'usneg/9290.bmp' width = '100%;'></div></div>","null","neg","CS","CS","3","category3/CS3.png","","","","",""
"","html-keyboard-response","85","363925","0.0-6.0-6.0-0.16","4p8v0yf7wk","one_one","1","indirect_first","0","to04nd07","0","21","1","1","3","1","null","","","<div class = 'row'><div class = 'column'><img src = 'usneg/8485.bmp' width = '100%;'></div><div class = 'column'><img src = 'category2/CS7.png' width = '70%;'></div></div>","null","neg","CS","CS","2","category2/CS7.png","","","","",""
"","html-keyboard-response","86","366429","0.0-6.0-6.0-0.17","4p8v0yf7wk","one_one","1","indirect_first","0","to04nd07","0","21","1","1","3","1","null","","","<div class = 'row'><div class = 'column'><img src = 'uspos/2900.2.bmp' width = '100%;'></div><div class = 'column'><img src = 'category4/CS8.png' width = '70%;'></div></div>","null","pos","CS","CS","4","category4/CS8.png","","","","",""
"","html-keyboard-response","87","368969","0.0-6.0-6.0-0.18","4p8v0yf7wk","one_one","1","indirect_first","0","to04nd07","0","21","1","1","3","1","null","","","<div class = 'row'><div class = 'column'><img src = 'category2/CS7.png' width = '70%;'></div><div class = 'column'><img src = 'usneg/8485.bmp' width = '100%;'></div></div>","null","neg","CS","CS","2","category2/CS7.png","","","","",""
"","html-keyboard-response","88","371499","0.0-6.0-6.0-0.19","4p8v0yf7wk","one_one","1","indirect_first","0","to04nd07","0","21","1","1","3","1","null","","","<div class = 'row'><div class = 'column'><img src = 'category1/CS2.png' width = '70%;'></div><div class = 'column'><img src = 'uspos/1440.bmp' width = '100%;'></div></div>","null","pos","CS","CS","1","category1/CS2.png","","","","",""
"","html-keyboard-response","89","414465","0.0-7.0","4p8v0yf7wk","one_one","1","indirect_first","0","to04nd07","0","21","1","1","3","1","42445","","","<p>Sie sehen nun die chinesischen Zeichen nur ganz kurz. Danach sehen Sie die jeweilige Aussprache der Zeichen als Silbe auf dem Bildschrim. Ihre Aufgabe ist es, für jede Silbe anzugeben, ob diese etwas angenehmes, oder unangenehmes bedeuten könnte. Verlassen Sie sich hier vor allem auf Ihre Intuition.<br><br>Die Zeichen werden nur zur Orientierung dargestellt, beachten Sie sie deshalb nicht. Konzentrieren Sie sich vor allem auf die Silben. <br>Reagieren Sie mit folgenden zwei Tasten: <br><br><b>'D' </b> wenn die Silbe etwas <b>unangenehmes</b> bedeuten könnte. <br><b>'K'</b> wenn die Silbe etwas <b>angenehmes</b> bedeuten könnte. <br><br>Bitte legen Sie nun den Zeigefinger der linken Hand auf die Taste 'D' und den Zeigefinger der rechten Hand auf die Taste 'K'. <br>Reagieren Sie auf jede Silbe so schnell wie möglich. Uns interessiert Ihre spontane Reaktion. <br> <br> <br>Drücken Sie 'D' oder 'K', um die nächste Aufgabe zu starten. </p>","68","","","","","","","","","",""
"","html-keyboard-response","90","417489","0.0-8.0-0.0","4p8v0yf7wk","one_one","1","indirect_first","0","to04nd07","0","21","1","1","3","1","null","","","<div style=""font-size:60px;"">+</div>","null","","","","","","","","","",""
"","html-keyboard-response","91","417588","0.0-8.0-1.0","4p8v0yf7wk","one_one","1","indirect_first","0","to04nd07","0","21","1","1","3","1","null","","","<img src = 'category4/CS10.png' width = '100%;'>","null","","","","","","","","","",""
"","html-keyboard-response","92","417868","0.0-8.0-2.0","4p8v0yf7wk","one_one","1","indirect_first","0","to04nd07","0","21","1","1","3","1","null","","","<img src = 'targets/46.png' width = '100%;'>","null","","","","","","","","","",""
"","html-keyboard-response","93","422095","0.0-8.0-3.0","4p8v0yf7wk","one_one","1","indirect_first","0","to04nd07","0","21","1","1","3","1","4224","","","<img src = 'targets/mask.png' width = '100%;'>","75","pos","GS","GSold","4","category4/CS10.png","targets/46.png","1","indirect","0",""
"","html-keyboard-response","94","423628","0.0-8.0-0.1","4p8v0yf7wk","one_one","1","indirect_first","0","to04nd07","0","21","1","1","3","1","null","","","<div style=""font-size:60px;"">+</div>","null","","","","","","","","","",""
"","html-keyboard-response","95","423728","0.0-8.0-1.1","4p8v0yf7wk","one_one","1","indirect_first","0","to04nd07","0","21","1","1","3","1","null","","","<img src = 'category3/CS9.png' width = '100%;'>","null","","","","","","","","","",""
"","html-keyboard-response","96","424008","0.0-8.0-2.1","4p8v0yf7wk","one_one","1","indirect_first","0","to04nd07","0","21","1","1","3","1","null","","","<img src = 'targets/23.png' width = '100%;'>","null","","","","","","","","","",""
"","html-keyboard-response","97","425584","0.0-8.0-3.1","4p8v0yf7wk","one_one","1","indirect_first","0","to04nd07","0","21","1","1","3","1","1574","","","<img src = 'targets/mask.png' width = '100%;'>","68","neg","GS","GSold","3","category3/CS9.png","targets/23.png","0","indirect","1",""
"","html-keyboard-response","98","427106","0.0-8.0-0.2","4p8v0yf7wk","one_one","1","indirect_first","0","to04nd07","0","21","1","1","3","1","null","","","<div style=""font-size:60px;"">+</div>","null","","","","","","","","","",""
"","html-keyboard-response","99","427207","0.0-8.0-1.2","4p8v0yf7wk","one_one","1","indirect_first","0","to04nd07","0","21","1","1","3","1","null","","","<img src = 'category1/CS3.png' width = '100%;'>","null","","","","","","","","","",""
"","html-keyboard-response","100","427488","0.0-8.0-2.2","4p8v0yf7wk","one_one","1","indirect_first","0","to04nd07","0","21","1","1","3","1","null","","","<img src = 'targets/6.png' width = '100%;'>","null","","","","","","","","","",""
"","html-keyboard-response","101","428872","0.0-8.0-3.2","4p8v0yf7wk","one_one","1","indirect_first","0","to04nd07","0","21","1","1","3","1","1383","","","<img src = 'targets/mask.png' width = '100%;'>","75","pos","GS","GSold","1","category1/CS3.png","targets/6.png","1","indirect","2",""
"","html-keyboard-response","102","430407","0.0-8.0-0.3","4p8v0yf7wk","one_one","1","indirect_first","0","to04nd07","0","21","1","1","3","1","null","","","<div style=""font-size:60px;"">+</div>","null","","","","","","","","","",""
"","html-keyboard-response","103","430508","0.0-8.0-1.3","4p8v0yf7wk","one_one","1","indirect_first","0","to04nd07","0","21","1","1","3","1","null","","","<img src = 'category3/CS3.png' width = '100%;'>","null","","","","","","","","","",""
"","html-keyboard-response","104","430789","0.0-8.0-2.3","4p8v0yf7wk","one_one","1","indirect_first","0","to04nd07","0","21","1","1","3","1","null","","","<img src = 'targets/28.png' width = '100%;'>","null","","","","","","","","","",""
"","html-keyboard-response","105","433015","0.0-8.0-3.3","4p8v0yf7wk","one_one","1","indirect_first","0","to04nd07","0","21","1","1","3","1","2225","","","<img src = 'targets/mask.png' width = '100%;'>","68","neg","CS","CS","3","category3/CS3.png","targets/28.png","0","indirect","3",""
"","html-keyboard-response","106","434548","0.0-8.0-0.4","4p8v0yf7wk","one_one","1","indirect_first","0","to04nd07","0","21","1","1","3","1","null","","","<div style=""font-size:60px;"">+</div>","null","","","","","","","","","",""
"","html-keyboard-response","107","434648","0.0-8.0-1.4","4p8v0yf7wk","one_one","1","indirect_first","0","to04nd07","0","21","1","1","3","1","null","","","<img src = 'category2/CS1.png' width = '100%;'>","null","","","","","","","","","",""
"","html-keyboard-response","108","434926","0.0-8.0-2.4","4p8v0yf7wk","one_one","1","indirect_first","0","to04nd07","0","21","1","1","3","1","null","","","<img src = 'targets/25.png' width = '100%;'>","null","","","","","","","","","",""
"","html-keyboard-response","109","436640","0.0-8.0-3.4","4p8v0yf7wk","one_one","1","indirect_first","0","to04nd07","0","21","1","1","3","1","1713","","","<img src = 'targets/mask.png' width = '100%;'>","75","neg","GS","GSold","2","category2/CS1.png","targets/25.png","1","indirect","4",""
"","html-keyboard-response","110","438168","0.0-8.0-0.5","4p8v0yf7wk","one_one","1","indirect_first","0","to04nd07","0","21","1","1","3","1","null","","","<div style=""font-size:60px;"">+</div>","null","","","","","","","","","",""
"","html-keyboard-response","111","438268","0.0-8.0-1.5","4p8v0yf7wk","one_one","1","indirect_first","0","to04nd07","0","21","1","1","3","1","null","","","<img src = 'category2/CS2.png' width = '100%;'>","null","","","","","","","","","",""
"","html-keyboard-response","112","438549","0.0-8.0-2.5","4p8v0yf7wk","one_one","1","indirect_first","0","to04nd07","0","21","1","1","3","1","null","","","<img src = 'targets/43.png' width = '100%;'>","null","","","","","","","","","",""
"","html-keyboard-response","113","439536","0.0-8.0-3.5","4p8v0yf7wk","one_one","1","indirect_first","0","to04nd07","0","21","1","1","3","1","986","","","<img src = 'targets/mask.png' width = '100%;'>","68","neg","GS","GSold","2","category2/CS2.png","targets/43.png","0","indirect","5",""
"","html-keyboard-response","114","441067","0.0-8.0-0.6","4p8v0yf7wk","one_one","1","indirect_first","0","to04nd07","0","21","1","1","3","1","null","","","<div style=""font-size:60px;"">+</div>","null","","","","","","","","","",""
"","html-keyboard-response","115","441168","0.0-8.0-1.6","4p8v0yf7wk","one_one","1","indirect_first","0","to04nd07","0","21","1","1","3","1","null","","","<img src = 'category3/CS4.png' width = '100%;'>","null","","","","","","","","","",""
"","html-keyboard-response","116","441448","0.0-8.0-2.6","4p8v0yf7wk","one_one","1","indirect_first","0","to04nd07","0","21","1","1","3","1","null","","","<img src = 'targets/16.png' width = '100%;'>","null","","","","","","","","","",""
"","html-keyboard-response","117","442743","0.0-8.0-3.6","4p8v0yf7wk","one_one","1","indirect_first","0","to04nd07","0","21","1","1","3","1","1295","","","<img src = 'targets/mask.png' width = '100%;'>","75","neg","GS","GSold","3","category3/CS4.png","targets/16.png","1","indirect","6",""
"","html-keyboard-response","118","444288","0.0-8.0-0.7","4p8v0yf7wk","one_one","1","indirect_first","0","to04nd07","0","21","1","1","3","1","null","","","<div style=""font-size:60px;"">+</div>","null","","","","","","","","","",""
"","html-keyboard-response","119","444388","0.0-8.0-1.7","4p8v0yf7wk","one_one","1","indirect_first","0","to04nd07","0","21","1","1","3","1","null","","","<img src = 'category4/CS2.png' width = '100%;'>","null","","","","","","","","","",""
"","html-keyboard-response","120","444667","0.0-8.0-2.7","4p8v0yf7wk","one_one","1","indirect_first","0","to04nd07","0","21","1","1","3","1","null","","","<img src = 'targets/15.png' width = '100%;'>","null","","","","","","","","","",""
"","html-keyboard-response","121","446903","0.0-8.0-3.7","4p8v0yf7wk","one_one","1","indirect_first","0","to04nd07","0","21","1","1","3","1","2234","","","<img src = 'targets/mask.png' width = '100%;'>","75","pos","GS","GSold","4","category4/CS2.png","targets/15.png","1","indirect","7",""
"","html-keyboard-response","122","448427","0.0-8.0-0.8","4p8v0yf7wk","one_one","1","indirect_first","0","to04nd07","0","21","1","1","3","1","null","","","<div style=""font-size:60px;"">+</div>","null","","","","","","","","","",""
"","html-keyboard-response","123","448527","0.0-8.0-1.8","4p8v0yf7wk","one_one","1","indirect_first","0","to04nd07","0","21","1","1","3","1","null","","","<img src = 'category1/CS9.png' width = '100%;'>","null","","","","","","","","","",""
"","html-keyboard-response","124","448807","0.0-8.0-2.8","4p8v0yf7wk","one_one","1","indirect_first","0","to04nd07","0","21","1","1","3","1","null","","","<img src = 'targets/13.png' width = '100%;'>","null","","","","","","","","","",""
"","html-keyboard-response","125","450199","0.0-8.0-3.8","4p8v0yf7wk","one_one","1","indirect_first","0","to04nd07","0","21","1","1","3","1","1390","","","<img src = 'targets/mask.png' width = '100%;'>","75","pos","GS","GSold","1","category1/CS9.png","targets/13.png","1","indirect","8",""
"","html-keyboard-response","126","451708","0.0-8.0-0.9","4p8v0yf7wk","one_one","1","indirect_first","0","to04nd07","0","21","1","1","3","1","null","","","<div style=""font-size:60px;"">+</div>","null","","","","","","","","","",""
"","html-keyboard-response","127","451799","0.0-8.0-1.9","4p8v0yf7wk","one_one","1","indirect_first","0","to04nd07","0","21","1","1","3","1","null","","","<img src = 'category4/CS8.png' width = '100%;'>","null","","","","","","","","","",""
"","html-keyboard-response","128","452051","0.0-8.0-2.9","4p8v0yf7wk","one_one","1","indirect_first","0","to04nd07","0","21","1","1","3","1","null","","","<img src = 'targets/38.png' width = '100%;'>","null","","","","","","","","","",""
"","html-keyboard-response","129","453239","0.0-8.0-3.9","4p8v0yf7wk","one_one","1","indirect_first","0","to04nd07","0","21","1","1","3","1","1185","","","<img src = 'targets/mask.png' width = '100%;'>","75","pos","CS","CS","4","category4/CS8.png","targets/38.png","1","indirect","9",""
"","html-keyboard-response","130","454767","0.0-8.0-0.10","4p8v0yf7wk","one_one","1","indirect_first","0","to04nd07","0","21","1","1","3","1","null","","","<div style=""font-size:60px;"">+</div>","null","","","","","","","","","",""
"","html-keyboard-response","131","454867","0.0-8.0-1.10","4p8v0yf7wk","one_one","1","indirect_first","0","to04nd07","0","21","1","1","3","1","null","","","<img src = 'category3/CS7.png' width = '100%;'>","null","","","","","","","","","",""
"","html-keyboard-response","132","455147","0.0-8.0-2.10","4p8v0yf7wk","one_one","1","indirect_first","0","to04nd07","0","21","1","1","3","1","null","","","<img src = 'targets/40.png' width = '100%;'>","null","","","","","","","","","",""
"","html-keyboard-response","133","456215","0.0-8.0-3.10","4p8v0yf7wk","one_one","1","indirect_first","0","to04nd07","0","21","1","1","3","1","1067","","","<img src = 'targets/mask.png' width = '100%;'>","68","neg","GS","GSold","3","category3/CS7.png","targets/40.png","0","indirect","10",""
"","html-keyboard-response","134","457727","0.0-8.0-0.11","4p8v0yf7wk","one_one","1","indirect_first","0","to04nd07","0","21","1","1","3","1","null","","","<div style=""font-size:60px;"">+</div>","null","","","","","","","","","",""
"","html-keyboard-response","135","457827","0.0-8.0-1.11","4p8v0yf7wk","one_one","1","indirect_first","0","to04nd07","0","21","1","1","3","1","null","","","<img src = 'category1/CS2.png' width = '100%;'>","null","","","","","","","","","",""
"","html-keyboard-response","136","458108","0.0-8.0-2.11","4p8v0yf7wk","one_one","1","indirect_first","0","to04nd07","0","21","1","1","3","1","null","","","<img src = 'targets/3.png' width = '100%;'>","null","","","","","","","","","",""
"","html-keyboard-response","137","459062","0.0-8.0-3.11","4p8v0yf7wk","one_one","1","indirect_first","0","to04nd07","0","21","1","1","3","1","953","","","<img src = 'targets/mask.png' width = '100%;'>","75","pos","CS","CS","1","category1/CS2.png","targets/3.png","1","indirect","11",""
"","html-keyboard-response","138","460568","0.0-8.0-0.12","4p8v0yf7wk","one_one","1","indirect_first","0","to04nd07","0","21","1","1","3","1","null","","","<div style=""font-size:60px;"">+</div>","null","","","","","","","","","",""
"","html-keyboard-response","139","460667","0.0-8.0-1.12","4p8v0yf7wk","one_one","1","indirect_first","0","to04nd07","0","21","1","1","3","1","null","","","<img src = 'category1/CS6.png' width = '100%;'>","null","","","","","","","","","",""
"","html-keyboard-response","140","460948","0.0-8.0-2.12","4p8v0yf7wk","one_one","1","indirect_first","0","to04nd07","0","21","1","1","3","1","null","","","<img src = 'targets/47.png' width = '100%;'>","null","","","","","","","","","",""
"","html-keyboard-response","141","462791","0.0-8.0-3.12","4p8v0yf7wk","one_one","1","indirect_first","0","to04nd07","0","21","1","1","3","1","1842","","","<img src = 'targets/mask.png' width = '100%;'>","68","pos","GS","GSold","1","category1/CS6.png","targets/47.png","0","indirect","12",""
"","html-keyboard-response","142","464317","0.0-8.0-0.13","4p8v0yf7wk","one_one","1","indirect_first","0","to04nd07","0","21","1","1","3","1","null","","","<div style=""font-size:60px;"">+</div>","null","","","","","","","","","",""
"","html-keyboard-response","143","464417","0.0-8.0-1.13","4p8v0yf7wk","one_one","1","indirect_first","0","to04nd07","0","21","1","1","3","1","null","","","<img src = 'category2/CS7.png' width = '100%;'>","null","","","","","","","","","",""
"","html-keyboard-response","144","464697","0.0-8.0-2.13","4p8v0yf7wk","one_one","1","indirect_first","0","to04nd07","0","21","1","1","3","1","null","","","<img src = 'targets/22.png' width = '100%;'>","null","","","","","","","","","",""
"","html-keyboard-response","145","465727","0.0-8.0-3.13","4p8v0yf7wk","one_one","1","indirect_first","0","to04nd07","0","21","1","1","3","1","1028","","","<img src = 'targets/mask.png' width = '100%;'>","68","neg","CS","CS","2","category2/CS7.png","targets/22.png","0","indirect","13",""
"","html-keyboard-response","146","467247","0.0-8.0-0.14","4p8v0yf7wk","one_one","1","indirect_first","0","to04nd07","0","21","1","1","3","1","null","","","<div style=""font-size:60px;"">+</div>","null","","","","","","","","","",""
"","html-keyboard-response","147","467348","0.0-8.0-1.14","4p8v0yf7wk","one_one","1","indirect_first","0","to04nd07","0","21","1","1","3","1","null","","","<img src = 'category4/CS4.png' width = '100%;'>","null","","","","","","","","","",""
"","html-keyboard-response","148","467628","0.0-8.0-2.14","4p8v0yf7wk","one_one","1","indirect_first","0","to04nd07","0","21","1","1","3","1","null","","","<img src = 'targets/35.png' width = '100%;'>","null","","","","","","","","","",""
"","html-keyboard-response","149","468822","0.0-8.0-3.14","4p8v0yf7wk","one_one","1","indirect_first","0","to04nd07","0","21","1","1","3","1","1195","","","<img src = 'targets/mask.png' width = '100%;'>","75","pos","GS","GSold","4","category4/CS4.png","targets/35.png","1","indirect","14",""
"","html-keyboard-response","150","470347","0.0-8.0-0.15","4p8v0yf7wk","one_one","1","indirect_first","0","to04nd07","0","21","1","1","3","1","null","","","<div style=""font-size:60px;"">+</div>","null","","","","","","","","","",""
"","html-keyboard-response","151","470447","0.0-8.0-1.15","4p8v0yf7wk","one_one","1","indirect_first","0","to04nd07","0","21","1","1","3","1","null","","","<img src = 'category2/CS8.png' width = '100%;'>","null","","","","","","","","","",""
"","html-keyboard-response","152","470717","0.0-8.0-2.15","4p8v0yf7wk","one_one","1","indirect_first","0","to04nd07","0","21","1","1","3","1","null","","","<img src = 'targets/34.png' width = '100%;'>","null","","","","","","","","","",""
"","html-keyboard-response","153","471759","0.0-8.0-3.15","4p8v0yf7wk","one_one","1","indirect_first","0","to04nd07","0","21","1","1","3","1","1041","","","<img src = 'targets/mask.png' width = '100%;'>","68","neg","GS","GSold","2","category2/CS8.png","targets/34.png","0","indirect","15",""
"","survey-html-form","154","475566","0.0-9.0","4p8v0yf7wk","one_one","1","indirect_first","0","to04nd07","0","21","1","1","3","1","3288","","{}","","","","","","","","","","","",""
"","html-keyboard-response","155","478586","0.0-10.0-0.0","4p8v0yf7wk","one_one","1","indirect_first","0","to04nd07","0","21","1","1","3","1","null","","","<div style=""font-size:60px;"">+</div>","null","","","","","","","","","",""
"","html-keyboard-response","156","478687","0.0-10.0-1.0","4p8v0yf7wk","one_one","1","indirect_first","0","to04nd07","0","21","1","1","3","1","null","","","<img src = 'category4/GS3.png' width = '100%;'>","null","","","","","","","","","",""
"","html-keyboard-response","157","478967","0.0-10.0-2.0","4p8v0yf7wk","one_one","1","indirect_first","0","to04nd07","0","21","1","1","3","1","null","","","<img src = 'targets/9.png' width = '100%;'>","null","","","","","","","","","",""
"","html-keyboard-response","158","479959","0.0-10.0-3.0","4p8v0yf7wk","one_one","1","indirect_first","0","to04nd07","0","21","1","1","3","1","990","","","<img src = 'targets/mask.png' width = '100%;'>","75","pos","GS","GSnew","4","category4/GS3.png","targets/9.png","1","indirect","16",""
"","html-keyboard-response","159","481487","0.0-10.0-0.1","4p8v0yf7wk","one_one","1","indirect_first","0","to04nd07","0","21","1","1","3","1","null","","","<div style=""font-size:60px;"">+</div>","null","","","","","","","","","",""
"","html-keyboard-response","160","481587","0.0-10.0-1.1","4p8v0yf7wk","one_one","1","indirect_first","0","to04nd07","0","21","1","1","3","1","null","","","<img src = 'category3/GS2.png' width = '100%;'>","null","","","","","","","","","",""
"","html-keyboard-response","161","481866","0.0-10.0-2.1","4p8v0yf7wk","one_one","1","indirect_first","0","to04nd07","0","21","1","1","3","1","null","","","<img src = 'targets/30.png' width = '100%;'>","null","","","","","","","","","",""
"","html-keyboard-response","162","482846","0.0-10.0-3.1","4p8v0yf7wk","one_one","1","indirect_first","0","to04nd07","0","21","1","1","3","1","979","","","<img src = 'targets/mask.png' width = '100%;'>","75","neg","GS","GSnew","3","category3/GS2.png","targets/30.png","1","indirect","17",""
"","html-keyboard-response","163","484387","0.0-10.0-0.2","4p8v0yf7wk","one_one","1","indirect_first","0","to04nd07","0","21","1","1","3","1","null","","","<div style=""font-size:60px;"">+</div>","null","","","","","","","","","",""
"","html-keyboard-response","164","484487","0.0-10.0-1.2","4p8v0yf7wk","one_one","1","indirect_first","0","to04nd07","0","21","1","1","3","1","null","","","<img src = 'category2/GS1.png' width = '100%;'>","null","","","","","","","","","",""
"","html-keyboard-response","165","484767","0.0-10.0-2.2","4p8v0yf7wk","one_one","1","indirect_first","0","to04nd07","0","21","1","1","3","1","null","","","<img src = 'targets/39.png' width = '100%;'>","null","","","","","","","","","",""
"","html-keyboard-response","166","485263","0.0-10.0-3.2","4p8v0yf7wk","one_one","1","indirect_first","0","to04nd07","0","21","1","1","3","1","494","","","<img src = 'targets/mask.png' width = '100%;'>","68","neg","GS","GSnew","2","category2/GS1.png","targets/39.png","0","indirect","18",""
"","html-keyboard-response","167","486767","0.0-10.0-0.3","4p8v0yf7wk","one_one","1","indirect_first","0","to04nd07","0","21","1","1","3","1","null","","","<div style=""font-size:60px;"">+</div>","null","","","","","","","","","",""
"","html-keyboard-response","168","486866","0.0-10.0-1.3","4p8v0yf7wk","one_one","1","indirect_first","0","to04nd07","0","21","1","1","3","1","null","","","<img src = 'category1/GS1.png' width = '100%;'>","null","","","","","","","","","",""
"","html-keyboard-response","169","487147","0.0-10.0-2.3","4p8v0yf7wk","one_one","1","indirect_first","0","to04nd07","0","21","1","1","3","1","null","","","<img src = 'targets/8.png' width = '100%;'>","null","","","","","","","","","",""
"","html-keyboard-response","170","487790","0.0-10.0-3.3","4p8v0yf7wk","one_one","1","indirect_first","0","to04nd07","0","21","1","1","3","1","641","","","<img src = 'targets/mask.png' width = '100%;'>","75","pos","GS","GSnew","1","category1/GS1.png","targets/8.png","1","indirect","19",""
"","html-keyboard-response","171","489317","0.0-10.0-0.4","4p8v0yf7wk","one_one","1","indirect_first","0","to04nd07","0","21","1","1","3","1","null","","","<div style=""font-size:60px;"">+</div>","null","","","","","","","","","",""
"","html-keyboard-response","172","489417","0.0-10.0-1.4","4p8v0yf7wk","one_one","1","indirect_first","0","to04nd07","0","21","1","1","3","1","null","","","<img src = 'category3/wang.png' width = '100%;'>","null","","","","","","","","","",""
"","html-keyboard-response","173","489697","0.0-10.0-2.4","4p8v0yf7wk","one_one","1","indirect_first","0","to04nd07","0","21","1","1","3","1","null","","","<img src = 'targets/14.png' width = '100%;'>","null","","","","","","","","","",""
"","html-keyboard-response","174","490879","0.0-10.0-3.4","4p8v0yf7wk","one_one","1","indirect_first","0","to04nd07","0","21","1","1","3","1","1181","","","<img src = 'targets/mask.png' width = '100%;'>","68","neg","GS","abstract","3","category3/wang.png","targets/14.png","0","indirect","20",""
"","html-keyboard-response","175","492417","0.0-10.0-0.5","4p8v0yf7wk","one_one","1","indirect_first","0","to04nd07","0","21","1","1","3","1","null","","","<div style=""font-size:60px;"">+</div>","null","","","","","","","","","",""
"","html-keyboard-response","176","492517","0.0-10.0-1.5","4p8v0yf7wk","one_one","1","indirect_first","0","to04nd07","0","21","1","1","3","1","null","","","<img src = 'category1/GS3.png' width = '100%;'>","null","","","","","","","","","",""
"","html-keyboard-response","177","492796","0.0-10.0-2.5","4p8v0yf7wk","one_one","1","indirect_first","0","to04nd07","0","21","1","1","3","1","null","","","<img src = 'targets/31.png' width = '100%;'>","null","","","","","","","","","",""
"","html-keyboard-response","178","493679","0.0-10.0-3.5","4p8v0yf7wk","one_one","1","indirect_first","0","to04nd07","0","21","1","1","3","1","882","","","<img src = 'targets/mask.png' width = '100%;'>","75","pos","GS","GSnew","1","category1/GS3.png","targets/31.png","1","indirect","21",""
"","html-keyboard-response","179","495216","0.0-10.0-0.6","4p8v0yf7wk","one_one","1","indirect_first","0","to04nd07","0","21","1","1","3","1","null","","","<div style=""font-size:60px;"">+</div>","null","","","","","","","","","",""
"","html-keyboard-response","180","495317","0.0-10.0-1.6","4p8v0yf7wk","one_one","1","indirect_first","0","to04nd07","0","21","1","1","3","1","null","","","<img src = 'category4/GS2.png' width = '100%;'>","null","","","","","","","","","",""
"","html-keyboard-response","181","495596","0.0-10.0-2.6","4p8v0yf7wk","one_one","1","indirect_first","0","to04nd07","0","21","1","1","3","1","null","","","<img src = 'targets/10.png' width = '100%;'>","null","","","","","","","","","",""
"","html-keyboard-response","182","496375","0.0-10.0-3.6","4p8v0yf7wk","one_one","1","indirect_first","0","to04nd07","0","21","1","1","3","1","777","","","<img src = 'targets/mask.png' width = '100%;'>","75","pos","GS","GSnew","4","category4/GS2.png","targets/10.png","1","indirect","22",""
"","html-keyboard-response","183","497896","0.0-10.0-0.7","4p8v0yf7wk","one_one","1","indirect_first","0","to04nd07","0","21","1","1","3","1","null","","","<div style=""font-size:60px;"">+</div>","null","","","","","","","","","",""
"","html-keyboard-response","184","497996","0.0-10.0-1.7","4p8v0yf7wk","one_one","1","indirect_first","0","to04nd07","0","21","1","1","3","1","null","","","<img src = 'category3/GS1.png' width = '100%;'>","null","","","","","","","","","",""
"","html-keyboard-response","185","498277","0.0-10.0-2.7","4p8v0yf7wk","one_one","1","indirect_first","0","to04nd07","0","21","1","1","3","1","null","","","<img src = 'targets/36.png' width = '100%;'>","null","","","","","","","","","",""
"","html-keyboard-response","186","498950","0.0-10.0-3.7","4p8v0yf7wk","one_one","1","indirect_first","0","to04nd07","0","21","1","1","3","1","672","","","<img src = 'targets/mask.png' width = '100%;'>","68","neg","GS","GSnew","3","category3/GS1.png","targets/36.png","0","indirect","23",""
"","html-keyboard-response","187","500467","0.0-10.0-0.8","4p8v0yf7wk","one_one","1","indirect_first","0","to04nd07","0","21","1","1","3","1","null","","","<div style=""font-size:60px;"">+</div>","null","","","","","","","","","",""
"","html-keyboard-response","188","500566","0.0-10.0-1.8","4p8v0yf7wk","one_one","1","indirect_first","0","to04nd07","0","21","1","1","3","1","null","","","<img src = 'category4/lin.png' width = '100%;'>","null","","","","","","","","","",""
"","html-keyboard-response","189","500847","0.0-10.0-2.8","4p8v0yf7wk","one_one","1","indirect_first","0","to04nd07","0","21","1","1","3","1","null","","","<img src = 'targets/32.png' width = '100%;'>","null","","","","","","","","","",""
"","html-keyboard-response","190","501502","0.0-10.0-3.8","4p8v0yf7wk","one_one","1","indirect_first","0","to04nd07","0","21","1","1","3","1","655","","","<img src = 'targets/mask.png' width = '100%;'>","75","pos","GS","abstract","4","category4/lin.png","targets/32.png","1","indirect","24",""
"","html-keyboard-response","191","503027","0.0-10.0-0.9","4p8v0yf7wk","one_one","1","indirect_first","0","to04nd07","0","21","1","1","3","1","null","","","<div style=""font-size:60px;"">+</div>","null","","","","","","","","","",""
"","html-keyboard-response","192","503126","0.0-10.0-1.9","4p8v0yf7wk","one_one","1","indirect_first","0","to04nd07","0","21","1","1","3","1","null","","","<img src = 'category2/GS2.png' width = '100%;'>","null","","","","","","","","","",""
"","html-keyboard-response","193","503403","0.0-10.0-2.9","4p8v0yf7wk","one_one","1","indirect_first","0","to04nd07","0","21","1","1","3","1","null","","","<img src = 'targets/45.png' width = '100%;'>","null","","","","","","","","","",""
"","html-keyboard-response","194","504022","0.0-10.0-3.9","4p8v0yf7wk","one_one","1","indirect_first","0","to04nd07","0","21","1","1","3","1","618","","","<img src = 'targets/mask.png' width = '100%;'>","68","neg","GS","GSnew","2","category2/GS2.png","targets/45.png","0","indirect","25",""
"","html-keyboard-response","195","505546","0.0-10.0-0.10","4p8v0yf7wk","one_one","1","indirect_first","0","to04nd07","0","21","1","1","3","1","null","","","<div style=""font-size:60px;"">+</div>","null","","","","","","","","","",""
"","html-keyboard-response","196","505646","0.0-10.0-1.10","4p8v0yf7wk","one_one","1","indirect_first","0","to04nd07","0","21","1","1","3","1","null","","","<img src = 'category3/GS3.png' width = '100%;'>","null","","","","","","","","","",""
"","html-keyboard-response","197","505926","0.0-10.0-2.10","4p8v0yf7wk","one_one","1","indirect_first","0","to04nd07","0","21","1","1","3","1","null","","","<img src = 'targets/21.png' width = '100%;'>","null","","","","","","","","","",""
"","html-keyboard-response","198","506669","0.0-10.0-3.10","4p8v0yf7wk","one_one","1","indirect_first","0","to04nd07","0","21","1","1","3","1","742","","","<img src = 'targets/mask.png' width = '100%;'>","75","neg","GS","GSnew","3","category3/GS3.png","targets/21.png","1","indirect","26",""
"","html-keyboard-response","199","508186","0.0-10.0-0.11","4p8v0yf7wk","one_one","1","indirect_first","0","to04nd07","0","21","1","1","3","1","null","","","<div style=""font-size:60px;"">+</div>","null","","","","","","","","","",""
"","html-keyboard-response","200","508287","0.0-10.0-1.11","4p8v0yf7wk","one_one","1","indirect_first","0","to04nd07","0","21","1","1","3","1","null","","","<img src = 'category1/GS2.png' width = '100%;'>","null","","","","","","","","","",""
"","html-keyboard-response","201","508566","0.0-10.0-2.11","4p8v0yf7wk","one_one","1","indirect_first","0","to04nd07","0","21","1","1","3","1","null","","","<img src = 'targets/42.png' width = '100%;'>","null","","","","","","","","","",""
"","html-keyboard-response","202","509382","0.0-10.0-3.11","4p8v0yf7wk","one_one","1","indirect_first","0","to04nd07","0","21","1","1","3","1","815","","","<img src = 'targets/mask.png' width = '100%;'>","68","pos","GS","GSnew","1","category1/GS2.png","targets/42.png","0","indirect","27",""
"","html-keyboard-response","203","510907","0.0-10.0-0.12","4p8v0yf7wk","one_one","1","indirect_first","0","to04nd07","0","21","1","1","3","1","null","","","<div style=""font-size:60px;"">+</div>","null","","","","","","","","","",""
"","html-keyboard-response","204","511007","0.0-10.0-1.12","4p8v0yf7wk","one_one","1","indirect_first","0","to04nd07","0","21","1","1","3","1","null","","","<img src = 'category4/GS1.png' width = '100%;'>","null","","","","","","","","","",""
"","html-keyboard-response","205","511286","0.0-10.0-2.12","4p8v0yf7wk","one_one","1","indirect_first","0","to04nd07","0","21","1","1","3","1","null","","","<img src = 'targets/7.png' width = '100%;'>","null","","","","","","","","","",""
"","html-keyboard-response","206","512262","0.0-10.0-3.12","4p8v0yf7wk","one_one","1","indirect_first","0","to04nd07","0","21","1","1","3","1","974","","","<img src = 'targets/mask.png' width = '100%;'>","75","pos","GS","GSnew","4","category4/GS1.png","targets/7.png","1","indirect","28",""
"","html-keyboard-response","207","513787","0.0-10.0-0.13","4p8v0yf7wk","one_one","1","indirect_first","0","to04nd07","0","21","1","1","3","1","null","","","<div style=""font-size:60px;"">+</div>","null","","","","","","","","","",""
"","html-keyboard-response","208","513887","0.0-10.0-1.13","4p8v0yf7wk","one_one","1","indirect_first","0","to04nd07","0","21","1","1","3","1","null","","","<img src = 'category2/GS3.png' width = '100%;'>","null","","","","","","","","","",""
"","html-keyboard-response","209","514166","0.0-10.0-2.13","4p8v0yf7wk","one_one","1","indirect_first","0","to04nd07","0","21","1","1","3","1","null","","","<img src = 'targets/12.png' width = '100%;'>","null","","","","","","","","","",""
"","html-keyboard-response","210","515558","0.0-10.0-3.13","4p8v0yf7wk","one_one","1","indirect_first","0","to04nd07","0","21","1","1","3","1","1391","","","<img src = 'targets/mask.png' width = '100%;'>","68","neg","GS","GSnew","2","category2/GS3.png","targets/12.png","0","indirect","29",""
"","html-keyboard-response","211","517086","0.0-10.0-0.14","4p8v0yf7wk","one_one","1","indirect_first","0","to04nd07","0","21","1","1","3","1","null","","","<div style=""font-size:60px;"">+</div>","null","","","","","","","","","",""
"","html-keyboard-response","212","517187","0.0-10.0-1.14","4p8v0yf7wk","one_one","1","indirect_first","0","to04nd07","0","21","1","1","3","1","null","","","<img src = 'category2/men.png' width = '100%;'>","null","","","","","","","","","",""
"","html-keyboard-response","213","517466","0.0-10.0-2.14","4p8v0yf7wk","one_one","1","indirect_first","0","to04nd07","0","21","1","1","3","1","null","","","<img src = 'targets/41.png' width = '100%;'>","null","","","","","","","","","",""
"","html-keyboard-response","214","518118","0.0-10.0-3.14","4p8v0yf7wk","one_one","1","indirect_first","0","to04nd07","0","21","1","1","3","1","649","","","<img src = 'targets/mask.png' width = '100%;'>","75","neg","GS","abstract","2","category2/men.png","targets/41.png","1","indirect","30",""
"","html-keyboard-response","215","519646","0.0-10.0-0.15","4p8v0yf7wk","one_one","1","indirect_first","0","to04nd07","0","21","1","1","3","1","null","","","<div style=""font-size:60px;"">+</div>","null","","","","","","","","","",""
"","html-keyboard-response","216","519746","0.0-10.0-1.15","4p8v0yf7wk","one_one","1","indirect_first","0","to04nd07","0","21","1","1","3","1","null","","","<img src = 'category1/ma.png' width = '100%;'>","null","","","","","","","","","",""
"","html-keyboard-response","217","520006","0.0-10.0-2.15","4p8v0yf7wk","one_one","1","indirect_first","0","to04nd07","0","21","1","1","3","1","null","","","<img src = 'targets/5.png' width = '100%;'>","null","","","","","","","","","",""
"","html-keyboard-response","218","520734","0.0-10.0-3.15","4p8v0yf7wk","one_one","1","indirect_first","0","to04nd07","0","21","1","1","3","1","727","","","<img src = 'targets/mask.png' width = '100%;'>","68","pos","GS","abstract","1","category1/ma.png","targets/5.png","0","indirect","31",""
"","survey-html-form","219","527854","0.0-11.0","4p8v0yf7wk","one_one","1","indirect_first","0","to04nd07","0","21","1","1","3","1","6607","","{}","","","","","","","","","","","",""
"","image-slider-response","220","536500","0.0-12.0-0.0","4p8v0yf7wk","one_one","1","indirect_first","0","to04nd07","0","21","1","1","3","1","6639","","","","","pos","GS","GSnew","4","category4/GS2.png","targets/10.png","","direct","","69"
"","image-slider-response","221","540173","0.0-12.0-0.1","4p8v0yf7wk","one_one","1","indirect_first","0","to04nd07","0","21","1","1","3","1","3671","","","","","pos","CS","CS","4","category4/CS8.png","targets/38.png","","direct","","83"
"","image-slider-response","222","543780","0.0-12.0-0.2","4p8v0yf7wk","one_one","1","indirect_first","0","to04nd07","0","21","1","1","3","1","3606","","","","","neg","CS","CS","2","category2/CS7.png","targets/22.png","","direct","","-70"
"","image-slider-response","223","548212","0.0-12.0-0.3","4p8v0yf7wk","one_one","1","indirect_first","0","to04nd07","0","21","1","1","3","1","4430","","","","","neg","GS","GSnew","3","category3/GS1.png","targets/36.png","","direct","","55"
"","image-slider-response","224","551580","0.0-12.0-0.4","4p8v0yf7wk","one_one","1","indirect_first","0","to04nd07","0","21","1","1","3","1","3367","","","","","neg","GS","GSnew","2","category2/GS2.png","targets/45.png","","direct","","-51"
"","image-slider-response","225","557412","0.0-12.0-0.5","4p8v0yf7wk","one_one","1","indirect_first","0","to04nd07","0","21","1","1","3","1","5830","","","","","pos","GS","GSnew","1","category1/GS3.png","targets/31.png","","direct","","-50"
"","image-slider-response","226","560411","0.0-12.0-0.6","4p8v0yf7wk","one_one","1","indirect_first","0","to04nd07","0","21","1","1","3","1","2999","","","","","neg","GS","GSold","2","category2/CS8.png","targets/34.png","","direct","","-60"
"","image-slider-response","227","564132","0.0-12.0-0.7","4p8v0yf7wk","one_one","1","indirect_first","0","to04nd07","0","21","1","1","3","1","3719","","","","","neg","GS","abstract","3","category3/wang.png","targets/14.png","","direct","","62"
"","image-slider-response","228","568019","0.0-12.0-0.8","4p8v0yf7wk","one_one","1","indirect_first","0","to04nd07","0","21","1","1","3","1","3886","","","","","pos","GS","GSnew","4","category4/GS1.png","targets/7.png","","direct","","55"
"","image-slider-response","229","573099","0.0-12.0-0.9","4p8v0yf7wk","one_one","1","indirect_first","0","to04nd07","0","21","1","1","3","1","5078","","","","","neg","CS","CS","3","category3/CS3.png","targets/28.png","","direct","","-50"
"","image-slider-response","230","584067","0.0-12.0-0.10","4p8v0yf7wk","one_one","1","indirect_first","0","to04nd07","0","21","1","1","3","1","10966","","","","","pos","GS","GSold","1","category1/CS3.png","targets/6.png","","direct","","29"
"","image-slider-response","231","587436","0.0-12.0-0.11","4p8v0yf7wk","one_one","1","indirect_first","0","to04nd07","0","21","1","1","3","1","3366","","","","","pos","GS","GSold","4","category4/CS10.png","targets/46.png","","direct","","39"
"","image-slider-response","232","591979","0.0-12.0-0.12","4p8v0yf7wk","one_one","1","indirect_first","0","to04nd07","0","21","1","1","3","1","4542","","","","","neg","GS","GSnew","3","category3/GS2.png","targets/30.png","","direct","","48"
"","image-slider-response","233","595715","0.0-12.0-0.13","4p8v0yf7wk","one_one","1","indirect_first","0","to04nd07","0","21","1","1","3","1","3735","","","","","pos","CS","CS","1","category1/CS2.png","targets/3.png","","direct","","53"
"","image-slider-response","234","599860","0.0-12.0-0.14","4p8v0yf7wk","one_one","1","indirect_first","0","to04nd07","0","21","1","1","3","1","4143","","","","","neg","GS","GSold","2","category2/CS1.png","targets/25.png","","direct","","-45"
"","image-slider-response","235","609059","0.0-12.0-0.15","4p8v0yf7wk","one_one","1","indirect_first","0","to04nd07","0","21","1","1","3","1","9199","","","","","neg","GS","GSnew","3","category3/GS3.png","targets/21.png","","direct","","-46"
"","image-slider-response","236","611979","0.0-12.0-0.16","4p8v0yf7wk","one_one","1","indirect_first","0","to04nd07","0","21","1","1","3","1","2918","","","","","neg","GS","GSold","2","category2/CS2.png","targets/43.png","","direct","","-52"
"","image-slider-response","237","619475","0.0-12.0-0.17","4p8v0yf7wk","one_one","1","indirect_first","0","to04nd07","0","21","1","1","3","1","7495","","","","","neg","GS","abstract","2","category2/men.png","targets/41.png","","direct","","-50"
"","image-slider-response","238","623683","0.0-12.0-0.18","4p8v0yf7wk","one_one","1","indirect_first","0","to04nd07","0","21","1","1","3","1","4207","","","","","pos","GS","GSnew","1","category1/GS1.png","targets/8.png","","direct","","-33"
"","image-slider-response","239","628082","0.0-12.0-0.19","4p8v0yf7wk","one_one","1","indirect_first","0","to04nd07","0","21","1","1","3","1","4398","","","","","neg","GS","GSnew","2","category2/GS3.png","targets/12.png","","direct","","34"
"","image-slider-response","240","631563","0.0-12.0-0.20","4p8v0yf7wk","one_one","1","indirect_first","0","to04nd07","0","21","1","1","3","1","3479","","","","","neg","GS","GSold","3","category3/CS4.png","targets/16.png","","direct","","35"
"","image-slider-response","241","635043","0.0-12.0-0.21","4p8v0yf7wk","one_one","1","indirect_first","0","to04nd07","0","21","1","1","3","1","3478","","","","","pos","GS","GSold","4","category4/CS4.png","targets/35.png","","direct","","32"
"","image-slider-response","242","638018","0.0-12.0-0.22","4p8v0yf7wk","one_one","1","indirect_first","0","to04nd07","0","21","1","1","3","1","2975","","","","","pos","GS","GSold","4","category4/CS2.png","targets/15.png","","direct","","-35"
"","image-slider-response","243","641003","0.0-12.0-0.23","4p8v0yf7wk","one_one","1","indirect_first","0","to04nd07","0","21","1","1","3","1","2983","","","","","neg","GS","GSold","3","category3/CS9.png","targets/23.png","","direct","","35"
"","image-slider-response","244","643699","0.0-12.0-0.24","4p8v0yf7wk","one_one","1","indirect_first","0","to04nd07","0","21","1","1","3","1","2694","","","","","pos","GS","GSold","1","category1/CS9.png","targets/13.png","","direct","","-34"
"","image-slider-response","245","646243","0.0-12.0-0.25","4p8v0yf7wk","one_one","1","indirect_first","0","to04nd07","0","21","1","1","3","1","2543","","","","","pos","GS","abstract","4","category4/lin.png","targets/32.png","","direct","","33"
"","image-slider-response","246","649059","0.0-12.0-0.26","4p8v0yf7wk","one_one","1","indirect_first","0","to04nd07","0","21","1","1","3","1","2814","","","","","pos","GS","abstract","1","category1/ma.png","targets/5.png","","direct","","-42"
"","image-slider-response","247","651178","0.0-12.0-0.27","4p8v0yf7wk","one_one","1","indirect_first","0","to04nd07","0","21","1","1","3","1","2119","","","","","pos","GS","GSnew","1","category1/GS2.png","targets/42.png","","direct","","29"
"","image-slider-response","248","653650","0.0-12.0-0.28","4p8v0yf7wk","one_one","1","indirect_first","0","to04nd07","0","21","1","1","3","1","2470","","","","","pos","GS","GSold","1","category1/CS6.png","targets/47.png","","direct","","44"
"","image-slider-response","249","655970","0.0-12.0-0.29","4p8v0yf7wk","one_one","1","indirect_first","0","to04nd07","0","21","1","1","3","1","2318","","","","","pos","GS","GSnew","4","category4/GS3.png","targets/9.png","","direct","","24"
"","image-slider-response","250","659202","0.0-12.0-0.30","4p8v0yf7wk","one_one","1","indirect_first","0","to04nd07","0","21","1","1","3","1","3230","","","","","neg","GS","GSnew","2","category2/GS1.png","targets/39.png","","direct","","33"
"","image-slider-response","251","661674","0.0-12.0-0.31","4p8v0yf7wk","one_one","1","indirect_first","0","to04nd07","0","21","1","1","3","1","2471","","","","","neg","GS","GSold","3","category3/CS7.png","targets/40.png","","direct","","-40"
"","survey-html-form","252","664003","0.0-13.0","4p8v0yf7wk","one_one","1","indirect_first","0","to04nd07","0","21","1","1","3","1","2327","","{}","","","","","","","","","","","",""
"","image-slider-response","253","668602","0.0-14.0-0.0","4p8v0yf7wk","one_one","1","indirect_first","0","to04nd07","0","21","1","1","3","1","3586","","","","","neg","All","all","3","category3/wang_all.png","","","all","","26"
"","image-slider-response","254","671530","0.0-14.0-0.1","4p8v0yf7wk","one_one","1","indirect_first","0","to04nd07","0","21","1","1","3","1","2927","","","","","pos","All","all","1","category1/ma_all.png","","","all","","22"
"","image-slider-response","255","675714","0.0-14.0-0.2","4p8v0yf7wk","one_one","1","indirect_first","0","to04nd07","0","21","1","1","3","1","4182","","","","","pos","All","all","4","category4/lin_all.png","","","all","","32"
"","image-slider-response","256","678874","0.0-14.0-0.3","4p8v0yf7wk","one_one","1","indirect_first","0","to04nd07","0","21","1","1","3","1","3158","","","","","neg","All","all","2","category2/men_all.png","","","all","","-36"
"","survey-text","257","680332","0.0-15.0","4p8v0yf7wk","one_one","1","indirect_first","0","to04nd07","0","21","1","1","3","1","1454","","{""Q0"":""""}","","","","","","","","","","","",""
