"success","trial_type","trial_index","time_elapsed","internal_node_id","subject","condition","condition_code","measure","measure_code","codeword","gender","age","education","chinese","fach","handedness","rt","url","responses","stimulus","key_press","val","type","type_specific","category","cs_selected","target","indirect","task","nr_pres","response"
"true","fullscreen","0","3427","0.0-0.0","opehl4k9op","many_one","0","indirect_first","0","la05ph15","1","23","1","1","1","2","","","","","","","","","","","","","","",""
"","external-html","1","54762","0.0-1.0","opehl4k9op","many_one","0","indirect_first","0","la05ph15","1","23","1","1","1","2","51271","text/information.html","","","","","","","","","","","","",""
"","external-html","2","68866","0.0-2.0","opehl4k9op","many_one","0","indirect_first","0","la05ph15","1","23","1","1","1","2","14079","text/consent.html","","","","","","","","","","","","",""
"","survey-html-form","3","126026","0.0-3.0","opehl4k9op","many_one","0","indirect_first","0","la05ph15","1","23","1","1","1","2","57157","","{""codeword_enter"":""la05ph15""}","","","","","","","","","","","",""
"","survey-html-form","4","141708","0.0-4.0","opehl4k9op","many_one","0","indirect_first","0","la05ph15","1","23","1","1","1","2","15681","","{""age"":""23"",""education"":""1"",""subject"":""1"",""gender"":""1"",""handedness"":""2"",""chinese"":""1""}","","","","","","","","","","","",""
"","survey-html-form","5","156731","0.0-5.0","opehl4k9op","many_one","0","indirect_first","0","la05ph15","1","23","1","1","1","2","15022","","{}","","","","","","","","","","","",""
"","html-keyboard-response","6","160768","0.0-6.0-0.0-0.0","opehl4k9op","many_one","0","indirect_first","0","la05ph15","1","23","1","1","1","2","null","","","<div class = 'row'><div class = 'column'><img src = 'uspos/2341.bmp' width = '100%;'></div><div class = 'column'><img src = 'category2/CS5.png' width = '70%;'></div></div>","null","pos","CS","CS","2","category2/CS5.png","","","","",""
"","html-keyboard-response","7","163308","0.0-6.0-0.0-0.1","opehl4k9op","many_one","0","indirect_first","0","la05ph15","1","23","1","1","1","2","null","","","<div class = 'row'><div class = 'column'><img src = 'usneg/2141.bmp' width = '100%;'></div><div class = 'column'><img src = 'category1/CS5.png' width = '70%;'></div></div>","null","neg","CS","CS","1","category1/CS5.png","","","","",""
"","html-keyboard-response","8","165849","0.0-6.0-0.0-0.2","opehl4k9op","many_one","0","indirect_first","0","la05ph15","1","23","1","1","1","2","null","","","<div class = 'row'><div class = 'column'><img src = 'category3/CS2.png' width = '70%;'></div><div class = 'column'><img src = 'uspos/8461.bmp' width = '100%;'></div></div>","null","pos","CS","CS","3","category3/CS2.png","","","","",""
"","html-keyboard-response","9","168388","0.0-6.0-0.0-0.3","opehl4k9op","many_one","0","indirect_first","0","la05ph15","1","23","1","1","1","2","null","","","<div class = 'row'><div class = 'column'><img src = 'usneg/9181.bmp' width = '100%;'></div><div class = 'column'><img src = 'category1/CS9.png' width = '70%;'></div></div>","null","neg","CS","CS","1","category1/CS9.png","","","","",""
"","html-keyboard-response","10","170929","0.0-6.0-0.0-0.4","opehl4k9op","many_one","0","indirect_first","0","la05ph15","1","23","1","1","1","2","null","","","<div class = 'row'><div class = 'column'><img src = 'category3/CS10.png' width = '70%;'></div><div class = 'column'><img src = 'uspos/2340.bmp' width = '100%;'></div></div>","null","pos","CS","CS","3","category3/CS10.png","","","","",""
"","html-keyboard-response","11","173468","0.0-6.0-0.0-0.5","opehl4k9op","many_one","0","indirect_first","0","la05ph15","1","23","1","1","1","2","null","","","<div class = 'row'><div class = 'column'><img src = 'category4/CS1.png' width = '70%;'></div><div class = 'column'><img src = 'usneg/6020.bmp' width = '100%;'></div></div>","null","neg","CS","CS","4","category4/CS1.png","","","","",""
"","html-keyboard-response","12","176009","0.0-6.0-0.0-0.6","opehl4k9op","many_one","0","indirect_first","0","la05ph15","1","23","1","1","1","2","null","","","<div class = 'row'><div class = 'column'><img src = 'uspos/7580.bmp' width = '100%;'></div><div class = 'column'><img src = 'category3/CS8.png' width = '70%;'></div></div>","null","pos","CS","CS","3","category3/CS8.png","","","","",""
"","html-keyboard-response","13","178548","0.0-6.0-0.0-0.7","opehl4k9op","many_one","0","indirect_first","0","la05ph15","1","23","1","1","1","2","null","","","<div class = 'row'><div class = 'column'><img src = 'uspos/1463.bmp' width = '100%;'></div><div class = 'column'><img src = 'category2/CS6.png' width = '70%;'></div></div>","null","pos","CS","CS","2","category2/CS6.png","","","","",""
"","html-keyboard-response","14","181068","0.0-6.0-0.0-0.8","opehl4k9op","many_one","0","indirect_first","0","la05ph15","1","23","1","1","1","2","null","","","<div class = 'row'><div class = 'column'><img src = 'category3/CS1.png' width = '70%;'></div><div class = 'column'><img src = 'uspos/2530.bmp' width = '100%;'></div></div>","null","pos","CS","CS","3","category3/CS1.png","","","","",""
"","html-keyboard-response","15","183607","0.0-6.0-0.0-0.9","opehl4k9op","many_one","0","indirect_first","0","la05ph15","1","23","1","1","1","2","null","","","<div class = 'row'><div class = 'column'><img src = 'uspos/2057.bmp' width = '100%;'></div><div class = 'column'><img src = 'category2/CS2.png' width = '70%;'></div></div>","null","pos","CS","CS","2","category2/CS2.png","","","","",""
"","html-keyboard-response","16","186148","0.0-6.0-0.0-0.10","opehl4k9op","many_one","0","indirect_first","0","la05ph15","1","23","1","1","1","2","null","","","<div class = 'row'><div class = 'column'><img src = 'category2/CS7.png' width = '70%;'></div><div class = 'column'><img src = 'uspos/5760.bmp' width = '100%;'></div></div>","null","pos","CS","CS","2","category2/CS7.png","","","","",""
"","html-keyboard-response","17","188688","0.0-6.0-0.0-0.11","opehl4k9op","many_one","0","indirect_first","0","la05ph15","1","23","1","1","1","2","null","","","<div class = 'row'><div class = 'column'><img src = 'category4/CS4.png' width = '70%;'></div><div class = 'column'><img src = 'usneg/3181.bmp' width = '100%;'></div></div>","null","neg","CS","CS","4","category4/CS4.png","","","","",""
"","html-keyboard-response","18","191227","0.0-6.0-0.0-0.12","opehl4k9op","many_one","0","indirect_first","0","la05ph15","1","23","1","1","1","2","null","","","<div class = 'row'><div class = 'column'><img src = 'category4/CS2.png' width = '70%;'></div><div class = 'column'><img src = 'usneg/9561.bmp' width = '100%;'></div></div>","null","neg","CS","CS","4","category4/CS2.png","","","","",""
"","html-keyboard-response","19","193757","0.0-6.0-0.0-0.13","opehl4k9op","many_one","0","indirect_first","0","la05ph15","1","23","1","1","1","2","null","","","<div class = 'row'><div class = 'column'><img src = 'category1/CS8.png' width = '70%;'></div><div class = 'column'><img src = 'usneg/3160.bmp' width = '100%;'></div></div>","null","neg","CS","CS","1","category1/CS8.png","","","","",""
"","html-keyboard-response","20","196297","0.0-6.0-0.0-0.14","opehl4k9op","many_one","0","indirect_first","0","la05ph15","1","23","1","1","1","2","null","","","<div class = 'row'><div class = 'column'><img src = 'uspos/2208.bmp' width = '100%;'></div><div class = 'column'><img src = 'category2/CS9.png' width = '70%;'></div></div>","null","pos","CS","CS","2","category2/CS9.png","","","","",""
"","html-keyboard-response","21","198828","0.0-6.0-0.0-0.15","opehl4k9op","many_one","0","indirect_first","0","la05ph15","1","23","1","1","1","2","null","","","<div class = 'row'><div class = 'column'><img src = 'category4/CS5.png' width = '70%;'></div><div class = 'column'><img src = 'usneg/6212.bmp' width = '100%;'></div></div>","null","neg","CS","CS","4","category4/CS5.png","","","","",""
"","html-keyboard-response","22","201367","0.0-6.0-0.0-0.16","opehl4k9op","many_one","0","indirect_first","0","la05ph15","1","23","1","1","1","2","null","","","<div class = 'row'><div class = 'column'><img src = 'category1/CS2.png' width = '70%;'></div><div class = 'column'><img src = 'usneg/9000.bmp' width = '100%;'></div></div>","null","neg","CS","CS","1","category1/CS2.png","","","","",""
"","html-keyboard-response","23","203908","0.0-6.0-0.0-0.17","opehl4k9op","many_one","0","indirect_first","0","la05ph15","1","23","1","1","1","2","null","","","<div class = 'row'><div class = 'column'><img src = 'category3/CS7.png' width = '70%;'></div><div class = 'column'><img src = 'uspos/1440.bmp' width = '100%;'></div></div>","null","pos","CS","CS","3","category3/CS7.png","","","","",""
"","html-keyboard-response","24","206444","0.0-6.0-0.0-0.18","opehl4k9op","many_one","0","indirect_first","0","la05ph15","1","23","1","1","1","2","null","","","<div class = 'row'><div class = 'column'><img src = 'usneg/9342.bmp' width = '100%;'></div><div class = 'column'><img src = 'category1/CS10.png' width = '70%;'></div></div>","null","neg","CS","CS","1","category1/CS10.png","","","","",""
"","html-keyboard-response","25","208947","0.0-6.0-0.0-0.19","opehl4k9op","many_one","0","indirect_first","0","la05ph15","1","23","1","1","1","2","null","","","<div class = 'row'><div class = 'column'><img src = 'category4/CS3.png' width = '70%;'></div><div class = 'column'><img src = 'usneg/9050.bmp' width = '100%;'></div></div>","null","neg","CS","CS","4","category4/CS3.png","","","","",""
"","survey-html-form","26","215761","0.0-6.0-1.0","opehl4k9op","many_one","0","indirect_first","0","la05ph15","1","23","1","1","1","2","6294","","{}","","","","","","","","","","","",""
"","html-keyboard-response","27","219786","0.0-6.0-2.0-0.0","opehl4k9op","many_one","0","indirect_first","0","la05ph15","1","23","1","1","1","2","null","","","<div class = 'row'><div class = 'column'><img src = 'category1/CS10.png' width = '70%;'></div><div class = 'column'><img src = 'usneg/9342.bmp' width = '100%;'></div></div>","null","neg","CS","CS","1","category1/CS10.png","","","","",""
"","html-keyboard-response","28","222326","0.0-6.0-2.0-0.1","opehl4k9op","many_one","0","indirect_first","0","la05ph15","1","23","1","1","1","2","null","","","<div class = 'row'><div class = 'column'><img src = 'category1/CS9.png' width = '70%;'></div><div class = 'column'><img src = 'usneg/9181.bmp' width = '100%;'></div></div>","null","neg","CS","CS","1","category1/CS9.png","","","","",""
"","html-keyboard-response","29","224866","0.0-6.0-2.0-0.2","opehl4k9op","many_one","0","indirect_first","0","la05ph15","1","23","1","1","1","2","null","","","<div class = 'row'><div class = 'column'><img src = 'category3/CS7.png' width = '70%;'></div><div class = 'column'><img src = 'uspos/1440.bmp' width = '100%;'></div></div>","null","pos","CS","CS","3","category3/CS7.png","","","","",""
"","html-keyboard-response","30","227386","0.0-6.0-2.0-0.3","opehl4k9op","many_one","0","indirect_first","0","la05ph15","1","23","1","1","1","2","null","","","<div class = 'row'><div class = 'column'><img src = 'category1/CS5.png' width = '70%;'></div><div class = 'column'><img src = 'usneg/2141.bmp' width = '100%;'></div></div>","null","neg","CS","CS","1","category1/CS5.png","","","","",""
"","html-keyboard-response","31","229904","0.0-6.0-2.0-0.4","opehl4k9op","many_one","0","indirect_first","0","la05ph15","1","23","1","1","1","2","null","","","<div class = 'row'><div class = 'column'><img src = 'category4/CS4.png' width = '70%;'></div><div class = 'column'><img src = 'usneg/3181.bmp' width = '100%;'></div></div>","null","neg","CS","CS","4","category4/CS4.png","","","","",""
"","html-keyboard-response","32","232406","0.0-6.0-2.0-0.5","opehl4k9op","many_one","0","indirect_first","0","la05ph15","1","23","1","1","1","2","null","","","<div class = 'row'><div class = 'column'><img src = 'usneg/9050.bmp' width = '100%;'></div><div class = 'column'><img src = 'category4/CS3.png' width = '70%;'></div></div>","null","neg","CS","CS","4","category4/CS3.png","","","","",""
"","html-keyboard-response","33","234926","0.0-6.0-2.0-0.6","opehl4k9op","many_one","0","indirect_first","0","la05ph15","1","23","1","1","1","2","null","","","<div class = 'row'><div class = 'column'><img src = 'category2/CS7.png' width = '70%;'></div><div class = 'column'><img src = 'uspos/5760.bmp' width = '100%;'></div></div>","null","pos","CS","CS","2","category2/CS7.png","","","","",""
"","html-keyboard-response","34","237465","0.0-6.0-2.0-0.7","opehl4k9op","many_one","0","indirect_first","0","la05ph15","1","23","1","1","1","2","null","","","<div class = 'row'><div class = 'column'><img src = 'category2/CS2.png' width = '70%;'></div><div class = 'column'><img src = 'uspos/2057.bmp' width = '100%;'></div></div>","null","pos","CS","CS","2","category2/CS2.png","","","","",""
"","html-keyboard-response","35","240006","0.0-6.0-2.0-0.8","opehl4k9op","many_one","0","indirect_first","0","la05ph15","1","23","1","1","1","2","null","","","<div class = 'row'><div class = 'column'><img src = 'category4/CS2.png' width = '70%;'></div><div class = 'column'><img src = 'usneg/9561.bmp' width = '100%;'></div></div>","null","neg","CS","CS","4","category4/CS2.png","","","","",""
"","html-keyboard-response","36","242546","0.0-6.0-2.0-0.9","opehl4k9op","many_one","0","indirect_first","0","la05ph15","1","23","1","1","1","2","null","","","<div class = 'row'><div class = 'column'><img src = 'uspos/2340.bmp' width = '100%;'></div><div class = 'column'><img src = 'category3/CS10.png' width = '70%;'></div></div>","null","pos","CS","CS","3","category3/CS10.png","","","","",""
"","html-keyboard-response","37","245086","0.0-6.0-2.0-0.10","opehl4k9op","many_one","0","indirect_first","0","la05ph15","1","23","1","1","1","2","null","","","<div class = 'row'><div class = 'column'><img src = 'category2/CS5.png' width = '70%;'></div><div class = 'column'><img src = 'uspos/2341.bmp' width = '100%;'></div></div>","null","pos","CS","CS","2","category2/CS5.png","","","","",""
"","html-keyboard-response","38","247625","0.0-6.0-2.0-0.11","opehl4k9op","many_one","0","indirect_first","0","la05ph15","1","23","1","1","1","2","null","","","<div class = 'row'><div class = 'column'><img src = 'usneg/6020.bmp' width = '100%;'></div><div class = 'column'><img src = 'category4/CS1.png' width = '70%;'></div></div>","null","neg","CS","CS","4","category4/CS1.png","","","","",""
"","html-keyboard-response","39","250166","0.0-6.0-2.0-0.12","opehl4k9op","many_one","0","indirect_first","0","la05ph15","1","23","1","1","1","2","null","","","<div class = 'row'><div class = 'column'><img src = 'category4/CS5.png' width = '70%;'></div><div class = 'column'><img src = 'usneg/6212.bmp' width = '100%;'></div></div>","null","neg","CS","CS","4","category4/CS5.png","","","","",""
"","html-keyboard-response","40","252705","0.0-6.0-2.0-0.13","opehl4k9op","many_one","0","indirect_first","0","la05ph15","1","23","1","1","1","2","null","","","<div class = 'row'><div class = 'column'><img src = 'category3/CS2.png' width = '70%;'></div><div class = 'column'><img src = 'uspos/8461.bmp' width = '100%;'></div></div>","null","pos","CS","CS","3","category3/CS2.png","","","","",""
"","html-keyboard-response","41","255245","0.0-6.0-2.0-0.14","opehl4k9op","many_one","0","indirect_first","0","la05ph15","1","23","1","1","1","2","null","","","<div class = 'row'><div class = 'column'><img src = 'category1/CS2.png' width = '70%;'></div><div class = 'column'><img src = 'usneg/9000.bmp' width = '100%;'></div></div>","null","neg","CS","CS","1","category1/CS2.png","","","","",""
"","html-keyboard-response","42","257785","0.0-6.0-2.0-0.15","opehl4k9op","many_one","0","indirect_first","0","la05ph15","1","23","1","1","1","2","null","","","<div class = 'row'><div class = 'column'><img src = 'category3/CS8.png' width = '70%;'></div><div class = 'column'><img src = 'uspos/7580.bmp' width = '100%;'></div></div>","null","pos","CS","CS","3","category3/CS8.png","","","","",""
"","html-keyboard-response","43","260305","0.0-6.0-2.0-0.16","opehl4k9op","many_one","0","indirect_first","0","la05ph15","1","23","1","1","1","2","null","","","<div class = 'row'><div class = 'column'><img src = 'usneg/3160.bmp' width = '100%;'></div><div class = 'column'><img src = 'category1/CS8.png' width = '70%;'></div></div>","null","neg","CS","CS","1","category1/CS8.png","","","","",""
"","html-keyboard-response","44","262845","0.0-6.0-2.0-0.17","opehl4k9op","many_one","0","indirect_first","0","la05ph15","1","23","1","1","1","2","null","","","<div class = 'row'><div class = 'column'><img src = 'category2/CS9.png' width = '70%;'></div><div class = 'column'><img src = 'uspos/2208.bmp' width = '100%;'></div></div>","null","pos","CS","CS","2","category2/CS9.png","","","","",""
"","html-keyboard-response","45","265385","0.0-6.0-2.0-0.18","opehl4k9op","many_one","0","indirect_first","0","la05ph15","1","23","1","1","1","2","null","","","<div class = 'row'><div class = 'column'><img src = 'category2/CS6.png' width = '70%;'></div><div class = 'column'><img src = 'uspos/1463.bmp' width = '100%;'></div></div>","null","pos","CS","CS","2","category2/CS6.png","","","","",""
"","html-keyboard-response","46","267925","0.0-6.0-2.0-0.19","opehl4k9op","many_one","0","indirect_first","0","la05ph15","1","23","1","1","1","2","null","","","<div class = 'row'><div class = 'column'><img src = 'uspos/2530.bmp' width = '100%;'></div><div class = 'column'><img src = 'category3/CS1.png' width = '70%;'></div></div>","null","pos","CS","CS","3","category3/CS1.png","","","","",""
"","survey-html-form","47","278975","0.0-6.0-3.0","opehl4k9op","many_one","0","indirect_first","0","la05ph15","1","23","1","1","1","2","10529","","{}","","","","","","","","","","","",""
"","html-keyboard-response","48","282995","0.0-6.0-4.0-0.0","opehl4k9op","many_one","0","indirect_first","0","la05ph15","1","23","1","1","1","2","null","","","<div class = 'row'><div class = 'column'><img src = 'usneg/9561.bmp' width = '100%;'></div><div class = 'column'><img src = 'category4/CS2.png' width = '70%;'></div></div>","null","neg","CS","CS","4","category4/CS2.png","","","","",""
"","html-keyboard-response","49","285535","0.0-6.0-4.0-0.1","opehl4k9op","many_one","0","indirect_first","0","la05ph15","1","23","1","1","1","2","null","","","<div class = 'row'><div class = 'column'><img src = 'usneg/6020.bmp' width = '100%;'></div><div class = 'column'><img src = 'category4/CS1.png' width = '70%;'></div></div>","null","neg","CS","CS","4","category4/CS1.png","","","","",""
"","html-keyboard-response","50","288065","0.0-6.0-4.0-0.2","opehl4k9op","many_one","0","indirect_first","0","la05ph15","1","23","1","1","1","2","null","","","<div class = 'row'><div class = 'column'><img src = 'usneg/9050.bmp' width = '100%;'></div><div class = 'column'><img src = 'category4/CS3.png' width = '70%;'></div></div>","null","neg","CS","CS","4","category4/CS3.png","","","","",""
"","html-keyboard-response","51","290605","0.0-6.0-4.0-0.3","opehl4k9op","many_one","0","indirect_first","0","la05ph15","1","23","1","1","1","2","null","","","<div class = 'row'><div class = 'column'><img src = 'usneg/3181.bmp' width = '100%;'></div><div class = 'column'><img src = 'category4/CS4.png' width = '70%;'></div></div>","null","neg","CS","CS","4","category4/CS4.png","","","","",""
"","html-keyboard-response","52","293144","0.0-6.0-4.0-0.4","opehl4k9op","many_one","0","indirect_first","0","la05ph15","1","23","1","1","1","2","null","","","<div class = 'row'><div class = 'column'><img src = 'usneg/2141.bmp' width = '100%;'></div><div class = 'column'><img src = 'category1/CS5.png' width = '70%;'></div></div>","null","neg","CS","CS","1","category1/CS5.png","","","","",""
"","html-keyboard-response","53","295685","0.0-6.0-4.0-0.5","opehl4k9op","many_one","0","indirect_first","0","la05ph15","1","23","1","1","1","2","null","","","<div class = 'row'><div class = 'column'><img src = 'uspos/1440.bmp' width = '100%;'></div><div class = 'column'><img src = 'category3/CS7.png' width = '70%;'></div></div>","null","pos","CS","CS","3","category3/CS7.png","","","","",""
"","html-keyboard-response","54","298204","0.0-6.0-4.0-0.6","opehl4k9op","many_one","0","indirect_first","0","la05ph15","1","23","1","1","1","2","null","","","<div class = 'row'><div class = 'column'><img src = 'uspos/2530.bmp' width = '100%;'></div><div class = 'column'><img src = 'category3/CS1.png' width = '70%;'></div></div>","null","pos","CS","CS","3","category3/CS1.png","","","","",""
"","html-keyboard-response","55","300744","0.0-6.0-4.0-0.7","opehl4k9op","many_one","0","indirect_first","0","la05ph15","1","23","1","1","1","2","null","","","<div class = 'row'><div class = 'column'><img src = 'category3/CS10.png' width = '70%;'></div><div class = 'column'><img src = 'uspos/2340.bmp' width = '100%;'></div></div>","null","pos","CS","CS","3","category3/CS10.png","","","","",""
"","html-keyboard-response","56","303284","0.0-6.0-4.0-0.8","opehl4k9op","many_one","0","indirect_first","0","la05ph15","1","23","1","1","1","2","null","","","<div class = 'row'><div class = 'column'><img src = 'usneg/6212.bmp' width = '100%;'></div><div class = 'column'><img src = 'category4/CS5.png' width = '70%;'></div></div>","null","neg","CS","CS","4","category4/CS5.png","","","","",""
"","html-keyboard-response","57","305823","0.0-6.0-4.0-0.9","opehl4k9op","many_one","0","indirect_first","0","la05ph15","1","23","1","1","1","2","null","","","<div class = 'row'><div class = 'column'><img src = 'category2/CS6.png' width = '70%;'></div><div class = 'column'><img src = 'uspos/1463.bmp' width = '100%;'></div></div>","null","pos","CS","CS","2","category2/CS6.png","","","","",""
"","html-keyboard-response","58","308343","0.0-6.0-4.0-0.10","opehl4k9op","many_one","0","indirect_first","0","la05ph15","1","23","1","1","1","2","null","","","<div class = 'row'><div class = 'column'><img src = 'category2/CS2.png' width = '70%;'></div><div class = 'column'><img src = 'uspos/2057.bmp' width = '100%;'></div></div>","null","pos","CS","CS","2","category2/CS2.png","","","","",""
"","html-keyboard-response","59","310883","0.0-6.0-4.0-0.11","opehl4k9op","many_one","0","indirect_first","0","la05ph15","1","23","1","1","1","2","null","","","<div class = 'row'><div class = 'column'><img src = 'category3/CS2.png' width = '70%;'></div><div class = 'column'><img src = 'uspos/8461.bmp' width = '100%;'></div></div>","null","pos","CS","CS","3","category3/CS2.png","","","","",""
"","html-keyboard-response","60","313423","0.0-6.0-4.0-0.12","opehl4k9op","many_one","0","indirect_first","0","la05ph15","1","23","1","1","1","2","null","","","<div class = 'row'><div class = 'column'><img src = 'category1/CS2.png' width = '70%;'></div><div class = 'column'><img src = 'usneg/9000.bmp' width = '100%;'></div></div>","null","neg","CS","CS","1","category1/CS2.png","","","","",""
"","html-keyboard-response","61","315964","0.0-6.0-4.0-0.13","opehl4k9op","many_one","0","indirect_first","0","la05ph15","1","23","1","1","1","2","null","","","<div class = 'row'><div class = 'column'><img src = 'usneg/3160.bmp' width = '100%;'></div><div class = 'column'><img src = 'category1/CS8.png' width = '70%;'></div></div>","null","neg","CS","CS","1","category1/CS8.png","","","","",""
"","html-keyboard-response","62","318504","0.0-6.0-4.0-0.14","opehl4k9op","many_one","0","indirect_first","0","la05ph15","1","23","1","1","1","2","null","","","<div class = 'row'><div class = 'column'><img src = 'usneg/9181.bmp' width = '100%;'></div><div class = 'column'><img src = 'category1/CS9.png' width = '70%;'></div></div>","null","neg","CS","CS","1","category1/CS9.png","","","","",""
"","html-keyboard-response","63","321043","0.0-6.0-4.0-0.15","opehl4k9op","many_one","0","indirect_first","0","la05ph15","1","23","1","1","1","2","null","","","<div class = 'row'><div class = 'column'><img src = 'uspos/7580.bmp' width = '100%;'></div><div class = 'column'><img src = 'category3/CS8.png' width = '70%;'></div></div>","null","pos","CS","CS","3","category3/CS8.png","","","","",""
"","html-keyboard-response","64","323581","0.0-6.0-4.0-0.16","opehl4k9op","many_one","0","indirect_first","0","la05ph15","1","23","1","1","1","2","null","","","<div class = 'row'><div class = 'column'><img src = 'uspos/2208.bmp' width = '100%;'></div><div class = 'column'><img src = 'category2/CS9.png' width = '70%;'></div></div>","null","pos","CS","CS","2","category2/CS9.png","","","","",""
"","html-keyboard-response","65","326084","0.0-6.0-4.0-0.17","opehl4k9op","many_one","0","indirect_first","0","la05ph15","1","23","1","1","1","2","null","","","<div class = 'row'><div class = 'column'><img src = 'category2/CS5.png' width = '70%;'></div><div class = 'column'><img src = 'uspos/2341.bmp' width = '100%;'></div></div>","null","pos","CS","CS","2","category2/CS5.png","","","","",""
"","html-keyboard-response","66","328623","0.0-6.0-4.0-0.18","opehl4k9op","many_one","0","indirect_first","0","la05ph15","1","23","1","1","1","2","null","","","<div class = 'row'><div class = 'column'><img src = 'category2/CS7.png' width = '70%;'></div><div class = 'column'><img src = 'uspos/5760.bmp' width = '100%;'></div></div>","null","pos","CS","CS","2","category2/CS7.png","","","","",""
"","html-keyboard-response","67","331143","0.0-6.0-4.0-0.19","opehl4k9op","many_one","0","indirect_first","0","la05ph15","1","23","1","1","1","2","null","","","<div class = 'row'><div class = 'column'><img src = 'category1/CS10.png' width = '70%;'></div><div class = 'column'><img src = 'usneg/9342.bmp' width = '100%;'></div></div>","null","neg","CS","CS","1","category1/CS10.png","","","","",""
"","survey-html-form","68","339389","0.0-6.0-5.0","opehl4k9op","many_one","0","indirect_first","0","la05ph15","1","23","1","1","1","2","7726","","{}","","","","","","","","","","","",""
"","html-keyboard-response","69","343413","0.0-6.0-6.0-0.0","opehl4k9op","many_one","0","indirect_first","0","la05ph15","1","23","1","1","1","2","null","","","<div class = 'row'><div class = 'column'><img src = 'category4/CS3.png' width = '70%;'></div><div class = 'column'><img src = 'usneg/9050.bmp' width = '100%;'></div></div>","null","neg","CS","CS","4","category4/CS3.png","","","","",""
"","html-keyboard-response","70","345953","0.0-6.0-6.0-0.1","opehl4k9op","many_one","0","indirect_first","0","la05ph15","1","23","1","1","1","2","null","","","<div class = 'row'><div class = 'column'><img src = 'uspos/8461.bmp' width = '100%;'></div><div class = 'column'><img src = 'category3/CS2.png' width = '70%;'></div></div>","null","pos","CS","CS","3","category3/CS2.png","","","","",""
"","html-keyboard-response","71","348493","0.0-6.0-6.0-0.2","opehl4k9op","many_one","0","indirect_first","0","la05ph15","1","23","1","1","1","2","null","","","<div class = 'row'><div class = 'column'><img src = 'category4/CS5.png' width = '70%;'></div><div class = 'column'><img src = 'usneg/6212.bmp' width = '100%;'></div></div>","null","neg","CS","CS","4","category4/CS5.png","","","","",""
"","html-keyboard-response","72","351033","0.0-6.0-6.0-0.3","opehl4k9op","many_one","0","indirect_first","0","la05ph15","1","23","1","1","1","2","null","","","<div class = 'row'><div class = 'column'><img src = 'category4/CS4.png' width = '70%;'></div><div class = 'column'><img src = 'usneg/3181.bmp' width = '100%;'></div></div>","null","neg","CS","CS","4","category4/CS4.png","","","","",""
"","html-keyboard-response","73","353563","0.0-6.0-6.0-0.4","opehl4k9op","many_one","0","indirect_first","0","la05ph15","1","23","1","1","1","2","null","","","<div class = 'row'><div class = 'column'><img src = 'uspos/2341.bmp' width = '100%;'></div><div class = 'column'><img src = 'category2/CS5.png' width = '70%;'></div></div>","null","pos","CS","CS","2","category2/CS5.png","","","","",""
"","html-keyboard-response","74","356102","0.0-6.0-6.0-0.5","opehl4k9op","many_one","0","indirect_first","0","la05ph15","1","23","1","1","1","2","null","","","<div class = 'row'><div class = 'column'><img src = 'usneg/6020.bmp' width = '100%;'></div><div class = 'column'><img src = 'category4/CS1.png' width = '70%;'></div></div>","null","neg","CS","CS","4","category4/CS1.png","","","","",""
"","html-keyboard-response","75","358642","0.0-6.0-6.0-0.6","opehl4k9op","many_one","0","indirect_first","0","la05ph15","1","23","1","1","1","2","null","","","<div class = 'row'><div class = 'column'><img src = 'uspos/2340.bmp' width = '100%;'></div><div class = 'column'><img src = 'category3/CS10.png' width = '70%;'></div></div>","null","pos","CS","CS","3","category3/CS10.png","","","","",""
"","html-keyboard-response","76","361182","0.0-6.0-6.0-0.7","opehl4k9op","many_one","0","indirect_first","0","la05ph15","1","23","1","1","1","2","null","","","<div class = 'row'><div class = 'column'><img src = 'category3/CS8.png' width = '70%;'></div><div class = 'column'><img src = 'uspos/7580.bmp' width = '100%;'></div></div>","null","pos","CS","CS","3","category3/CS8.png","","","","",""
"","html-keyboard-response","77","363722","0.0-6.0-6.0-0.8","opehl4k9op","many_one","0","indirect_first","0","la05ph15","1","23","1","1","1","2","null","","","<div class = 'row'><div class = 'column'><img src = 'category3/CS1.png' width = '70%;'></div><div class = 'column'><img src = 'uspos/2530.bmp' width = '100%;'></div></div>","null","pos","CS","CS","3","category3/CS1.png","","","","",""
"","html-keyboard-response","78","366262","0.0-6.0-6.0-0.9","opehl4k9op","many_one","0","indirect_first","0","la05ph15","1","23","1","1","1","2","null","","","<div class = 'row'><div class = 'column'><img src = 'uspos/2208.bmp' width = '100%;'></div><div class = 'column'><img src = 'category2/CS9.png' width = '70%;'></div></div>","null","pos","CS","CS","2","category2/CS9.png","","","","",""
"","html-keyboard-response","79","368801","0.0-6.0-6.0-0.10","opehl4k9op","many_one","0","indirect_first","0","la05ph15","1","23","1","1","1","2","null","","","<div class = 'row'><div class = 'column'><img src = 'category1/CS10.png' width = '70%;'></div><div class = 'column'><img src = 'usneg/9342.bmp' width = '100%;'></div></div>","null","neg","CS","CS","1","category1/CS10.png","","","","",""
"","html-keyboard-response","80","371303","0.0-6.0-6.0-0.11","opehl4k9op","many_one","0","indirect_first","0","la05ph15","1","23","1","1","1","2","null","","","<div class = 'row'><div class = 'column'><img src = 'usneg/9000.bmp' width = '100%;'></div><div class = 'column'><img src = 'category1/CS2.png' width = '70%;'></div></div>","null","neg","CS","CS","1","category1/CS2.png","","","","",""
"","html-keyboard-response","81","373842","0.0-6.0-6.0-0.12","opehl4k9op","many_one","0","indirect_first","0","la05ph15","1","23","1","1","1","2","null","","","<div class = 'row'><div class = 'column'><img src = 'category2/CS2.png' width = '70%;'></div><div class = 'column'><img src = 'uspos/2057.bmp' width = '100%;'></div></div>","null","pos","CS","CS","2","category2/CS2.png","","","","",""
"","html-keyboard-response","82","376382","0.0-6.0-6.0-0.13","opehl4k9op","many_one","0","indirect_first","0","la05ph15","1","23","1","1","1","2","null","","","<div class = 'row'><div class = 'column'><img src = 'uspos/1440.bmp' width = '100%;'></div><div class = 'column'><img src = 'category3/CS7.png' width = '70%;'></div></div>","null","pos","CS","CS","3","category3/CS7.png","","","","",""
"","html-keyboard-response","83","378901","0.0-6.0-6.0-0.14","opehl4k9op","many_one","0","indirect_first","0","la05ph15","1","23","1","1","1","2","null","","","<div class = 'row'><div class = 'column'><img src = 'usneg/3160.bmp' width = '100%;'></div><div class = 'column'><img src = 'category1/CS8.png' width = '70%;'></div></div>","null","neg","CS","CS","1","category1/CS8.png","","","","",""
"","html-keyboard-response","84","381442","0.0-6.0-6.0-0.15","opehl4k9op","many_one","0","indirect_first","0","la05ph15","1","23","1","1","1","2","null","","","<div class = 'row'><div class = 'column'><img src = 'usneg/9561.bmp' width = '100%;'></div><div class = 'column'><img src = 'category4/CS2.png' width = '70%;'></div></div>","null","neg","CS","CS","4","category4/CS2.png","","","","",""
"","html-keyboard-response","85","383981","0.0-6.0-6.0-0.16","opehl4k9op","many_one","0","indirect_first","0","la05ph15","1","23","1","1","1","2","null","","","<div class = 'row'><div class = 'column'><img src = 'category2/CS7.png' width = '70%;'></div><div class = 'column'><img src = 'uspos/5760.bmp' width = '100%;'></div></div>","null","pos","CS","CS","2","category2/CS7.png","","","","",""
"","html-keyboard-response","86","386521","0.0-6.0-6.0-0.17","opehl4k9op","many_one","0","indirect_first","0","la05ph15","1","23","1","1","1","2","null","","","<div class = 'row'><div class = 'column'><img src = 'usneg/9181.bmp' width = '100%;'></div><div class = 'column'><img src = 'category1/CS9.png' width = '70%;'></div></div>","null","neg","CS","CS","1","category1/CS9.png","","","","",""
"","html-keyboard-response","87","389061","0.0-6.0-6.0-0.18","opehl4k9op","many_one","0","indirect_first","0","la05ph15","1","23","1","1","1","2","null","","","<div class = 'row'><div class = 'column'><img src = 'category2/CS6.png' width = '70%;'></div><div class = 'column'><img src = 'uspos/1463.bmp' width = '100%;'></div></div>","null","pos","CS","CS","2","category2/CS6.png","","","","",""
"","html-keyboard-response","88","391601","0.0-6.0-6.0-0.19","opehl4k9op","many_one","0","indirect_first","0","la05ph15","1","23","1","1","1","2","null","","","<div class = 'row'><div class = 'column'><img src = 'category1/CS5.png' width = '70%;'></div><div class = 'column'><img src = 'usneg/2141.bmp' width = '100%;'></div></div>","null","neg","CS","CS","1","category1/CS5.png","","","","",""
"","html-keyboard-response","89","424821","0.0-7.0","opehl4k9op","many_one","0","indirect_first","0","la05ph15","1","23","1","1","1","2","32699","","","<p>Sie sehen nun die chinesischen Zeichen nur ganz kurz. Danach sehen Sie die jeweilige Aussprache der Zeichen als Silbe auf dem Bildschrim. Ihre Aufgabe ist es, für jede Silbe anzugeben, ob diese etwas angenehmes, oder unangenehmes bedeuten könnte. Verlassen Sie sich hier vor allem auf Ihre Intuition.<br><br>Die Zeichen werden nur zur Orientierung dargestellt, beachten Sie sie deshalb nicht. Konzentrieren Sie sich vor allem auf die Silben. <br>Reagieren Sie mit folgenden zwei Tasten: <br><br><b>'D' </b> wenn die Silbe etwas <b>unangenehmes</b> bedeuten könnte. <br><b>'K'</b> wenn die Silbe etwas <b>angenehmes</b> bedeuten könnte. <br><br>Bitte legen Sie nun den Zeigefinger der linken Hand auf die Taste 'D' und den Zeigefinger der rechten Hand auf die Taste 'K'. <br>Reagieren Sie auf jede Silbe so schnell wie möglich. Uns interessiert Ihre spontane Reaktion. <br> <br> <br>Drücken Sie 'D' oder 'K', um die nächste Aufgabe zu starten. </p>","68","","","","","","","","","",""
"","html-keyboard-response","90","427860","0.0-8.0-0.0","opehl4k9op","many_one","0","indirect_first","0","la05ph15","1","23","1","1","1","2","null","","","<div style=""font-size:60px;"">+</div>","null","","","","","","","","","",""
"","html-keyboard-response","91","427960","0.0-8.0-1.0","opehl4k9op","many_one","0","indirect_first","0","la05ph15","1","23","1","1","1","2","null","","","<img src = 'category3/CS1.png' width = '100%;'>","null","","","","","","","","","",""
"","html-keyboard-response","92","428240","0.0-8.0-2.0","opehl4k9op","many_one","0","indirect_first","0","la05ph15","1","23","1","1","1","2","null","","","<img src = 'targets/19.png' width = '100%;'>","null","","","","","","","","","",""
"","html-keyboard-response","93","439988","0.0-8.0-3.0","opehl4k9op","many_one","0","indirect_first","0","la05ph15","1","23","1","1","1","2","11745","","","<img src = 'targets/mask.png' width = '100%;'>","75","pos","CS","CS","3","category3/CS1.png","targets/19.png","1","indirect","0",""
"","html-keyboard-response","94","441520","0.0-8.0-0.1","opehl4k9op","many_one","0","indirect_first","0","la05ph15","1","23","1","1","1","2","null","","","<div style=""font-size:60px;"">+</div>","null","","","","","","","","","",""
"","html-keyboard-response","95","441619","0.0-8.0-1.1","opehl4k9op","many_one","0","indirect_first","0","la05ph15","1","23","1","1","1","2","null","","","<img src = 'category2/CS6.png' width = '100%;'>","null","","","","","","","","","",""
"","html-keyboard-response","96","441900","0.0-8.0-2.1","opehl4k9op","many_one","0","indirect_first","0","la05ph15","1","23","1","1","1","2","null","","","<img src = 'targets/42.png' width = '100%;'>","null","","","","","","","","","",""
"","html-keyboard-response","97","458491","0.0-8.0-3.1","opehl4k9op","many_one","0","indirect_first","0","la05ph15","1","23","1","1","1","2","16590","","","<img src = 'targets/mask.png' width = '100%;'>","75","pos","CS","CS","2","category2/CS6.png","targets/42.png","1","indirect","1",""
"","html-keyboard-response","98","460019","0.0-8.0-0.2","opehl4k9op","many_one","0","indirect_first","0","la05ph15","1","23","1","1","1","2","null","","","<div style=""font-size:60px;"">+</div>","null","","","","","","","","","",""
"","html-keyboard-response","99","460120","0.0-8.0-1.2","opehl4k9op","many_one","0","indirect_first","0","la05ph15","1","23","1","1","1","2","null","","","<img src = 'category1/CS2.png' width = '100%;'>","null","","","","","","","","","",""
"","html-keyboard-response","100","460399","0.0-8.0-2.2","opehl4k9op","many_one","0","indirect_first","0","la05ph15","1","23","1","1","1","2","null","","","<img src = 'targets/31.png' width = '100%;'>","null","","","","","","","","","",""
"","html-keyboard-response","101","462074","0.0-8.0-3.2","opehl4k9op","many_one","0","indirect_first","0","la05ph15","1","23","1","1","1","2","1674","","","<img src = 'targets/mask.png' width = '100%;'>","75","neg","CS","CS","1","category1/CS2.png","targets/31.png","1","indirect","2",""
"","html-keyboard-response","102","463599","0.0-8.0-0.3","opehl4k9op","many_one","0","indirect_first","0","la05ph15","1","23","1","1","1","2","null","","","<div style=""font-size:60px;"">+</div>","null","","","","","","","","","",""
"","html-keyboard-response","103","463699","0.0-8.0-1.3","opehl4k9op","many_one","0","indirect_first","0","la05ph15","1","23","1","1","1","2","null","","","<img src = 'category4/CS4.png' width = '100%;'>","null","","","","","","","","","",""
"","html-keyboard-response","104","463974","0.0-8.0-2.3","opehl4k9op","many_one","0","indirect_first","0","la05ph15","1","23","1","1","1","2","null","","","<img src = 'targets/13.png' width = '100%;'>","null","","","","","","","","","",""
"","html-keyboard-response","105","465779","0.0-8.0-3.3","opehl4k9op","many_one","0","indirect_first","0","la05ph15","1","23","1","1","1","2","1804","","","<img src = 'targets/mask.png' width = '100%;'>","75","neg","CS","CS","4","category4/CS4.png","targets/13.png","1","indirect","3",""
"","html-keyboard-response","106","467289","0.0-8.0-0.4","opehl4k9op","many_one","0","indirect_first","0","la05ph15","1","23","1","1","1","2","null","","","<div style=""font-size:60px;"">+</div>","null","","","","","","","","","",""
"","html-keyboard-response","107","467389","0.0-8.0-1.4","opehl4k9op","many_one","0","indirect_first","0","la05ph15","1","23","1","1","1","2","null","","","<img src = 'category1/CS6.png' width = '100%;'>","null","","","","","","","","","",""
"","html-keyboard-response","108","467669","0.0-8.0-2.4","opehl4k9op","many_one","0","indirect_first","0","la05ph15","1","23","1","1","1","2","null","","","<img src = 'targets/24.png' width = '100%;'>","null","","","","","","","","","",""
"","html-keyboard-response","109","469234","0.0-8.0-3.4","opehl4k9op","many_one","0","indirect_first","0","la05ph15","1","23","1","1","1","2","1563","","","<img src = 'targets/mask.png' width = '100%;'>","75","neg","GS","GSold","1","category1/CS6.png","targets/24.png","1","indirect","4",""
"","html-keyboard-response","110","470759","0.0-8.0-0.5","opehl4k9op","many_one","0","indirect_first","0","la05ph15","1","23","1","1","1","2","null","","","<div style=""font-size:60px;"">+</div>","null","","","","","","","","","",""
"","html-keyboard-response","111","470859","0.0-8.0-1.5","opehl4k9op","many_one","0","indirect_first","0","la05ph15","1","23","1","1","1","2","null","","","<img src = 'category2/CS1.png' width = '100%;'>","null","","","","","","","","","",""
"","html-keyboard-response","112","471138","0.0-8.0-2.5","opehl4k9op","many_one","0","indirect_first","0","la05ph15","1","23","1","1","1","2","null","","","<img src = 'targets/6.png' width = '100%;'>","null","","","","","","","","","",""
"","html-keyboard-response","113","472330","0.0-8.0-3.5","opehl4k9op","many_one","0","indirect_first","0","la05ph15","1","23","1","1","1","2","1190","","","<img src = 'targets/mask.png' width = '100%;'>","68","pos","GS","GSold","2","category2/CS1.png","targets/6.png","0","indirect","5",""
"","html-keyboard-response","114","473858","0.0-8.0-0.6","opehl4k9op","many_one","0","indirect_first","0","la05ph15","1","23","1","1","1","2","null","","","<div style=""font-size:60px;"">+</div>","null","","","","","","","","","",""
"","html-keyboard-response","115","473959","0.0-8.0-1.6","opehl4k9op","many_one","0","indirect_first","0","la05ph15","1","23","1","1","1","2","null","","","<img src = 'category3/CS2.png' width = '100%;'>","null","","","","","","","","","",""
"","html-keyboard-response","116","474239","0.0-8.0-2.6","opehl4k9op","many_one","0","indirect_first","0","la05ph15","1","23","1","1","1","2","null","","","<img src = 'targets/4.png' width = '100%;'>","null","","","","","","","","","",""
"","html-keyboard-response","117","475330","0.0-8.0-3.6","opehl4k9op","many_one","0","indirect_first","0","la05ph15","1","23","1","1","1","2","1090","","","<img src = 'targets/mask.png' width = '100%;'>","68","pos","CS","CS","3","category3/CS2.png","targets/4.png","0","indirect","6",""
"","html-keyboard-response","118","476859","0.0-8.0-0.7","opehl4k9op","many_one","0","indirect_first","0","la05ph15","1","23","1","1","1","2","null","","","<div style=""font-size:60px;"">+</div>","null","","","","","","","","","",""
"","html-keyboard-response","119","476959","0.0-8.0-1.7","opehl4k9op","many_one","0","indirect_first","0","la05ph15","1","23","1","1","1","2","null","","","<img src = 'category1/CS1.png' width = '100%;'>","null","","","","","","","","","",""
"","html-keyboard-response","120","477239","0.0-8.0-2.7","opehl4k9op","many_one","0","indirect_first","0","la05ph15","1","23","1","1","1","2","null","","","<img src = 'targets/2.png' width = '100%;'>","null","","","","","","","","","",""
"","html-keyboard-response","121","480739","0.0-8.0-3.7","opehl4k9op","many_one","0","indirect_first","0","la05ph15","1","23","1","1","1","2","3499","","","<img src = 'targets/mask.png' width = '100%;'>","68","neg","GS","GSold","1","category1/CS1.png","targets/2.png","0","indirect","7",""
"","html-keyboard-response","122","482259","0.0-8.0-0.8","opehl4k9op","many_one","0","indirect_first","0","la05ph15","1","23","1","1","1","2","null","","","<div style=""font-size:60px;"">+</div>","null","","","","","","","","","",""
"","html-keyboard-response","123","482359","0.0-8.0-1.8","opehl4k9op","many_one","0","indirect_first","0","la05ph15","1","23","1","1","1","2","null","","","<img src = 'category4/CS3.png' width = '100%;'>","null","","","","","","","","","",""
"","html-keyboard-response","124","482639","0.0-8.0-2.8","opehl4k9op","many_one","0","indirect_first","0","la05ph15","1","23","1","1","1","2","null","","","<img src = 'targets/16.png' width = '100%;'>","null","","","","","","","","","",""
"","html-keyboard-response","125","484426","0.0-8.0-3.8","opehl4k9op","many_one","0","indirect_first","0","la05ph15","1","23","1","1","1","2","1786","","","<img src = 'targets/mask.png' width = '100%;'>","68","neg","CS","CS","4","category4/CS3.png","targets/16.png","0","indirect","8",""
"","html-keyboard-response","126","485958","0.0-8.0-0.9","opehl4k9op","many_one","0","indirect_first","0","la05ph15","1","23","1","1","1","2","null","","","<div style=""font-size:60px;"">+</div>","null","","","","","","","","","",""
"","html-keyboard-response","127","486059","0.0-8.0-1.9","opehl4k9op","many_one","0","indirect_first","0","la05ph15","1","23","1","1","1","2","null","","","<img src = 'category1/CS3.png' width = '100%;'>","null","","","","","","","","","",""
"","html-keyboard-response","128","486339","0.0-8.0-2.9","opehl4k9op","many_one","0","indirect_first","0","la05ph15","1","23","1","1","1","2","null","","","<img src = 'targets/22.png' width = '100%;'>","null","","","","","","","","","",""
"","html-keyboard-response","129","489523","0.0-8.0-3.9","opehl4k9op","many_one","0","indirect_first","0","la05ph15","1","23","1","1","1","2","3182","","","<img src = 'targets/mask.png' width = '100%;'>","68","neg","GS","GSold","1","category1/CS3.png","targets/22.png","0","indirect","9",""
"","html-keyboard-response","130","491039","0.0-8.0-0.10","opehl4k9op","many_one","0","indirect_first","0","la05ph15","1","23","1","1","1","2","null","","","<div style=""font-size:60px;"">+</div>","null","","","","","","","","","",""
"","html-keyboard-response","131","491140","0.0-8.0-1.10","opehl4k9op","many_one","0","indirect_first","0","la05ph15","1","23","1","1","1","2","null","","","<img src = 'category2/CS5.png' width = '100%;'>","null","","","","","","","","","",""
"","html-keyboard-response","132","491419","0.0-8.0-2.10","opehl4k9op","many_one","0","indirect_first","0","la05ph15","1","23","1","1","1","2","null","","","<img src = 'targets/3.png' width = '100%;'>","null","","","","","","","","","",""
"","html-keyboard-response","133","494058","0.0-8.0-3.10","opehl4k9op","many_one","0","indirect_first","0","la05ph15","1","23","1","1","1","2","2638","","","<img src = 'targets/mask.png' width = '100%;'>","75","pos","CS","CS","2","category2/CS5.png","targets/3.png","1","indirect","10",""
"","html-keyboard-response","134","495579","0.0-8.0-0.11","opehl4k9op","many_one","0","indirect_first","0","la05ph15","1","23","1","1","1","2","null","","","<div style=""font-size:60px;"">+</div>","null","","","","","","","","","",""
"","html-keyboard-response","135","495679","0.0-8.0-1.11","opehl4k9op","many_one","0","indirect_first","0","la05ph15","1","23","1","1","1","2","null","","","<img src = 'category4/CS1.png' width = '100%;'>","null","","","","","","","","","",""
"","html-keyboard-response","136","495959","0.0-8.0-2.11","opehl4k9op","many_one","0","indirect_first","0","la05ph15","1","23","1","1","1","2","null","","","<img src = 'targets/25.png' width = '100%;'>","null","","","","","","","","","",""
"","html-keyboard-response","137","498970","0.0-8.0-3.11","opehl4k9op","many_one","0","indirect_first","0","la05ph15","1","23","1","1","1","2","3010","","","<img src = 'targets/mask.png' width = '100%;'>","75","neg","CS","CS","4","category4/CS1.png","targets/25.png","1","indirect","11",""
"","html-keyboard-response","138","500499","0.0-8.0-0.12","opehl4k9op","many_one","0","indirect_first","0","la05ph15","1","23","1","1","1","2","null","","","<div style=""font-size:60px;"">+</div>","null","","","","","","","","","",""
"","html-keyboard-response","139","500599","0.0-8.0-1.12","opehl4k9op","many_one","0","indirect_first","0","la05ph15","1","23","1","1","1","2","null","","","<img src = 'category1/CS5.png' width = '100%;'>","null","","","","","","","","","",""
"","html-keyboard-response","140","500879","0.0-8.0-2.12","opehl4k9op","many_one","0","indirect_first","0","la05ph15","1","23","1","1","1","2","null","","","<img src = 'targets/32.png' width = '100%;'>","null","","","","","","","","","",""
"","html-keyboard-response","141","503554","0.0-8.0-3.12","opehl4k9op","many_one","0","indirect_first","0","la05ph15","1","23","1","1","1","2","2674","","","<img src = 'targets/mask.png' width = '100%;'>","75","neg","CS","CS","1","category1/CS5.png","targets/32.png","1","indirect","12",""
"","html-keyboard-response","142","505079","0.0-8.0-0.13","opehl4k9op","many_one","0","indirect_first","0","la05ph15","1","23","1","1","1","2","null","","","<div style=""font-size:60px;"">+</div>","null","","","","","","","","","",""
"","html-keyboard-response","143","505179","0.0-8.0-1.13","opehl4k9op","many_one","0","indirect_first","0","la05ph15","1","23","1","1","1","2","null","","","<img src = 'category2/CS7.png' width = '100%;'>","null","","","","","","","","","",""
"","html-keyboard-response","144","505459","0.0-8.0-2.13","opehl4k9op","many_one","0","indirect_first","0","la05ph15","1","23","1","1","1","2","null","","","<img src = 'targets/36.png' width = '100%;'>","null","","","","","","","","","",""
"","html-keyboard-response","145","507306","0.0-8.0-3.13","opehl4k9op","many_one","0","indirect_first","0","la05ph15","1","23","1","1","1","2","1847","","","<img src = 'targets/mask.png' width = '100%;'>","68","pos","CS","CS","2","category2/CS7.png","targets/36.png","0","indirect","13",""
"","html-keyboard-response","146","508839","0.0-8.0-0.14","opehl4k9op","many_one","0","indirect_first","0","la05ph15","1","23","1","1","1","2","null","","","<div style=""font-size:60px;"">+</div>","null","","","","","","","","","",""
"","html-keyboard-response","147","508940","0.0-8.0-1.14","opehl4k9op","many_one","0","indirect_first","0","la05ph15","1","23","1","1","1","2","null","","","<img src = 'category1/CS10.png' width = '100%;'>","null","","","","","","","","","",""
"","html-keyboard-response","148","509219","0.0-8.0-2.14","opehl4k9op","many_one","0","indirect_first","0","la05ph15","1","23","1","1","1","2","null","","","<img src = 'targets/48.png' width = '100%;'>","null","","","","","","","","","",""
"","html-keyboard-response","149","510090","0.0-8.0-3.14","opehl4k9op","many_one","0","indirect_first","0","la05ph15","1","23","1","1","1","2","871","","","<img src = 'targets/mask.png' width = '100%;'>","68","neg","CS","CS","1","category1/CS10.png","targets/48.png","0","indirect","14",""
"","html-keyboard-response","150","511619","0.0-8.0-0.15","opehl4k9op","many_one","0","indirect_first","0","la05ph15","1","23","1","1","1","2","null","","","<div style=""font-size:60px;"">+</div>","null","","","","","","","","","",""
"","html-keyboard-response","151","511719","0.0-8.0-1.15","opehl4k9op","many_one","0","indirect_first","0","la05ph15","1","23","1","1","1","2","null","","","<img src = 'category3/CS10.png' width = '100%;'>","null","","","","","","","","","",""
"","html-keyboard-response","152","511999","0.0-8.0-2.15","opehl4k9op","many_one","0","indirect_first","0","la05ph15","1","23","1","1","1","2","null","","","<img src = 'targets/21.png' width = '100%;'>","null","","","","","","","","","",""
"","html-keyboard-response","153","512634","0.0-8.0-3.15","opehl4k9op","many_one","0","indirect_first","0","la05ph15","1","23","1","1","1","2","634","","","<img src = 'targets/mask.png' width = '100%;'>","68","pos","CS","CS","3","category3/CS10.png","targets/21.png","0","indirect","15",""
"","html-keyboard-response","154","514158","0.0-8.0-0.16","opehl4k9op","many_one","0","indirect_first","0","la05ph15","1","23","1","1","1","2","null","","","<div style=""font-size:60px;"">+</div>","null","","","","","","","","","",""
"","html-keyboard-response","155","514259","0.0-8.0-1.16","opehl4k9op","many_one","0","indirect_first","0","la05ph15","1","23","1","1","1","2","null","","","<img src = 'category1/CS8.png' width = '100%;'>","null","","","","","","","","","",""
"","html-keyboard-response","156","514539","0.0-8.0-2.16","opehl4k9op","many_one","0","indirect_first","0","la05ph15","1","23","1","1","1","2","null","","","<img src = 'targets/28.png' width = '100%;'>","null","","","","","","","","","",""
"","html-keyboard-response","157","515850","0.0-8.0-3.16","opehl4k9op","many_one","0","indirect_first","0","la05ph15","1","23","1","1","1","2","1310","","","<img src = 'targets/mask.png' width = '100%;'>","68","neg","CS","CS","1","category1/CS8.png","targets/28.png","0","indirect","16",""
"","html-keyboard-response","158","517379","0.0-8.0-0.17","opehl4k9op","many_one","0","indirect_first","0","la05ph15","1","23","1","1","1","2","null","","","<div style=""font-size:60px;"">+</div>","null","","","","","","","","","",""
"","html-keyboard-response","159","517479","0.0-8.0-1.17","opehl4k9op","many_one","0","indirect_first","0","la05ph15","1","23","1","1","1","2","null","","","<img src = 'category2/CS2.png' width = '100%;'>","null","","","","","","","","","",""
"","html-keyboard-response","160","517758","0.0-8.0-2.17","opehl4k9op","many_one","0","indirect_first","0","la05ph15","1","23","1","1","1","2","null","","","<img src = 'targets/17.png' width = '100%;'>","null","","","","","","","","","",""
"","html-keyboard-response","161","518362","0.0-8.0-3.17","opehl4k9op","many_one","0","indirect_first","0","la05ph15","1","23","1","1","1","2","601","","","<img src = 'targets/mask.png' width = '100%;'>","68","pos","CS","CS","2","category2/CS2.png","targets/17.png","0","indirect","17",""
"","html-keyboard-response","162","519879","0.0-8.0-0.18","opehl4k9op","many_one","0","indirect_first","0","la05ph15","1","23","1","1","1","2","null","","","<div style=""font-size:60px;"">+</div>","null","","","","","","","","","",""
"","html-keyboard-response","163","519978","0.0-8.0-1.18","opehl4k9op","many_one","0","indirect_first","0","la05ph15","1","23","1","1","1","2","null","","","<img src = 'category4/CS2.png' width = '100%;'>","null","","","","","","","","","",""
"","html-keyboard-response","164","520260","0.0-8.0-2.18","opehl4k9op","many_one","0","indirect_first","0","la05ph15","1","23","1","1","1","2","null","","","<img src = 'targets/35.png' width = '100%;'>","null","","","","","","","","","",""
"","html-keyboard-response","165","520866","0.0-8.0-3.18","opehl4k9op","many_one","0","indirect_first","0","la05ph15","1","23","1","1","1","2","605","","","<img src = 'targets/mask.png' width = '100%;'>","75","neg","CS","CS","4","category4/CS2.png","targets/35.png","1","indirect","18",""
"","html-keyboard-response","166","522389","0.0-8.0-0.19","opehl4k9op","many_one","0","indirect_first","0","la05ph15","1","23","1","1","1","2","null","","","<div style=""font-size:60px;"">+</div>","null","","","","","","","","","",""
"","html-keyboard-response","167","522488","0.0-8.0-1.19","opehl4k9op","many_one","0","indirect_first","0","la05ph15","1","23","1","1","1","2","null","","","<img src = 'category1/CS9.png' width = '100%;'>","null","","","","","","","","","",""
"","html-keyboard-response","168","522768","0.0-8.0-2.19","opehl4k9op","many_one","0","indirect_first","0","la05ph15","1","23","1","1","1","2","null","","","<img src = 'targets/27.png' width = '100%;'>","null","","","","","","","","","",""
"","html-keyboard-response","169","524402","0.0-8.0-3.19","opehl4k9op","many_one","0","indirect_first","0","la05ph15","1","23","1","1","1","2","1632","","","<img src = 'targets/mask.png' width = '100%;'>","75","neg","CS","CS","1","category1/CS9.png","targets/27.png","1","indirect","19",""
"","html-keyboard-response","170","525919","0.0-8.0-0.20","opehl4k9op","many_one","0","indirect_first","0","la05ph15","1","23","1","1","1","2","null","","","<div style=""font-size:60px;"">+</div>","null","","","","","","","","","",""
"","html-keyboard-response","171","526019","0.0-8.0-1.20","opehl4k9op","many_one","0","indirect_first","0","la05ph15","1","23","1","1","1","2","null","","","<img src = 'category3/CS7.png' width = '100%;'>","null","","","","","","","","","",""
"","html-keyboard-response","172","526299","0.0-8.0-2.20","opehl4k9op","many_one","0","indirect_first","0","la05ph15","1","23","1","1","1","2","null","","","<img src = 'targets/45.png' width = '100%;'>","null","","","","","","","","","",""
"","html-keyboard-response","173","526826","0.0-8.0-3.20","opehl4k9op","many_one","0","indirect_first","0","la05ph15","1","23","1","1","1","2","527","","","<img src = 'targets/mask.png' width = '100%;'>","68","pos","CS","CS","3","category3/CS7.png","targets/45.png","0","indirect","20",""
"","html-keyboard-response","174","528359","0.0-8.0-0.21","opehl4k9op","many_one","0","indirect_first","0","la05ph15","1","23","1","1","1","2","null","","","<div style=""font-size:60px;"">+</div>","null","","","","","","","","","",""
"","html-keyboard-response","175","528459","0.0-8.0-1.21","opehl4k9op","many_one","0","indirect_first","0","la05ph15","1","23","1","1","1","2","null","","","<img src = 'category2/CS9.png' width = '100%;'>","null","","","","","","","","","",""
"","html-keyboard-response","176","528739","0.0-8.0-2.21","opehl4k9op","many_one","0","indirect_first","0","la05ph15","1","23","1","1","1","2","null","","","<img src = 'targets/41.png' width = '100%;'>","null","","","","","","","","","",""
"","html-keyboard-response","177","530338","0.0-8.0-3.21","opehl4k9op","many_one","0","indirect_first","0","la05ph15","1","23","1","1","1","2","1597","","","<img src = 'targets/mask.png' width = '100%;'>","68","pos","CS","CS","2","category2/CS9.png","targets/41.png","0","indirect","21",""
"","html-keyboard-response","178","531869","0.0-8.0-0.22","opehl4k9op","many_one","0","indirect_first","0","la05ph15","1","23","1","1","1","2","null","","","<div style=""font-size:60px;"">+</div>","null","","","","","","","","","",""
"","html-keyboard-response","179","531968","0.0-8.0-1.22","opehl4k9op","many_one","0","indirect_first","0","la05ph15","1","23","1","1","1","2","null","","","<img src = 'category3/CS8.png' width = '100%;'>","null","","","","","","","","","",""
"","html-keyboard-response","180","532248","0.0-8.0-2.22","opehl4k9op","many_one","0","indirect_first","0","la05ph15","1","23","1","1","1","2","null","","","<img src = 'targets/5.png' width = '100%;'>","null","","","","","","","","","",""
"","html-keyboard-response","181","533810","0.0-8.0-3.22","opehl4k9op","many_one","0","indirect_first","0","la05ph15","1","23","1","1","1","2","1560","","","<img src = 'targets/mask.png' width = '100%;'>","75","pos","CS","CS","3","category3/CS8.png","targets/5.png","1","indirect","22",""
"","html-keyboard-response","182","535349","0.0-8.0-0.23","opehl4k9op","many_one","0","indirect_first","0","la05ph15","1","23","1","1","1","2","null","","","<div style=""font-size:60px;"">+</div>","null","","","","","","","","","",""
"","html-keyboard-response","183","535449","0.0-8.0-1.23","opehl4k9op","many_one","0","indirect_first","0","la05ph15","1","23","1","1","1","2","null","","","<img src = 'category4/CS5.png' width = '100%;'>","null","","","","","","","","","",""
"","html-keyboard-response","184","535729","0.0-8.0-2.23","opehl4k9op","many_one","0","indirect_first","0","la05ph15","1","23","1","1","1","2","null","","","<img src = 'targets/33.png' width = '100%;'>","null","","","","","","","","","",""
"","html-keyboard-response","185","536426","0.0-8.0-3.23","opehl4k9op","many_one","0","indirect_first","0","la05ph15","1","23","1","1","1","2","696","","","<img src = 'targets/mask.png' width = '100%;'>","75","neg","CS","CS","4","category4/CS5.png","targets/33.png","1","indirect","23",""
"","survey-html-form","186","541242","0.0-9.0","opehl4k9op","many_one","0","indirect_first","0","la05ph15","1","23","1","1","1","2","4313","","{}","","","","","","","","","","","",""
"","html-keyboard-response","187","544275","0.0-10.0-0.0","opehl4k9op","many_one","0","indirect_first","0","la05ph15","1","23","1","1","1","2","null","","","<div style=""font-size:60px;"">+</div>","null","","","","","","","","","",""
"","html-keyboard-response","188","544375","0.0-10.0-1.0","opehl4k9op","many_one","0","indirect_first","0","la05ph15","1","23","1","1","1","2","null","","","<img src = 'category4/CS7.png' width = '100%;'>","null","","","","","","","","","",""
"","html-keyboard-response","189","544659","0.0-10.0-2.0","opehl4k9op","many_one","0","indirect_first","0","la05ph15","1","23","1","1","1","2","null","","","<img src = 'targets/26.png' width = '100%;'>","null","","","","","","","","","",""
"","html-keyboard-response","190","545690","0.0-10.0-3.0","opehl4k9op","many_one","0","indirect_first","0","la05ph15","1","23","1","1","1","2","1029","","","<img src = 'targets/mask.png' width = '100%;'>","68","neg","GS","GSold","4","category4/CS7.png","targets/26.png","0","indirect","24",""
"","html-keyboard-response","191","547199","0.0-10.0-0.1","opehl4k9op","many_one","0","indirect_first","0","la05ph15","1","23","1","1","1","2","null","","","<div style=""font-size:60px;"">+</div>","null","","","","","","","","","",""
"","html-keyboard-response","192","547299","0.0-10.0-1.1","opehl4k9op","many_one","0","indirect_first","0","la05ph15","1","23","1","1","1","2","null","","","<img src = 'category2/CS4.png' width = '100%;'>","null","","","","","","","","","",""
"","html-keyboard-response","193","547579","0.0-10.0-2.1","opehl4k9op","many_one","0","indirect_first","0","la05ph15","1","23","1","1","1","2","null","","","<img src = 'targets/44.png' width = '100%;'>","null","","","","","","","","","",""
"","html-keyboard-response","194","548410","0.0-10.0-3.1","opehl4k9op","many_one","0","indirect_first","0","la05ph15","1","23","1","1","1","2","831","","","<img src = 'targets/mask.png' width = '100%;'>","68","pos","GS","GSold","2","category2/CS4.png","targets/44.png","0","indirect","25",""
"","html-keyboard-response","195","549919","0.0-10.0-0.2","opehl4k9op","many_one","0","indirect_first","0","la05ph15","1","23","1","1","1","2","null","","","<div style=""font-size:60px;"">+</div>","null","","","","","","","","","",""
"","html-keyboard-response","196","550019","0.0-10.0-1.2","opehl4k9op","many_one","0","indirect_first","0","la05ph15","1","23","1","1","1","2","null","","","<img src = 'category4/GS2.png' width = '100%;'>","null","","","","","","","","","",""
"","html-keyboard-response","197","550299","0.0-10.0-2.2","opehl4k9op","many_one","0","indirect_first","0","la05ph15","1","23","1","1","1","2","null","","","<img src = 'targets/46.png' width = '100%;'>","null","","","","","","","","","",""
"","html-keyboard-response","198","551002","0.0-10.0-3.2","opehl4k9op","many_one","0","indirect_first","0","la05ph15","1","23","1","1","1","2","701","","","<img src = 'targets/mask.png' width = '100%;'>","68","neg","GS","GSnew","4","category4/GS2.png","targets/46.png","0","indirect","26",""
"","html-keyboard-response","199","552539","0.0-10.0-0.3","opehl4k9op","many_one","0","indirect_first","0","la05ph15","1","23","1","1","1","2","null","","","<div style=""font-size:60px;"">+</div>","null","","","","","","","","","",""
"","html-keyboard-response","200","552639","0.0-10.0-1.3","opehl4k9op","many_one","0","indirect_first","0","la05ph15","1","23","1","1","1","2","null","","","<img src = 'category4/GS1.png' width = '100%;'>","null","","","","","","","","","",""
"","html-keyboard-response","201","552909","0.0-10.0-2.3","opehl4k9op","many_one","0","indirect_first","0","la05ph15","1","23","1","1","1","2","null","","","<img src = 'targets/18.png' width = '100%;'>","null","","","","","","","","","",""
"","html-keyboard-response","202","553650","0.0-10.0-3.3","opehl4k9op","many_one","0","indirect_first","0","la05ph15","1","23","1","1","1","2","739","","","<img src = 'targets/mask.png' width = '100%;'>","68","neg","GS","GSnew","4","category4/GS1.png","targets/18.png","0","indirect","27",""
"","html-keyboard-response","203","555160","0.0-10.0-0.4","opehl4k9op","many_one","0","indirect_first","0","la05ph15","1","23","1","1","1","2","null","","","<div style=""font-size:60px;"">+</div>","null","","","","","","","","","",""
"","html-keyboard-response","204","555251","0.0-10.0-1.4","opehl4k9op","many_one","0","indirect_first","0","la05ph15","1","23","1","1","1","2","null","","","<img src = 'category2/GS1.png' width = '100%;'>","null","","","","","","","","","",""
"","html-keyboard-response","205","555519","0.0-10.0-2.4","opehl4k9op","many_one","0","indirect_first","0","la05ph15","1","23","1","1","1","2","null","","","<img src = 'targets/37.png' width = '100%;'>","null","","","","","","","","","",""
"","html-keyboard-response","206","557770","0.0-10.0-3.4","opehl4k9op","many_one","0","indirect_first","0","la05ph15","1","23","1","1","1","2","2249","","","<img src = 'targets/mask.png' width = '100%;'>","75","pos","GS","GSnew","2","category2/GS1.png","targets/37.png","1","indirect","28",""
"","html-keyboard-response","207","559279","0.0-10.0-0.5","opehl4k9op","many_one","0","indirect_first","0","la05ph15","1","23","1","1","1","2","null","","","<div style=""font-size:60px;"">+</div>","null","","","","","","","","","",""
"","html-keyboard-response","208","559379","0.0-10.0-1.5","opehl4k9op","many_one","0","indirect_first","0","la05ph15","1","23","1","1","1","2","null","","","<img src = 'category3/GS1.png' width = '100%;'>","null","","","","","","","","","",""
"","html-keyboard-response","209","559659","0.0-10.0-2.5","opehl4k9op","many_one","0","indirect_first","0","la05ph15","1","23","1","1","1","2","null","","","<img src = 'targets/11.png' width = '100%;'>","null","","","","","","","","","",""
"","html-keyboard-response","210","560441","0.0-10.0-3.5","opehl4k9op","many_one","0","indirect_first","0","la05ph15","1","23","1","1","1","2","782","","","<img src = 'targets/mask.png' width = '100%;'>","75","pos","GS","GSnew","3","category3/GS1.png","targets/11.png","1","indirect","29",""
"","html-keyboard-response","211","561969","0.0-10.0-0.6","opehl4k9op","many_one","0","indirect_first","0","la05ph15","1","23","1","1","1","2","null","","","<div style=""font-size:60px;"">+</div>","null","","","","","","","","","",""
"","html-keyboard-response","212","562069","0.0-10.0-1.6","opehl4k9op","many_one","0","indirect_first","0","la05ph15","1","23","1","1","1","2","null","","","<img src = 'category2/CS10.png' width = '100%;'>","null","","","","","","","","","",""
"","html-keyboard-response","213","562349","0.0-10.0-2.6","opehl4k9op","many_one","0","indirect_first","0","la05ph15","1","23","1","1","1","2","null","","","<img src = 'targets/20.png' width = '100%;'>","null","","","","","","","","","",""
"","html-keyboard-response","214","563250","0.0-10.0-3.6","opehl4k9op","many_one","0","indirect_first","0","la05ph15","1","23","1","1","1","2","900","","","<img src = 'targets/mask.png' width = '100%;'>","75","pos","GS","GSold","2","category2/CS10.png","targets/20.png","1","indirect","30",""
"","html-keyboard-response","215","564789","0.0-10.0-0.7","opehl4k9op","many_one","0","indirect_first","0","la05ph15","1","23","1","1","1","2","null","","","<div style=""font-size:60px;"">+</div>","null","","","","","","","","","",""
"","html-keyboard-response","216","564889","0.0-10.0-1.7","opehl4k9op","many_one","0","indirect_first","0","la05ph15","1","23","1","1","1","2","null","","","<img src = 'category3/wang.png' width = '100%;'>","null","","","","","","","","","",""
"","html-keyboard-response","217","565168","0.0-10.0-2.7","opehl4k9op","many_one","0","indirect_first","0","la05ph15","1","23","1","1","1","2","null","","","<img src = 'targets/40.png' width = '100%;'>","null","","","","","","","","","",""
"","html-keyboard-response","218","565986","0.0-10.0-3.7","opehl4k9op","many_one","0","indirect_first","0","la05ph15","1","23","1","1","1","2","817","","","<img src = 'targets/mask.png' width = '100%;'>","68","pos","GS","abstract","3","category3/wang.png","targets/40.png","0","indirect","31",""
"","html-keyboard-response","219","567509","0.0-10.0-0.8","opehl4k9op","many_one","0","indirect_first","0","la05ph15","1","23","1","1","1","2","null","","","<div style=""font-size:60px;"">+</div>","null","","","","","","","","","",""
"","html-keyboard-response","220","567608","0.0-10.0-1.8","opehl4k9op","many_one","0","indirect_first","0","la05ph15","1","23","1","1","1","2","null","","","<img src = 'category3/GS2.png' width = '100%;'>","null","","","","","","","","","",""
"","html-keyboard-response","221","567889","0.0-10.0-2.8","opehl4k9op","many_one","0","indirect_first","0","la05ph15","1","23","1","1","1","2","null","","","<img src = 'targets/7.png' width = '100%;'>","null","","","","","","","","","",""
"","html-keyboard-response","222","569378","0.0-10.0-3.8","opehl4k9op","many_one","0","indirect_first","0","la05ph15","1","23","1","1","1","2","1488","","","<img src = 'targets/mask.png' width = '100%;'>","68","pos","GS","GSnew","3","category3/GS2.png","targets/7.png","0","indirect","32",""
"","html-keyboard-response","223","570889","0.0-10.0-0.9","opehl4k9op","many_one","0","indirect_first","0","la05ph15","1","23","1","1","1","2","null","","","<div style=""font-size:60px;"">+</div>","null","","","","","","","","","",""
"","html-keyboard-response","224","570989","0.0-10.0-1.9","opehl4k9op","many_one","0","indirect_first","0","la05ph15","1","23","1","1","1","2","null","","","<img src = 'category4/GS3.png' width = '100%;'>","null","","","","","","","","","",""
"","html-keyboard-response","225","571269","0.0-10.0-2.9","opehl4k9op","many_one","0","indirect_first","0","la05ph15","1","23","1","1","1","2","null","","","<img src = 'targets/10.png' width = '100%;'>","null","","","","","","","","","",""
"","html-keyboard-response","226","572546","0.0-10.0-3.9","opehl4k9op","many_one","0","indirect_first","0","la05ph15","1","23","1","1","1","2","1275","","","<img src = 'targets/mask.png' width = '100%;'>","75","neg","GS","GSnew","4","category4/GS3.png","targets/10.png","1","indirect","33",""
"","html-keyboard-response","227","574068","0.0-10.0-0.10","opehl4k9op","many_one","0","indirect_first","0","la05ph15","1","23","1","1","1","2","null","","","<div style=""font-size:60px;"">+</div>","null","","","","","","","","","",""
"","html-keyboard-response","228","574169","0.0-10.0-1.10","opehl4k9op","many_one","0","indirect_first","0","la05ph15","1","23","1","1","1","2","null","","","<img src = 'category4/CS8.png' width = '100%;'>","null","","","","","","","","","",""
"","html-keyboard-response","229","574449","0.0-10.0-2.10","opehl4k9op","many_one","0","indirect_first","0","la05ph15","1","23","1","1","1","2","null","","","<img src = 'targets/14.png' width = '100%;'>","null","","","","","","","","","",""
"","html-keyboard-response","230","575954","0.0-10.0-3.10","opehl4k9op","many_one","0","indirect_first","0","la05ph15","1","23","1","1","1","2","1504","","","<img src = 'targets/mask.png' width = '100%;'>","75","neg","GS","GSold","4","category4/CS8.png","targets/14.png","1","indirect","34",""
"","html-keyboard-response","231","577479","0.0-10.0-0.11","opehl4k9op","many_one","0","indirect_first","0","la05ph15","1","23","1","1","1","2","null","","","<div style=""font-size:60px;"">+</div>","null","","","","","","","","","",""
"","html-keyboard-response","232","577579","0.0-10.0-1.11","opehl4k9op","many_one","0","indirect_first","0","la05ph15","1","23","1","1","1","2","null","","","<img src = 'category1/GS1.png' width = '100%;'>","null","","","","","","","","","",""
"","html-keyboard-response","233","577859","0.0-10.0-2.11","opehl4k9op","many_one","0","indirect_first","0","la05ph15","1","23","1","1","1","2","null","","","<img src = 'targets/23.png' width = '100%;'>","null","","","","","","","","","",""
"","html-keyboard-response","234","579762","0.0-10.0-3.11","opehl4k9op","many_one","0","indirect_first","0","la05ph15","1","23","1","1","1","2","1901","","","<img src = 'targets/mask.png' width = '100%;'>","75","neg","GS","GSnew","1","category1/GS1.png","targets/23.png","1","indirect","35",""
"","html-keyboard-response","235","581289","0.0-10.0-0.12","opehl4k9op","many_one","0","indirect_first","0","la05ph15","1","23","1","1","1","2","null","","","<div style=""font-size:60px;"">+</div>","null","","","","","","","","","",""
"","html-keyboard-response","236","581389","0.0-10.0-1.12","opehl4k9op","many_one","0","indirect_first","0","la05ph15","1","23","1","1","1","2","null","","","<img src = 'category2/GS3.png' width = '100%;'>","null","","","","","","","","","",""
"","html-keyboard-response","237","581669","0.0-10.0-2.12","opehl4k9op","many_one","0","indirect_first","0","la05ph15","1","23","1","1","1","2","null","","","<img src = 'targets/34.png' width = '100%;'>","null","","","","","","","","","",""
"","html-keyboard-response","238","585978","0.0-10.0-3.12","opehl4k9op","many_one","0","indirect_first","0","la05ph15","1","23","1","1","1","2","4309","","","<img src = 'targets/mask.png' width = '100%;'>","68","pos","GS","GSnew","2","category2/GS3.png","targets/34.png","0","indirect","36",""
"","html-keyboard-response","239","587489","0.0-10.0-0.13","opehl4k9op","many_one","0","indirect_first","0","la05ph15","1","23","1","1","1","2","null","","","<div style=""font-size:60px;"">+</div>","null","","","","","","","","","",""
"","html-keyboard-response","240","587589","0.0-10.0-1.13","opehl4k9op","many_one","0","indirect_first","0","la05ph15","1","23","1","1","1","2","null","","","<img src = 'category1/ma.png' width = '100%;'>","null","","","","","","","","","",""
"","html-keyboard-response","241","587869","0.0-10.0-2.13","opehl4k9op","many_one","0","indirect_first","0","la05ph15","1","23","1","1","1","2","null","","","<img src = 'targets/39.png' width = '100%;'>","null","","","","","","","","","",""
"","html-keyboard-response","242","588594","0.0-10.0-3.13","opehl4k9op","many_one","0","indirect_first","0","la05ph15","1","23","1","1","1","2","724","","","<img src = 'targets/mask.png' width = '100%;'>","75","neg","GS","abstract","1","category1/ma.png","targets/39.png","1","indirect","37",""
"","html-keyboard-response","243","590108","0.0-10.0-0.14","opehl4k9op","many_one","0","indirect_first","0","la05ph15","1","23","1","1","1","2","null","","","<div style=""font-size:60px;"">+</div>","null","","","","","","","","","",""
"","html-keyboard-response","244","590208","0.0-10.0-1.14","opehl4k9op","many_one","0","indirect_first","0","la05ph15","1","23","1","1","1","2","null","","","<img src = 'category2/GS2.png' width = '100%;'>","null","","","","","","","","","",""
"","html-keyboard-response","245","590489","0.0-10.0-2.14","opehl4k9op","many_one","0","indirect_first","0","la05ph15","1","23","1","1","1","2","null","","","<img src = 'targets/9.png' width = '100%;'>","null","","","","","","","","","",""
"","html-keyboard-response","246","591202","0.0-10.0-3.14","opehl4k9op","many_one","0","indirect_first","0","la05ph15","1","23","1","1","1","2","710","","","<img src = 'targets/mask.png' width = '100%;'>","75","pos","GS","GSnew","2","category2/GS2.png","targets/9.png","1","indirect","38",""
"","html-keyboard-response","247","592729","0.0-10.0-0.15","opehl4k9op","many_one","0","indirect_first","0","la05ph15","1","23","1","1","1","2","null","","","<div style=""font-size:60px;"">+</div>","null","","","","","","","","","",""
"","html-keyboard-response","248","592829","0.0-10.0-1.15","opehl4k9op","many_one","0","indirect_first","0","la05ph15","1","23","1","1","1","2","null","","","<img src = 'category4/lin.png' width = '100%;'>","null","","","","","","","","","",""
"","html-keyboard-response","249","593109","0.0-10.0-2.15","opehl4k9op","many_one","0","indirect_first","0","la05ph15","1","23","1","1","1","2","null","","","<img src = 'targets/38.png' width = '100%;'>","null","","","","","","","","","",""
"","html-keyboard-response","250","595682","0.0-10.0-3.15","opehl4k9op","many_one","0","indirect_first","0","la05ph15","1","23","1","1","1","2","2571","","","<img src = 'targets/mask.png' width = '100%;'>","68","neg","GS","abstract","4","category4/lin.png","targets/38.png","0","indirect","39",""
"","html-keyboard-response","251","597199","0.0-10.0-0.16","opehl4k9op","many_one","0","indirect_first","0","la05ph15","1","23","1","1","1","2","null","","","<div style=""font-size:60px;"">+</div>","null","","","","","","","","","",""
"","html-keyboard-response","252","597299","0.0-10.0-1.16","opehl4k9op","many_one","0","indirect_first","0","la05ph15","1","23","1","1","1","2","null","","","<img src = 'category2/men.png' width = '100%;'>","null","","","","","","","","","",""
"","html-keyboard-response","253","597579","0.0-10.0-2.16","opehl4k9op","many_one","0","indirect_first","0","la05ph15","1","23","1","1","1","2","null","","","<img src = 'targets/15.png' width = '100%;'>","null","","","","","","","","","",""
"","html-keyboard-response","254","600362","0.0-10.0-3.16","opehl4k9op","many_one","0","indirect_first","0","la05ph15","1","23","1","1","1","2","2781","","","<img src = 'targets/mask.png' width = '100%;'>","75","pos","GS","abstract","2","category2/men.png","targets/15.png","1","indirect","40",""
"","html-keyboard-response","255","601889","0.0-10.0-0.17","opehl4k9op","many_one","0","indirect_first","0","la05ph15","1","23","1","1","1","2","null","","","<div style=""font-size:60px;"">+</div>","null","","","","","","","","","",""
"","html-keyboard-response","256","601989","0.0-10.0-1.17","opehl4k9op","many_one","0","indirect_first","0","la05ph15","1","23","1","1","1","2","null","","","<img src = 'category1/GS3.png' width = '100%;'>","null","","","","","","","","","",""
"","html-keyboard-response","257","602269","0.0-10.0-2.17","opehl4k9op","many_one","0","indirect_first","0","la05ph15","1","23","1","1","1","2","null","","","<img src = 'targets/30.png' width = '100%;'>","null","","","","","","","","","",""
"","html-keyboard-response","258","603905","0.0-10.0-3.17","opehl4k9op","many_one","0","indirect_first","0","la05ph15","1","23","1","1","1","2","1635","","","<img src = 'targets/mask.png' width = '100%;'>","68","neg","GS","GSnew","1","category1/GS3.png","targets/30.png","0","indirect","41",""
"","html-keyboard-response","259","605429","0.0-10.0-0.18","opehl4k9op","many_one","0","indirect_first","0","la05ph15","1","23","1","1","1","2","null","","","<div style=""font-size:60px;"">+</div>","null","","","","","","","","","",""
"","html-keyboard-response","260","605529","0.0-10.0-1.18","opehl4k9op","many_one","0","indirect_first","0","la05ph15","1","23","1","1","1","2","null","","","<img src = 'category4/CS9.png' width = '100%;'>","null","","","","","","","","","",""
"","html-keyboard-response","261","605809","0.0-10.0-2.18","opehl4k9op","many_one","0","indirect_first","0","la05ph15","1","23","1","1","1","2","null","","","<img src = 'targets/43.png' width = '100%;'>","null","","","","","","","","","",""
"","html-keyboard-response","262","607098","0.0-10.0-3.18","opehl4k9op","many_one","0","indirect_first","0","la05ph15","1","23","1","1","1","2","1288","","","<img src = 'targets/mask.png' width = '100%;'>","75","neg","GS","GSold","4","category4/CS9.png","targets/43.png","1","indirect","42",""
"","html-keyboard-response","263","608629","0.0-10.0-0.19","opehl4k9op","many_one","0","indirect_first","0","la05ph15","1","23","1","1","1","2","null","","","<div style=""font-size:60px;"">+</div>","null","","","","","","","","","",""
"","html-keyboard-response","264","608729","0.0-10.0-1.19","opehl4k9op","many_one","0","indirect_first","0","la05ph15","1","23","1","1","1","2","null","","","<img src = 'category3/CS5.png' width = '100%;'>","null","","","","","","","","","",""
"","html-keyboard-response","265","609009","0.0-10.0-2.19","opehl4k9op","many_one","0","indirect_first","0","la05ph15","1","23","1","1","1","2","null","","","<img src = 'targets/1.png' width = '100%;'>","null","","","","","","","","","",""
"","html-keyboard-response","266","611034","0.0-10.0-3.19","opehl4k9op","many_one","0","indirect_first","0","la05ph15","1","23","1","1","1","2","2024","","","<img src = 'targets/mask.png' width = '100%;'>","75","pos","GS","GSold","3","category3/CS5.png","targets/1.png","1","indirect","43",""
"","html-keyboard-response","267","612569","0.0-10.0-0.20","opehl4k9op","many_one","0","indirect_first","0","la05ph15","1","23","1","1","1","2","null","","","<div style=""font-size:60px;"">+</div>","null","","","","","","","","","",""
"","html-keyboard-response","268","612669","0.0-10.0-1.20","opehl4k9op","many_one","0","indirect_first","0","la05ph15","1","23","1","1","1","2","null","","","<img src = 'category1/GS2.png' width = '100%;'>","null","","","","","","","","","",""
"","html-keyboard-response","269","612949","0.0-10.0-2.20","opehl4k9op","many_one","0","indirect_first","0","la05ph15","1","23","1","1","1","2","null","","","<img src = 'targets/29.png' width = '100%;'>","null","","","","","","","","","",""
"","html-keyboard-response","270","614322","0.0-10.0-3.20","opehl4k9op","many_one","0","indirect_first","0","la05ph15","1","23","1","1","1","2","1372","","","<img src = 'targets/mask.png' width = '100%;'>","75","neg","GS","GSnew","1","category1/GS2.png","targets/29.png","1","indirect","44",""
"","html-keyboard-response","271","615849","0.0-10.0-0.21","opehl4k9op","many_one","0","indirect_first","0","la05ph15","1","23","1","1","1","2","null","","","<div style=""font-size:60px;"">+</div>","null","","","","","","","","","",""
"","html-keyboard-response","272","615949","0.0-10.0-1.21","opehl4k9op","many_one","0","indirect_first","0","la05ph15","1","23","1","1","1","2","null","","","<img src = 'category3/CS4.png' width = '100%;'>","null","","","","","","","","","",""
"","html-keyboard-response","273","616201","0.0-10.0-2.21","opehl4k9op","many_one","0","indirect_first","0","la05ph15","1","23","1","1","1","2","null","","","<img src = 'targets/8.png' width = '100%;'>","null","","","","","","","","","",""
"","html-keyboard-response","274","617153","0.0-10.0-3.21","opehl4k9op","many_one","0","indirect_first","0","la05ph15","1","23","1","1","1","2","951","","","<img src = 'targets/mask.png' width = '100%;'>","75","pos","GS","GSold","3","category3/CS4.png","targets/8.png","1","indirect","45",""
"","html-keyboard-response","275","618679","0.0-10.0-0.22","opehl4k9op","many_one","0","indirect_first","0","la05ph15","1","23","1","1","1","2","null","","","<div style=""font-size:60px;"">+</div>","null","","","","","","","","","",""
"","html-keyboard-response","276","618779","0.0-10.0-1.22","opehl4k9op","many_one","0","indirect_first","0","la05ph15","1","23","1","1","1","2","null","","","<img src = 'category3/CS9.png' width = '100%;'>","null","","","","","","","","","",""
"","html-keyboard-response","277","619058","0.0-10.0-2.22","opehl4k9op","many_one","0","indirect_first","0","la05ph15","1","23","1","1","1","2","null","","","<img src = 'targets/47.png' width = '100%;'>","null","","","","","","","","","",""
"","html-keyboard-response","278","620442","0.0-10.0-3.22","opehl4k9op","many_one","0","indirect_first","0","la05ph15","1","23","1","1","1","2","1382","","","<img src = 'targets/mask.png' width = '100%;'>","75","pos","GS","GSold","3","category3/CS9.png","targets/47.png","1","indirect","46",""
"","html-keyboard-response","279","621979","0.0-10.0-0.23","opehl4k9op","many_one","0","indirect_first","0","la05ph15","1","23","1","1","1","2","null","","","<div style=""font-size:60px;"">+</div>","null","","","","","","","","","",""
"","html-keyboard-response","280","622080","0.0-10.0-1.23","opehl4k9op","many_one","0","indirect_first","0","la05ph15","1","23","1","1","1","2","null","","","<img src = 'category3/GS3.png' width = '100%;'>","null","","","","","","","","","",""
"","html-keyboard-response","281","622360","0.0-10.0-2.23","opehl4k9op","many_one","0","indirect_first","0","la05ph15","1","23","1","1","1","2","null","","","<img src = 'targets/12.png' width = '100%;'>","null","","","","","","","","","",""
"","html-keyboard-response","282","623418","0.0-10.0-3.23","opehl4k9op","many_one","0","indirect_first","0","la05ph15","1","23","1","1","1","2","1058","","","<img src = 'targets/mask.png' width = '100%;'>","68","pos","GS","GSnew","3","category3/GS3.png","targets/12.png","0","indirect","47",""
"","survey-html-form","283","636361","0.0-11.0","opehl4k9op","many_one","0","indirect_first","0","la05ph15","1","23","1","1","1","2","12422","","{}","","","","","","","","","","","",""
"","image-slider-response","284","650849","0.0-12.0-0.0","opehl4k9op","many_one","0","indirect_first","0","la05ph15","1","23","1","1","1","2","12475","","","","","neg","CS","CS","4","category4/CS5.png","targets/33.png","","direct","","-3"
"","image-slider-response","285","654433","0.0-12.0-0.1","opehl4k9op","many_one","0","indirect_first","0","la05ph15","1","23","1","1","1","2","3582","","","","","neg","GS","abstract","1","category1/ma.png","targets/39.png","","direct","","4"
"","image-slider-response","286","658705","0.0-12.0-0.2","opehl4k9op","many_one","0","indirect_first","0","la05ph15","1","23","1","1","1","2","4270","","","","","neg","GS","GSold","4","category4/CS9.png","targets/43.png","","direct","","24"
"","image-slider-response","287","662305","0.0-12.0-0.3","opehl4k9op","many_one","0","indirect_first","0","la05ph15","1","23","1","1","1","2","3600","","","","","pos","CS","CS","2","category2/CS9.png","targets/41.png","","direct","","5"
"","image-slider-response","288","665561","0.0-12.0-0.4","opehl4k9op","many_one","0","indirect_first","0","la05ph15","1","23","1","1","1","2","3254","","","","","neg","CS","CS","1","category1/CS5.png","targets/32.png","","direct","","-47"
"","image-slider-response","289","671273","0.0-12.0-0.5","opehl4k9op","many_one","0","indirect_first","0","la05ph15","1","23","1","1","1","2","5711","","","","","pos","GS","GSold","2","category2/CS1.png","targets/6.png","","direct","","23"
"","image-slider-response","290","676544","0.0-12.0-0.6","opehl4k9op","many_one","0","indirect_first","0","la05ph15","1","23","1","1","1","2","5270","","","","","pos","GS","GSnew","3","category3/GS2.png","targets/7.png","","direct","","49"
"","image-slider-response","291","681049","0.0-12.0-0.7","opehl4k9op","many_one","0","indirect_first","0","la05ph15","1","23","1","1","1","2","4503","","","","","neg","GS","GSnew","4","category4/GS1.png","targets/18.png","","direct","","-90"
"","image-slider-response","292","684465","0.0-12.0-0.8","opehl4k9op","many_one","0","indirect_first","0","la05ph15","1","23","1","1","1","2","3416","","","","","pos","CS","CS","3","category3/CS2.png","targets/4.png","","direct","","-11"
"","image-slider-response","293","688881","0.0-12.0-0.9","opehl4k9op","many_one","0","indirect_first","0","la05ph15","1","23","1","1","1","2","4415","","","","","neg","GS","GSnew","1","category1/GS1.png","targets/23.png","","direct","","-6"
"","image-slider-response","294","693233","0.0-12.0-0.10","opehl4k9op","many_one","0","indirect_first","0","la05ph15","1","23","1","1","1","2","4351","","","","","neg","CS","CS","4","category4/CS1.png","targets/25.png","","direct","","-40"
"","image-slider-response","295","698193","0.0-12.0-0.11","opehl4k9op","many_one","0","indirect_first","0","la05ph15","1","23","1","1","1","2","4959","","","","","pos","CS","CS","2","category2/CS5.png","targets/3.png","","direct","","50"
"","image-slider-response","296","705753","0.0-12.0-0.12","opehl4k9op","many_one","0","indirect_first","0","la05ph15","1","23","1","1","1","2","7559","","","","","pos","GS","GSold","3","category3/CS5.png","targets/1.png","","direct","","83"
"","image-slider-response","297","709889","0.0-12.0-0.13","opehl4k9op","many_one","0","indirect_first","0","la05ph15","1","23","1","1","1","2","4134","","","","","neg","GS","GSnew","1","category1/GS3.png","targets/30.png","","direct","","89"
"","image-slider-response","298","716010","0.0-12.0-0.14","opehl4k9op","many_one","0","indirect_first","0","la05ph15","1","23","1","1","1","2","6119","","","","","pos","CS","CS","3","category3/CS10.png","targets/21.png","","direct","","21"
"","image-slider-response","299","720225","0.0-12.0-0.15","opehl4k9op","many_one","0","indirect_first","0","la05ph15","1","23","1","1","1","2","4214","","","","","neg","GS","GSold","4","category4/CS7.png","targets/26.png","","direct","","63"
"","image-slider-response","300","724560","0.0-12.0-0.16","opehl4k9op","many_one","0","indirect_first","0","la05ph15","1","23","1","1","1","2","4334","","","","","neg","CS","CS","4","category4/CS3.png","targets/16.png","","direct","","18"
"","image-slider-response","301","728089","0.0-12.0-0.17","opehl4k9op","many_one","0","indirect_first","0","la05ph15","1","23","1","1","1","2","3527","","","","","neg","CS","CS","4","category4/CS2.png","targets/35.png","","direct","","-50"
"","image-slider-response","302","732000","0.0-12.0-0.18","opehl4k9op","many_one","0","indirect_first","0","la05ph15","1","23","1","1","1","2","3910","","","","","pos","CS","CS","2","category2/CS7.png","targets/36.png","","direct","","98"
"","image-slider-response","303","734784","0.0-12.0-0.19","opehl4k9op","many_one","0","indirect_first","0","la05ph15","1","23","1","1","1","2","2783","","","","","neg","CS","CS","1","category1/CS2.png","targets/31.png","","direct","","-57"
"","image-slider-response","304","739465","0.0-12.0-0.20","opehl4k9op","many_one","0","indirect_first","0","la05ph15","1","23","1","1","1","2","4679","","","","","pos","GS","GSnew","2","category2/GS3.png","targets/34.png","","direct","","10"
"","image-slider-response","305","742041","0.0-12.0-0.21","opehl4k9op","many_one","0","indirect_first","0","la05ph15","1","23","1","1","1","2","2575","","","","","pos","GS","GSold","2","category2/CS4.png","targets/44.png","","direct","","38"
"","image-slider-response","306","745408","0.0-12.0-0.22","opehl4k9op","many_one","0","indirect_first","0","la05ph15","1","23","1","1","1","2","3366","","","","","pos","GS","GSold","3","category3/CS4.png","targets/8.png","","direct","","77"
"","image-slider-response","307","749337","0.0-12.0-0.23","opehl4k9op","many_one","0","indirect_first","0","la05ph15","1","23","1","1","1","2","3926","","","","","pos","GS","abstract","2","category2/men.png","targets/15.png","","direct","","-72"
"","image-slider-response","308","754657","0.0-12.0-0.24","opehl4k9op","many_one","0","indirect_first","0","la05ph15","1","23","1","1","1","2","5317","","","","","neg","GS","GSnew","4","category4/GS2.png","targets/46.png","","direct","","-62"
"","image-slider-response","309","757449","0.0-12.0-0.25","opehl4k9op","many_one","0","indirect_first","0","la05ph15","1","23","1","1","1","2","2791","","","","","pos","GS","GSnew","3","category3/GS1.png","targets/11.png","","direct","","-38"
"","image-slider-response","310","761280","0.0-12.0-0.26","opehl4k9op","many_one","0","indirect_first","0","la05ph15","1","23","1","1","1","2","3830","","","","","pos","GS","GSnew","3","category3/GS3.png","targets/12.png","","direct","","45"
"","image-slider-response","311","765665","0.0-12.0-0.27","opehl4k9op","many_one","0","indirect_first","0","la05ph15","1","23","1","1","1","2","4383","","","","","neg","CS","CS","1","category1/CS9.png","targets/27.png","","direct","","-54"
"","image-slider-response","312","768369","0.0-12.0-0.28","opehl4k9op","many_one","0","indirect_first","0","la05ph15","1","23","1","1","1","2","2702","","","","","neg","GS","GSold","1","category1/CS1.png","targets/2.png","","direct","","-27"
"","image-slider-response","313","772464","0.0-12.0-0.29","opehl4k9op","many_one","0","indirect_first","0","la05ph15","1","23","1","1","1","2","4095","","","","","pos","GS","GSnew","2","category2/GS1.png","targets/37.png","","direct","","45"
"","image-slider-response","314","776257","0.0-12.0-0.30","opehl4k9op","many_one","0","indirect_first","0","la05ph15","1","23","1","1","1","2","3791","","","","","neg","GS","GSold","1","category1/CS6.png","targets/24.png","","direct","","21"
"","image-slider-response","315","780337","0.0-12.0-0.31","opehl4k9op","many_one","0","indirect_first","0","la05ph15","1","23","1","1","1","2","4078","","","","","pos","GS","GSold","2","category2/CS10.png","targets/20.png","","direct","","53"
"","image-slider-response","316","783056","0.0-12.0-0.32","opehl4k9op","many_one","0","indirect_first","0","la05ph15","1","23","1","1","1","2","2718","","","","","neg","CS","CS","1","category1/CS8.png","targets/28.png","","direct","","-82"
"","image-slider-response","317","789152","0.0-12.0-0.33","opehl4k9op","many_one","0","indirect_first","0","la05ph15","1","23","1","1","1","2","6094","","","","","neg","GS","GSnew","1","category1/GS2.png","targets/29.png","","direct","","19"
"","image-slider-response","318","792185","0.0-12.0-0.34","opehl4k9op","many_one","0","indirect_first","0","la05ph15","1","23","1","1","1","2","3031","","","","","neg","GS","GSold","1","category1/CS3.png","targets/22.png","","direct","","-42"
"","image-slider-response","319","794664","0.0-12.0-0.35","opehl4k9op","many_one","0","indirect_first","0","la05ph15","1","23","1","1","1","2","2478","","","","","neg","CS","CS","1","category1/CS10.png","targets/48.png","","direct","","-56"
"","image-slider-response","320","799745","0.0-12.0-0.36","opehl4k9op","many_one","0","indirect_first","0","la05ph15","1","23","1","1","1","2","5078","","","","","neg","GS","GSnew","4","category4/GS3.png","targets/10.png","","direct","","-100"
"","image-slider-response","321","803625","0.0-12.0-0.37","opehl4k9op","many_one","0","indirect_first","0","la05ph15","1","23","1","1","1","2","3879","","","","","pos","CS","CS","3","category3/CS8.png","targets/5.png","","direct","","51"
"","image-slider-response","322","808601","0.0-12.0-0.38","opehl4k9op","many_one","0","indirect_first","0","la05ph15","1","23","1","1","1","2","4974","","","","","pos","CS","CS","3","category3/CS7.png","targets/45.png","","direct","","-14"
"","image-slider-response","323","813600","0.0-12.0-0.39","opehl4k9op","many_one","0","indirect_first","0","la05ph15","1","23","1","1","1","2","4998","","","","","pos","GS","abstract","3","category3/wang.png","targets/40.png","","direct","","25"
"","image-slider-response","324","817905","0.0-12.0-0.40","opehl4k9op","many_one","0","indirect_first","0","la05ph15","1","23","1","1","1","2","4303","","","","","pos","GS","GSold","3","category3/CS9.png","targets/47.png","","direct","","-51"
"","image-slider-response","325","822265","0.0-12.0-0.41","opehl4k9op","many_one","0","indirect_first","0","la05ph15","1","23","1","1","1","2","4359","","","","","pos","CS","CS","2","category2/CS6.png","targets/42.png","","direct","","94"
"","image-slider-response","326","826496","0.0-12.0-0.42","opehl4k9op","many_one","0","indirect_first","0","la05ph15","1","23","1","1","1","2","4231","","","","","neg","GS","GSold","4","category4/CS8.png","targets/14.png","","direct","","-16"
"","image-slider-response","327","832185","0.0-12.0-0.43","opehl4k9op","many_one","0","indirect_first","0","la05ph15","1","23","1","1","1","2","5686","","","","","neg","GS","abstract","4","category4/lin.png","targets/38.png","","direct","","-26"
"","image-slider-response","328","834209","0.0-12.0-0.44","opehl4k9op","many_one","0","indirect_first","0","la05ph15","1","23","1","1","1","2","2022","","","","","pos","CS","CS","3","category3/CS1.png","targets/19.png","","direct","","21"
"","image-slider-response","329","837881","0.0-12.0-0.45","opehl4k9op","many_one","0","indirect_first","0","la05ph15","1","23","1","1","1","2","3671","","","","","neg","CS","CS","4","category4/CS4.png","targets/13.png","","direct","","44"
"","image-slider-response","330","840800","0.0-12.0-0.46","opehl4k9op","many_one","0","indirect_first","0","la05ph15","1","23","1","1","1","2","2919","","","","","pos","GS","GSnew","2","category2/GS2.png","targets/9.png","","direct","","-26"
"","image-slider-response","331","844800","0.0-12.0-0.47","opehl4k9op","many_one","0","indirect_first","0","la05ph15","1","23","1","1","1","2","3998","","","","","pos","CS","CS","2","category2/CS2.png","targets/17.png","","direct","","8"
"","survey-html-form","332","850737","0.0-13.0","opehl4k9op","many_one","0","indirect_first","0","la05ph15","1","23","1","1","1","2","5937","","{}","","","","","","","","","","","",""
"","image-slider-response","333","856329","0.0-14.0-0.0","opehl4k9op","many_one","0","indirect_first","0","la05ph15","1","23","1","1","1","2","4587","","","","","pos","All","all","2","category2/men_all.png","","","all","","-36"
"","image-slider-response","334","860704","0.0-14.0-0.1","opehl4k9op","many_one","0","indirect_first","0","la05ph15","1","23","1","1","1","2","4374","","","","","neg","All","all","1","category1/ma_all.png","","","all","","-28"
"","image-slider-response","335","863960","0.0-14.0-0.2","opehl4k9op","many_one","0","indirect_first","0","la05ph15","1","23","1","1","1","2","3254","","","","","pos","All","all","3","category3/wang_all.png","","","all","","71"
"","image-slider-response","336","868720","0.0-14.0-0.3","opehl4k9op","many_one","0","indirect_first","0","la05ph15","1","23","1","1","1","2","4759","","","","","neg","All","all","4","category4/lin_all.png","","","all","","-39"
"","survey-text","337","874418","0.0-15.0","opehl4k9op","many_one","0","indirect_first","0","la05ph15","1","23","1","1","1","2","5695","","{""Q0"":""""}","","","","","","","","","","","",""
