"success","trial_type","trial_index","time_elapsed","internal_node_id","subject","condition","condition_code","measure","measure_code","codeword","gender","age","education","chinese","fach","handedness","comment","hinschauen","ablenkung","gewissenhaft","rt","url","responses","stimulus","key_press","val","type","type_specific","category","cs_selected","response","target","task","indirect","nr_pres"
"true","fullscreen","0","3223","0.0-0.0","1zw137onrg","many_one","0","direct_first","1","er06il20","0","23","1","1","3","1","","0","1","0","","","","","","","","","","","","","","",""
"","external-html","1","42139","0.0-1.0","1zw137onrg","many_one","0","direct_first","1","er06il20","0","23","1","1","3","1","","0","1","0","38894.37499991618","text/information.html","","","","","","","","","","","","",""
"","external-html","2","54269","0.0-2.0","1zw137onrg","many_one","0","direct_first","1","er06il20","0","23","1","1","3","1","","0","1","0","12103.639999986626","text/consent.html","","","","","","","","","","","","",""
"","survey-html-form","3","127474","0.0-3.0","1zw137onrg","many_one","0","direct_first","1","er06il20","0","23","1","1","3","1","","0","1","0","73202.80500000808","","{""codeword_enter"":""er06il20""}","","","","","","","","","","","",""
"","survey-html-form","4","145670","0.0-4.0","1zw137onrg","many_one","0","direct_first","1","er06il20","0","23","1","1","3","1","","0","1","0","18194.15500003379","","{""age"":""23"",""education"":""1"",""subject"":""3"",""gender"":""0"",""handedness"":""1"",""chinese"":""1""}","","","","","","","","","","","",""
"","survey-html-form","5","149410","0.0-5.0","1zw137onrg","many_one","0","direct_first","1","er06il20","0","23","1","1","3","1","","0","1","0","3738.2399999769405","","{}","","","","","","","","","","","",""
"","html-keyboard-response","6","153428","0.0-6.0-0.0-0.0","1zw137onrg","many_one","0","direct_first","1","er06il20","0","23","1","1","3","1","","0","1","0","null","","","<div class = 'row'><div class = 'column'><img src = 'category4/CS10.png' width = '70%;'></div><div class = 'column'><img src = 'usneg/9520.bmp' width = '100%;'></div></div>","null","neg","CS","CS","4","category4/CS10.png","","","","",""
"","html-keyboard-response","7","155937","0.0-6.0-0.0-0.1","1zw137onrg","many_one","0","direct_first","1","er06il20","0","23","1","1","3","1","","0","1","0","null","","","<div class = 'row'><div class = 'column'><img src = 'category3/CS9.png' width = '70%;'></div><div class = 'column'><img src = 'uspos/2530.bmp' width = '100%;'></div></div>","null","pos","CS","CS","3","category3/CS9.png","","","","",""
"","html-keyboard-response","8","158451","0.0-6.0-0.0-0.2","1zw137onrg","many_one","0","direct_first","1","er06il20","0","23","1","1","3","1","","0","1","0","null","","","<div class = 'row'><div class = 'column'><img src = 'category1/CS4.png' width = '70%;'></div><div class = 'column'><img src = 'usneg/9920.bmp' width = '100%;'></div></div>","null","neg","CS","CS","1","category1/CS4.png","","","","",""
"","html-keyboard-response","9","160969","0.0-6.0-0.0-0.3","1zw137onrg","many_one","0","direct_first","1","er06il20","0","23","1","1","3","1","","0","1","0","null","","","<div class = 'row'><div class = 'column'><img src = 'category3/CS2.png' width = '70%;'></div><div class = 'column'><img src = 'uspos/2340.bmp' width = '100%;'></div></div>","null","pos","CS","CS","3","category3/CS2.png","","","","",""
"","html-keyboard-response","10","163478","0.0-6.0-0.0-0.4","1zw137onrg","many_one","0","direct_first","1","er06il20","0","23","1","1","3","1","","0","1","0","null","","","<div class = 'row'><div class = 'column'><img src = 'category2/CS10.png' width = '70%;'></div><div class = 'column'><img src = 'uspos/5600.bmp' width = '100%;'></div></div>","null","pos","CS","CS","2","category2/CS10.png","","","","",""
"","html-keyboard-response","11","166002","0.0-6.0-0.0-0.5","1zw137onrg","many_one","0","direct_first","1","er06il20","0","23","1","1","3","1","","0","1","0","null","","","<div class = 'row'><div class = 'column'><img src = 'uspos/8190.bmp' width = '100%;'></div><div class = 'column'><img src = 'category3/CS3.png' width = '70%;'></div></div>","null","pos","CS","CS","3","category3/CS3.png","","","","",""
"","html-keyboard-response","12","168514","0.0-6.0-0.0-0.6","1zw137onrg","many_one","0","direct_first","1","er06il20","0","23","1","1","3","1","","0","1","0","null","","","<div class = 'row'><div class = 'column'><img src = 'category1/CS7.png' width = '70%;'></div><div class = 'column'><img src = 'usneg/3181.bmp' width = '100%;'></div></div>","null","neg","CS","CS","1","category1/CS7.png","","","","",""
"","html-keyboard-response","13","171025","0.0-6.0-0.0-0.7","1zw137onrg","many_one","0","direct_first","1","er06il20","0","23","1","1","3","1","","0","1","0","null","","","<div class = 'row'><div class = 'column'><img src = 'usneg/2141.bmp' width = '100%;'></div><div class = 'column'><img src = 'category1/CS2.png' width = '70%;'></div></div>","null","neg","CS","CS","1","category1/CS2.png","","","","",""
"","html-keyboard-response","14","173545","0.0-6.0-0.0-0.8","1zw137onrg","many_one","0","direct_first","1","er06il20","0","23","1","1","3","1","","0","1","0","null","","","<div class = 'row'><div class = 'column'><img src = 'usneg/9180.bmp' width = '100%;'></div><div class = 'column'><img src = 'category4/CS6.png' width = '70%;'></div></div>","null","neg","CS","CS","4","category4/CS6.png","","","","",""
"","html-keyboard-response","15","176064","0.0-6.0-0.0-0.9","1zw137onrg","many_one","0","direct_first","1","er06il20","0","23","1","1","3","1","","0","1","0","null","","","<div class = 'row'><div class = 'column'><img src = 'usneg/9050.bmp' width = '100%;'></div><div class = 'column'><img src = 'category4/CS8.png' width = '70%;'></div></div>","null","neg","CS","CS","4","category4/CS8.png","","","","",""
"","html-keyboard-response","16","178586","0.0-6.0-0.0-0.10","1zw137onrg","many_one","0","direct_first","1","er06il20","0","23","1","1","3","1","","0","1","0","null","","","<div class = 'row'><div class = 'column'><img src = 'category1/CS1.png' width = '70%;'></div><div class = 'column'><img src = 'usneg/3160.bmp' width = '100%;'></div></div>","null","neg","CS","CS","1","category1/CS1.png","","","","",""
"","html-keyboard-response","17","181103","0.0-6.0-0.0-0.11","1zw137onrg","many_one","0","direct_first","1","er06il20","0","23","1","1","3","1","","0","1","0","null","","","<div class = 'row'><div class = 'column'><img src = 'category3/CS5.png' width = '70%;'></div><div class = 'column'><img src = 'uspos/2150.bmp' width = '100%;'></div></div>","null","pos","CS","CS","3","category3/CS5.png","","","","",""
"","html-keyboard-response","18","183620","0.0-6.0-0.0-0.12","1zw137onrg","many_one","0","direct_first","1","er06il20","0","23","1","1","3","1","","0","1","0","null","","","<div class = 'row'><div class = 'column'><img src = 'usneg/9415.bmp' width = '100%;'></div><div class = 'column'><img src = 'category1/CS5.png' width = '70%;'></div></div>","null","neg","CS","CS","1","category1/CS5.png","","","","",""
"","html-keyboard-response","19","186145","0.0-6.0-0.0-0.13","1zw137onrg","many_one","0","direct_first","1","er06il20","0","23","1","1","3","1","","0","1","0","null","","","<div class = 'row'><div class = 'column'><img src = 'category4/CS1.png' width = '70%;'></div><div class = 'column'><img src = 'usneg/9290.bmp' width = '100%;'></div></div>","null","neg","CS","CS","4","category4/CS1.png","","","","",""
"","html-keyboard-response","20","188670","0.0-6.0-0.0-0.14","1zw137onrg","many_one","0","direct_first","1","er06il20","0","23","1","1","3","1","","0","1","0","null","","","<div class = 'row'><div class = 'column'><img src = 'uspos/5831.bmp' width = '100%;'></div><div class = 'column'><img src = 'category2/CS3.png' width = '70%;'></div></div>","null","pos","CS","CS","2","category2/CS3.png","","","","",""
"","html-keyboard-response","21","191187","0.0-6.0-0.0-0.15","1zw137onrg","many_one","0","direct_first","1","er06il20","0","23","1","1","3","1","","0","1","0","null","","","<div class = 'row'><div class = 'column'><img src = 'category2/CS4.png' width = '70%;'></div><div class = 'column'><img src = 'uspos/2900.2.bmp' width = '100%;'></div></div>","null","pos","CS","CS","2","category2/CS4.png","","","","",""
"","html-keyboard-response","22","193703","0.0-6.0-0.0-0.16","1zw137onrg","many_one","0","direct_first","1","er06il20","0","23","1","1","3","1","","0","1","0","null","","","<div class = 'row'><div class = 'column'><img src = 'uspos/8350.bmp' width = '100%;'></div><div class = 'column'><img src = 'category3/CS10.png' width = '70%;'></div></div>","null","pos","CS","CS","3","category3/CS10.png","","","","",""
"","html-keyboard-response","23","196221","0.0-6.0-0.0-0.17","1zw137onrg","many_one","0","direct_first","1","er06il20","0","23","1","1","3","1","","0","1","0","null","","","<div class = 'row'><div class = 'column'><img src = 'uspos/8461.bmp' width = '100%;'></div><div class = 'column'><img src = 'category2/CS9.png' width = '70%;'></div></div>","null","pos","CS","CS","2","category2/CS9.png","","","","",""
"","html-keyboard-response","24","198745","0.0-6.0-0.0-0.18","1zw137onrg","many_one","0","direct_first","1","er06il20","0","23","1","1","3","1","","0","1","0","null","","","<div class = 'row'><div class = 'column'><img src = 'category4/CS4.png' width = '70%;'></div><div class = 'column'><img src = 'usneg/9182.bmp' width = '100%;'></div></div>","null","neg","CS","CS","4","category4/CS4.png","","","","",""
"","html-keyboard-response","25","201262","0.0-6.0-0.0-0.19","1zw137onrg","many_one","0","direct_first","1","er06il20","0","23","1","1","3","1","","0","1","0","null","","","<div class = 'row'><div class = 'column'><img src = 'uspos/8490.bmp' width = '100%;'></div><div class = 'column'><img src = 'category2/CS8.png' width = '70%;'></div></div>","null","pos","CS","CS","2","category2/CS8.png","","","","",""
"","survey-html-form","26","205945","0.0-6.0-1.0","1zw137onrg","many_one","0","direct_first","1","er06il20","0","23","1","1","3","1","","0","1","0","4174.205000046641","","{}","","","","","","","","","","","",""
"","html-keyboard-response","27","209962","0.0-6.0-2.0-0.0","1zw137onrg","many_one","0","direct_first","1","er06il20","0","23","1","1","3","1","","0","1","0","null","","","<div class = 'row'><div class = 'column'><img src = 'uspos/2900.2.bmp' width = '100%;'></div><div class = 'column'><img src = 'category2/CS4.png' width = '70%;'></div></div>","null","pos","CS","CS","2","category2/CS4.png","","","","",""
"","html-keyboard-response","28","212479","0.0-6.0-2.0-0.1","1zw137onrg","many_one","0","direct_first","1","er06il20","0","23","1","1","3","1","","0","1","0","null","","","<div class = 'row'><div class = 'column'><img src = 'category1/CS4.png' width = '70%;'></div><div class = 'column'><img src = 'usneg/9920.bmp' width = '100%;'></div></div>","null","neg","CS","CS","1","category1/CS4.png","","","","",""
"","html-keyboard-response","29","214996","0.0-6.0-2.0-0.2","1zw137onrg","many_one","0","direct_first","1","er06il20","0","23","1","1","3","1","","0","1","0","null","","","<div class = 'row'><div class = 'column'><img src = 'category4/CS4.png' width = '70%;'></div><div class = 'column'><img src = 'usneg/9182.bmp' width = '100%;'></div></div>","null","neg","CS","CS","4","category4/CS4.png","","","","",""
"","html-keyboard-response","30","217528","0.0-6.0-2.0-0.3","1zw137onrg","many_one","0","direct_first","1","er06il20","0","23","1","1","3","1","","0","1","0","null","","","<div class = 'row'><div class = 'column'><img src = 'uspos/5831.bmp' width = '100%;'></div><div class = 'column'><img src = 'category2/CS3.png' width = '70%;'></div></div>","null","pos","CS","CS","2","category2/CS3.png","","","","",""
"","html-keyboard-response","31","220045","0.0-6.0-2.0-0.4","1zw137onrg","many_one","0","direct_first","1","er06il20","0","23","1","1","3","1","","0","1","0","null","","","<div class = 'row'><div class = 'column'><img src = 'category4/CS8.png' width = '70%;'></div><div class = 'column'><img src = 'usneg/9050.bmp' width = '100%;'></div></div>","null","neg","CS","CS","4","category4/CS8.png","","","","",""
"","html-keyboard-response","32","222561","0.0-6.0-2.0-0.5","1zw137onrg","many_one","0","direct_first","1","er06il20","0","23","1","1","3","1","","0","1","0","null","","","<div class = 'row'><div class = 'column'><img src = 'category3/CS5.png' width = '70%;'></div><div class = 'column'><img src = 'uspos/2150.bmp' width = '100%;'></div></div>","null","pos","CS","CS","3","category3/CS5.png","","","","",""
"","html-keyboard-response","33","225081","0.0-6.0-2.0-0.6","1zw137onrg","many_one","0","direct_first","1","er06il20","0","23","1","1","3","1","","0","1","0","null","","","<div class = 'row'><div class = 'column'><img src = 'uspos/2340.bmp' width = '100%;'></div><div class = 'column'><img src = 'category3/CS2.png' width = '70%;'></div></div>","null","pos","CS","CS","3","category3/CS2.png","","","","",""
"","html-keyboard-response","34","227595","0.0-6.0-2.0-0.7","1zw137onrg","many_one","0","direct_first","1","er06il20","0","23","1","1","3","1","","0","1","0","null","","","<div class = 'row'><div class = 'column'><img src = 'usneg/9415.bmp' width = '100%;'></div><div class = 'column'><img src = 'category1/CS5.png' width = '70%;'></div></div>","null","neg","CS","CS","1","category1/CS5.png","","","","",""
"","html-keyboard-response","35","230121","0.0-6.0-2.0-0.8","1zw137onrg","many_one","0","direct_first","1","er06il20","0","23","1","1","3","1","","0","1","0","null","","","<div class = 'row'><div class = 'column'><img src = 'usneg/2141.bmp' width = '100%;'></div><div class = 'column'><img src = 'category1/CS2.png' width = '70%;'></div></div>","null","neg","CS","CS","1","category1/CS2.png","","","","",""
"","html-keyboard-response","36","232636","0.0-6.0-2.0-0.9","1zw137onrg","many_one","0","direct_first","1","er06il20","0","23","1","1","3","1","","0","1","0","null","","","<div class = 'row'><div class = 'column'><img src = 'uspos/5600.bmp' width = '100%;'></div><div class = 'column'><img src = 'category2/CS10.png' width = '70%;'></div></div>","null","pos","CS","CS","2","category2/CS10.png","","","","",""
"","html-keyboard-response","37","235149","0.0-6.0-2.0-0.10","1zw137onrg","many_one","0","direct_first","1","er06il20","0","23","1","1","3","1","","0","1","0","null","","","<div class = 'row'><div class = 'column'><img src = 'category4/CS1.png' width = '70%;'></div><div class = 'column'><img src = 'usneg/9290.bmp' width = '100%;'></div></div>","null","neg","CS","CS","4","category4/CS1.png","","","","",""
"","html-keyboard-response","38","237679","0.0-6.0-2.0-0.11","1zw137onrg","many_one","0","direct_first","1","er06il20","0","23","1","1","3","1","","0","1","0","null","","","<div class = 'row'><div class = 'column'><img src = 'category4/CS10.png' width = '70%;'></div><div class = 'column'><img src = 'usneg/9520.bmp' width = '100%;'></div></div>","null","neg","CS","CS","4","category4/CS10.png","","","","",""
"","html-keyboard-response","39","240195","0.0-6.0-2.0-0.12","1zw137onrg","many_one","0","direct_first","1","er06il20","0","23","1","1","3","1","","0","1","0","null","","","<div class = 'row'><div class = 'column'><img src = 'usneg/3181.bmp' width = '100%;'></div><div class = 'column'><img src = 'category1/CS7.png' width = '70%;'></div></div>","null","neg","CS","CS","1","category1/CS7.png","","","","",""
"","html-keyboard-response","40","242739","0.0-6.0-2.0-0.13","1zw137onrg","many_one","0","direct_first","1","er06il20","0","23","1","1","3","1","","0","1","0","null","","","<div class = 'row'><div class = 'column'><img src = 'uspos/8350.bmp' width = '100%;'></div><div class = 'column'><img src = 'category3/CS10.png' width = '70%;'></div></div>","null","pos","CS","CS","3","category3/CS10.png","","","","",""
"","html-keyboard-response","41","245259","0.0-6.0-2.0-0.14","1zw137onrg","many_one","0","direct_first","1","er06il20","0","23","1","1","3","1","","0","1","0","null","","","<div class = 'row'><div class = 'column'><img src = 'category1/CS1.png' width = '70%;'></div><div class = 'column'><img src = 'usneg/3160.bmp' width = '100%;'></div></div>","null","neg","CS","CS","1","category1/CS1.png","","","","",""
"","html-keyboard-response","42","247770","0.0-6.0-2.0-0.15","1zw137onrg","many_one","0","direct_first","1","er06il20","0","23","1","1","3","1","","0","1","0","null","","","<div class = 'row'><div class = 'column'><img src = 'category2/CS8.png' width = '70%;'></div><div class = 'column'><img src = 'uspos/8490.bmp' width = '100%;'></div></div>","null","pos","CS","CS","2","category2/CS8.png","","","","",""
"","html-keyboard-response","43","250289","0.0-6.0-2.0-0.16","1zw137onrg","many_one","0","direct_first","1","er06il20","0","23","1","1","3","1","","0","1","0","null","","","<div class = 'row'><div class = 'column'><img src = 'uspos/8190.bmp' width = '100%;'></div><div class = 'column'><img src = 'category3/CS3.png' width = '70%;'></div></div>","null","pos","CS","CS","3","category3/CS3.png","","","","",""
"","html-keyboard-response","44","252808","0.0-6.0-2.0-0.17","1zw137onrg","many_one","0","direct_first","1","er06il20","0","23","1","1","3","1","","0","1","0","null","","","<div class = 'row'><div class = 'column'><img src = 'uspos/2530.bmp' width = '100%;'></div><div class = 'column'><img src = 'category3/CS9.png' width = '70%;'></div></div>","null","pos","CS","CS","3","category3/CS9.png","","","","",""
"","html-keyboard-response","45","255334","0.0-6.0-2.0-0.18","1zw137onrg","many_one","0","direct_first","1","er06il20","0","23","1","1","3","1","","0","1","0","null","","","<div class = 'row'><div class = 'column'><img src = 'uspos/8461.bmp' width = '100%;'></div><div class = 'column'><img src = 'category2/CS9.png' width = '70%;'></div></div>","null","pos","CS","CS","2","category2/CS9.png","","","","",""
"","html-keyboard-response","46","257845","0.0-6.0-2.0-0.19","1zw137onrg","many_one","0","direct_first","1","er06il20","0","23","1","1","3","1","","0","1","0","null","","","<div class = 'row'><div class = 'column'><img src = 'usneg/9180.bmp' width = '100%;'></div><div class = 'column'><img src = 'category4/CS6.png' width = '70%;'></div></div>","null","neg","CS","CS","4","category4/CS6.png","","","","",""
"","survey-html-form","47","263603","0.0-6.0-3.0","1zw137onrg","many_one","0","direct_first","1","er06il20","0","23","1","1","3","1","","0","1","0","5247.945000068285","","{}","","","","","","","","","","","",""
"","html-keyboard-response","48","267629","0.0-6.0-4.0-0.0","1zw137onrg","many_one","0","direct_first","1","er06il20","0","23","1","1","3","1","","0","1","0","null","","","<div class = 'row'><div class = 'column'><img src = 'usneg/2141.bmp' width = '100%;'></div><div class = 'column'><img src = 'category1/CS2.png' width = '70%;'></div></div>","null","neg","CS","CS","1","category1/CS2.png","","","","",""
"","html-keyboard-response","49","270146","0.0-6.0-4.0-0.1","1zw137onrg","many_one","0","direct_first","1","er06il20","0","23","1","1","3","1","","0","1","0","null","","","<div class = 'row'><div class = 'column'><img src = 'usneg/9050.bmp' width = '100%;'></div><div class = 'column'><img src = 'category4/CS8.png' width = '70%;'></div></div>","null","neg","CS","CS","4","category4/CS8.png","","","","",""
"","html-keyboard-response","50","272662","0.0-6.0-4.0-0.2","1zw137onrg","many_one","0","direct_first","1","er06il20","0","23","1","1","3","1","","0","1","0","null","","","<div class = 'row'><div class = 'column'><img src = 'category2/CS4.png' width = '70%;'></div><div class = 'column'><img src = 'uspos/2900.2.bmp' width = '100%;'></div></div>","null","pos","CS","CS","2","category2/CS4.png","","","","",""
"","html-keyboard-response","51","275181","0.0-6.0-4.0-0.3","1zw137onrg","many_one","0","direct_first","1","er06il20","0","23","1","1","3","1","","0","1","0","null","","","<div class = 'row'><div class = 'column'><img src = 'usneg/9920.bmp' width = '100%;'></div><div class = 'column'><img src = 'category1/CS4.png' width = '70%;'></div></div>","null","neg","CS","CS","1","category1/CS4.png","","","","",""
"","html-keyboard-response","52","277704","0.0-6.0-4.0-0.4","1zw137onrg","many_one","0","direct_first","1","er06il20","0","23","1","1","3","1","","0","1","0","null","","","<div class = 'row'><div class = 'column'><img src = 'category2/CS10.png' width = '70%;'></div><div class = 'column'><img src = 'uspos/5600.bmp' width = '100%;'></div></div>","null","pos","CS","CS","2","category2/CS10.png","","","","",""
"","html-keyboard-response","53","280213","0.0-6.0-4.0-0.5","1zw137onrg","many_one","0","direct_first","1","er06il20","0","23","1","1","3","1","","0","1","0","null","","","<div class = 'row'><div class = 'column'><img src = 'uspos/2530.bmp' width = '100%;'></div><div class = 'column'><img src = 'category3/CS9.png' width = '70%;'></div></div>","null","pos","CS","CS","3","category3/CS9.png","","","","",""
"","html-keyboard-response","54","282734","0.0-6.0-4.0-0.6","1zw137onrg","many_one","0","direct_first","1","er06il20","0","23","1","1","3","1","","0","1","0","null","","","<div class = 'row'><div class = 'column'><img src = 'category1/CS1.png' width = '70%;'></div><div class = 'column'><img src = 'usneg/3160.bmp' width = '100%;'></div></div>","null","neg","CS","CS","1","category1/CS1.png","","","","",""
"","html-keyboard-response","55","285246","0.0-6.0-4.0-0.7","1zw137onrg","many_one","0","direct_first","1","er06il20","0","23","1","1","3","1","","0","1","0","null","","","<div class = 'row'><div class = 'column'><img src = 'uspos/2150.bmp' width = '100%;'></div><div class = 'column'><img src = 'category3/CS5.png' width = '70%;'></div></div>","null","pos","CS","CS","3","category3/CS5.png","","","","",""
"","html-keyboard-response","56","287755","0.0-6.0-4.0-0.8","1zw137onrg","many_one","0","direct_first","1","er06il20","0","23","1","1","3","1","","0","1","0","null","","","<div class = 'row'><div class = 'column'><img src = 'category2/CS3.png' width = '70%;'></div><div class = 'column'><img src = 'uspos/5831.bmp' width = '100%;'></div></div>","null","pos","CS","CS","2","category2/CS3.png","","","","",""
"","html-keyboard-response","57","290262","0.0-6.0-4.0-0.9","1zw137onrg","many_one","0","direct_first","1","er06il20","0","23","1","1","3","1","","0","1","0","null","","","<div class = 'row'><div class = 'column'><img src = 'usneg/9520.bmp' width = '100%;'></div><div class = 'column'><img src = 'category4/CS10.png' width = '70%;'></div></div>","null","neg","CS","CS","4","category4/CS10.png","","","","",""
"","html-keyboard-response","58","292778","0.0-6.0-4.0-0.10","1zw137onrg","many_one","0","direct_first","1","er06il20","0","23","1","1","3","1","","0","1","0","null","","","<div class = 'row'><div class = 'column'><img src = 'uspos/8461.bmp' width = '100%;'></div><div class = 'column'><img src = 'category2/CS9.png' width = '70%;'></div></div>","null","pos","CS","CS","2","category2/CS9.png","","","","",""
"","html-keyboard-response","59","295292","0.0-6.0-4.0-0.11","1zw137onrg","many_one","0","direct_first","1","er06il20","0","23","1","1","3","1","","0","1","0","null","","","<div class = 'row'><div class = 'column'><img src = 'category4/CS1.png' width = '70%;'></div><div class = 'column'><img src = 'usneg/9290.bmp' width = '100%;'></div></div>","null","neg","CS","CS","4","category4/CS1.png","","","","",""
"","html-keyboard-response","60","297817","0.0-6.0-4.0-0.12","1zw137onrg","many_one","0","direct_first","1","er06il20","0","23","1","1","3","1","","0","1","0","null","","","<div class = 'row'><div class = 'column'><img src = 'uspos/8350.bmp' width = '100%;'></div><div class = 'column'><img src = 'category3/CS10.png' width = '70%;'></div></div>","null","pos","CS","CS","3","category3/CS10.png","","","","",""
"","html-keyboard-response","61","300328","0.0-6.0-4.0-0.13","1zw137onrg","many_one","0","direct_first","1","er06il20","0","23","1","1","3","1","","0","1","0","null","","","<div class = 'row'><div class = 'column'><img src = 'usneg/9180.bmp' width = '100%;'></div><div class = 'column'><img src = 'category4/CS6.png' width = '70%;'></div></div>","null","neg","CS","CS","4","category4/CS6.png","","","","",""
"","html-keyboard-response","62","302844","0.0-6.0-4.0-0.14","1zw137onrg","many_one","0","direct_first","1","er06il20","0","23","1","1","3","1","","0","1","0","null","","","<div class = 'row'><div class = 'column'><img src = 'category3/CS3.png' width = '70%;'></div><div class = 'column'><img src = 'uspos/8190.bmp' width = '100%;'></div></div>","null","pos","CS","CS","3","category3/CS3.png","","","","",""
"","html-keyboard-response","63","305361","0.0-6.0-4.0-0.15","1zw137onrg","many_one","0","direct_first","1","er06il20","0","23","1","1","3","1","","0","1","0","null","","","<div class = 'row'><div class = 'column'><img src = 'usneg/9182.bmp' width = '100%;'></div><div class = 'column'><img src = 'category4/CS4.png' width = '70%;'></div></div>","null","neg","CS","CS","4","category4/CS4.png","","","","",""
"","html-keyboard-response","64","307878","0.0-6.0-4.0-0.16","1zw137onrg","many_one","0","direct_first","1","er06il20","0","23","1","1","3","1","","0","1","0","null","","","<div class = 'row'><div class = 'column'><img src = 'category3/CS2.png' width = '70%;'></div><div class = 'column'><img src = 'uspos/2340.bmp' width = '100%;'></div></div>","null","pos","CS","CS","3","category3/CS2.png","","","","",""
"","html-keyboard-response","65","310389","0.0-6.0-4.0-0.17","1zw137onrg","many_one","0","direct_first","1","er06il20","0","23","1","1","3","1","","0","1","0","null","","","<div class = 'row'><div class = 'column'><img src = 'category1/CS7.png' width = '70%;'></div><div class = 'column'><img src = 'usneg/3181.bmp' width = '100%;'></div></div>","null","neg","CS","CS","1","category1/CS7.png","","","","",""
"","html-keyboard-response","66","312911","0.0-6.0-4.0-0.18","1zw137onrg","many_one","0","direct_first","1","er06il20","0","23","1","1","3","1","","0","1","0","null","","","<div class = 'row'><div class = 'column'><img src = 'uspos/8490.bmp' width = '100%;'></div><div class = 'column'><img src = 'category2/CS8.png' width = '70%;'></div></div>","null","pos","CS","CS","2","category2/CS8.png","","","","",""
"","html-keyboard-response","67","315427","0.0-6.0-4.0-0.19","1zw137onrg","many_one","0","direct_first","1","er06il20","0","23","1","1","3","1","","0","1","0","null","","","<div class = 'row'><div class = 'column'><img src = 'category1/CS5.png' width = '70%;'></div><div class = 'column'><img src = 'usneg/9415.bmp' width = '100%;'></div></div>","null","neg","CS","CS","1","category1/CS5.png","","","","",""
"","survey-html-form","68","326715","0.0-6.0-5.0","1zw137onrg","many_one","0","direct_first","1","er06il20","0","23","1","1","3","1","","0","1","0","10777.770000044256","","{}","","","","","","","","","","","",""
"","html-keyboard-response","69","330728","0.0-6.0-6.0-0.0","1zw137onrg","many_one","0","direct_first","1","er06il20","0","23","1","1","3","1","","0","1","0","null","","","<div class = 'row'><div class = 'column'><img src = 'uspos/5600.bmp' width = '100%;'></div><div class = 'column'><img src = 'category2/CS10.png' width = '70%;'></div></div>","null","pos","CS","CS","2","category2/CS10.png","","","","",""
"","html-keyboard-response","70","333247","0.0-6.0-6.0-0.1","1zw137onrg","many_one","0","direct_first","1","er06il20","0","23","1","1","3","1","","0","1","0","null","","","<div class = 'row'><div class = 'column'><img src = 'category3/CS3.png' width = '70%;'></div><div class = 'column'><img src = 'uspos/8190.bmp' width = '100%;'></div></div>","null","pos","CS","CS","3","category3/CS3.png","","","","",""
"","html-keyboard-response","71","335761","0.0-6.0-6.0-0.2","1zw137onrg","many_one","0","direct_first","1","er06il20","0","23","1","1","3","1","","0","1","0","null","","","<div class = 'row'><div class = 'column'><img src = 'uspos/2900.2.bmp' width = '100%;'></div><div class = 'column'><img src = 'category2/CS4.png' width = '70%;'></div></div>","null","pos","CS","CS","2","category2/CS4.png","","","","",""
"","html-keyboard-response","72","338274","0.0-6.0-6.0-0.3","1zw137onrg","many_one","0","direct_first","1","er06il20","0","23","1","1","3","1","","0","1","0","null","","","<div class = 'row'><div class = 'column'><img src = 'category3/CS9.png' width = '70%;'></div><div class = 'column'><img src = 'uspos/2530.bmp' width = '100%;'></div></div>","null","pos","CS","CS","3","category3/CS9.png","","","","",""
"","html-keyboard-response","73","340791","0.0-6.0-6.0-0.4","1zw137onrg","many_one","0","direct_first","1","er06il20","0","23","1","1","3","1","","0","1","0","null","","","<div class = 'row'><div class = 'column'><img src = 'category4/CS10.png' width = '70%;'></div><div class = 'column'><img src = 'usneg/9520.bmp' width = '100%;'></div></div>","null","neg","CS","CS","4","category4/CS10.png","","","","",""
"","html-keyboard-response","74","343307","0.0-6.0-6.0-0.5","1zw137onrg","many_one","0","direct_first","1","er06il20","0","23","1","1","3","1","","0","1","0","null","","","<div class = 'row'><div class = 'column'><img src = 'category4/CS8.png' width = '70%;'></div><div class = 'column'><img src = 'usneg/9050.bmp' width = '100%;'></div></div>","null","neg","CS","CS","4","category4/CS8.png","","","","",""
"","html-keyboard-response","75","345824","0.0-6.0-6.0-0.6","1zw137onrg","many_one","0","direct_first","1","er06il20","0","23","1","1","3","1","","0","1","0","null","","","<div class = 'row'><div class = 'column'><img src = 'uspos/5831.bmp' width = '100%;'></div><div class = 'column'><img src = 'category2/CS3.png' width = '70%;'></div></div>","null","pos","CS","CS","2","category2/CS3.png","","","","",""
"","html-keyboard-response","76","348339","0.0-6.0-6.0-0.7","1zw137onrg","many_one","0","direct_first","1","er06il20","0","23","1","1","3","1","","0","1","0","null","","","<div class = 'row'><div class = 'column'><img src = 'usneg/9415.bmp' width = '100%;'></div><div class = 'column'><img src = 'category1/CS5.png' width = '70%;'></div></div>","null","neg","CS","CS","1","category1/CS5.png","","","","",""
"","html-keyboard-response","77","350856","0.0-6.0-6.0-0.8","1zw137onrg","many_one","0","direct_first","1","er06il20","0","23","1","1","3","1","","0","1","0","null","","","<div class = 'row'><div class = 'column'><img src = 'usneg/9290.bmp' width = '100%;'></div><div class = 'column'><img src = 'category4/CS1.png' width = '70%;'></div></div>","null","neg","CS","CS","4","category4/CS1.png","","","","",""
"","html-keyboard-response","78","353366","0.0-6.0-6.0-0.9","1zw137onrg","many_one","0","direct_first","1","er06il20","0","23","1","1","3","1","","0","1","0","null","","","<div class = 'row'><div class = 'column'><img src = 'usneg/9180.bmp' width = '100%;'></div><div class = 'column'><img src = 'category4/CS6.png' width = '70%;'></div></div>","null","neg","CS","CS","4","category4/CS6.png","","","","",""
"","html-keyboard-response","79","355885","0.0-6.0-6.0-0.10","1zw137onrg","many_one","0","direct_first","1","er06il20","0","23","1","1","3","1","","0","1","0","null","","","<div class = 'row'><div class = 'column'><img src = 'uspos/8350.bmp' width = '100%;'></div><div class = 'column'><img src = 'category3/CS10.png' width = '70%;'></div></div>","null","pos","CS","CS","3","category3/CS10.png","","","","",""
"","html-keyboard-response","80","358399","0.0-6.0-6.0-0.11","1zw137onrg","many_one","0","direct_first","1","er06il20","0","23","1","1","3","1","","0","1","0","null","","","<div class = 'row'><div class = 'column'><img src = 'category4/CS4.png' width = '70%;'></div><div class = 'column'><img src = 'usneg/9182.bmp' width = '100%;'></div></div>","null","neg","CS","CS","4","category4/CS4.png","","","","",""
"","html-keyboard-response","81","360922","0.0-6.0-6.0-0.12","1zw137onrg","many_one","0","direct_first","1","er06il20","0","23","1","1","3","1","","0","1","0","null","","","<div class = 'row'><div class = 'column'><img src = 'category1/CS7.png' width = '70%;'></div><div class = 'column'><img src = 'usneg/3181.bmp' width = '100%;'></div></div>","null","neg","CS","CS","1","category1/CS7.png","","","","",""
"","html-keyboard-response","82","363433","0.0-6.0-6.0-0.13","1zw137onrg","many_one","0","direct_first","1","er06il20","0","23","1","1","3","1","","0","1","0","null","","","<div class = 'row'><div class = 'column'><img src = 'uspos/2340.bmp' width = '100%;'></div><div class = 'column'><img src = 'category3/CS2.png' width = '70%;'></div></div>","null","pos","CS","CS","3","category3/CS2.png","","","","",""
"","html-keyboard-response","83","365952","0.0-6.0-6.0-0.14","1zw137onrg","many_one","0","direct_first","1","er06il20","0","23","1","1","3","1","","0","1","0","null","","","<div class = 'row'><div class = 'column'><img src = 'category1/CS4.png' width = '70%;'></div><div class = 'column'><img src = 'usneg/9920.bmp' width = '100%;'></div></div>","null","neg","CS","CS","1","category1/CS4.png","","","","",""
"","html-keyboard-response","84","368466","0.0-6.0-6.0-0.15","1zw137onrg","many_one","0","direct_first","1","er06il20","0","23","1","1","3","1","","0","1","0","null","","","<div class = 'row'><div class = 'column'><img src = 'category1/CS1.png' width = '70%;'></div><div class = 'column'><img src = 'usneg/3160.bmp' width = '100%;'></div></div>","null","neg","CS","CS","1","category1/CS1.png","","","","",""
"","html-keyboard-response","85","370994","0.0-6.0-6.0-0.16","1zw137onrg","many_one","0","direct_first","1","er06il20","0","23","1","1","3","1","","0","1","0","null","","","<div class = 'row'><div class = 'column'><img src = 'uspos/2150.bmp' width = '100%;'></div><div class = 'column'><img src = 'category3/CS5.png' width = '70%;'></div></div>","null","pos","CS","CS","3","category3/CS5.png","","","","",""
"","html-keyboard-response","86","373506","0.0-6.0-6.0-0.17","1zw137onrg","many_one","0","direct_first","1","er06il20","0","23","1","1","3","1","","0","1","0","null","","","<div class = 'row'><div class = 'column'><img src = 'category1/CS2.png' width = '70%;'></div><div class = 'column'><img src = 'usneg/2141.bmp' width = '100%;'></div></div>","null","neg","CS","CS","1","category1/CS2.png","","","","",""
"","html-keyboard-response","87","376017","0.0-6.0-6.0-0.18","1zw137onrg","many_one","0","direct_first","1","er06il20","0","23","1","1","3","1","","0","1","0","null","","","<div class = 'row'><div class = 'column'><img src = 'uspos/8461.bmp' width = '100%;'></div><div class = 'column'><img src = 'category2/CS9.png' width = '70%;'></div></div>","null","pos","CS","CS","2","category2/CS9.png","","","","",""
"","html-keyboard-response","88","378550","0.0-6.0-6.0-0.19","1zw137onrg","many_one","0","direct_first","1","er06il20","0","23","1","1","3","1","","0","1","0","null","","","<div class = 'row'><div class = 'column'><img src = 'uspos/8490.bmp' width = '100%;'></div><div class = 'column'><img src = 'category2/CS8.png' width = '70%;'></div></div>","null","pos","CS","CS","2","category2/CS8.png","","","","",""
"","survey-html-form","89","387222","0.0-7.0","1zw137onrg","many_one","0","direct_first","1","er06il20","0","23","1","1","3","1","","0","1","0","8155.250000068918","","{}","","","","","","","","","","","",""
"","image-slider-response","90","401091","0.0-8.0-0.0","1zw137onrg","many_one","0","direct_first","1","er06il20","0","23","1","1","3","1","","0","1","0","11857.324999989942","","","","","neg","CS","CS","1","category1/CS7.png","-1","targets/8.png","direct","",""
"","image-slider-response","91","407515","0.0-8.0-0.1","1zw137onrg","many_one","0","direct_first","1","er06il20","0","23","1","1","3","1","","0","1","0","6420.335000031628","","","","","neg","GS","GSnew","1","category1/GS1.png","6","targets/3.png","direct","",""
"","image-slider-response","92","411691","0.0-8.0-0.2","1zw137onrg","many_one","0","direct_first","1","er06il20","0","23","1","1","3","1","","0","1","0","4173.429999966174","","","","","pos","GS","GSnew","2","category2/GS3.png","-18","targets/17.png","direct","",""
"","image-slider-response","93","415017","0.0-8.0-0.3","1zw137onrg","many_one","0","direct_first","1","er06il20","0","23","1","1","3","1","","0","1","0","3323.1800000648946","","","","","neg","GS","GSnew","1","category1/GS3.png","-21","targets/13.png","direct","",""
"","image-slider-response","94","419103","0.0-8.0-0.4","1zw137onrg","many_one","0","direct_first","1","er06il20","0","23","1","1","3","1","","0","1","0","4083.725000033155","","","","","neg","CS","CS","4","category4/CS8.png","-100","targets/30.png","direct","",""
"","image-slider-response","95","423294","0.0-8.0-0.5","1zw137onrg","many_one","0","direct_first","1","er06il20","0","23","1","1","3","1","","0","1","0","4186.955000041053","","","","","neg","CS","CS","1","category1/CS5.png","3","targets/21.png","direct","",""
"","image-slider-response","96","426959","0.0-8.0-0.6","1zw137onrg","many_one","0","direct_first","1","er06il20","0","23","1","1","3","1","","0","1","0","3663.0150000564754","","","","","neg","GS","abstract","4","category4/lin.png","-100","targets/4.png","direct","",""
"","image-slider-response","97","429952","0.0-8.0-0.7","1zw137onrg","many_one","0","direct_first","1","er06il20","0","23","1","1","3","1","","0","1","0","2990.819999948144","","","","","neg","GS","GSold","4","category4/CS2.png","-100","targets/16.png","direct","",""
"","image-slider-response","98","436220","0.0-8.0-0.8","1zw137onrg","many_one","0","direct_first","1","er06il20","0","23","1","1","3","1","","0","1","0","6265.7049999106675","","","","","pos","GS","GSold","2","category2/CS5.png","100","targets/32.png","direct","",""
"","image-slider-response","99","438769","0.0-8.0-0.9","1zw137onrg","many_one","0","direct_first","1","er06il20","0","23","1","1","3","1","","0","1","0","2546.485000057146","","","","","pos","GS","abstract","3","category3/wang.png","100","targets/33.png","direct","",""
"","image-slider-response","100","441201","0.0-8.0-0.10","1zw137onrg","many_one","0","direct_first","1","er06il20","0","23","1","1","3","1","","0","1","0","2429.119999986142","","","","","pos","CS","CS","2","category2/CS8.png","24","targets/26.png","direct","",""
"","image-slider-response","101","443656","0.0-8.0-0.11","1zw137onrg","many_one","0","direct_first","1","er06il20","0","23","1","1","3","1","","0","1","0","2452.389999991283","","","","","pos","CS","CS","2","category2/CS3.png","43","targets/47.png","direct","",""
"","image-slider-response","102","446529","0.0-8.0-0.12","1zw137onrg","many_one","0","direct_first","1","er06il20","0","23","1","1","3","1","","0","1","0","2870.794999995269","","","","","pos","GS","GSold","3","category3/CS1.png","48","targets/36.png","direct","",""
"","image-slider-response","103","449160","0.0-8.0-0.13","1zw137onrg","many_one","0","direct_first","1","er06il20","0","23","1","1","3","1","","0","1","0","2628.8799999747425","","","","","neg","CS","CS","4","category4/CS4.png","-100","targets/9.png","direct","",""
"","image-slider-response","104","451562","0.0-8.0-0.14","1zw137onrg","many_one","0","direct_first","1","er06il20","0","23","1","1","3","1","","0","1","0","2399.6749999932945","","","","","pos","GS","GSold","2","category2/CS1.png","56","targets/48.png","direct","",""
"","image-slider-response","105","455493","0.0-8.0-0.15","1zw137onrg","many_one","0","direct_first","1","er06il20","0","23","1","1","3","1","","0","1","0","3929.0899999905378","","","","","neg","CS","CS","1","category1/CS2.png","1","targets/35.png","direct","",""
"","image-slider-response","106","459735","0.0-8.0-0.16","1zw137onrg","many_one","0","direct_first","1","er06il20","0","23","1","1","3","1","","0","1","0","4239.410000038333","","","","","neg","GS","abstract","1","category1/ma.png","-1","targets/15.png","direct","",""
"","image-slider-response","107","463391","0.0-8.0-0.17","1zw137onrg","many_one","0","direct_first","1","er06il20","0","23","1","1","3","1","","0","1","0","3655.5950000183657","","","","","neg","CS","CS","1","category1/CS1.png","-1","targets/29.png","direct","",""
"","image-slider-response","108","465874","0.0-8.0-0.18","1zw137onrg","many_one","0","direct_first","1","er06il20","0","23","1","1","3","1","","0","1","0","2480.94499995932","","","","","neg","GS","GSnew","4","category4/GS3.png","-100","targets/5.png","direct","",""
"","image-slider-response","109","471602","0.0-8.0-0.19","1zw137onrg","many_one","0","direct_first","1","er06il20","0","23","1","1","3","1","","0","1","0","5726.32999997586","","","","","neg","GS","GSnew","4","category4/GS2.png","-100","targets/46.png","direct","",""
"","image-slider-response","110","473952","0.0-8.0-0.20","1zw137onrg","many_one","0","direct_first","1","er06il20","0","23","1","1","3","1","","0","1","0","2347.0499999821186","","","","","pos","GS","GSold","3","category3/CS6.png","42","targets/25.png","direct","",""
"","image-slider-response","111","476901","0.0-8.0-0.21","1zw137onrg","many_one","0","direct_first","1","er06il20","0","23","1","1","3","1","","0","1","0","2947.0300000393763","","","","","neg","GS","GSnew","4","category4/GS1.png","-100","targets/10.png","direct","",""
"","image-slider-response","112","480942","0.0-8.0-0.22","1zw137onrg","many_one","0","direct_first","1","er06il20","0","23","1","1","3","1","","0","1","0","4039.7200000006706","","","","","neg","GS","GSold","4","category4/CS7.png","-100","targets/31.png","direct","",""
"","image-slider-response","113","486551","0.0-8.0-0.23","1zw137onrg","many_one","0","direct_first","1","er06il20","0","23","1","1","3","1","","0","1","0","5605.7150000706315","","","","","neg","CS","CS","4","category4/CS1.png","-100","targets/40.png","direct","",""
"","image-slider-response","114","489138","0.0-8.0-0.24","1zw137onrg","many_one","0","direct_first","1","er06il20","0","23","1","1","3","1","","0","1","0","2584.9500000476837","","","","","pos","GS","GSnew","3","category3/GS2.png","14","targets/42.png","direct","",""
"","image-slider-response","115","491731","0.0-8.0-0.25","1zw137onrg","many_one","0","direct_first","1","er06il20","0","23","1","1","3","1","","0","1","0","2590.639999951236","","","","","pos","GS","GSold","3","category3/CS8.png","58","targets/37.png","direct","",""
"","image-slider-response","116","494317","0.0-8.0-0.26","1zw137onrg","many_one","0","direct_first","1","er06il20","0","23","1","1","3","1","","0","1","0","2584.3500000191852","","","","","pos","CS","CS","3","category3/CS3.png","55","targets/14.png","direct","",""
"","image-slider-response","117","496609","0.0-8.0-0.27","1zw137onrg","many_one","0","direct_first","1","er06il20","0","23","1","1","3","1","","0","1","0","2289.490000111982","","","","","pos","GS","GSnew","3","category3/GS1.png","10","targets/11.png","direct","",""
"","image-slider-response","118","499852","0.0-8.0-0.28","1zw137onrg","many_one","0","direct_first","1","er06il20","0","23","1","1","3","1","","0","1","0","3241.6100000264123","","","","","neg","GS","GSold","1","category1/CS10.png","-66","targets/1.png","direct","",""
"","image-slider-response","119","502860","0.0-8.0-0.29","1zw137onrg","many_one","0","direct_first","1","er06il20","0","23","1","1","3","1","","0","1","0","3004.979999968782","","","","","neg","CS","CS","1","category1/CS4.png","-47","targets/39.png","direct","",""
"","image-slider-response","120","505269","0.0-8.0-0.30","1zw137onrg","many_one","0","direct_first","1","er06il20","0","23","1","1","3","1","","0","1","0","2406.9199999794364","","","","","pos","GS","GSnew","3","category3/GS3.png","-3","targets/43.png","direct","",""
"","image-slider-response","121","508490","0.0-8.0-0.31","1zw137onrg","many_one","0","direct_first","1","er06il20","0","23","1","1","3","1","","0","1","0","3219.0499999560416","","","","","neg","CS","CS","4","category4/CS6.png","-100","targets/20.png","direct","",""
"","image-slider-response","122","513758","0.0-8.0-0.32","1zw137onrg","many_one","0","direct_first","1","er06il20","0","23","1","1","3","1","","0","1","0","5266.35500008706","","","","","pos","GS","GSold","2","category2/CS7.png","57","targets/27.png","direct","",""
"","image-slider-response","123","517379","0.0-8.0-0.33","1zw137onrg","many_one","0","direct_first","1","er06il20","0","23","1","1","3","1","","0","1","0","3618.1749999523163","","","","","pos","CS","CS","3","category3/CS9.png","-1","targets/28.png","direct","",""
"","image-slider-response","124","522387","0.0-8.0-0.34","1zw137onrg","many_one","0","direct_first","1","er06il20","0","23","1","1","3","1","","0","1","0","5006.334999925457","","","","","neg","GS","GSnew","1","category1/GS2.png","1","targets/22.png","direct","",""
"","image-slider-response","125","526285","0.0-8.0-0.35","1zw137onrg","many_one","0","direct_first","1","er06il20","0","23","1","1","3","1","","0","1","0","3895.0150000164285","","","","","pos","CS","CS","3","category3/CS5.png","91","targets/19.png","direct","",""
"","image-slider-response","126","529030","0.0-8.0-0.36","1zw137onrg","many_one","0","direct_first","1","er06il20","0","23","1","1","3","1","","0","1","0","2742.545000044629","","","","","pos","CS","CS","2","category2/CS10.png","63","targets/7.png","direct","",""
"","image-slider-response","127","536602","0.0-8.0-0.37","1zw137onrg","many_one","0","direct_first","1","er06il20","0","23","1","1","3","1","","0","1","0","7569.6950000710785","","","","","pos","GS","GSnew","2","category2/GS2.png","-3","targets/18.png","direct","",""
"","image-slider-response","128","542843","0.0-8.0-0.38","1zw137onrg","many_one","0","direct_first","1","er06il20","0","23","1","1","3","1","","0","1","0","6239.004999981262","","","","","pos","GS","GSnew","2","category2/GS1.png","-5","targets/41.png","direct","",""
"","image-slider-response","129","545885","0.0-8.0-0.39","1zw137onrg","many_one","0","direct_first","1","er06il20","0","23","1","1","3","1","","0","1","0","3039.214999997057","","","","","pos","CS","CS","2","category2/CS9.png","9","targets/45.png","direct","",""
"","image-slider-response","130","550235","0.0-8.0-0.40","1zw137onrg","many_one","0","direct_first","1","er06il20","0","23","1","1","3","1","","0","1","0","4347.245000069961","","","","","neg","CS","CS","4","category4/CS10.png","-100","targets/44.png","direct","",""
"","image-slider-response","131","554933","0.0-8.0-0.41","1zw137onrg","many_one","0","direct_first","1","er06il20","0","23","1","1","3","1","","0","1","0","4695.745000033639","","","","","pos","CS","CS","2","category2/CS4.png","27","targets/38.png","direct","",""
"","image-slider-response","132","558574","0.0-8.0-0.42","1zw137onrg","many_one","0","direct_first","1","er06il20","0","23","1","1","3","1","","0","1","0","3638.3949998999014","","","","","pos","GS","abstract","2","category2/men.png","100","targets/12.png","direct","",""
"","image-slider-response","133","562619","0.0-8.0-0.43","1zw137onrg","many_one","0","direct_first","1","er06il20","0","23","1","1","3","1","","0","1","0","4042.119999998249","","","","","neg","GS","GSold","1","category1/CS9.png","-1","targets/6.png","direct","",""
"","image-slider-response","134","567013","0.0-8.0-0.44","1zw137onrg","many_one","0","direct_first","1","er06il20","0","23","1","1","3","1","","0","1","0","4392.089999979362","","","","","pos","CS","CS","3","category3/CS10.png","42","targets/24.png","direct","",""
"","image-slider-response","135","569496","0.0-8.0-0.45","1zw137onrg","many_one","0","direct_first","1","er06il20","0","23","1","1","3","1","","0","1","0","2479.814999969676","","","","","pos","CS","CS","3","category3/CS2.png","46","targets/2.png","direct","",""
"","image-slider-response","136","573153","0.0-8.0-0.46","1zw137onrg","many_one","0","direct_first","1","er06il20","0","23","1","1","3","1","","0","1","0","3654.72500002943","","","","","neg","GS","GSold","1","category1/CS8.png","-3","targets/34.png","direct","",""
"","image-slider-response","137","576317","0.0-8.0-0.47","1zw137onrg","many_one","0","direct_first","1","er06il20","0","23","1","1","3","1","","0","1","0","3162.4050000682473","","","","","neg","GS","GSold","4","category4/CS3.png","-100","targets/23.png","direct","",""
"","html-keyboard-response","138","599524","0.0-9.0","1zw137onrg","many_one","0","direct_first","1","er06il20","0","23","1","1","3","1","","0","1","0","23199.264999944717","","","<p>Sie sehen nun die chinesischen Zeichen nur ganz kurz. Danach sehen Sie die jeweilige Aussprache der Zeichen als Silbe auf dem Bildschrim. Ihre Aufgabe ist es, für jede Silbe anzugeben, ob diese etwas angenehmes, oder unangenehmes bedeuten könnte. Verlassen Sie sich hier vor allem auf Ihre Intuition.<br><br>Die Zeichen werden nur zur Orientierung dargestellt, beachten Sie sie deshalb nicht. Konzentrieren Sie sich vor allem auf die Silben. <br>Reagieren Sie mit folgenden zwei Tasten: <br><br><b>'D' </b> wenn die Silbe etwas <b>unangenehmes</b> bedeuten könnte. <br><b>'K'</b> wenn die Silbe etwas <b>angenehmes</b> bedeuten könnte. <br><br>Bitte legen Sie nun den Zeigefinger der linken Hand auf die Taste 'D' und den Zeigefinger der rechten Hand auf die Taste 'K'. <br>Reagieren Sie auf jede Silbe so schnell wie möglich. Uns interessiert Ihre spontane Reaktion. <br> <br> <br>Drücken Sie 'D' oder 'K', um die nächste Aufgabe zu starten. </p>","68","","","","","","","","","",""
"","html-keyboard-response","139","602550","0.0-10.0-0.0","1zw137onrg","many_one","0","direct_first","1","er06il20","0","23","1","1","3","1","","0","1","0","null","","","<div style=""font-size:60px;"">+</div>","null","","","","","","","","","",""
"","html-keyboard-response","140","602655","0.0-10.0-1.0","1zw137onrg","many_one","0","direct_first","1","er06il20","0","23","1","1","3","1","","0","1","0","null","","","<img src = 'category1/CS5.png' width = '100%;'>","null","","","","","","","","","",""
"","html-keyboard-response","141","602926","0.0-10.0-2.0","1zw137onrg","many_one","0","direct_first","1","er06il20","0","23","1","1","3","1","","0","1","0","null","","","<img src = 'targets/21.png' width = '100%;'>","null","","","","","","","","","",""
"","html-keyboard-response","142","611493","0.0-10.0-3.0","1zw137onrg","many_one","0","direct_first","1","er06il20","0","23","1","1","3","1","","0","1","0","8565.59000001289","","","<img src = 'targets/mask.png' width = '100%;'>","68","neg","CS","CS","1","category1/CS5.png","","targets/21.png","indirect","0","0"
"","html-keyboard-response","143","613015","0.0-10.0-0.1","1zw137onrg","many_one","0","direct_first","1","er06il20","0","23","1","1","3","1","","0","1","0","null","","","<div style=""font-size:60px;"">+</div>","null","","","","","","","","","",""
"","html-keyboard-response","144","613107","0.0-10.0-1.1","1zw137onrg","many_one","0","direct_first","1","er06il20","0","23","1","1","3","1","","0","1","0","null","","","<img src = 'category1/CS4.png' width = '100%;'>","null","","","","","","","","","",""
"","html-keyboard-response","145","613372","0.0-10.0-2.1","1zw137onrg","many_one","0","direct_first","1","er06il20","0","23","1","1","3","1","","0","1","0","null","","","<img src = 'targets/39.png' width = '100%;'>","null","","","","","","","","","",""
"","html-keyboard-response","146","617572","0.0-10.0-3.1","1zw137onrg","many_one","0","direct_first","1","er06il20","0","23","1","1","3","1","","0","1","0","4198.964999988675","","","<img src = 'targets/mask.png' width = '100%;'>","75","neg","CS","CS","1","category1/CS4.png","","targets/39.png","indirect","1","1"
"","html-keyboard-response","147","619097","0.0-10.0-0.2","1zw137onrg","many_one","0","direct_first","1","er06il20","0","23","1","1","3","1","","0","1","0","null","","","<div style=""font-size:60px;"">+</div>","null","","","","","","","","","",""
"","html-keyboard-response","148","619193","0.0-10.0-1.2","1zw137onrg","many_one","0","direct_first","1","er06il20","0","23","1","1","3","1","","0","1","0","null","","","<img src = 'category3/CS5.png' width = '100%;'>","null","","","","","","","","","",""
"","html-keyboard-response","149","619458","0.0-10.0-2.2","1zw137onrg","many_one","0","direct_first","1","er06il20","0","23","1","1","3","1","","0","1","0","null","","","<img src = 'targets/19.png' width = '100%;'>","null","","","","","","","","","",""
"","html-keyboard-response","150","624029","0.0-10.0-3.2","1zw137onrg","many_one","0","direct_first","1","er06il20","0","23","1","1","3","1","","0","1","0","4568.8549999613315","","","<img src = 'targets/mask.png' width = '100%;'>","68","pos","CS","CS","3","category3/CS5.png","","targets/19.png","indirect","0","2"
"","html-keyboard-response","151","625539","0.0-10.0-0.3","1zw137onrg","many_one","0","direct_first","1","er06il20","0","23","1","1","3","1","","0","1","0","null","","","<div style=""font-size:60px;"">+</div>","null","","","","","","","","","",""
"","html-keyboard-response","152","625639","0.0-10.0-1.3","1zw137onrg","many_one","0","direct_first","1","er06il20","0","23","1","1","3","1","","0","1","0","null","","","<img src = 'category2/CS10.png' width = '100%;'>","null","","","","","","","","","",""
"","html-keyboard-response","153","625905","0.0-10.0-2.3","1zw137onrg","many_one","0","direct_first","1","er06il20","0","23","1","1","3","1","","0","1","0","null","","","<img src = 'targets/7.png' width = '100%;'>","null","","","","","","","","","",""
"","html-keyboard-response","154","626781","0.0-10.0-3.3","1zw137onrg","many_one","0","direct_first","1","er06il20","0","23","1","1","3","1","","0","1","0","873.6600000411272","","","<img src = 'targets/mask.png' width = '100%;'>","68","pos","CS","CS","2","category2/CS10.png","","targets/7.png","indirect","0","3"
"","html-keyboard-response","155","628303","0.0-10.0-0.4","1zw137onrg","many_one","0","direct_first","1","er06il20","0","23","1","1","3","1","","0","1","0","null","","","<div style=""font-size:60px;"">+</div>","null","","","","","","","","","",""
"","html-keyboard-response","156","628402","0.0-10.0-1.4","1zw137onrg","many_one","0","direct_first","1","er06il20","0","23","1","1","3","1","","0","1","0","null","","","<img src = 'category1/CS2.png' width = '100%;'>","null","","","","","","","","","",""
"","html-keyboard-response","157","628674","0.0-10.0-2.4","1zw137onrg","many_one","0","direct_first","1","er06il20","0","23","1","1","3","1","","0","1","0","null","","","<img src = 'targets/35.png' width = '100%;'>","null","","","","","","","","","",""
"","html-keyboard-response","158","630797","0.0-10.0-3.4","1zw137onrg","many_one","0","direct_first","1","er06il20","0","23","1","1","3","1","","0","1","0","2121.9050000654534","","","<img src = 'targets/mask.png' width = '100%;'>","75","neg","CS","CS","1","category1/CS2.png","","targets/35.png","indirect","1","4"
"","html-keyboard-response","159","632306","0.0-10.0-0.5","1zw137onrg","many_one","0","direct_first","1","er06il20","0","23","1","1","3","1","","0","1","0","null","","","<div style=""font-size:60px;"">+</div>","null","","","","","","","","","",""
"","html-keyboard-response","160","632406","0.0-10.0-1.5","1zw137onrg","many_one","0","direct_first","1","er06il20","0","23","1","1","3","1","","0","1","0","null","","","<img src = 'category1/CS9.png' width = '100%;'>","null","","","","","","","","","",""
"","html-keyboard-response","161","632673","0.0-10.0-2.5","1zw137onrg","many_one","0","direct_first","1","er06il20","0","23","1","1","3","1","","0","1","0","null","","","<img src = 'targets/6.png' width = '100%;'>","null","","","","","","","","","",""
"","html-keyboard-response","162","633468","0.0-10.0-3.5","1zw137onrg","many_one","0","direct_first","1","er06il20","0","23","1","1","3","1","","0","1","0","793.3150000171736","","","<img src = 'targets/mask.png' width = '100%;'>","68","neg","GS","GSold","1","category1/CS9.png","","targets/6.png","indirect","0","5"
"","html-keyboard-response","163","634981","0.0-10.0-0.6","1zw137onrg","many_one","0","direct_first","1","er06il20","0","23","1","1","3","1","","0","1","0","null","","","<div style=""font-size:60px;"">+</div>","null","","","","","","","","","",""
"","html-keyboard-response","164","635080","0.0-10.0-1.6","1zw137onrg","many_one","0","direct_first","1","er06il20","0","23","1","1","3","1","","0","1","0","null","","","<img src = 'category4/CS4.png' width = '100%;'>","null","","","","","","","","","",""
"","html-keyboard-response","165","635339","0.0-10.0-2.6","1zw137onrg","many_one","0","direct_first","1","er06il20","0","23","1","1","3","1","","0","1","0","null","","","<img src = 'targets/9.png' width = '100%;'>","null","","","","","","","","","",""
"","html-keyboard-response","166","637361","0.0-10.0-3.6","1zw137onrg","many_one","0","direct_first","1","er06il20","0","23","1","1","3","1","","0","1","0","2019.9649999849498","","","<img src = 'targets/mask.png' width = '100%;'>","75","neg","CS","CS","4","category4/CS4.png","","targets/9.png","indirect","1","6"
"","html-keyboard-response","167","638889","0.0-10.0-0.7","1zw137onrg","many_one","0","direct_first","1","er06il20","0","23","1","1","3","1","","0","1","0","null","","","<div style=""font-size:60px;"">+</div>","null","","","","","","","","","",""
"","html-keyboard-response","168","638989","0.0-10.0-1.7","1zw137onrg","many_one","0","direct_first","1","er06il20","0","23","1","1","3","1","","0","1","0","null","","","<img src = 'category4/CS6.png' width = '100%;'>","null","","","","","","","","","",""
"","html-keyboard-response","169","639266","0.0-10.0-2.7","1zw137onrg","many_one","0","direct_first","1","er06il20","0","23","1","1","3","1","","0","1","0","null","","","<img src = 'targets/20.png' width = '100%;'>","null","","","","","","","","","",""
"","html-keyboard-response","170","641109","0.0-10.0-3.7","1zw137onrg","many_one","0","direct_first","1","er06il20","0","23","1","1","3","1","","0","1","0","1840.7700000097975","","","<img src = 'targets/mask.png' width = '100%;'>","75","neg","CS","CS","4","category4/CS6.png","","targets/20.png","indirect","1","7"
"","html-keyboard-response","171","642613","0.0-10.0-0.8","1zw137onrg","many_one","0","direct_first","1","er06il20","0","23","1","1","3","1","","0","1","0","null","","","<div style=""font-size:60px;"">+</div>","null","","","","","","","","","",""
"","html-keyboard-response","172","642721","0.0-10.0-1.8","1zw137onrg","many_one","0","direct_first","1","er06il20","0","23","1","1","3","1","","0","1","0","null","","","<img src = 'category1/CS8.png' width = '100%;'>","null","","","","","","","","","",""
"","html-keyboard-response","173","642987","0.0-10.0-2.8","1zw137onrg","many_one","0","direct_first","1","er06il20","0","23","1","1","3","1","","0","1","0","null","","","<img src = 'targets/34.png' width = '100%;'>","null","","","","","","","","","",""
"","html-keyboard-response","174","644820","0.0-10.0-3.8","1zw137onrg","many_one","0","direct_first","1","er06il20","0","23","1","1","3","1","","0","1","0","1830.8049999177456","","","<img src = 'targets/mask.png' width = '100%;'>","68","neg","GS","GSold","1","category1/CS8.png","","targets/34.png","indirect","0","8"
"","html-keyboard-response","175","646341","0.0-10.0-0.9","1zw137onrg","many_one","0","direct_first","1","er06il20","0","23","1","1","3","1","","0","1","0","null","","","<div style=""font-size:60px;"">+</div>","null","","","","","","","","","",""
"","html-keyboard-response","176","646441","0.0-10.0-1.9","1zw137onrg","many_one","0","direct_first","1","er06il20","0","23","1","1","3","1","","0","1","0","null","","","<img src = 'category1/CS1.png' width = '100%;'>","null","","","","","","","","","",""
"","html-keyboard-response","177","646709","0.0-10.0-2.9","1zw137onrg","many_one","0","direct_first","1","er06il20","0","23","1","1","3","1","","0","1","0","null","","","<img src = 'targets/29.png' width = '100%;'>","null","","","","","","","","","",""
"","html-keyboard-response","178","648229","0.0-10.0-3.9","1zw137onrg","many_one","0","direct_first","1","er06il20","0","23","1","1","3","1","","0","1","0","1517.5900000613183","","","<img src = 'targets/mask.png' width = '100%;'>","68","neg","CS","CS","1","category1/CS1.png","","targets/29.png","indirect","0","9"
"","html-keyboard-response","179","649746","0.0-10.0-0.10","1zw137onrg","many_one","0","direct_first","1","er06il20","0","23","1","1","3","1","","0","1","0","null","","","<div style=""font-size:60px;"">+</div>","null","","","","","","","","","",""
"","html-keyboard-response","180","649837","0.0-10.0-1.10","1zw137onrg","many_one","0","direct_first","1","er06il20","0","23","1","1","3","1","","0","1","0","null","","","<img src = 'category3/CS10.png' width = '100%;'>","null","","","","","","","","","",""
"","html-keyboard-response","181","650104","0.0-10.0-2.10","1zw137onrg","many_one","0","direct_first","1","er06il20","0","23","1","1","3","1","","0","1","0","null","","","<img src = 'targets/24.png' width = '100%;'>","null","","","","","","","","","",""
"","html-keyboard-response","182","652934","0.0-10.0-3.10","1zw137onrg","many_one","0","direct_first","1","er06il20","0","23","1","1","3","1","","0","1","0","2828.0850000446662","","","<img src = 'targets/mask.png' width = '100%;'>","68","pos","CS","CS","3","category3/CS10.png","","targets/24.png","indirect","0","10"
"","html-keyboard-response","183","654447","0.0-10.0-0.11","1zw137onrg","many_one","0","direct_first","1","er06il20","0","23","1","1","3","1","","0","1","0","null","","","<div style=""font-size:60px;"">+</div>","null","","","","","","","","","",""
"","html-keyboard-response","184","654546","0.0-10.0-1.11","1zw137onrg","many_one","0","direct_first","1","er06il20","0","23","1","1","3","1","","0","1","0","null","","","<img src = 'category3/CS9.png' width = '100%;'>","null","","","","","","","","","",""
"","html-keyboard-response","185","654805","0.0-10.0-2.11","1zw137onrg","many_one","0","direct_first","1","er06il20","0","23","1","1","3","1","","0","1","0","null","","","<img src = 'targets/28.png' width = '100%;'>","null","","","","","","","","","",""
"","html-keyboard-response","186","657138","0.0-10.0-3.11","1zw137onrg","many_one","0","direct_first","1","er06il20","0","23","1","1","3","1","","0","1","0","2331.514999968931","","","<img src = 'targets/mask.png' width = '100%;'>","75","pos","CS","CS","3","category3/CS9.png","","targets/28.png","indirect","1","11"
"","html-keyboard-response","187","658663","0.0-10.0-0.12","1zw137onrg","many_one","0","direct_first","1","er06il20","0","23","1","1","3","1","","0","1","0","null","","","<div style=""font-size:60px;"">+</div>","null","","","","","","","","","",""
"","html-keyboard-response","188","658763","0.0-10.0-1.12","1zw137onrg","many_one","0","direct_first","1","er06il20","0","23","1","1","3","1","","0","1","0","null","","","<img src = 'category2/CS8.png' width = '100%;'>","null","","","","","","","","","",""
"","html-keyboard-response","189","659038","0.0-10.0-2.12","1zw137onrg","many_one","0","direct_first","1","er06il20","0","23","1","1","3","1","","0","1","0","null","","","<img src = 'targets/26.png' width = '100%;'>","null","","","","","","","","","",""
"","html-keyboard-response","190","659977","0.0-10.0-3.12","1zw137onrg","many_one","0","direct_first","1","er06il20","0","23","1","1","3","1","","0","1","0","937.1050000190735","","","<img src = 'targets/mask.png' width = '100%;'>","75","pos","CS","CS","2","category2/CS8.png","","targets/26.png","indirect","1","12"
"","html-keyboard-response","191","661496","0.0-10.0-0.13","1zw137onrg","many_one","0","direct_first","1","er06il20","0","23","1","1","3","1","","0","1","0","null","","","<div style=""font-size:60px;"">+</div>","null","","","","","","","","","",""
"","html-keyboard-response","192","661587","0.0-10.0-1.13","1zw137onrg","many_one","0","direct_first","1","er06il20","0","23","1","1","3","1","","0","1","0","null","","","<img src = 'category3/CS6.png' width = '100%;'>","null","","","","","","","","","",""
"","html-keyboard-response","193","661854","0.0-10.0-2.13","1zw137onrg","many_one","0","direct_first","1","er06il20","0","23","1","1","3","1","","0","1","0","null","","","<img src = 'targets/25.png' width = '100%;'>","null","","","","","","","","","",""
"","html-keyboard-response","194","663351","0.0-10.0-3.13","1zw137onrg","many_one","0","direct_first","1","er06il20","0","23","1","1","3","1","","0","1","0","1494.4100000429899","","","<img src = 'targets/mask.png' width = '100%;'>","75","pos","GS","GSold","3","category3/CS6.png","","targets/25.png","indirect","1","13"
"","html-keyboard-response","195","664864","0.0-10.0-0.14","1zw137onrg","many_one","0","direct_first","1","er06il20","0","23","1","1","3","1","","0","1","0","null","","","<div style=""font-size:60px;"">+</div>","null","","","","","","","","","",""
"","html-keyboard-response","196","664961","0.0-10.0-1.14","1zw137onrg","many_one","0","direct_first","1","er06il20","0","23","1","1","3","1","","0","1","0","null","","","<img src = 'category1/CS10.png' width = '100%;'>","null","","","","","","","","","",""
"","html-keyboard-response","197","665238","0.0-10.0-2.14","1zw137onrg","many_one","0","direct_first","1","er06il20","0","23","1","1","3","1","","0","1","0","null","","","<img src = 'targets/1.png' width = '100%;'>","null","","","","","","","","","",""
"","html-keyboard-response","198","666020","0.0-10.0-3.14","1zw137onrg","many_one","0","direct_first","1","er06il20","0","23","1","1","3","1","","0","1","0","780.7699999539182","","","<img src = 'targets/mask.png' width = '100%;'>","68","neg","GS","GSold","1","category1/CS10.png","","targets/1.png","indirect","0","14"
"","html-keyboard-response","199","667538","0.0-10.0-0.15","1zw137onrg","many_one","0","direct_first","1","er06il20","0","23","1","1","3","1","","0","1","0","null","","","<div style=""font-size:60px;"">+</div>","null","","","","","","","","","",""
"","html-keyboard-response","200","667637","0.0-10.0-1.15","1zw137onrg","many_one","0","direct_first","1","er06il20","0","23","1","1","3","1","","0","1","0","null","","","<img src = 'category2/CS9.png' width = '100%;'>","null","","","","","","","","","",""
"","html-keyboard-response","201","667907","0.0-10.0-2.15","1zw137onrg","many_one","0","direct_first","1","er06il20","0","23","1","1","3","1","","0","1","0","null","","","<img src = 'targets/45.png' width = '100%;'>","null","","","","","","","","","",""
"","html-keyboard-response","202","670713","0.0-10.0-3.15","1zw137onrg","many_one","0","direct_first","1","er06il20","0","23","1","1","3","1","","0","1","0","2804.115000064485","","","<img src = 'targets/mask.png' width = '100%;'>","75","pos","CS","CS","2","category2/CS9.png","","targets/45.png","indirect","1","15"
"","html-keyboard-response","203","672238","0.0-10.0-0.16","1zw137onrg","many_one","0","direct_first","1","er06il20","0","23","1","1","3","1","","0","1","0","null","","","<div style=""font-size:60px;"">+</div>","null","","","","","","","","","",""
"","html-keyboard-response","204","672330","0.0-10.0-1.16","1zw137onrg","many_one","0","direct_first","1","er06il20","0","23","1","1","3","1","","0","1","0","null","","","<img src = 'category4/CS8.png' width = '100%;'>","null","","","","","","","","","",""
"","html-keyboard-response","205","672596","0.0-10.0-2.16","1zw137onrg","many_one","0","direct_first","1","er06il20","0","23","1","1","3","1","","0","1","0","null","","","<img src = 'targets/30.png' width = '100%;'>","null","","","","","","","","","",""
"","html-keyboard-response","206","674406","0.0-10.0-3.16","1zw137onrg","many_one","0","direct_first","1","er06il20","0","23","1","1","3","1","","0","1","0","1807.8449999447912","","","<img src = 'targets/mask.png' width = '100%;'>","75","neg","CS","CS","4","category4/CS8.png","","targets/30.png","indirect","1","16"
"","html-keyboard-response","207","675923","0.0-10.0-0.17","1zw137onrg","many_one","0","direct_first","1","er06il20","0","23","1","1","3","1","","0","1","0","null","","","<div style=""font-size:60px;"">+</div>","null","","","","","","","","","",""
"","html-keyboard-response","208","676015","0.0-10.0-1.17","1zw137onrg","many_one","0","direct_first","1","er06il20","0","23","1","1","3","1","","0","1","0","null","","","<img src = 'category2/CS4.png' width = '100%;'>","null","","","","","","","","","",""
"","html-keyboard-response","209","676288","0.0-10.0-2.17","1zw137onrg","many_one","0","direct_first","1","er06il20","0","23","1","1","3","1","","0","1","0","null","","","<img src = 'targets/38.png' width = '100%;'>","null","","","","","","","","","",""
"","html-keyboard-response","210","679058","0.0-10.0-3.17","1zw137onrg","many_one","0","direct_first","1","er06il20","0","23","1","1","3","1","","0","1","0","2767.7450000774115","","","<img src = 'targets/mask.png' width = '100%;'>","68","pos","CS","CS","2","category2/CS4.png","","targets/38.png","indirect","0","17"
"","html-keyboard-response","211","680571","0.0-10.0-0.18","1zw137onrg","many_one","0","direct_first","1","er06il20","0","23","1","1","3","1","","0","1","0","null","","","<div style=""font-size:60px;"">+</div>","null","","","","","","","","","",""
"","html-keyboard-response","212","680667","0.0-10.0-1.18","1zw137onrg","many_one","0","direct_first","1","er06il20","0","23","1","1","3","1","","0","1","0","null","","","<img src = 'category4/CS10.png' width = '100%;'>","null","","","","","","","","","",""
"","html-keyboard-response","213","680938","0.0-10.0-2.18","1zw137onrg","many_one","0","direct_first","1","er06il20","0","23","1","1","3","1","","0","1","0","null","","","<img src = 'targets/44.png' width = '100%;'>","null","","","","","","","","","",""
"","html-keyboard-response","214","682201","0.0-10.0-3.18","1zw137onrg","many_one","0","direct_first","1","er06il20","0","23","1","1","3","1","","0","1","0","1260.9799999045208","","","<img src = 'targets/mask.png' width = '100%;'>","68","neg","CS","CS","4","category4/CS10.png","","targets/44.png","indirect","0","18"
"","html-keyboard-response","215","683721","0.0-10.0-0.19","1zw137onrg","many_one","0","direct_first","1","er06il20","0","23","1","1","3","1","","0","1","0","null","","","<div style=""font-size:60px;"">+</div>","null","","","","","","","","","",""
"","html-keyboard-response","216","683821","0.0-10.0-1.19","1zw137onrg","many_one","0","direct_first","1","er06il20","0","23","1","1","3","1","","0","1","0","null","","","<img src = 'category3/CS3.png' width = '100%;'>","null","","","","","","","","","",""
"","html-keyboard-response","217","684088","0.0-10.0-2.19","1zw137onrg","many_one","0","direct_first","1","er06il20","0","23","1","1","3","1","","0","1","0","null","","","<img src = 'targets/14.png' width = '100%;'>","null","","","","","","","","","",""
"","html-keyboard-response","218","685272","0.0-10.0-3.19","1zw137onrg","many_one","0","direct_first","1","er06il20","0","23","1","1","3","1","","0","1","0","1182.1899999631569","","","<img src = 'targets/mask.png' width = '100%;'>","68","pos","CS","CS","3","category3/CS3.png","","targets/14.png","indirect","0","19"
"","html-keyboard-response","219","686797","0.0-10.0-0.20","1zw137onrg","many_one","0","direct_first","1","er06il20","0","23","1","1","3","1","","0","1","0","null","","","<div style=""font-size:60px;"">+</div>","null","","","","","","","","","",""
"","html-keyboard-response","220","686893","0.0-10.0-1.20","1zw137onrg","many_one","0","direct_first","1","er06il20","0","23","1","1","3","1","","0","1","0","null","","","<img src = 'category3/CS2.png' width = '100%;'>","null","","","","","","","","","",""
"","html-keyboard-response","221","687155","0.0-10.0-2.20","1zw137onrg","many_one","0","direct_first","1","er06il20","0","23","1","1","3","1","","0","1","0","null","","","<img src = 'targets/2.png' width = '100%;'>","null","","","","","","","","","",""
"","html-keyboard-response","222","688122","0.0-10.0-3.20","1zw137onrg","many_one","0","direct_first","1","er06il20","0","23","1","1","3","1","","0","1","0","965.5100000090897","","","<img src = 'targets/mask.png' width = '100%;'>","68","pos","CS","CS","3","category3/CS2.png","","targets/2.png","indirect","0","20"
"","html-keyboard-response","223","689640","0.0-10.0-0.21","1zw137onrg","many_one","0","direct_first","1","er06il20","0","23","1","1","3","1","","0","1","0","null","","","<div style=""font-size:60px;"">+</div>","null","","","","","","","","","",""
"","html-keyboard-response","224","689731","0.0-10.0-1.21","1zw137onrg","many_one","0","direct_first","1","er06il20","0","23","1","1","3","1","","0","1","0","null","","","<img src = 'category1/CS7.png' width = '100%;'>","null","","","","","","","","","",""
"","html-keyboard-response","225","689993","0.0-10.0-2.21","1zw137onrg","many_one","0","direct_first","1","er06il20","0","23","1","1","3","1","","0","1","0","null","","","<img src = 'targets/8.png' width = '100%;'>","null","","","","","","","","","",""
"","html-keyboard-response","226","691409","0.0-10.0-3.21","1zw137onrg","many_one","0","direct_first","1","er06il20","0","23","1","1","3","1","","0","1","0","1413.5600000154227","","","<img src = 'targets/mask.png' width = '100%;'>","75","neg","CS","CS","1","category1/CS7.png","","targets/8.png","indirect","1","21"
"","html-keyboard-response","227","692930","0.0-10.0-0.22","1zw137onrg","many_one","0","direct_first","1","er06il20","0","23","1","1","3","1","","0","1","0","null","","","<div style=""font-size:60px;"">+</div>","null","","","","","","","","","",""
"","html-keyboard-response","228","693024","0.0-10.0-1.22","1zw137onrg","many_one","0","direct_first","1","er06il20","0","23","1","1","3","1","","0","1","0","null","","","<img src = 'category4/CS1.png' width = '100%;'>","null","","","","","","","","","",""
"","html-keyboard-response","229","693284","0.0-10.0-2.22","1zw137onrg","many_one","0","direct_first","1","er06il20","0","23","1","1","3","1","","0","1","0","null","","","<img src = 'targets/40.png' width = '100%;'>","null","","","","","","","","","",""
"","html-keyboard-response","230","694580","0.0-10.0-3.22","1zw137onrg","many_one","0","direct_first","1","er06il20","0","23","1","1","3","1","","0","1","0","1294.5599999511614","","","<img src = 'targets/mask.png' width = '100%;'>","68","neg","CS","CS","4","category4/CS1.png","","targets/40.png","indirect","0","22"
"","html-keyboard-response","231","696094","0.0-10.0-0.23","1zw137onrg","many_one","0","direct_first","1","er06il20","0","23","1","1","3","1","","0","1","0","null","","","<div style=""font-size:60px;"">+</div>","null","","","","","","","","","",""
"","html-keyboard-response","232","696192","0.0-10.0-1.23","1zw137onrg","many_one","0","direct_first","1","er06il20","0","23","1","1","3","1","","0","1","0","null","","","<img src = 'category2/CS3.png' width = '100%;'>","null","","","","","","","","","",""
"","html-keyboard-response","233","696448","0.0-10.0-2.23","1zw137onrg","many_one","0","direct_first","1","er06il20","0","23","1","1","3","1","","0","1","0","null","","","<img src = 'targets/47.png' width = '100%;'>","null","","","","","","","","","",""
"","html-keyboard-response","234","697379","0.0-10.0-3.23","1zw137onrg","many_one","0","direct_first","1","er06il20","0","23","1","1","3","1","","0","1","0","929.2100000893697","","","<img src = 'targets/mask.png' width = '100%;'>","75","pos","CS","CS","2","category2/CS3.png","","targets/47.png","indirect","1","23"
"","survey-html-form","235","699744","0.0-11.0","1zw137onrg","many_one","0","direct_first","1","er06il20","0","23","1","1","3","1","","0","1","0","1858.9299999875948","","{}","","","","","","","","","","","",""
"","html-keyboard-response","236","702763","0.0-12.0-0.0","1zw137onrg","many_one","0","direct_first","1","er06il20","0","23","1","1","3","1","","0","1","0","null","","","<div style=""font-size:60px;"">+</div>","null","","","","","","","","","",""
"","html-keyboard-response","237","702870","0.0-12.0-1.0","1zw137onrg","many_one","0","direct_first","1","er06il20","0","23","1","1","3","1","","0","1","0","null","","","<img src = 'category2/GS1.png' width = '100%;'>","null","","","","","","","","","",""
"","html-keyboard-response","238","703143","0.0-12.0-2.0","1zw137onrg","many_one","0","direct_first","1","er06il20","0","23","1","1","3","1","","0","1","0","null","","","<img src = 'targets/41.png' width = '100%;'>","null","","","","","","","","","",""
"","html-keyboard-response","239","704052","0.0-12.0-3.0","1zw137onrg","many_one","0","direct_first","1","er06il20","0","23","1","1","3","1","","0","1","0","907.535000005737","","","<img src = 'targets/mask.png' width = '100%;'>","68","pos","GS","GSnew","2","category2/GS1.png","","targets/41.png","indirect","0","24"
"","html-keyboard-response","240","705565","0.0-12.0-0.1","1zw137onrg","many_one","0","direct_first","1","er06il20","0","23","1","1","3","1","","0","1","0","null","","","<div style=""font-size:60px;"">+</div>","null","","","","","","","","","",""
"","html-keyboard-response","241","705656","0.0-12.0-1.1","1zw137onrg","many_one","0","direct_first","1","er06il20","0","23","1","1","3","1","","0","1","0","null","","","<img src = 'category4/CS2.png' width = '100%;'>","null","","","","","","","","","",""
"","html-keyboard-response","242","705919","0.0-12.0-2.1","1zw137onrg","many_one","0","direct_first","1","er06il20","0","23","1","1","3","1","","0","1","0","null","","","<img src = 'targets/16.png' width = '100%;'>","null","","","","","","","","","",""
"","html-keyboard-response","243","707601","0.0-12.0-3.1","1zw137onrg","many_one","0","direct_first","1","er06il20","0","23","1","1","3","1","","0","1","0","1679.8150000395253","","","<img src = 'targets/mask.png' width = '100%;'>","68","neg","GS","GSold","4","category4/CS2.png","","targets/16.png","indirect","0","25"
"","html-keyboard-response","244","709123","0.0-12.0-0.2","1zw137onrg","many_one","0","direct_first","1","er06il20","0","23","1","1","3","1","","0","1","0","null","","","<div style=""font-size:60px;"">+</div>","null","","","","","","","","","",""
"","html-keyboard-response","245","709221","0.0-12.0-1.2","1zw137onrg","many_one","0","direct_first","1","er06il20","0","23","1","1","3","1","","0","1","0","null","","","<img src = 'category3/CS8.png' width = '100%;'>","null","","","","","","","","","",""
"","html-keyboard-response","246","709482","0.0-12.0-2.2","1zw137onrg","many_one","0","direct_first","1","er06il20","0","23","1","1","3","1","","0","1","0","null","","","<img src = 'targets/37.png' width = '100%;'>","null","","","","","","","","","",""
"","html-keyboard-response","247","711786","0.0-12.0-3.2","1zw137onrg","many_one","0","direct_first","1","er06il20","0","23","1","1","3","1","","0","1","0","2302.200000034645","","","<img src = 'targets/mask.png' width = '100%;'>","68","pos","GS","GSold","3","category3/CS8.png","","targets/37.png","indirect","0","26"
"","html-keyboard-response","248","713301","0.0-12.0-0.3","1zw137onrg","many_one","0","direct_first","1","er06il20","0","23","1","1","3","1","","0","1","0","null","","","<div style=""font-size:60px;"">+</div>","null","","","","","","","","","",""
"","html-keyboard-response","249","713408","0.0-12.0-1.3","1zw137onrg","many_one","0","direct_first","1","er06il20","0","23","1","1","3","1","","0","1","0","null","","","<img src = 'category2/GS3.png' width = '100%;'>","null","","","","","","","","","",""
"","html-keyboard-response","250","713675","0.0-12.0-2.3","1zw137onrg","many_one","0","direct_first","1","er06il20","0","23","1","1","3","1","","0","1","0","null","","","<img src = 'targets/17.png' width = '100%;'>","null","","","","","","","","","",""
"","html-keyboard-response","251","714582","0.0-12.0-3.3","1zw137onrg","many_one","0","direct_first","1","er06il20","0","23","1","1","3","1","","0","1","0","904.6649999218062","","","<img src = 'targets/mask.png' width = '100%;'>","68","pos","GS","GSnew","2","category2/GS3.png","","targets/17.png","indirect","0","27"
"","html-keyboard-response","252","716096","0.0-12.0-0.4","1zw137onrg","many_one","0","direct_first","1","er06il20","0","23","1","1","3","1","","0","1","0","null","","","<div style=""font-size:60px;"">+</div>","null","","","","","","","","","",""
"","html-keyboard-response","253","716200","0.0-12.0-1.4","1zw137onrg","many_one","0","direct_first","1","er06il20","0","23","1","1","3","1","","0","1","0","null","","","<img src = 'category2/CS7.png' width = '100%;'>","null","","","","","","","","","",""
"","html-keyboard-response","254","716474","0.0-12.0-2.4","1zw137onrg","many_one","0","direct_first","1","er06il20","0","23","1","1","3","1","","0","1","0","null","","","<img src = 'targets/27.png' width = '100%;'>","null","","","","","","","","","",""
"","html-keyboard-response","255","717563","0.0-12.0-3.4","1zw137onrg","many_one","0","direct_first","1","er06il20","0","23","1","1","3","1","","0","1","0","1086.3249999238178","","","<img src = 'targets/mask.png' width = '100%;'>","75","pos","GS","GSold","2","category2/CS7.png","","targets/27.png","indirect","1","28"
"","html-keyboard-response","256","719076","0.0-12.0-0.5","1zw137onrg","many_one","0","direct_first","1","er06il20","0","23","1","1","3","1","","0","1","0","null","","","<div style=""font-size:60px;"">+</div>","null","","","","","","","","","",""
"","html-keyboard-response","257","719176","0.0-12.0-1.5","1zw137onrg","many_one","0","direct_first","1","er06il20","0","23","1","1","3","1","","0","1","0","null","","","<img src = 'category2/men.png' width = '100%;'>","null","","","","","","","","","",""
"","html-keyboard-response","258","719449","0.0-12.0-2.5","1zw137onrg","many_one","0","direct_first","1","er06il20","0","23","1","1","3","1","","0","1","0","null","","","<img src = 'targets/12.png' width = '100%;'>","null","","","","","","","","","",""
"","html-keyboard-response","259","720100","0.0-12.0-3.5","1zw137onrg","many_one","0","direct_first","1","er06il20","0","23","1","1","3","1","","0","1","0","649.0250000497326","","","<img src = 'targets/mask.png' width = '100%;'>","75","pos","GS","abstract","2","category2/men.png","","targets/12.png","indirect","1","29"
"","html-keyboard-response","260","721615","0.0-12.0-0.6","1zw137onrg","many_one","0","direct_first","1","er06il20","0","23","1","1","3","1","","0","1","0","null","","","<div style=""font-size:60px;"">+</div>","null","","","","","","","","","",""
"","html-keyboard-response","261","721707","0.0-12.0-1.6","1zw137onrg","many_one","0","direct_first","1","er06il20","0","23","1","1","3","1","","0","1","0","null","","","<img src = 'category1/GS3.png' width = '100%;'>","null","","","","","","","","","",""
"","html-keyboard-response","262","721975","0.0-12.0-2.6","1zw137onrg","many_one","0","direct_first","1","er06il20","0","23","1","1","3","1","","0","1","0","null","","","<img src = 'targets/13.png' width = '100%;'>","null","","","","","","","","","",""
"","html-keyboard-response","263","722839","0.0-12.0-3.6","1zw137onrg","many_one","0","direct_first","1","er06il20","0","23","1","1","3","1","","0","1","0","862.0899999514222","","","<img src = 'targets/mask.png' width = '100%;'>","75","neg","GS","GSnew","1","category1/GS3.png","","targets/13.png","indirect","1","30"
"","html-keyboard-response","264","724354","0.0-12.0-0.7","1zw137onrg","many_one","0","direct_first","1","er06il20","0","23","1","1","3","1","","0","1","0","null","","","<div style=""font-size:60px;"">+</div>","null","","","","","","","","","",""
"","html-keyboard-response","265","724460","0.0-12.0-1.7","1zw137onrg","many_one","0","direct_first","1","er06il20","0","23","1","1","3","1","","0","1","0","null","","","<img src = 'category4/GS1.png' width = '100%;'>","null","","","","","","","","","",""
"","html-keyboard-response","266","724741","0.0-12.0-2.7","1zw137onrg","many_one","0","direct_first","1","er06il20","0","23","1","1","3","1","","0","1","0","null","","","<img src = 'targets/10.png' width = '100%;'>","null","","","","","","","","","",""
"","html-keyboard-response","267","725280","0.0-12.0-3.7","1zw137onrg","many_one","0","direct_first","1","er06il20","0","23","1","1","3","1","","0","1","0","537.3499999986961","","","<img src = 'targets/mask.png' width = '100%;'>","75","neg","GS","GSnew","4","category4/GS1.png","","targets/10.png","indirect","1","31"
"","html-keyboard-response","268","726799","0.0-12.0-0.8","1zw137onrg","many_one","0","direct_first","1","er06il20","0","23","1","1","3","1","","0","1","0","null","","","<div style=""font-size:60px;"">+</div>","null","","","","","","","","","",""
"","html-keyboard-response","269","726895","0.0-12.0-1.8","1zw137onrg","many_one","0","direct_first","1","er06il20","0","23","1","1","3","1","","0","1","0","null","","","<img src = 'category4/lin.png' width = '100%;'>","null","","","","","","","","","",""
"","html-keyboard-response","270","727167","0.0-12.0-2.8","1zw137onrg","many_one","0","direct_first","1","er06il20","0","23","1","1","3","1","","0","1","0","null","","","<img src = 'targets/4.png' width = '100%;'>","null","","","","","","","","","",""
"","html-keyboard-response","271","727985","0.0-12.0-3.8","1zw137onrg","many_one","0","direct_first","1","er06il20","0","23","1","1","3","1","","0","1","0","816.2299999967217","","","<img src = 'targets/mask.png' width = '100%;'>","75","neg","GS","abstract","4","category4/lin.png","","targets/4.png","indirect","1","32"
"","html-keyboard-response","272","729501","0.0-12.0-0.9","1zw137onrg","many_one","0","direct_first","1","er06il20","0","23","1","1","3","1","","0","1","0","null","","","<div style=""font-size:60px;"">+</div>","null","","","","","","","","","",""
"","html-keyboard-response","273","729598","0.0-12.0-1.9","1zw137onrg","many_one","0","direct_first","1","er06il20","0","23","1","1","3","1","","0","1","0","null","","","<img src = 'category3/GS2.png' width = '100%;'>","null","","","","","","","","","",""
"","html-keyboard-response","274","729867","0.0-12.0-2.9","1zw137onrg","many_one","0","direct_first","1","er06il20","0","23","1","1","3","1","","0","1","0","null","","","<img src = 'targets/42.png' width = '100%;'>","null","","","","","","","","","",""
"","html-keyboard-response","275","730447","0.0-12.0-3.9","1zw137onrg","many_one","0","direct_first","1","er06il20","0","23","1","1","3","1","","0","1","0","578.2399999443442","","","<img src = 'targets/mask.png' width = '100%;'>","75","pos","GS","GSnew","3","category3/GS2.png","","targets/42.png","indirect","1","33"
"","html-keyboard-response","276","731957","0.0-12.0-0.10","1zw137onrg","many_one","0","direct_first","1","er06il20","0","23","1","1","3","1","","0","1","0","null","","","<div style=""font-size:60px;"">+</div>","null","","","","","","","","","",""
"","html-keyboard-response","277","732057","0.0-12.0-1.10","1zw137onrg","many_one","0","direct_first","1","er06il20","0","23","1","1","3","1","","0","1","0","null","","","<img src = 'category4/CS7.png' width = '100%;'>","null","","","","","","","","","",""
"","html-keyboard-response","278","732324","0.0-12.0-2.10","1zw137onrg","many_one","0","direct_first","1","er06il20","0","23","1","1","3","1","","0","1","0","null","","","<img src = 'targets/31.png' width = '100%;'>","null","","","","","","","","","",""
"","html-keyboard-response","279","732999","0.0-12.0-3.10","1zw137onrg","many_one","0","direct_first","1","er06il20","0","23","1","1","3","1","","0","1","0","674.5850000297651","","","<img src = 'targets/mask.png' width = '100%;'>","75","neg","GS","GSold","4","category4/CS7.png","","targets/31.png","indirect","1","34"
"","html-keyboard-response","280","734516","0.0-12.0-0.11","1zw137onrg","many_one","0","direct_first","1","er06il20","0","23","1","1","3","1","","0","1","0","null","","","<div style=""font-size:60px;"">+</div>","null","","","","","","","","","",""
"","html-keyboard-response","281","734607","0.0-12.0-1.11","1zw137onrg","many_one","0","direct_first","1","er06il20","0","23","1","1","3","1","","0","1","0","null","","","<img src = 'category3/wang.png' width = '100%;'>","null","","","","","","","","","",""
"","html-keyboard-response","282","734874","0.0-12.0-2.11","1zw137onrg","many_one","0","direct_first","1","er06il20","0","23","1","1","3","1","","0","1","0","null","","","<img src = 'targets/33.png' width = '100%;'>","null","","","","","","","","","",""
"","html-keyboard-response","283","735660","0.0-12.0-3.11","1zw137onrg","many_one","0","direct_first","1","er06il20","0","23","1","1","3","1","","0","1","0","784.8999999696389","","","<img src = 'targets/mask.png' width = '100%;'>","75","pos","GS","abstract","3","category3/wang.png","","targets/33.png","indirect","1","35"
"","html-keyboard-response","284","737174","0.0-12.0-0.12","1zw137onrg","many_one","0","direct_first","1","er06il20","0","23","1","1","3","1","","0","1","0","null","","","<div style=""font-size:60px;"">+</div>","null","","","","","","","","","",""
"","html-keyboard-response","285","737274","0.0-12.0-1.12","1zw137onrg","many_one","0","direct_first","1","er06il20","0","23","1","1","3","1","","0","1","0","null","","","<img src = 'category1/GS2.png' width = '100%;'>","null","","","","","","","","","",""
"","html-keyboard-response","286","737545","0.0-12.0-2.12","1zw137onrg","many_one","0","direct_first","1","er06il20","0","23","1","1","3","1","","0","1","0","null","","","<img src = 'targets/22.png' width = '100%;'>","null","","","","","","","","","",""
"","html-keyboard-response","287","738134","0.0-12.0-3.12","1zw137onrg","many_one","0","direct_first","1","er06il20","0","23","1","1","3","1","","0","1","0","587.5850000884384","","","<img src = 'targets/mask.png' width = '100%;'>","75","neg","GS","GSnew","1","category1/GS2.png","","targets/22.png","indirect","1","36"
"","html-keyboard-response","288","739658","0.0-12.0-0.13","1zw137onrg","many_one","0","direct_first","1","er06il20","0","23","1","1","3","1","","0","1","0","null","","","<div style=""font-size:60px;"">+</div>","null","","","","","","","","","",""
"","html-keyboard-response","289","739764","0.0-12.0-1.13","1zw137onrg","many_one","0","direct_first","1","er06il20","0","23","1","1","3","1","","0","1","0","null","","","<img src = 'category4/GS2.png' width = '100%;'>","null","","","","","","","","","",""
"","html-keyboard-response","290","740030","0.0-12.0-2.13","1zw137onrg","many_one","0","direct_first","1","er06il20","0","23","1","1","3","1","","0","1","0","null","","","<img src = 'targets/46.png' width = '100%;'>","null","","","","","","","","","",""
"","html-keyboard-response","291","740528","0.0-12.0-3.13","1zw137onrg","many_one","0","direct_first","1","er06il20","0","23","1","1","3","1","","0","1","0","496.430000057444","","","<img src = 'targets/mask.png' width = '100%;'>","75","neg","GS","GSnew","4","category4/GS2.png","","targets/46.png","indirect","1","37"
"","html-keyboard-response","292","742057","0.0-12.0-0.14","1zw137onrg","many_one","0","direct_first","1","er06il20","0","23","1","1","3","1","","0","1","0","null","","","<div style=""font-size:60px;"">+</div>","null","","","","","","","","","",""
"","html-keyboard-response","293","742149","0.0-12.0-1.14","1zw137onrg","many_one","0","direct_first","1","er06il20","0","23","1","1","3","1","","0","1","0","null","","","<img src = 'category3/GS1.png' width = '100%;'>","null","","","","","","","","","",""
"","html-keyboard-response","294","742417","0.0-12.0-2.14","1zw137onrg","many_one","0","direct_first","1","er06il20","0","23","1","1","3","1","","0","1","0","null","","","<img src = 'targets/11.png' width = '100%;'>","null","","","","","","","","","",""
"","html-keyboard-response","295","742914","0.0-12.0-3.14","1zw137onrg","many_one","0","direct_first","1","er06il20","0","23","1","1","3","1","","0","1","0","495.6350000575185","","","<img src = 'targets/mask.png' width = '100%;'>","68","pos","GS","GSnew","3","category3/GS1.png","","targets/11.png","indirect","0","38"
"","html-keyboard-response","296","744441","0.0-12.0-0.15","1zw137onrg","many_one","0","direct_first","1","er06il20","0","23","1","1","3","1","","0","1","0","null","","","<div style=""font-size:60px;"">+</div>","null","","","","","","","","","",""
"","html-keyboard-response","297","744540","0.0-12.0-1.15","1zw137onrg","many_one","0","direct_first","1","er06il20","0","23","1","1","3","1","","0","1","0","null","","","<img src = 'category4/GS3.png' width = '100%;'>","null","","","","","","","","","",""
"","html-keyboard-response","298","744799","0.0-12.0-2.15","1zw137onrg","many_one","0","direct_first","1","er06il20","0","23","1","1","3","1","","0","1","0","null","","","<img src = 'targets/5.png' width = '100%;'>","null","","","","","","","","","",""
"","html-keyboard-response","299","745651","0.0-12.0-3.15","1zw137onrg","many_one","0","direct_first","1","er06il20","0","23","1","1","3","1","","0","1","0","850.6800000322983","","","<img src = 'targets/mask.png' width = '100%;'>","75","neg","GS","GSnew","4","category4/GS3.png","","targets/5.png","indirect","1","39"
"","html-keyboard-response","300","747165","0.0-12.0-0.16","1zw137onrg","many_one","0","direct_first","1","er06il20","0","23","1","1","3","1","","0","1","0","null","","","<div style=""font-size:60px;"">+</div>","null","","","","","","","","","",""
"","html-keyboard-response","301","747258","0.0-12.0-1.16","1zw137onrg","many_one","0","direct_first","1","er06il20","0","23","1","1","3","1","","0","1","0","null","","","<img src = 'category2/CS1.png' width = '100%;'>","null","","","","","","","","","",""
"","html-keyboard-response","302","747532","0.0-12.0-2.16","1zw137onrg","many_one","0","direct_first","1","er06il20","0","23","1","1","3","1","","0","1","0","null","","","<img src = 'targets/48.png' width = '100%;'>","null","","","","","","","","","",""
"","html-keyboard-response","303","748120","0.0-12.0-3.16","1zw137onrg","many_one","0","direct_first","1","er06il20","0","23","1","1","3","1","","0","1","0","586.8349999655038","","","<img src = 'targets/mask.png' width = '100%;'>","68","pos","GS","GSold","2","category2/CS1.png","","targets/48.png","indirect","0","40"
"","html-keyboard-response","304","749638","0.0-12.0-0.17","1zw137onrg","many_one","0","direct_first","1","er06il20","0","23","1","1","3","1","","0","1","0","null","","","<div style=""font-size:60px;"">+</div>","null","","","","","","","","","",""
"","html-keyboard-response","305","749735","0.0-12.0-1.17","1zw137onrg","many_one","0","direct_first","1","er06il20","0","23","1","1","3","1","","0","1","0","null","","","<img src = 'category3/CS1.png' width = '100%;'>","null","","","","","","","","","",""
"","html-keyboard-response","306","750008","0.0-12.0-2.17","1zw137onrg","many_one","0","direct_first","1","er06il20","0","23","1","1","3","1","","0","1","0","null","","","<img src = 'targets/36.png' width = '100%;'>","null","","","","","","","","","",""
"","html-keyboard-response","307","753220","0.0-12.0-3.17","1zw137onrg","many_one","0","direct_first","1","er06il20","0","23","1","1","3","1","","0","1","0","3210.609999950975","","","<img src = 'targets/mask.png' width = '100%;'>","75","pos","GS","GSold","3","category3/CS1.png","","targets/36.png","indirect","1","41"
"","html-keyboard-response","308","754741","0.0-12.0-0.18","1zw137onrg","many_one","0","direct_first","1","er06il20","0","23","1","1","3","1","","0","1","0","null","","","<div style=""font-size:60px;"">+</div>","null","","","","","","","","","",""
"","html-keyboard-response","309","754839","0.0-12.0-1.18","1zw137onrg","many_one","0","direct_first","1","er06il20","0","23","1","1","3","1","","0","1","0","null","","","<img src = 'category3/GS3.png' width = '100%;'>","null","","","","","","","","","",""
"","html-keyboard-response","310","755112","0.0-12.0-2.18","1zw137onrg","many_one","0","direct_first","1","er06il20","0","23","1","1","3","1","","0","1","0","null","","","<img src = 'targets/43.png' width = '100%;'>","null","","","","","","","","","",""
"","html-keyboard-response","311","755658","0.0-12.0-3.18","1zw137onrg","many_one","0","direct_first","1","er06il20","0","23","1","1","3","1","","0","1","0","544.06999994535","","","<img src = 'targets/mask.png' width = '100%;'>","68","pos","GS","GSnew","3","category3/GS3.png","","targets/43.png","indirect","0","42"
"","html-keyboard-response","312","757175","0.0-12.0-0.19","1zw137onrg","many_one","0","direct_first","1","er06il20","0","23","1","1","3","1","","0","1","0","null","","","<div style=""font-size:60px;"">+</div>","null","","","","","","","","","",""
"","html-keyboard-response","313","757272","0.0-12.0-1.19","1zw137onrg","many_one","0","direct_first","1","er06il20","0","23","1","1","3","1","","0","1","0","null","","","<img src = 'category2/CS5.png' width = '100%;'>","null","","","","","","","","","",""
"","html-keyboard-response","314","757533","0.0-12.0-2.19","1zw137onrg","many_one","0","direct_first","1","er06il20","0","23","1","1","3","1","","0","1","0","null","","","<img src = 'targets/32.png' width = '100%;'>","null","","","","","","","","","",""
"","html-keyboard-response","315","758483","0.0-12.0-3.19","1zw137onrg","many_one","0","direct_first","1","er06il20","0","23","1","1","3","1","","0","1","0","948.560000048019","","","<img src = 'targets/mask.png' width = '100%;'>","75","pos","GS","GSold","2","category2/CS5.png","","targets/32.png","indirect","1","43"
"","html-keyboard-response","316","759990","0.0-12.0-0.20","1zw137onrg","many_one","0","direct_first","1","er06il20","0","23","1","1","3","1","","0","1","0","null","","","<div style=""font-size:60px;"">+</div>","null","","","","","","","","","",""
"","html-keyboard-response","317","760088","0.0-12.0-1.20","1zw137onrg","many_one","0","direct_first","1","er06il20","0","23","1","1","3","1","","0","1","0","null","","","<img src = 'category4/CS3.png' width = '100%;'>","null","","","","","","","","","",""
"","html-keyboard-response","318","760358","0.0-12.0-2.20","1zw137onrg","many_one","0","direct_first","1","er06il20","0","23","1","1","3","1","","0","1","0","null","","","<img src = 'targets/23.png' width = '100%;'>","null","","","","","","","","","",""
"","html-keyboard-response","319","761480","0.0-12.0-3.20","1zw137onrg","many_one","0","direct_first","1","er06il20","0","23","1","1","3","1","","0","1","0","1119.6400000480935","","","<img src = 'targets/mask.png' width = '100%;'>","68","neg","GS","GSold","4","category4/CS3.png","","targets/23.png","indirect","0","44"
"","html-keyboard-response","320","762989","0.0-12.0-0.21","1zw137onrg","many_one","0","direct_first","1","er06il20","0","23","1","1","3","1","","0","1","0","null","","","<div style=""font-size:60px;"">+</div>","null","","","","","","","","","",""
"","html-keyboard-response","321","763082","0.0-12.0-1.21","1zw137onrg","many_one","0","direct_first","1","er06il20","0","23","1","1","3","1","","0","1","0","null","","","<img src = 'category1/GS1.png' width = '100%;'>","null","","","","","","","","","",""
"","html-keyboard-response","322","763340","0.0-12.0-2.21","1zw137onrg","many_one","0","direct_first","1","er06il20","0","23","1","1","3","1","","0","1","0","null","","","<img src = 'targets/3.png' width = '100%;'>","null","","","","","","","","","",""
"","html-keyboard-response","323","768013","0.0-12.0-3.21","1zw137onrg","many_one","0","direct_first","1","er06il20","0","23","1","1","3","1","","0","1","0","4672.045000013895","","","<img src = 'targets/mask.png' width = '100%;'>","75","neg","GS","GSnew","1","category1/GS1.png","","targets/3.png","indirect","1","45"
"","html-keyboard-response","324","769528","0.0-12.0-0.22","1zw137onrg","many_one","0","direct_first","1","er06il20","0","23","1","1","3","1","","0","1","0","null","","","<div style=""font-size:60px;"">+</div>","null","","","","","","","","","",""
"","html-keyboard-response","325","769626","0.0-12.0-1.22","1zw137onrg","many_one","0","direct_first","1","er06il20","0","23","1","1","3","1","","0","1","0","null","","","<img src = 'category2/GS2.png' width = '100%;'>","null","","","","","","","","","",""
"","html-keyboard-response","326","769897","0.0-12.0-2.22","1zw137onrg","many_one","0","direct_first","1","er06il20","0","23","1","1","3","1","","0","1","0","null","","","<img src = 'targets/18.png' width = '100%;'>","null","","","","","","","","","",""
"","html-keyboard-response","327","770480","0.0-12.0-3.22","1zw137onrg","many_one","0","direct_first","1","er06il20","0","23","1","1","3","1","","0","1","0","581.4300000201911","","","<img src = 'targets/mask.png' width = '100%;'>","68","pos","GS","GSnew","2","category2/GS2.png","","targets/18.png","indirect","0","46"
