"success","trial_type","trial_index","time_elapsed","internal_node_id","subject","condition","condition_code","measure","measure_code","codeword","gender","age","education","chinese","fach","handedness","comment","hinschauen","ablenkung","gewissenhaft","rt","url","responses","stimulus","key_press","val","type","type_specific","category","cs_selected","response","target","task","indirect","nr_pres"
"true","fullscreen","0","3901","0.0-0.0","zdpryje57p","one_one","1","direct_first","1","nn06rt24","0","21","1","1","3","2","","0","1","0","","","","","","","","","","","","","","",""
"","external-html","1","30784","0.0-1.0","zdpryje57p","one_one","1","direct_first","1","nn06rt24","0","21","1","1","3","2","","0","1","0","26829.11999989301","text/information.html","","","","","","","","","","","","",""
"","external-html","2","40234","0.0-2.0","zdpryje57p","one_one","1","direct_first","1","nn06rt24","0","21","1","1","3","2","","0","1","0","9310.645000077784","text/consent.html","","","","","","","","","","","","",""
"","survey-html-form","3","140126","0.0-3.0","zdpryje57p","one_one","1","direct_first","1","nn06rt24","0","21","1","1","3","2","","0","1","0","99890.2549999766","","{""codeword_enter"":""nn06rt24""}","","","","","","","","","","","",""
"","survey-html-form","4","167554","0.0-4.0","zdpryje57p","one_one","1","direct_first","1","nn06rt24","0","21","1","1","3","2","","0","1","0","27425.19999993965","","{""age"":""21"",""education"":""1"",""subject"":""3"",""gender"":""0"",""handedness"":""2"",""chinese"":""1""}","","","","","","","","","","","",""
"","survey-html-form","5","188838","0.0-5.0","zdpryje57p","one_one","1","direct_first","1","nn06rt24","0","21","1","1","3","2","","0","1","0","21282.799999928102","","{}","","","","","","","","","","","",""
"","html-keyboard-response","6","192861","0.0-6.0-0.0-0.0","zdpryje57p","one_one","1","direct_first","1","nn06rt24","0","21","1","1","3","2","","0","1","0","null","","","<div class = 'row'><div class = 'column'><img src = 'category3/CS3.png' width = '70%;'></div><div class = 'column'><img src = 'uspos/2057.bmp' width = '100%;'></div></div>","null","pos","CS","CS","3","category3/CS3.png","","","","",""
"","html-keyboard-response","7","195371","0.0-6.0-0.0-0.1","zdpryje57p","one_one","1","direct_first","1","nn06rt24","0","21","1","1","3","2","","0","1","0","null","","","<div class = 'row'><div class = 'column'><img src = 'category2/CS9.png' width = '70%;'></div><div class = 'column'><img src = 'uspos/4599.bmp' width = '100%;'></div></div>","null","pos","CS","CS","2","category2/CS9.png","","","","",""
"","html-keyboard-response","8","197898","0.0-6.0-0.0-0.2","zdpryje57p","one_one","1","direct_first","1","nn06rt24","0","21","1","1","3","2","","0","1","0","null","","","<div class = 'row'><div class = 'column'><img src = 'category1/CS1.png' width = '70%;'></div><div class = 'column'><img src = 'usneg/3160.bmp' width = '100%;'></div></div>","null","neg","CS","CS","1","category1/CS1.png","","","","",""
"","html-keyboard-response","9","200422","0.0-6.0-0.0-0.3","zdpryje57p","one_one","1","direct_first","1","nn06rt24","0","21","1","1","3","2","","0","1","0","null","","","<div class = 'row'><div class = 'column'><img src = 'category4/CS4.png' width = '70%;'></div><div class = 'column'><img src = 'usneg/9920.bmp' width = '100%;'></div></div>","null","neg","CS","CS","4","category4/CS4.png","","","","",""
"","html-keyboard-response","10","202949","0.0-6.0-0.0-0.4","zdpryje57p","one_one","1","direct_first","1","nn06rt24","0","21","1","1","3","2","","0","1","0","null","","","<div class = 'row'><div class = 'column'><img src = 'uspos/2057.bmp' width = '100%;'></div><div class = 'column'><img src = 'category3/CS3.png' width = '70%;'></div></div>","null","pos","CS","CS","3","category3/CS3.png","","","","",""
"","html-keyboard-response","11","205475","0.0-6.0-0.0-0.5","zdpryje57p","one_one","1","direct_first","1","nn06rt24","0","21","1","1","3","2","","0","1","0","null","","","<div class = 'row'><div class = 'column'><img src = 'usneg/9920.bmp' width = '100%;'></div><div class = 'column'><img src = 'category4/CS4.png' width = '70%;'></div></div>","null","neg","CS","CS","4","category4/CS4.png","","","","",""
"","html-keyboard-response","12","208003","0.0-6.0-0.0-0.6","zdpryje57p","one_one","1","direct_first","1","nn06rt24","0","21","1","1","3","2","","0","1","0","null","","","<div class = 'row'><div class = 'column'><img src = 'category1/CS1.png' width = '70%;'></div><div class = 'column'><img src = 'usneg/3160.bmp' width = '100%;'></div></div>","null","neg","CS","CS","1","category1/CS1.png","","","","",""
"","html-keyboard-response","13","210531","0.0-6.0-0.0-0.7","zdpryje57p","one_one","1","direct_first","1","nn06rt24","0","21","1","1","3","2","","0","1","0","null","","","<div class = 'row'><div class = 'column'><img src = 'category3/CS3.png' width = '70%;'></div><div class = 'column'><img src = 'uspos/2057.bmp' width = '100%;'></div></div>","null","pos","CS","CS","3","category3/CS3.png","","","","",""
"","html-keyboard-response","14","213052","0.0-6.0-0.0-0.8","zdpryje57p","one_one","1","direct_first","1","nn06rt24","0","21","1","1","3","2","","0","1","0","null","","","<div class = 'row'><div class = 'column'><img src = 'usneg/9920.bmp' width = '100%;'></div><div class = 'column'><img src = 'category4/CS4.png' width = '70%;'></div></div>","null","neg","CS","CS","4","category4/CS4.png","","","","",""
"","html-keyboard-response","15","215561","0.0-6.0-0.0-0.9","zdpryje57p","one_one","1","direct_first","1","nn06rt24","0","21","1","1","3","2","","0","1","0","null","","","<div class = 'row'><div class = 'column'><img src = 'uspos/2057.bmp' width = '100%;'></div><div class = 'column'><img src = 'category3/CS3.png' width = '70%;'></div></div>","null","pos","CS","CS","3","category3/CS3.png","","","","",""
"","html-keyboard-response","16","218074","0.0-6.0-0.0-0.10","zdpryje57p","one_one","1","direct_first","1","nn06rt24","0","21","1","1","3","2","","0","1","0","null","","","<div class = 'row'><div class = 'column'><img src = 'uspos/4599.bmp' width = '100%;'></div><div class = 'column'><img src = 'category2/CS9.png' width = '70%;'></div></div>","null","pos","CS","CS","2","category2/CS9.png","","","","",""
"","html-keyboard-response","17","220579","0.0-6.0-0.0-0.11","zdpryje57p","one_one","1","direct_first","1","nn06rt24","0","21","1","1","3","2","","0","1","0","null","","","<div class = 'row'><div class = 'column'><img src = 'usneg/3160.bmp' width = '100%;'></div><div class = 'column'><img src = 'category1/CS1.png' width = '70%;'></div></div>","null","neg","CS","CS","1","category1/CS1.png","","","","",""
"","html-keyboard-response","18","223105","0.0-6.0-0.0-0.12","zdpryje57p","one_one","1","direct_first","1","nn06rt24","0","21","1","1","3","2","","0","1","0","null","","","<div class = 'row'><div class = 'column'><img src = 'uspos/4599.bmp' width = '100%;'></div><div class = 'column'><img src = 'category2/CS9.png' width = '70%;'></div></div>","null","pos","CS","CS","2","category2/CS9.png","","","","",""
"","html-keyboard-response","19","225624","0.0-6.0-0.0-0.13","zdpryje57p","one_one","1","direct_first","1","nn06rt24","0","21","1","1","3","2","","0","1","0","null","","","<div class = 'row'><div class = 'column'><img src = 'usneg/9920.bmp' width = '100%;'></div><div class = 'column'><img src = 'category4/CS4.png' width = '70%;'></div></div>","null","neg","CS","CS","4","category4/CS4.png","","","","",""
"","html-keyboard-response","20","228153","0.0-6.0-0.0-0.14","zdpryje57p","one_one","1","direct_first","1","nn06rt24","0","21","1","1","3","2","","0","1","0","null","","","<div class = 'row'><div class = 'column'><img src = 'category2/CS9.png' width = '70%;'></div><div class = 'column'><img src = 'uspos/4599.bmp' width = '100%;'></div></div>","null","pos","CS","CS","2","category2/CS9.png","","","","",""
"","html-keyboard-response","21","230679","0.0-6.0-0.0-0.15","zdpryje57p","one_one","1","direct_first","1","nn06rt24","0","21","1","1","3","2","","0","1","0","null","","","<div class = 'row'><div class = 'column'><img src = 'usneg/9920.bmp' width = '100%;'></div><div class = 'column'><img src = 'category4/CS4.png' width = '70%;'></div></div>","null","neg","CS","CS","4","category4/CS4.png","","","","",""
"","html-keyboard-response","22","233204","0.0-6.0-0.0-0.16","zdpryje57p","one_one","1","direct_first","1","nn06rt24","0","21","1","1","3","2","","0","1","0","null","","","<div class = 'row'><div class = 'column'><img src = 'uspos/2057.bmp' width = '100%;'></div><div class = 'column'><img src = 'category3/CS3.png' width = '70%;'></div></div>","null","pos","CS","CS","3","category3/CS3.png","","","","",""
"","html-keyboard-response","23","235732","0.0-6.0-0.0-0.17","zdpryje57p","one_one","1","direct_first","1","nn06rt24","0","21","1","1","3","2","","0","1","0","null","","","<div class = 'row'><div class = 'column'><img src = 'category1/CS1.png' width = '70%;'></div><div class = 'column'><img src = 'usneg/3160.bmp' width = '100%;'></div></div>","null","neg","CS","CS","1","category1/CS1.png","","","","",""
"","html-keyboard-response","24","238247","0.0-6.0-0.0-0.18","zdpryje57p","one_one","1","direct_first","1","nn06rt24","0","21","1","1","3","2","","0","1","0","null","","","<div class = 'row'><div class = 'column'><img src = 'category2/CS9.png' width = '70%;'></div><div class = 'column'><img src = 'uspos/4599.bmp' width = '100%;'></div></div>","null","pos","CS","CS","2","category2/CS9.png","","","","",""
"","html-keyboard-response","25","240770","0.0-6.0-0.0-0.19","zdpryje57p","one_one","1","direct_first","1","nn06rt24","0","21","1","1","3","2","","0","1","0","null","","","<div class = 'row'><div class = 'column'><img src = 'category1/CS1.png' width = '70%;'></div><div class = 'column'><img src = 'usneg/3160.bmp' width = '100%;'></div></div>","null","neg","CS","CS","1","category1/CS1.png","","","","",""
"","survey-html-form","26","282445","0.0-6.0-1.0","zdpryje57p","one_one","1","direct_first","1","nn06rt24","0","21","1","1","3","2","","0","1","0","41162.52499981783","","{}","","","","","","","","","","","",""
"","html-keyboard-response","27","286466","0.0-6.0-2.0-0.0","zdpryje57p","one_one","1","direct_first","1","nn06rt24","0","21","1","1","3","2","","0","1","0","null","","","<div class = 'row'><div class = 'column'><img src = 'uspos/4599.bmp' width = '100%;'></div><div class = 'column'><img src = 'category2/CS9.png' width = '70%;'></div></div>","null","pos","CS","CS","2","category2/CS9.png","","","","",""
"","html-keyboard-response","28","288992","0.0-6.0-2.0-0.1","zdpryje57p","one_one","1","direct_first","1","nn06rt24","0","21","1","1","3","2","","0","1","0","null","","","<div class = 'row'><div class = 'column'><img src = 'usneg/3160.bmp' width = '100%;'></div><div class = 'column'><img src = 'category1/CS1.png' width = '70%;'></div></div>","null","neg","CS","CS","1","category1/CS1.png","","","","",""
"","html-keyboard-response","29","291517","0.0-6.0-2.0-0.2","zdpryje57p","one_one","1","direct_first","1","nn06rt24","0","21","1","1","3","2","","0","1","0","null","","","<div class = 'row'><div class = 'column'><img src = 'uspos/2057.bmp' width = '100%;'></div><div class = 'column'><img src = 'category3/CS3.png' width = '70%;'></div></div>","null","pos","CS","CS","3","category3/CS3.png","","","","",""
"","html-keyboard-response","30","294041","0.0-6.0-2.0-0.3","zdpryje57p","one_one","1","direct_first","1","nn06rt24","0","21","1","1","3","2","","0","1","0","null","","","<div class = 'row'><div class = 'column'><img src = 'category1/CS1.png' width = '70%;'></div><div class = 'column'><img src = 'usneg/3160.bmp' width = '100%;'></div></div>","null","neg","CS","CS","1","category1/CS1.png","","","","",""
"","html-keyboard-response","31","296560","0.0-6.0-2.0-0.4","zdpryje57p","one_one","1","direct_first","1","nn06rt24","0","21","1","1","3","2","","0","1","0","null","","","<div class = 'row'><div class = 'column'><img src = 'category2/CS9.png' width = '70%;'></div><div class = 'column'><img src = 'uspos/4599.bmp' width = '100%;'></div></div>","null","pos","CS","CS","2","category2/CS9.png","","","","",""
"","html-keyboard-response","32","299092","0.0-6.0-2.0-0.5","zdpryje57p","one_one","1","direct_first","1","nn06rt24","0","21","1","1","3","2","","0","1","0","null","","","<div class = 'row'><div class = 'column'><img src = 'usneg/9920.bmp' width = '100%;'></div><div class = 'column'><img src = 'category4/CS4.png' width = '70%;'></div></div>","null","neg","CS","CS","4","category4/CS4.png","","","","",""
"","html-keyboard-response","33","301614","0.0-6.0-2.0-0.6","zdpryje57p","one_one","1","direct_first","1","nn06rt24","0","21","1","1","3","2","","0","1","0","null","","","<div class = 'row'><div class = 'column'><img src = 'category1/CS1.png' width = '70%;'></div><div class = 'column'><img src = 'usneg/3160.bmp' width = '100%;'></div></div>","null","neg","CS","CS","1","category1/CS1.png","","","","",""
"","html-keyboard-response","34","304130","0.0-6.0-2.0-0.7","zdpryje57p","one_one","1","direct_first","1","nn06rt24","0","21","1","1","3","2","","0","1","0","null","","","<div class = 'row'><div class = 'column'><img src = 'category3/CS3.png' width = '70%;'></div><div class = 'column'><img src = 'uspos/2057.bmp' width = '100%;'></div></div>","null","pos","CS","CS","3","category3/CS3.png","","","","",""
"","html-keyboard-response","35","306656","0.0-6.0-2.0-0.8","zdpryje57p","one_one","1","direct_first","1","nn06rt24","0","21","1","1","3","2","","0","1","0","null","","","<div class = 'row'><div class = 'column'><img src = 'category4/CS4.png' width = '70%;'></div><div class = 'column'><img src = 'usneg/9920.bmp' width = '100%;'></div></div>","null","neg","CS","CS","4","category4/CS4.png","","","","",""
"","html-keyboard-response","36","309176","0.0-6.0-2.0-0.9","zdpryje57p","one_one","1","direct_first","1","nn06rt24","0","21","1","1","3","2","","0","1","0","null","","","<div class = 'row'><div class = 'column'><img src = 'usneg/3160.bmp' width = '100%;'></div><div class = 'column'><img src = 'category1/CS1.png' width = '70%;'></div></div>","null","neg","CS","CS","1","category1/CS1.png","","","","",""
"","html-keyboard-response","37","311701","0.0-6.0-2.0-0.10","zdpryje57p","one_one","1","direct_first","1","nn06rt24","0","21","1","1","3","2","","0","1","0","null","","","<div class = 'row'><div class = 'column'><img src = 'uspos/2057.bmp' width = '100%;'></div><div class = 'column'><img src = 'category3/CS3.png' width = '70%;'></div></div>","null","pos","CS","CS","3","category3/CS3.png","","","","",""
"","html-keyboard-response","38","314219","0.0-6.0-2.0-0.11","zdpryje57p","one_one","1","direct_first","1","nn06rt24","0","21","1","1","3","2","","0","1","0","null","","","<div class = 'row'><div class = 'column'><img src = 'category2/CS9.png' width = '70%;'></div><div class = 'column'><img src = 'uspos/4599.bmp' width = '100%;'></div></div>","null","pos","CS","CS","2","category2/CS9.png","","","","",""
"","html-keyboard-response","39","316737","0.0-6.0-2.0-0.12","zdpryje57p","one_one","1","direct_first","1","nn06rt24","0","21","1","1","3","2","","0","1","0","null","","","<div class = 'row'><div class = 'column'><img src = 'uspos/2057.bmp' width = '100%;'></div><div class = 'column'><img src = 'category3/CS3.png' width = '70%;'></div></div>","null","pos","CS","CS","3","category3/CS3.png","","","","",""
"","html-keyboard-response","40","319254","0.0-6.0-2.0-0.13","zdpryje57p","one_one","1","direct_first","1","nn06rt24","0","21","1","1","3","2","","0","1","0","null","","","<div class = 'row'><div class = 'column'><img src = 'usneg/3160.bmp' width = '100%;'></div><div class = 'column'><img src = 'category1/CS1.png' width = '70%;'></div></div>","null","neg","CS","CS","1","category1/CS1.png","","","","",""
"","html-keyboard-response","41","321764","0.0-6.0-2.0-0.14","zdpryje57p","one_one","1","direct_first","1","nn06rt24","0","21","1","1","3","2","","0","1","0","null","","","<div class = 'row'><div class = 'column'><img src = 'category4/CS4.png' width = '70%;'></div><div class = 'column'><img src = 'usneg/9920.bmp' width = '100%;'></div></div>","null","neg","CS","CS","4","category4/CS4.png","","","","",""
"","html-keyboard-response","42","324286","0.0-6.0-2.0-0.15","zdpryje57p","one_one","1","direct_first","1","nn06rt24","0","21","1","1","3","2","","0","1","0","null","","","<div class = 'row'><div class = 'column'><img src = 'category2/CS9.png' width = '70%;'></div><div class = 'column'><img src = 'uspos/4599.bmp' width = '100%;'></div></div>","null","pos","CS","CS","2","category2/CS9.png","","","","",""
"","html-keyboard-response","43","326811","0.0-6.0-2.0-0.16","zdpryje57p","one_one","1","direct_first","1","nn06rt24","0","21","1","1","3","2","","0","1","0","null","","","<div class = 'row'><div class = 'column'><img src = 'usneg/9920.bmp' width = '100%;'></div><div class = 'column'><img src = 'category4/CS4.png' width = '70%;'></div></div>","null","neg","CS","CS","4","category4/CS4.png","","","","",""
"","html-keyboard-response","44","329325","0.0-6.0-2.0-0.17","zdpryje57p","one_one","1","direct_first","1","nn06rt24","0","21","1","1","3","2","","0","1","0","null","","","<div class = 'row'><div class = 'column'><img src = 'category3/CS3.png' width = '70%;'></div><div class = 'column'><img src = 'uspos/2057.bmp' width = '100%;'></div></div>","null","pos","CS","CS","3","category3/CS3.png","","","","",""
"","html-keyboard-response","45","331852","0.0-6.0-2.0-0.18","zdpryje57p","one_one","1","direct_first","1","nn06rt24","0","21","1","1","3","2","","0","1","0","null","","","<div class = 'row'><div class = 'column'><img src = 'usneg/9920.bmp' width = '100%;'></div><div class = 'column'><img src = 'category4/CS4.png' width = '70%;'></div></div>","null","neg","CS","CS","4","category4/CS4.png","","","","",""
"","html-keyboard-response","46","334374","0.0-6.0-2.0-0.19","zdpryje57p","one_one","1","direct_first","1","nn06rt24","0","21","1","1","3","2","","0","1","0","null","","","<div class = 'row'><div class = 'column'><img src = 'uspos/4599.bmp' width = '100%;'></div><div class = 'column'><img src = 'category2/CS9.png' width = '70%;'></div></div>","null","pos","CS","CS","2","category2/CS9.png","","","","",""
"","survey-html-form","47","339459","0.0-6.0-3.0","zdpryje57p","one_one","1","direct_first","1","nn06rt24","0","21","1","1","3","2","","0","1","0","4574.909999966621","","{}","","","","","","","","","","","",""
"","html-keyboard-response","48","343473","0.0-6.0-4.0-0.0","zdpryje57p","one_one","1","direct_first","1","nn06rt24","0","21","1","1","3","2","","0","1","0","null","","","<div class = 'row'><div class = 'column'><img src = 'uspos/2057.bmp' width = '100%;'></div><div class = 'column'><img src = 'category3/CS3.png' width = '70%;'></div></div>","null","pos","CS","CS","3","category3/CS3.png","","","","",""
"","html-keyboard-response","49","345999","0.0-6.0-4.0-0.1","zdpryje57p","one_one","1","direct_first","1","nn06rt24","0","21","1","1","3","2","","0","1","0","null","","","<div class = 'row'><div class = 'column'><img src = 'category4/CS4.png' width = '70%;'></div><div class = 'column'><img src = 'usneg/9920.bmp' width = '100%;'></div></div>","null","neg","CS","CS","4","category4/CS4.png","","","","",""
"","html-keyboard-response","50","348524","0.0-6.0-4.0-0.2","zdpryje57p","one_one","1","direct_first","1","nn06rt24","0","21","1","1","3","2","","0","1","0","null","","","<div class = 'row'><div class = 'column'><img src = 'uspos/4599.bmp' width = '100%;'></div><div class = 'column'><img src = 'category2/CS9.png' width = '70%;'></div></div>","null","pos","CS","CS","2","category2/CS9.png","","","","",""
"","html-keyboard-response","51","351048","0.0-6.0-4.0-0.3","zdpryje57p","one_one","1","direct_first","1","nn06rt24","0","21","1","1","3","2","","0","1","0","null","","","<div class = 'row'><div class = 'column'><img src = 'category1/CS1.png' width = '70%;'></div><div class = 'column'><img src = 'usneg/3160.bmp' width = '100%;'></div></div>","null","neg","CS","CS","1","category1/CS1.png","","","","",""
"","html-keyboard-response","52","353580","0.0-6.0-4.0-0.4","zdpryje57p","one_one","1","direct_first","1","nn06rt24","0","21","1","1","3","2","","0","1","0","null","","","<div class = 'row'><div class = 'column'><img src = 'category2/CS9.png' width = '70%;'></div><div class = 'column'><img src = 'uspos/4599.bmp' width = '100%;'></div></div>","null","pos","CS","CS","2","category2/CS9.png","","","","",""
"","html-keyboard-response","53","356105","0.0-6.0-4.0-0.5","zdpryje57p","one_one","1","direct_first","1","nn06rt24","0","21","1","1","3","2","","0","1","0","null","","","<div class = 'row'><div class = 'column'><img src = 'uspos/2057.bmp' width = '100%;'></div><div class = 'column'><img src = 'category3/CS3.png' width = '70%;'></div></div>","null","pos","CS","CS","3","category3/CS3.png","","","","",""
"","html-keyboard-response","54","358632","0.0-6.0-4.0-0.6","zdpryje57p","one_one","1","direct_first","1","nn06rt24","0","21","1","1","3","2","","0","1","0","null","","","<div class = 'row'><div class = 'column'><img src = 'usneg/9920.bmp' width = '100%;'></div><div class = 'column'><img src = 'category4/CS4.png' width = '70%;'></div></div>","null","neg","CS","CS","4","category4/CS4.png","","","","",""
"","html-keyboard-response","55","361142","0.0-6.0-4.0-0.7","zdpryje57p","one_one","1","direct_first","1","nn06rt24","0","21","1","1","3","2","","0","1","0","null","","","<div class = 'row'><div class = 'column'><img src = 'category2/CS9.png' width = '70%;'></div><div class = 'column'><img src = 'uspos/4599.bmp' width = '100%;'></div></div>","null","pos","CS","CS","2","category2/CS9.png","","","","",""
"","html-keyboard-response","56","363667","0.0-6.0-4.0-0.8","zdpryje57p","one_one","1","direct_first","1","nn06rt24","0","21","1","1","3","2","","0","1","0","null","","","<div class = 'row'><div class = 'column'><img src = 'usneg/3160.bmp' width = '100%;'></div><div class = 'column'><img src = 'category1/CS1.png' width = '70%;'></div></div>","null","neg","CS","CS","1","category1/CS1.png","","","","",""
"","html-keyboard-response","57","366193","0.0-6.0-4.0-0.9","zdpryje57p","one_one","1","direct_first","1","nn06rt24","0","21","1","1","3","2","","0","1","0","null","","","<div class = 'row'><div class = 'column'><img src = 'usneg/9920.bmp' width = '100%;'></div><div class = 'column'><img src = 'category4/CS4.png' width = '70%;'></div></div>","null","neg","CS","CS","4","category4/CS4.png","","","","",""
"","html-keyboard-response","58","368710","0.0-6.0-4.0-0.10","zdpryje57p","one_one","1","direct_first","1","nn06rt24","0","21","1","1","3","2","","0","1","0","null","","","<div class = 'row'><div class = 'column'><img src = 'uspos/2057.bmp' width = '100%;'></div><div class = 'column'><img src = 'category3/CS3.png' width = '70%;'></div></div>","null","pos","CS","CS","3","category3/CS3.png","","","","",""
"","html-keyboard-response","59","371238","0.0-6.0-4.0-0.11","zdpryje57p","one_one","1","direct_first","1","nn06rt24","0","21","1","1","3","2","","0","1","0","null","","","<div class = 'row'><div class = 'column'><img src = 'usneg/3160.bmp' width = '100%;'></div><div class = 'column'><img src = 'category1/CS1.png' width = '70%;'></div></div>","null","neg","CS","CS","1","category1/CS1.png","","","","",""
"","html-keyboard-response","60","373763","0.0-6.0-4.0-0.12","zdpryje57p","one_one","1","direct_first","1","nn06rt24","0","21","1","1","3","2","","0","1","0","null","","","<div class = 'row'><div class = 'column'><img src = 'category2/CS9.png' width = '70%;'></div><div class = 'column'><img src = 'uspos/4599.bmp' width = '100%;'></div></div>","null","pos","CS","CS","2","category2/CS9.png","","","","",""
"","html-keyboard-response","61","376275","0.0-6.0-4.0-0.13","zdpryje57p","one_one","1","direct_first","1","nn06rt24","0","21","1","1","3","2","","0","1","0","null","","","<div class = 'row'><div class = 'column'><img src = 'usneg/3160.bmp' width = '100%;'></div><div class = 'column'><img src = 'category1/CS1.png' width = '70%;'></div></div>","null","neg","CS","CS","1","category1/CS1.png","","","","",""
"","html-keyboard-response","62","378804","0.0-6.0-4.0-0.14","zdpryje57p","one_one","1","direct_first","1","nn06rt24","0","21","1","1","3","2","","0","1","0","null","","","<div class = 'row'><div class = 'column'><img src = 'uspos/2057.bmp' width = '100%;'></div><div class = 'column'><img src = 'category3/CS3.png' width = '70%;'></div></div>","null","pos","CS","CS","3","category3/CS3.png","","","","",""
"","html-keyboard-response","63","381330","0.0-6.0-4.0-0.15","zdpryje57p","one_one","1","direct_first","1","nn06rt24","0","21","1","1","3","2","","0","1","0","null","","","<div class = 'row'><div class = 'column'><img src = 'category4/CS4.png' width = '70%;'></div><div class = 'column'><img src = 'usneg/9920.bmp' width = '100%;'></div></div>","null","neg","CS","CS","4","category4/CS4.png","","","","",""
"","html-keyboard-response","64","383857","0.0-6.0-4.0-0.16","zdpryje57p","one_one","1","direct_first","1","nn06rt24","0","21","1","1","3","2","","0","1","0","null","","","<div class = 'row'><div class = 'column'><img src = 'usneg/3160.bmp' width = '100%;'></div><div class = 'column'><img src = 'category1/CS1.png' width = '70%;'></div></div>","null","neg","CS","CS","1","category1/CS1.png","","","","",""
"","html-keyboard-response","65","386363","0.0-6.0-4.0-0.17","zdpryje57p","one_one","1","direct_first","1","nn06rt24","0","21","1","1","3","2","","0","1","0","null","","","<div class = 'row'><div class = 'column'><img src = 'category2/CS9.png' width = '70%;'></div><div class = 'column'><img src = 'uspos/4599.bmp' width = '100%;'></div></div>","null","pos","CS","CS","2","category2/CS9.png","","","","",""
"","html-keyboard-response","66","388887","0.0-6.0-4.0-0.18","zdpryje57p","one_one","1","direct_first","1","nn06rt24","0","21","1","1","3","2","","0","1","0","null","","","<div class = 'row'><div class = 'column'><img src = 'category3/CS3.png' width = '70%;'></div><div class = 'column'><img src = 'uspos/2057.bmp' width = '100%;'></div></div>","null","pos","CS","CS","3","category3/CS3.png","","","","",""
"","html-keyboard-response","67","391415","0.0-6.0-4.0-0.19","zdpryje57p","one_one","1","direct_first","1","nn06rt24","0","21","1","1","3","2","","0","1","0","null","","","<div class = 'row'><div class = 'column'><img src = 'usneg/9920.bmp' width = '100%;'></div><div class = 'column'><img src = 'category4/CS4.png' width = '70%;'></div></div>","null","neg","CS","CS","4","category4/CS4.png","","","","",""
"","survey-html-form","68","394587","0.0-6.0-5.0","zdpryje57p","one_one","1","direct_first","1","nn06rt24","0","21","1","1","3","2","","0","1","0","2660.4599999263883","","{}","","","","","","","","","","","",""
"","html-keyboard-response","69","398620","0.0-6.0-6.0-0.0","zdpryje57p","one_one","1","direct_first","1","nn06rt24","0","21","1","1","3","2","","0","1","0","null","","","<div class = 'row'><div class = 'column'><img src = 'usneg/3160.bmp' width = '100%;'></div><div class = 'column'><img src = 'category1/CS1.png' width = '70%;'></div></div>","null","neg","CS","CS","1","category1/CS1.png","","","","",""
"","html-keyboard-response","70","401150","0.0-6.0-6.0-0.1","zdpryje57p","one_one","1","direct_first","1","nn06rt24","0","21","1","1","3","2","","0","1","0","null","","","<div class = 'row'><div class = 'column'><img src = 'category3/CS3.png' width = '70%;'></div><div class = 'column'><img src = 'uspos/2057.bmp' width = '100%;'></div></div>","null","pos","CS","CS","3","category3/CS3.png","","","","",""
"","html-keyboard-response","71","403673","0.0-6.0-6.0-0.2","zdpryje57p","one_one","1","direct_first","1","nn06rt24","0","21","1","1","3","2","","0","1","0","null","","","<div class = 'row'><div class = 'column'><img src = 'category2/CS9.png' width = '70%;'></div><div class = 'column'><img src = 'uspos/4599.bmp' width = '100%;'></div></div>","null","pos","CS","CS","2","category2/CS9.png","","","","",""
"","html-keyboard-response","72","406181","0.0-6.0-6.0-0.3","zdpryje57p","one_one","1","direct_first","1","nn06rt24","0","21","1","1","3","2","","0","1","0","null","","","<div class = 'row'><div class = 'column'><img src = 'usneg/9920.bmp' width = '100%;'></div><div class = 'column'><img src = 'category4/CS4.png' width = '70%;'></div></div>","null","neg","CS","CS","4","category4/CS4.png","","","","",""
"","html-keyboard-response","73","408709","0.0-6.0-6.0-0.4","zdpryje57p","one_one","1","direct_first","1","nn06rt24","0","21","1","1","3","2","","0","1","0","null","","","<div class = 'row'><div class = 'column'><img src = 'category2/CS9.png' width = '70%;'></div><div class = 'column'><img src = 'uspos/4599.bmp' width = '100%;'></div></div>","null","pos","CS","CS","2","category2/CS9.png","","","","",""
"","html-keyboard-response","74","411238","0.0-6.0-6.0-0.5","zdpryje57p","one_one","1","direct_first","1","nn06rt24","0","21","1","1","3","2","","0","1","0","null","","","<div class = 'row'><div class = 'column'><img src = 'usneg/9920.bmp' width = '100%;'></div><div class = 'column'><img src = 'category4/CS4.png' width = '70%;'></div></div>","null","neg","CS","CS","4","category4/CS4.png","","","","",""
"","html-keyboard-response","75","413759","0.0-6.0-6.0-0.6","zdpryje57p","one_one","1","direct_first","1","nn06rt24","0","21","1","1","3","2","","0","1","0","null","","","<div class = 'row'><div class = 'column'><img src = 'uspos/4599.bmp' width = '100%;'></div><div class = 'column'><img src = 'category2/CS9.png' width = '70%;'></div></div>","null","pos","CS","CS","2","category2/CS9.png","","","","",""
"","html-keyboard-response","76","416283","0.0-6.0-6.0-0.7","zdpryje57p","one_one","1","direct_first","1","nn06rt24","0","21","1","1","3","2","","0","1","0","null","","","<div class = 'row'><div class = 'column'><img src = 'category4/CS4.png' width = '70%;'></div><div class = 'column'><img src = 'usneg/9920.bmp' width = '100%;'></div></div>","null","neg","CS","CS","4","category4/CS4.png","","","","",""
"","html-keyboard-response","77","418812","0.0-6.0-6.0-0.8","zdpryje57p","one_one","1","direct_first","1","nn06rt24","0","21","1","1","3","2","","0","1","0","null","","","<div class = 'row'><div class = 'column'><img src = 'category3/CS3.png' width = '70%;'></div><div class = 'column'><img src = 'uspos/2057.bmp' width = '100%;'></div></div>","null","pos","CS","CS","3","category3/CS3.png","","","","",""
"","html-keyboard-response","78","421322","0.0-6.0-6.0-0.9","zdpryje57p","one_one","1","direct_first","1","nn06rt24","0","21","1","1","3","2","","0","1","0","null","","","<div class = 'row'><div class = 'column'><img src = 'usneg/3160.bmp' width = '100%;'></div><div class = 'column'><img src = 'category1/CS1.png' width = '70%;'></div></div>","null","neg","CS","CS","1","category1/CS1.png","","","","",""
"","html-keyboard-response","79","423845","0.0-6.0-6.0-0.10","zdpryje57p","one_one","1","direct_first","1","nn06rt24","0","21","1","1","3","2","","0","1","0","null","","","<div class = 'row'><div class = 'column'><img src = 'category3/CS3.png' width = '70%;'></div><div class = 'column'><img src = 'uspos/2057.bmp' width = '100%;'></div></div>","null","pos","CS","CS","3","category3/CS3.png","","","","",""
"","html-keyboard-response","80","426368","0.0-6.0-6.0-0.11","zdpryje57p","one_one","1","direct_first","1","nn06rt24","0","21","1","1","3","2","","0","1","0","null","","","<div class = 'row'><div class = 'column'><img src = 'category1/CS1.png' width = '70%;'></div><div class = 'column'><img src = 'usneg/3160.bmp' width = '100%;'></div></div>","null","neg","CS","CS","1","category1/CS1.png","","","","",""
"","html-keyboard-response","81","428894","0.0-6.0-6.0-0.12","zdpryje57p","one_one","1","direct_first","1","nn06rt24","0","21","1","1","3","2","","0","1","0","null","","","<div class = 'row'><div class = 'column'><img src = 'usneg/9920.bmp' width = '100%;'></div><div class = 'column'><img src = 'category4/CS4.png' width = '70%;'></div></div>","null","neg","CS","CS","4","category4/CS4.png","","","","",""
"","html-keyboard-response","82","431412","0.0-6.0-6.0-0.13","zdpryje57p","one_one","1","direct_first","1","nn06rt24","0","21","1","1","3","2","","0","1","0","null","","","<div class = 'row'><div class = 'column'><img src = 'category3/CS3.png' width = '70%;'></div><div class = 'column'><img src = 'uspos/2057.bmp' width = '100%;'></div></div>","null","pos","CS","CS","3","category3/CS3.png","","","","",""
"","html-keyboard-response","83","433940","0.0-6.0-6.0-0.14","zdpryje57p","one_one","1","direct_first","1","nn06rt24","0","21","1","1","3","2","","0","1","0","null","","","<div class = 'row'><div class = 'column'><img src = 'category2/CS9.png' width = '70%;'></div><div class = 'column'><img src = 'uspos/4599.bmp' width = '100%;'></div></div>","null","pos","CS","CS","2","category2/CS9.png","","","","",""
"","html-keyboard-response","84","436461","0.0-6.0-6.0-0.15","zdpryje57p","one_one","1","direct_first","1","nn06rt24","0","21","1","1","3","2","","0","1","0","null","","","<div class = 'row'><div class = 'column'><img src = 'category3/CS3.png' width = '70%;'></div><div class = 'column'><img src = 'uspos/2057.bmp' width = '100%;'></div></div>","null","pos","CS","CS","3","category3/CS3.png","","","","",""
"","html-keyboard-response","85","438974","0.0-6.0-6.0-0.16","zdpryje57p","one_one","1","direct_first","1","nn06rt24","0","21","1","1","3","2","","0","1","0","null","","","<div class = 'row'><div class = 'column'><img src = 'category1/CS1.png' width = '70%;'></div><div class = 'column'><img src = 'usneg/3160.bmp' width = '100%;'></div></div>","null","neg","CS","CS","1","category1/CS1.png","","","","",""
"","html-keyboard-response","86","441491","0.0-6.0-6.0-0.17","zdpryje57p","one_one","1","direct_first","1","nn06rt24","0","21","1","1","3","2","","0","1","0","null","","","<div class = 'row'><div class = 'column'><img src = 'category4/CS4.png' width = '70%;'></div><div class = 'column'><img src = 'usneg/9920.bmp' width = '100%;'></div></div>","null","neg","CS","CS","4","category4/CS4.png","","","","",""
"","html-keyboard-response","87","444000","0.0-6.0-6.0-0.18","zdpryje57p","one_one","1","direct_first","1","nn06rt24","0","21","1","1","3","2","","0","1","0","null","","","<div class = 'row'><div class = 'column'><img src = 'usneg/3160.bmp' width = '100%;'></div><div class = 'column'><img src = 'category1/CS1.png' width = '70%;'></div></div>","null","neg","CS","CS","1","category1/CS1.png","","","","",""
"","html-keyboard-response","88","446512","0.0-6.0-6.0-0.19","zdpryje57p","one_one","1","direct_first","1","nn06rt24","0","21","1","1","3","2","","0","1","0","null","","","<div class = 'row'><div class = 'column'><img src = 'category2/CS9.png' width = '70%;'></div><div class = 'column'><img src = 'uspos/4599.bmp' width = '100%;'></div></div>","null","pos","CS","CS","2","category2/CS9.png","","","","",""
"","survey-html-form","89","456489","0.0-7.0","zdpryje57p","one_one","1","direct_first","1","nn06rt24","0","21","1","1","3","2","","0","1","0","9464.21999996528","","{}","","","","","","","","","","","",""
"","image-slider-response","90","464589","0.0-8.0-0.0","zdpryje57p","one_one","1","direct_first","1","nn06rt24","0","21","1","1","3","2","","0","1","0","6088.459999999031","","","","","neg","GS","GSold","1","category1/CS6.png","-44","targets/25.png","direct","",""
"","image-slider-response","91","469688","0.0-8.0-0.1","zdpryje57p","one_one","1","direct_first","1","nn06rt24","0","21","1","1","3","2","","0","1","0","5097.000000067055","","","","","pos","CS","CS","2","category2/CS9.png","90","targets/38.png","direct","",""
"","image-slider-response","92","474279","0.0-8.0-0.2","zdpryje57p","one_one","1","direct_first","1","nn06rt24","0","21","1","1","3","2","","0","1","0","4588.854999979958","","","","","neg","GS","GSnew","1","category1/GS3.png","-88","targets/3.png","direct","",""
"","image-slider-response","93","477750","0.0-8.0-0.3","zdpryje57p","one_one","1","direct_first","1","nn06rt24","0","21","1","1","3","2","","0","1","0","3469.2599999252707","","","","","pos","GS","abstract","3","category3/wang.png","54","targets/30.png","direct","",""
"","image-slider-response","94","481142","0.0-8.0-0.4","zdpryje57p","one_one","1","direct_first","1","nn06rt24","0","21","1","1","3","2","","0","1","0","3390.529999975115","","","","","neg","GS","GSnew","1","category1/GS2.png","-12","targets/34.png","direct","",""
"","image-slider-response","95","484532","0.0-8.0-0.5","zdpryje57p","one_one","1","direct_first","1","nn06rt24","0","21","1","1","3","2","","0","1","0","3388.1149999797344","","","","","neg","CS","CS","4","category4/CS4.png","-93","targets/36.png","direct","",""
"","image-slider-response","96","487029","0.0-8.0-0.6","zdpryje57p","one_one","1","direct_first","1","nn06rt24","0","21","1","1","3","2","","0","1","0","2495.6050000619143","","","","","pos","GS","GSold","2","category2/CS4.png","38","targets/33.png","direct","",""
"","image-slider-response","97","490861","0.0-8.0-0.7","zdpryje57p","one_one","1","direct_first","1","nn06rt24","0","21","1","1","3","2","","0","1","0","3830.7649998459965","","","","","pos","GS","GSold","2","category2/CS8.png","75","targets/39.png","direct","",""
"","image-slider-response","98","495317","0.0-8.0-0.8","zdpryje57p","one_one","1","direct_first","1","nn06rt24","0","21","1","1","3","2","","0","1","0","4454.060000134632","","","","","neg","GS","GSold","4","category4/CS5.png","-57","targets/42.png","direct","",""
"","image-slider-response","99","497947","0.0-8.0-0.9","zdpryje57p","one_one","1","direct_first","1","nn06rt24","0","21","1","1","3","2","","0","1","0","2628.209999995306","","","","","neg","GS","GSold","4","category4/CS1.png","-26","targets/20.png","direct","",""
"","image-slider-response","100","501818","0.0-8.0-0.10","zdpryje57p","one_one","1","direct_first","1","nn06rt24","0","21","1","1","3","2","","0","1","0","3869.609999936074","","","","","pos","GS","GSold","3","category3/CS9.png","92","targets/12.png","direct","",""
"","image-slider-response","101","505434","0.0-8.0-0.11","zdpryje57p","one_one","1","direct_first","1","nn06rt24","0","21","1","1","3","2","","0","1","0","3614.684999920428","","","","","neg","GS","abstract","4","category4/lin.png","-47","targets/17.png","direct","",""
"","image-slider-response","102","508516","0.0-8.0-0.12","zdpryje57p","one_one","1","direct_first","1","nn06rt24","0","21","1","1","3","2","","0","1","0","3078.4850001800805","","","","","pos","GS","GSold","3","category3/CS4.png","-10","targets/31.png","direct","",""
"","image-slider-response","103","510969","0.0-8.0-0.13","zdpryje57p","one_one","1","direct_first","1","nn06rt24","0","21","1","1","3","2","","0","1","0","2451.115000061691","","","","","neg","GS","GSnew","4","category4/GS3.png","-32","targets/7.png","direct","",""
"","image-slider-response","104","513997","0.0-8.0-0.14","zdpryje57p","one_one","1","direct_first","1","nn06rt24","0","21","1","1","3","2","","0","1","0","3026.774999918416","","","","","neg","GS","GSnew","4","category4/GS2.png","38","targets/10.png","direct","",""
"","image-slider-response","105","517499","0.0-8.0-0.15","zdpryje57p","one_one","1","direct_first","1","nn06rt24","0","21","1","1","3","2","","0","1","0","3501.0900001507252","","","","","pos","GS","GSnew","2","category2/GS3.png","-18","targets/11.png","direct","",""
"","image-slider-response","106","520599","0.0-8.0-0.16","zdpryje57p","one_one","1","direct_first","1","nn06rt24","0","21","1","1","3","2","","0","1","0","3098.1100001372397","","","","","neg","GS","abstract","1","category1/ma.png","-47","targets/16.png","direct","",""
"","image-slider-response","107","523395","0.0-8.0-0.17","zdpryje57p","one_one","1","direct_first","1","nn06rt24","0","21","1","1","3","2","","0","1","0","2794.274999992922","","","","","neg","GS","GSold","1","category1/CS10.png","38","targets/35.png","direct","",""
"","image-slider-response","108","526659","0.0-8.0-0.18","zdpryje57p","one_one","1","direct_first","1","nn06rt24","0","21","1","1","3","2","","0","1","0","3262.959999963641","","","","","neg","GS","GSnew","4","category4/GS1.png","-20","targets/47.png","direct","",""
"","image-slider-response","109","530717","0.0-8.0-0.19","zdpryje57p","one_one","1","direct_first","1","nn06rt24","0","21","1","1","3","2","","0","1","0","4056.82500009425","","","","","pos","GS","GSnew","3","category3/GS1.png","89","targets/32.png","direct","",""
"","image-slider-response","110","534284","0.0-8.0-0.20","zdpryje57p","one_one","1","direct_first","1","nn06rt24","0","21","1","1","3","2","","0","1","0","3565.8000002149493","","","","","neg","GS","GSnew","1","category1/GS1.png","67","targets/26.png","direct","",""
"","image-slider-response","111","538276","0.0-8.0-0.21","zdpryje57p","one_one","1","direct_first","1","nn06rt24","0","21","1","1","3","2","","0","1","0","3990.714999847114","","","","","pos","GS","GSnew","3","category3/GS2.png","97","targets/19.png","direct","",""
"","image-slider-response","112","541156","0.0-8.0-0.22","zdpryje57p","one_one","1","direct_first","1","nn06rt24","0","21","1","1","3","2","","0","1","0","2878.2150000333786","","","","","neg","CS","CS","1","category1/CS1.png","-33","targets/45.png","direct","",""
"","image-slider-response","113","543871","0.0-8.0-0.23","zdpryje57p","one_one","1","direct_first","1","nn06rt24","0","21","1","1","3","2","","0","1","0","2714.2300000414252","","","","","pos","GS","GSnew","3","category3/GS3.png","42","targets/2.png","direct","",""
"","image-slider-response","114","549377","0.0-8.0-0.24","zdpryje57p","one_one","1","direct_first","1","nn06rt24","0","21","1","1","3","2","","0","1","0","5503.865000093356","","","","","neg","GS","GSold","1","category1/CS7.png","-29","targets/40.png","direct","",""
"","image-slider-response","115","552204","0.0-8.0-0.25","zdpryje57p","one_one","1","direct_first","1","nn06rt24","0","21","1","1","3","2","","0","1","0","2825.3050001803786","","","","","pos","GS","GSnew","2","category2/GS2.png","-75","targets/29.png","direct","",""
"","image-slider-response","116","555443","0.0-8.0-0.26","zdpryje57p","one_one","1","direct_first","1","nn06rt24","0","21","1","1","3","2","","0","1","0","3238.1700000260025","","","","","pos","GS","GSnew","2","category2/GS1.png","-28","targets/15.png","direct","",""
"","image-slider-response","117","558781","0.0-8.0-0.27","zdpryje57p","one_one","1","direct_first","1","nn06rt24","0","21","1","1","3","2","","0","1","0","3336.559999966994","","","","","pos","GS","abstract","2","category2/men.png","8","targets/23.png","direct","",""
"","image-slider-response","118","561277","0.0-8.0-0.28","zdpryje57p","one_one","1","direct_first","1","nn06rt24","0","21","1","1","3","2","","0","1","0","2494.775000028312","","","","","neg","GS","GSold","4","category4/CS9.png","-28","targets/43.png","direct","",""
"","image-slider-response","119","564450","0.0-8.0-0.29","zdpryje57p","one_one","1","direct_first","1","nn06rt24","0","21","1","1","3","2","","0","1","0","3171.51500005275","","","","","pos","GS","GSold","3","category3/CS8.png","57","targets/44.png","direct","",""
"","image-slider-response","120","567444","0.0-8.0-0.30","zdpryje57p","one_one","1","direct_first","1","nn06rt24","0","21","1","1","3","2","","0","1","0","2992.134999949485","","","","","pos","CS","CS","3","category3/CS3.png","82","targets/18.png","direct","",""
"","image-slider-response","121","570160","0.0-8.0-0.31","zdpryje57p","one_one","1","direct_first","1","nn06rt24","0","21","1","1","3","2","","0","1","0","2714.2300000414252","","","","","pos","GS","GSold","2","category2/CS6.png","84","targets/28.png","direct","",""
"","html-keyboard-response","122","609332","0.0-9.0","zdpryje57p","one_one","1","direct_first","1","nn06rt24","0","21","1","1","3","2","","0","1","0","39170.760000124574","","","<p>Sie sehen nun die chinesischen Zeichen nur ganz kurz. Danach sehen Sie die jeweilige Aussprache der Zeichen als Silbe auf dem Bildschrim. Ihre Aufgabe ist es, für jede Silbe anzugeben, ob diese etwas angenehmes, oder unangenehmes bedeuten könnte. Verlassen Sie sich hier vor allem auf Ihre Intuition.<br><br>Die Zeichen werden nur zur Orientierung dargestellt, beachten Sie sie deshalb nicht. Konzentrieren Sie sich vor allem auf die Silben. <br>Reagieren Sie mit folgenden zwei Tasten: <br><br><b>'D' </b> wenn die Silbe etwas <b>unangenehmes</b> bedeuten könnte. <br><b>'K'</b> wenn die Silbe etwas <b>angenehmes</b> bedeuten könnte. <br><br>Bitte legen Sie nun den Zeigefinger der linken Hand auf die Taste 'D' und den Zeigefinger der rechten Hand auf die Taste 'K'. <br>Reagieren Sie auf jede Silbe so schnell wie möglich. Uns interessiert Ihre spontane Reaktion. <br> <br> <br>Drücken Sie 'D' oder 'K', um die nächste Aufgabe zu starten. </p>","75","","","","","","","","","",""
"","html-keyboard-response","123","612344","0.0-10.0-0.0","zdpryje57p","one_one","1","direct_first","1","nn06rt24","0","21","1","1","3","2","","0","1","0","null","","","<div style=""font-size:60px;"">+</div>","null","","","","","","","","","",""
"","html-keyboard-response","124","612436","0.0-10.0-1.0","zdpryje57p","one_one","1","direct_first","1","nn06rt24","0","21","1","1","3","2","","0","1","0","null","","","<img src = 'category3/CS4.png' width = '100%;'>","null","","","","","","","","","",""
"","html-keyboard-response","125","612702","0.0-10.0-2.0","zdpryje57p","one_one","1","direct_first","1","nn06rt24","0","21","1","1","3","2","","0","1","0","null","","","<img src = 'targets/31.png' width = '100%;'>","null","","","","","","","","","",""
"","html-keyboard-response","126","621529","0.0-10.0-3.0","zdpryje57p","one_one","1","direct_first","1","nn06rt24","0","21","1","1","3","2","","0","1","0","8825.41499985382","","","<img src = 'targets/mask.png' width = '100%;'>","75","pos","GS","GSold","3","category3/CS4.png","","targets/31.png","indirect","1","0"
"","html-keyboard-response","127","623037","0.0-10.0-0.1","zdpryje57p","one_one","1","direct_first","1","nn06rt24","0","21","1","1","3","2","","0","1","0","null","","","<div style=""font-size:60px;"">+</div>","null","","","","","","","","","",""
"","html-keyboard-response","128","623131","0.0-10.0-1.1","zdpryje57p","one_one","1","direct_first","1","nn06rt24","0","21","1","1","3","2","","0","1","0","null","","","<img src = 'category2/CS4.png' width = '100%;'>","null","","","","","","","","","",""
"","html-keyboard-response","129","623410","0.0-10.0-2.1","zdpryje57p","one_one","1","direct_first","1","nn06rt24","0","21","1","1","3","2","","0","1","0","null","","","<img src = 'targets/33.png' width = '100%;'>","null","","","","","","","","","",""
"","html-keyboard-response","130","625472","0.0-10.0-3.1","zdpryje57p","one_one","1","direct_first","1","nn06rt24","0","21","1","1","3","2","","0","1","0","2060.2549999020994","","","<img src = 'targets/mask.png' width = '100%;'>","68","pos","GS","GSold","2","category2/CS4.png","","targets/33.png","indirect","0","1"
"","html-keyboard-response","131","626993","0.0-10.0-0.2","zdpryje57p","one_one","1","direct_first","1","nn06rt24","0","21","1","1","3","2","","0","1","0","null","","","<div style=""font-size:60px;"">+</div>","null","","","","","","","","","",""
"","html-keyboard-response","132","627085","0.0-10.0-1.2","zdpryje57p","one_one","1","direct_first","1","nn06rt24","0","21","1","1","3","2","","0","1","0","null","","","<img src = 'category1/CS6.png' width = '100%;'>","null","","","","","","","","","",""
"","html-keyboard-response","133","627352","0.0-10.0-2.2","zdpryje57p","one_one","1","direct_first","1","nn06rt24","0","21","1","1","3","2","","0","1","0","null","","","<img src = 'targets/25.png' width = '100%;'>","null","","","","","","","","","",""
"","html-keyboard-response","134","628261","0.0-10.0-3.2","zdpryje57p","one_one","1","direct_first","1","nn06rt24","0","21","1","1","3","2","","0","1","0","906.6449999809265","","","<img src = 'targets/mask.png' width = '100%;'>","75","neg","GS","GSold","1","category1/CS6.png","","targets/25.png","indirect","1","2"
"","html-keyboard-response","135","629783","0.0-10.0-0.3","zdpryje57p","one_one","1","direct_first","1","nn06rt24","0","21","1","1","3","2","","0","1","0","null","","","<div style=""font-size:60px;"">+</div>","null","","","","","","","","","",""
"","html-keyboard-response","136","629875","0.0-10.0-1.3","zdpryje57p","one_one","1","direct_first","1","nn06rt24","0","21","1","1","3","2","","0","1","0","null","","","<img src = 'category1/CS7.png' width = '100%;'>","null","","","","","","","","","",""
"","html-keyboard-response","137","630155","0.0-10.0-2.3","zdpryje57p","one_one","1","direct_first","1","nn06rt24","0","21","1","1","3","2","","0","1","0","null","","","<img src = 'targets/40.png' width = '100%;'>","null","","","","","","","","","",""
"","html-keyboard-response","138","631221","0.0-10.0-3.3","zdpryje57p","one_one","1","direct_first","1","nn06rt24","0","21","1","1","3","2","","0","1","0","1064.3400000408292","","","<img src = 'targets/mask.png' width = '100%;'>","68","neg","GS","GSold","1","category1/CS7.png","","targets/40.png","indirect","0","3"
"","html-keyboard-response","139","632737","0.0-10.0-0.4","zdpryje57p","one_one","1","direct_first","1","nn06rt24","0","21","1","1","3","2","","0","1","0","null","","","<div style=""font-size:60px;"">+</div>","null","","","","","","","","","",""
"","html-keyboard-response","140","632829","0.0-10.0-1.4","zdpryje57p","one_one","1","direct_first","1","nn06rt24","0","21","1","1","3","2","","0","1","0","null","","","<img src = 'category2/CS6.png' width = '100%;'>","null","","","","","","","","","",""
"","html-keyboard-response","141","633093","0.0-10.0-2.4","zdpryje57p","one_one","1","direct_first","1","nn06rt24","0","21","1","1","3","2","","0","1","0","null","","","<img src = 'targets/28.png' width = '100%;'>","null","","","","","","","","","",""
"","html-keyboard-response","142","633963","0.0-10.0-3.4","zdpryje57p","one_one","1","direct_first","1","nn06rt24","0","21","1","1","3","2","","0","1","0","869.0649999771267","","","<img src = 'targets/mask.png' width = '100%;'>","75","pos","GS","GSold","2","category2/CS6.png","","targets/28.png","indirect","1","4"
"","html-keyboard-response","143","635480","0.0-10.0-0.5","zdpryje57p","one_one","1","direct_first","1","nn06rt24","0","21","1","1","3","2","","0","1","0","null","","","<div style=""font-size:60px;"">+</div>","null","","","","","","","","","",""
"","html-keyboard-response","144","635572","0.0-10.0-1.5","zdpryje57p","one_one","1","direct_first","1","nn06rt24","0","21","1","1","3","2","","0","1","0","null","","","<img src = 'category3/CS9.png' width = '100%;'>","null","","","","","","","","","",""
"","html-keyboard-response","145","635852","0.0-10.0-2.5","zdpryje57p","one_one","1","direct_first","1","nn06rt24","0","21","1","1","3","2","","0","1","0","null","","","<img src = 'targets/12.png' width = '100%;'>","null","","","","","","","","","",""
"","html-keyboard-response","146","636611","0.0-10.0-3.5","zdpryje57p","one_one","1","direct_first","1","nn06rt24","0","21","1","1","3","2","","0","1","0","758.3600000943989","","","<img src = 'targets/mask.png' width = '100%;'>","75","pos","GS","GSold","3","category3/CS9.png","","targets/12.png","indirect","1","5"
"","html-keyboard-response","147","638136","0.0-10.0-0.6","zdpryje57p","one_one","1","direct_first","1","nn06rt24","0","21","1","1","3","2","","0","1","0","null","","","<div style=""font-size:60px;"">+</div>","null","","","","","","","","","",""
"","html-keyboard-response","148","638229","0.0-10.0-1.6","zdpryje57p","one_one","1","direct_first","1","nn06rt24","0","21","1","1","3","2","","0","1","0","null","","","<img src = 'category4/CS4.png' width = '100%;'>","null","","","","","","","","","",""
"","html-keyboard-response","149","638495","0.0-10.0-2.6","zdpryje57p","one_one","1","direct_first","1","nn06rt24","0","21","1","1","3","2","","0","1","0","null","","","<img src = 'targets/36.png' width = '100%;'>","null","","","","","","","","","",""
"","html-keyboard-response","150","639310","0.0-10.0-3.6","zdpryje57p","one_one","1","direct_first","1","nn06rt24","0","21","1","1","3","2","","0","1","0","813.2249999325722","","","<img src = 'targets/mask.png' width = '100%;'>","68","neg","CS","CS","4","category4/CS4.png","","targets/36.png","indirect","0","6"
"","html-keyboard-response","151","640818","0.0-10.0-0.7","zdpryje57p","one_one","1","direct_first","1","nn06rt24","0","21","1","1","3","2","","0","1","0","null","","","<div style=""font-size:60px;"">+</div>","null","","","","","","","","","",""
"","html-keyboard-response","152","640909","0.0-10.0-1.7","zdpryje57p","one_one","1","direct_first","1","nn06rt24","0","21","1","1","3","2","","0","1","0","null","","","<img src = 'category4/CS9.png' width = '100%;'>","null","","","","","","","","","",""
"","html-keyboard-response","153","641174","0.0-10.0-2.7","zdpryje57p","one_one","1","direct_first","1","nn06rt24","0","21","1","1","3","2","","0","1","0","null","","","<img src = 'targets/43.png' width = '100%;'>","null","","","","","","","","","",""
"","html-keyboard-response","154","642478","0.0-10.0-3.7","zdpryje57p","one_one","1","direct_first","1","nn06rt24","0","21","1","1","3","2","","0","1","0","1303.0000000726432","","","<img src = 'targets/mask.png' width = '100%;'>","68","neg","GS","GSold","4","category4/CS9.png","","targets/43.png","indirect","0","7"
"","html-keyboard-response","155","643991","0.0-10.0-0.8","zdpryje57p","one_one","1","direct_first","1","nn06rt24","0","21","1","1","3","2","","0","1","0","null","","","<div style=""font-size:60px;"">+</div>","null","","","","","","","","","",""
"","html-keyboard-response","156","644084","0.0-10.0-1.8","zdpryje57p","one_one","1","direct_first","1","nn06rt24","0","21","1","1","3","2","","0","1","0","null","","","<img src = 'category2/CS8.png' width = '100%;'>","null","","","","","","","","","",""
"","html-keyboard-response","157","644362","0.0-10.0-2.8","zdpryje57p","one_one","1","direct_first","1","nn06rt24","0","21","1","1","3","2","","0","1","0","null","","","<img src = 'targets/39.png' width = '100%;'>","null","","","","","","","","","",""
"","html-keyboard-response","158","645371","0.0-10.0-3.8","zdpryje57p","one_one","1","direct_first","1","nn06rt24","0","21","1","1","3","2","","0","1","0","1006.810000166297","","","<img src = 'targets/mask.png' width = '100%;'>","75","pos","GS","GSold","2","category2/CS8.png","","targets/39.png","indirect","1","8"
"","html-keyboard-response","159","646891","0.0-10.0-0.9","zdpryje57p","one_one","1","direct_first","1","nn06rt24","0","21","1","1","3","2","","0","1","0","null","","","<div style=""font-size:60px;"">+</div>","null","","","","","","","","","",""
"","html-keyboard-response","160","646984","0.0-10.0-1.9","zdpryje57p","one_one","1","direct_first","1","nn06rt24","0","21","1","1","3","2","","0","1","0","null","","","<img src = 'category4/CS5.png' width = '100%;'>","null","","","","","","","","","",""
"","html-keyboard-response","161","647264","0.0-10.0-2.9","zdpryje57p","one_one","1","direct_first","1","nn06rt24","0","21","1","1","3","2","","0","1","0","null","","","<img src = 'targets/42.png' width = '100%;'>","null","","","","","","","","","",""
"","html-keyboard-response","162","648251","0.0-10.0-3.9","zdpryje57p","one_one","1","direct_first","1","nn06rt24","0","21","1","1","3","2","","0","1","0","986.2649999558926","","","<img src = 'targets/mask.png' width = '100%;'>","68","neg","GS","GSold","4","category4/CS5.png","","targets/42.png","indirect","0","9"
"","html-keyboard-response","163","649773","0.0-10.0-0.10","zdpryje57p","one_one","1","direct_first","1","nn06rt24","0","21","1","1","3","2","","0","1","0","null","","","<div style=""font-size:60px;"">+</div>","null","","","","","","","","","",""
"","html-keyboard-response","164","649864","0.0-10.0-1.10","zdpryje57p","one_one","1","direct_first","1","nn06rt24","0","21","1","1","3","2","","0","1","0","null","","","<img src = 'category3/CS8.png' width = '100%;'>","null","","","","","","","","","",""
"","html-keyboard-response","165","650131","0.0-10.0-2.10","zdpryje57p","one_one","1","direct_first","1","nn06rt24","0","21","1","1","3","2","","0","1","0","null","","","<img src = 'targets/44.png' width = '100%;'>","null","","","","","","","","","",""
"","html-keyboard-response","166","651593","0.0-10.0-3.10","zdpryje57p","one_one","1","direct_first","1","nn06rt24","0","21","1","1","3","2","","0","1","0","1460.6899998616427","","","<img src = 'targets/mask.png' width = '100%;'>","75","pos","GS","GSold","3","category3/CS8.png","","targets/44.png","indirect","1","10"
"","html-keyboard-response","167","653101","0.0-10.0-0.11","zdpryje57p","one_one","1","direct_first","1","nn06rt24","0","21","1","1","3","2","","0","1","0","null","","","<div style=""font-size:60px;"">+</div>","null","","","","","","","","","",""
"","html-keyboard-response","168","653193","0.0-10.0-1.11","zdpryje57p","one_one","1","direct_first","1","nn06rt24","0","21","1","1","3","2","","0","1","0","null","","","<img src = 'category1/CS10.png' width = '100%;'>","null","","","","","","","","","",""
"","html-keyboard-response","169","653458","0.0-10.0-2.11","zdpryje57p","one_one","1","direct_first","1","nn06rt24","0","21","1","1","3","2","","0","1","0","null","","","<img src = 'targets/35.png' width = '100%;'>","null","","","","","","","","","",""
"","html-keyboard-response","170","654245","0.0-10.0-3.11","zdpryje57p","one_one","1","direct_first","1","nn06rt24","0","21","1","1","3","2","","0","1","0","785.3950001299381","","","<img src = 'targets/mask.png' width = '100%;'>","75","neg","GS","GSold","1","category1/CS10.png","","targets/35.png","indirect","1","11"
"","html-keyboard-response","171","655762","0.0-10.0-0.12","zdpryje57p","one_one","1","direct_first","1","nn06rt24","0","21","1","1","3","2","","0","1","0","null","","","<div style=""font-size:60px;"">+</div>","null","","","","","","","","","",""
"","html-keyboard-response","172","655854","0.0-10.0-1.12","zdpryje57p","one_one","1","direct_first","1","nn06rt24","0","21","1","1","3","2","","0","1","0","null","","","<img src = 'category3/CS3.png' width = '100%;'>","null","","","","","","","","","",""
"","html-keyboard-response","173","656135","0.0-10.0-2.12","zdpryje57p","one_one","1","direct_first","1","nn06rt24","0","21","1","1","3","2","","0","1","0","null","","","<img src = 'targets/18.png' width = '100%;'>","null","","","","","","","","","",""
"","html-keyboard-response","174","656689","0.0-10.0-3.12","zdpryje57p","one_one","1","direct_first","1","nn06rt24","0","21","1","1","3","2","","0","1","0","553.3649998251349","","","<img src = 'targets/mask.png' width = '100%;'>","68","pos","CS","CS","3","category3/CS3.png","","targets/18.png","indirect","0","12"
"","html-keyboard-response","175","658208","0.0-10.0-0.13","zdpryje57p","one_one","1","direct_first","1","nn06rt24","0","21","1","1","3","2","","0","1","0","null","","","<div style=""font-size:60px;"">+</div>","null","","","","","","","","","",""
"","html-keyboard-response","176","658301","0.0-10.0-1.13","zdpryje57p","one_one","1","direct_first","1","nn06rt24","0","21","1","1","3","2","","0","1","0","null","","","<img src = 'category1/CS1.png' width = '100%;'>","null","","","","","","","","","",""
"","html-keyboard-response","177","658567","0.0-10.0-2.13","zdpryje57p","one_one","1","direct_first","1","nn06rt24","0","21","1","1","3","2","","0","1","0","null","","","<img src = 'targets/45.png' width = '100%;'>","null","","","","","","","","","",""
"","html-keyboard-response","178","659624","0.0-10.0-3.13","zdpryje57p","one_one","1","direct_first","1","nn06rt24","0","21","1","1","3","2","","0","1","0","1056.4200000371784","","","<img src = 'targets/mask.png' width = '100%;'>","75","neg","CS","CS","1","category1/CS1.png","","targets/45.png","indirect","1","13"
"","html-keyboard-response","179","661139","0.0-10.0-0.14","zdpryje57p","one_one","1","direct_first","1","nn06rt24","0","21","1","1","3","2","","0","1","0","null","","","<div style=""font-size:60px;"">+</div>","null","","","","","","","","","",""
"","html-keyboard-response","180","661230","0.0-10.0-1.14","zdpryje57p","one_one","1","direct_first","1","nn06rt24","0","21","1","1","3","2","","0","1","0","null","","","<img src = 'category2/CS9.png' width = '100%;'>","null","","","","","","","","","",""
"","html-keyboard-response","181","661498","0.0-10.0-2.14","zdpryje57p","one_one","1","direct_first","1","nn06rt24","0","21","1","1","3","2","","0","1","0","null","","","<img src = 'targets/38.png' width = '100%;'>","null","","","","","","","","","",""
"","html-keyboard-response","182","662416","0.0-10.0-3.14","zdpryje57p","one_one","1","direct_first","1","nn06rt24","0","21","1","1","3","2","","0","1","0","916.6399999521673","","","<img src = 'targets/mask.png' width = '100%;'>","68","pos","CS","CS","2","category2/CS9.png","","targets/38.png","indirect","0","14"
"","html-keyboard-response","183","663932","0.0-10.0-0.15","zdpryje57p","one_one","1","direct_first","1","nn06rt24","0","21","1","1","3","2","","0","1","0","null","","","<div style=""font-size:60px;"">+</div>","null","","","","","","","","","",""
"","html-keyboard-response","184","664026","0.0-10.0-1.15","zdpryje57p","one_one","1","direct_first","1","nn06rt24","0","21","1","1","3","2","","0","1","0","null","","","<img src = 'category4/CS1.png' width = '100%;'>","null","","","","","","","","","",""
"","html-keyboard-response","185","664290","0.0-10.0-2.15","zdpryje57p","one_one","1","direct_first","1","nn06rt24","0","21","1","1","3","2","","0","1","0","null","","","<img src = 'targets/20.png' width = '100%;'>","null","","","","","","","","","",""
"","html-keyboard-response","186","665218","0.0-10.0-3.15","zdpryje57p","one_one","1","direct_first","1","nn06rt24","0","21","1","1","3","2","","0","1","0","926.0499998927116","","","<img src = 'targets/mask.png' width = '100%;'>","75","neg","GS","GSold","4","category4/CS1.png","","targets/20.png","indirect","1","15"
"","survey-html-form","187","671796","0.0-11.0","zdpryje57p","one_one","1","direct_first","1","nn06rt24","0","21","1","1","3","2","","0","1","0","6063.205000013113","","{}","","","","","","","","","","","",""
"","html-keyboard-response","188","674811","0.0-12.0-0.0","zdpryje57p","one_one","1","direct_first","1","nn06rt24","0","21","1","1","3","2","","0","1","0","null","","","<div style=""font-size:60px;"">+</div>","null","","","","","","","","","",""
"","html-keyboard-response","189","674905","0.0-12.0-1.0","zdpryje57p","one_one","1","direct_first","1","nn06rt24","0","21","1","1","3","2","","0","1","0","null","","","<img src = 'category1/GS1.png' width = '100%;'>","null","","","","","","","","","",""
"","html-keyboard-response","190","675171","0.0-12.0-2.0","zdpryje57p","one_one","1","direct_first","1","nn06rt24","0","21","1","1","3","2","","0","1","0","null","","","<img src = 'targets/26.png' width = '100%;'>","null","","","","","","","","","",""
"","html-keyboard-response","191","676201","0.0-12.0-3.0","zdpryje57p","one_one","1","direct_first","1","nn06rt24","0","21","1","1","3","2","","0","1","0","1027.3899999447167","","","<img src = 'targets/mask.png' width = '100%;'>","68","neg","GS","GSnew","1","category1/GS1.png","","targets/26.png","indirect","0","16"
"","html-keyboard-response","192","677721","0.0-12.0-0.1","zdpryje57p","one_one","1","direct_first","1","nn06rt24","0","21","1","1","3","2","","0","1","0","null","","","<div style=""font-size:60px;"">+</div>","null","","","","","","","","","",""
"","html-keyboard-response","193","677812","0.0-12.0-1.1","zdpryje57p","one_one","1","direct_first","1","nn06rt24","0","21","1","1","3","2","","0","1","0","null","","","<img src = 'category4/GS1.png' width = '100%;'>","null","","","","","","","","","",""
"","html-keyboard-response","194","678092","0.0-12.0-2.1","zdpryje57p","one_one","1","direct_first","1","nn06rt24","0","21","1","1","3","2","","0","1","0","null","","","<img src = 'targets/47.png' width = '100%;'>","null","","","","","","","","","",""
"","html-keyboard-response","195","680928","0.0-12.0-3.1","zdpryje57p","one_one","1","direct_first","1","nn06rt24","0","21","1","1","3","2","","0","1","0","2834.084999980405","","","<img src = 'targets/mask.png' width = '100%;'>","68","neg","GS","GSnew","4","category4/GS1.png","","targets/47.png","indirect","0","17"
"","html-keyboard-response","196","682444","0.0-12.0-0.2","zdpryje57p","one_one","1","direct_first","1","nn06rt24","0","21","1","1","3","2","","0","1","0","null","","","<div style=""font-size:60px;"">+</div>","null","","","","","","","","","",""
"","html-keyboard-response","197","682537","0.0-12.0-1.2","zdpryje57p","one_one","1","direct_first","1","nn06rt24","0","21","1","1","3","2","","0","1","0","null","","","<img src = 'category3/GS3.png' width = '100%;'>","null","","","","","","","","","",""
"","html-keyboard-response","198","682804","0.0-12.0-2.2","zdpryje57p","one_one","1","direct_first","1","nn06rt24","0","21","1","1","3","2","","0","1","0","null","","","<img src = 'targets/2.png' width = '100%;'>","null","","","","","","","","","",""
"","html-keyboard-response","199","683610","0.0-12.0-3.2","zdpryje57p","one_one","1","direct_first","1","nn06rt24","0","21","1","1","3","2","","0","1","0","804.3649999890476","","","<img src = 'targets/mask.png' width = '100%;'>","75","pos","GS","GSnew","3","category3/GS3.png","","targets/2.png","indirect","1","18"
"","html-keyboard-response","200","685128","0.0-12.0-0.3","zdpryje57p","one_one","1","direct_first","1","nn06rt24","0","21","1","1","3","2","","0","1","0","null","","","<div style=""font-size:60px;"">+</div>","null","","","","","","","","","",""
"","html-keyboard-response","201","685220","0.0-12.0-1.3","zdpryje57p","one_one","1","direct_first","1","nn06rt24","0","21","1","1","3","2","","0","1","0","null","","","<img src = 'category3/GS1.png' width = '100%;'>","null","","","","","","","","","",""
"","html-keyboard-response","202","685500","0.0-12.0-2.3","zdpryje57p","one_one","1","direct_first","1","nn06rt24","0","21","1","1","3","2","","0","1","0","null","","","<img src = 'targets/32.png' width = '100%;'>","null","","","","","","","","","",""
"","html-keyboard-response","203","686266","0.0-12.0-3.3","zdpryje57p","one_one","1","direct_first","1","nn06rt24","0","21","1","1","3","2","","0","1","0","763.4900000412017","","","<img src = 'targets/mask.png' width = '100%;'>","68","pos","GS","GSnew","3","category3/GS1.png","","targets/32.png","indirect","0","19"
"","html-keyboard-response","204","687779","0.0-12.0-0.4","zdpryje57p","one_one","1","direct_first","1","nn06rt24","0","21","1","1","3","2","","0","1","0","null","","","<div style=""font-size:60px;"">+</div>","null","","","","","","","","","",""
"","html-keyboard-response","205","687870","0.0-12.0-1.4","zdpryje57p","one_one","1","direct_first","1","nn06rt24","0","21","1","1","3","2","","0","1","0","null","","","<img src = 'category2/men.png' width = '100%;'>","null","","","","","","","","","",""
"","html-keyboard-response","206","688151","0.0-12.0-2.4","zdpryje57p","one_one","1","direct_first","1","nn06rt24","0","21","1","1","3","2","","0","1","0","null","","","<img src = 'targets/23.png' width = '100%;'>","null","","","","","","","","","",""
"","html-keyboard-response","207","689006","0.0-12.0-3.4","zdpryje57p","one_one","1","direct_first","1","nn06rt24","0","21","1","1","3","2","","0","1","0","854.164999909699","","","<img src = 'targets/mask.png' width = '100%;'>","68","pos","GS","abstract","2","category2/men.png","","targets/23.png","indirect","0","20"
"","html-keyboard-response","208","690524","0.0-12.0-0.5","zdpryje57p","one_one","1","direct_first","1","nn06rt24","0","21","1","1","3","2","","0","1","0","null","","","<div style=""font-size:60px;"">+</div>","null","","","","","","","","","",""
"","html-keyboard-response","209","690615","0.0-12.0-1.5","zdpryje57p","one_one","1","direct_first","1","nn06rt24","0","21","1","1","3","2","","0","1","0","null","","","<img src = 'category3/GS2.png' width = '100%;'>","null","","","","","","","","","",""
"","html-keyboard-response","210","690883","0.0-12.0-2.5","zdpryje57p","one_one","1","direct_first","1","nn06rt24","0","21","1","1","3","2","","0","1","0","null","","","<img src = 'targets/19.png' width = '100%;'>","null","","","","","","","","","",""
"","html-keyboard-response","211","691624","0.0-12.0-3.5","zdpryje57p","one_one","1","direct_first","1","nn06rt24","0","21","1","1","3","2","","0","1","0","739.850000012666","","","<img src = 'targets/mask.png' width = '100%;'>","75","pos","GS","GSnew","3","category3/GS2.png","","targets/19.png","indirect","1","21"
"","html-keyboard-response","212","693132","0.0-12.0-0.6","zdpryje57p","one_one","1","direct_first","1","nn06rt24","0","21","1","1","3","2","","0","1","0","null","","","<div style=""font-size:60px;"">+</div>","null","","","","","","","","","",""
"","html-keyboard-response","213","693225","0.0-12.0-1.6","zdpryje57p","one_one","1","direct_first","1","nn06rt24","0","21","1","1","3","2","","0","1","0","null","","","<img src = 'category1/ma.png' width = '100%;'>","null","","","","","","","","","",""
"","html-keyboard-response","214","693490","0.0-12.0-2.6","zdpryje57p","one_one","1","direct_first","1","nn06rt24","0","21","1","1","3","2","","0","1","0","null","","","<img src = 'targets/16.png' width = '100%;'>","null","","","","","","","","","",""
"","html-keyboard-response","215","694073","0.0-12.0-3.6","zdpryje57p","one_one","1","direct_first","1","nn06rt24","0","21","1","1","3","2","","0","1","0","582.1950000245124","","","<img src = 'targets/mask.png' width = '100%;'>","75","neg","GS","abstract","1","category1/ma.png","","targets/16.png","indirect","1","22"
"","html-keyboard-response","216","695593","0.0-12.0-0.7","zdpryje57p","one_one","1","direct_first","1","nn06rt24","0","21","1","1","3","2","","0","1","0","null","","","<div style=""font-size:60px;"">+</div>","null","","","","","","","","","",""
"","html-keyboard-response","217","695684","0.0-12.0-1.7","zdpryje57p","one_one","1","direct_first","1","nn06rt24","0","21","1","1","3","2","","0","1","0","null","","","<img src = 'category3/wang.png' width = '100%;'>","null","","","","","","","","","",""
"","html-keyboard-response","218","695964","0.0-12.0-2.7","zdpryje57p","one_one","1","direct_first","1","nn06rt24","0","21","1","1","3","2","","0","1","0","null","","","<img src = 'targets/30.png' width = '100%;'>","null","","","","","","","","","",""
"","html-keyboard-response","219","696611","0.0-12.0-3.7","zdpryje57p","one_one","1","direct_first","1","nn06rt24","0","21","1","1","3","2","","0","1","0","646.0949999745935","","","<img src = 'targets/mask.png' width = '100%;'>","75","pos","GS","abstract","3","category3/wang.png","","targets/30.png","indirect","1","23"
"","html-keyboard-response","220","698123","0.0-12.0-0.8","zdpryje57p","one_one","1","direct_first","1","nn06rt24","0","21","1","1","3","2","","0","1","0","null","","","<div style=""font-size:60px;"">+</div>","null","","","","","","","","","",""
"","html-keyboard-response","221","698215","0.0-12.0-1.8","zdpryje57p","one_one","1","direct_first","1","nn06rt24","0","21","1","1","3","2","","0","1","0","null","","","<img src = 'category1/GS3.png' width = '100%;'>","null","","","","","","","","","",""
"","html-keyboard-response","222","698491","0.0-12.0-2.8","zdpryje57p","one_one","1","direct_first","1","nn06rt24","0","21","1","1","3","2","","0","1","0","null","","","<img src = 'targets/3.png' width = '100%;'>","null","","","","","","","","","",""
"","html-keyboard-response","223","699159","0.0-12.0-3.8","zdpryje57p","one_one","1","direct_first","1","nn06rt24","0","21","1","1","3","2","","0","1","0","666.8249999638647","","","<img src = 'targets/mask.png' width = '100%;'>","75","neg","GS","GSnew","1","category1/GS3.png","","targets/3.png","indirect","1","24"
"","html-keyboard-response","224","700672","0.0-12.0-0.9","zdpryje57p","one_one","1","direct_first","1","nn06rt24","0","21","1","1","3","2","","0","1","0","null","","","<div style=""font-size:60px;"">+</div>","null","","","","","","","","","",""
"","html-keyboard-response","225","700764","0.0-12.0-1.9","zdpryje57p","one_one","1","direct_first","1","nn06rt24","0","21","1","1","3","2","","0","1","0","null","","","<img src = 'category2/GS3.png' width = '100%;'>","null","","","","","","","","","",""
"","html-keyboard-response","226","701043","0.0-12.0-2.9","zdpryje57p","one_one","1","direct_first","1","nn06rt24","0","21","1","1","3","2","","0","1","0","null","","","<img src = 'targets/11.png' width = '100%;'>","null","","","","","","","","","",""
"","html-keyboard-response","227","701986","0.0-12.0-3.9","zdpryje57p","one_one","1","direct_first","1","nn06rt24","0","21","1","1","3","2","","0","1","0","941.080000018701","","","<img src = 'targets/mask.png' width = '100%;'>","68","pos","GS","GSnew","2","category2/GS3.png","","targets/11.png","indirect","0","25"
"","html-keyboard-response","228","703499","0.0-12.0-0.10","zdpryje57p","one_one","1","direct_first","1","nn06rt24","0","21","1","1","3","2","","0","1","0","null","","","<div style=""font-size:60px;"">+</div>","null","","","","","","","","","",""
"","html-keyboard-response","229","703592","0.0-12.0-1.10","zdpryje57p","one_one","1","direct_first","1","nn06rt24","0","21","1","1","3","2","","0","1","0","null","","","<img src = 'category4/GS3.png' width = '100%;'>","null","","","","","","","","","",""
"","html-keyboard-response","230","703872","0.0-12.0-2.10","zdpryje57p","one_one","1","direct_first","1","nn06rt24","0","21","1","1","3","2","","0","1","0","null","","","<img src = 'targets/7.png' width = '100%;'>","null","","","","","","","","","",""
"","html-keyboard-response","231","705715","0.0-12.0-3.10","zdpryje57p","one_one","1","direct_first","1","nn06rt24","0","21","1","1","3","2","","0","1","0","1842.03499997966","","","<img src = 'targets/mask.png' width = '100%;'>","68","neg","GS","GSnew","4","category4/GS3.png","","targets/7.png","indirect","0","26"
"","html-keyboard-response","232","707229","0.0-12.0-0.11","zdpryje57p","one_one","1","direct_first","1","nn06rt24","0","21","1","1","3","2","","0","1","0","null","","","<div style=""font-size:60px;"">+</div>","null","","","","","","","","","",""
"","html-keyboard-response","233","707322","0.0-12.0-1.11","zdpryje57p","one_one","1","direct_first","1","nn06rt24","0","21","1","1","3","2","","0","1","0","null","","","<img src = 'category1/GS2.png' width = '100%;'>","null","","","","","","","","","",""
"","html-keyboard-response","234","707585","0.0-12.0-2.11","zdpryje57p","one_one","1","direct_first","1","nn06rt24","0","21","1","1","3","2","","0","1","0","null","","","<img src = 'targets/34.png' width = '100%;'>","null","","","","","","","","","",""
"","html-keyboard-response","235","708615","0.0-12.0-3.11","zdpryje57p","one_one","1","direct_first","1","nn06rt24","0","21","1","1","3","2","","0","1","0","1028.1599999871105","","","<img src = 'targets/mask.png' width = '100%;'>","75","neg","GS","GSnew","1","category1/GS2.png","","targets/34.png","indirect","1","27"
"","html-keyboard-response","236","710129","0.0-12.0-0.12","zdpryje57p","one_one","1","direct_first","1","nn06rt24","0","21","1","1","3","2","","0","1","0","null","","","<div style=""font-size:60px;"">+</div>","null","","","","","","","","","",""
"","html-keyboard-response","237","710221","0.0-12.0-1.12","zdpryje57p","one_one","1","direct_first","1","nn06rt24","0","21","1","1","3","2","","0","1","0","null","","","<img src = 'category2/GS1.png' width = '100%;'>","null","","","","","","","","","",""
"","html-keyboard-response","238","710489","0.0-12.0-2.12","zdpryje57p","one_one","1","direct_first","1","nn06rt24","0","21","1","1","3","2","","0","1","0","null","","","<img src = 'targets/15.png' width = '100%;'>","null","","","","","","","","","",""
"","html-keyboard-response","239","711020","0.0-12.0-3.12","zdpryje57p","one_one","1","direct_first","1","nn06rt24","0","21","1","1","3","2","","0","1","0","530.1200000103563","","","<img src = 'targets/mask.png' width = '100%;'>","68","pos","GS","GSnew","2","category2/GS1.png","","targets/15.png","indirect","0","28"
"","html-keyboard-response","240","712532","0.0-12.0-0.13","zdpryje57p","one_one","1","direct_first","1","nn06rt24","0","21","1","1","3","2","","0","1","0","null","","","<div style=""font-size:60px;"">+</div>","null","","","","","","","","","",""
"","html-keyboard-response","241","712625","0.0-12.0-1.13","zdpryje57p","one_one","1","direct_first","1","nn06rt24","0","21","1","1","3","2","","0","1","0","null","","","<img src = 'category4/GS2.png' width = '100%;'>","null","","","","","","","","","",""
"","html-keyboard-response","242","712888","0.0-12.0-2.13","zdpryje57p","one_one","1","direct_first","1","nn06rt24","0","21","1","1","3","2","","0","1","0","null","","","<img src = 'targets/10.png' width = '100%;'>","null","","","","","","","","","",""
"","html-keyboard-response","243","713554","0.0-12.0-3.13","zdpryje57p","one_one","1","direct_first","1","nn06rt24","0","21","1","1","3","2","","0","1","0","663.4049999993294","","","<img src = 'targets/mask.png' width = '100%;'>","75","neg","GS","GSnew","4","category4/GS2.png","","targets/10.png","indirect","1","29"
"","html-keyboard-response","244","715072","0.0-12.0-0.14","zdpryje57p","one_one","1","direct_first","1","nn06rt24","0","21","1","1","3","2","","0","1","0","null","","","<div style=""font-size:60px;"">+</div>","null","","","","","","","","","",""
"","html-keyboard-response","245","715167","0.0-12.0-1.14","zdpryje57p","one_one","1","direct_first","1","nn06rt24","0","21","1","1","3","2","","0","1","0","null","","","<img src = 'category2/GS2.png' width = '100%;'>","null","","","","","","","","","",""
"","html-keyboard-response","246","715444","0.0-12.0-2.14","zdpryje57p","one_one","1","direct_first","1","nn06rt24","0","21","1","1","3","2","","0","1","0","null","","","<img src = 'targets/29.png' width = '100%;'>","null","","","","","","","","","",""
"","html-keyboard-response","247","716105","0.0-12.0-3.14","zdpryje57p","one_one","1","direct_first","1","nn06rt24","0","21","1","1","3","2","","0","1","0","658.5149997845292","","","<img src = 'targets/mask.png' width = '100%;'>","75","pos","GS","GSnew","2","category2/GS2.png","","targets/29.png","indirect","1","30"
"","html-keyboard-response","248","717610","0.0-12.0-0.15","zdpryje57p","one_one","1","direct_first","1","nn06rt24","0","21","1","1","3","2","","0","1","0","null","","","<div style=""font-size:60px;"">+</div>","null","","","","","","","","","",""
"","html-keyboard-response","249","717708","0.0-12.0-1.15","zdpryje57p","one_one","1","direct_first","1","nn06rt24","0","21","1","1","3","2","","0","1","0","null","","","<img src = 'category4/lin.png' width = '100%;'>","null","","","","","","","","","",""
"","html-keyboard-response","250","717971","0.0-12.0-2.15","zdpryje57p","one_one","1","direct_first","1","nn06rt24","0","21","1","1","3","2","","0","1","0","null","","","<img src = 'targets/17.png' width = '100%;'>","null","","","","","","","","","",""
"","html-keyboard-response","251","718524","0.0-12.0-3.15","zdpryje57p","one_one","1","direct_first","1","nn06rt24","0","21","1","1","3","2","","0","1","0","551.3700000010431","","","<img src = 'targets/mask.png' width = '100%;'>","75","neg","GS","abstract","4","category4/lin.png","","targets/17.png","indirect","1","31"
"","survey-html-form","252","732466","0.0-13.0","zdpryje57p","one_one","1","direct_first","1","nn06rt24","0","21","1","1","3","2","","0","1","0","13439.910000190139","","{}","","","","","","","","","","","",""
"","image-slider-response","253","743655","0.0-14.0-0.0","zdpryje57p","one_one","1","direct_first","1","nn06rt24","0","21","1","1","3","2","","0","1","0","10176.834999816492","","","","","neg","All","all","4","category4/lin_all.png","-38","","all","",""
"","image-slider-response","254","747338","0.0-14.0-0.1","zdpryje57p","one_one","1","direct_first","1","nn06rt24","0","21","1","1","3","2","","0","1","0","3682.014999911189","","","","","pos","All","all","2","category2/men_all.png","65","","all","",""
"","image-slider-response","255","752146","0.0-14.0-0.2","zdpryje57p","one_one","1","direct_first","1","nn06rt24","0","21","1","1","3","2","","0","1","0","4806.4600001089275","","","","","neg","All","all","1","category1/ma_all.png","14","","all","",""
"","image-slider-response","256","755641","0.0-14.0-0.3","zdpryje57p","one_one","1","direct_first","1","nn06rt24","0","21","1","1","3","2","","0","1","0","3493.400000035763","","","","","pos","All","all","3","category3/wang_all.png","90","","all","",""
"","survey-text","257","765586","0.0-15.0","zdpryje57p","one_one","1","direct_first","1","nn06rt24","0","21","1","1","3","2","","0","1","0","9920.62500002794","","{""comment"":""""}","","","","","","","","","","","",""
"","survey-html-form","258","778605","0.0-16.0","zdpryje57p","one_one","1","direct_first","1","nn06rt24","0","21","1","1","3","2","","0","1","0","13017.089999979362","","{""hinschauen"":""0"",""ablenkung"":""1"",""gewissenhaft"":""0""}","","","","","","","","","","","",""
