"success","trial_type","trial_index","time_elapsed","internal_node_id","subject","condition","condition_code","measure","measure_code","codeword","gender","age","education","chinese","fach","handedness","comment","hinschauen","ablenkung","gewissenhaft","rt","url","responses","stimulus","key_press","val","type","type_specific","category","cs_selected","target","indirect","task","nr_pres","response"
"true","fullscreen","0","4276","0.0-0.0","ezzhv9e7tp","many_one","0","indirect_first","0","lc04rt21","1","20","1","1","3","1","","0","1","0","","","","","","","","","","","","","","",""
"","external-html","1","54546","0.0-1.0","ezzhv9e7tp","many_one","0","indirect_first","0","lc04rt21","1","20","1","1","3","1","","0","1","0","50188","text/information.html","","","","","","","","","","","","",""
"","external-html","2","80386","0.0-2.0","ezzhv9e7tp","many_one","0","indirect_first","0","lc04rt21","1","20","1","1","3","1","","0","1","0","25674","text/consent.html","","","","","","","","","","","","",""
"","survey-html-form","3","139042","0.0-3.0","ezzhv9e7tp","many_one","0","indirect_first","0","lc04rt21","1","20","1","1","3","1","","0","1","0","58647","","{""codeword_enter"":""lc04rt21""}","","","","","","","","","","","",""
"","survey-html-form","4","162524","0.0-4.0","ezzhv9e7tp","many_one","0","indirect_first","0","lc04rt21","1","20","1","1","3","1","","0","1","0","23476","","{""age"":""20"",""education"":""1"",""subject"":""3"",""gender"":""1"",""handedness"":""1"",""chinese"":""1""}","","","","","","","","","","","",""
"","survey-html-form","5","180841","0.0-5.0","ezzhv9e7tp","many_one","0","indirect_first","0","lc04rt21","1","20","1","1","3","1","","0","1","0","18313","","{}","","","","","","","","","","","",""
"","html-keyboard-response","6","184876","0.0-6.0-0.0-0.0","ezzhv9e7tp","many_one","0","indirect_first","0","lc04rt21","1","20","1","1","3","1","","0","1","0","null","","","<div class = 'row'><div class = 'column'><img src = 'uspos/2208.bmp' width = '100%;'></div><div class = 'column'><img src = 'category4/CS8.png' width = '70%;'></div></div>","null","pos","CS","CS","4","category4/CS8.png","","","","",""
"","html-keyboard-response","7","187410","0.0-6.0-0.0-0.1","ezzhv9e7tp","many_one","0","indirect_first","0","lc04rt21","1","20","1","1","3","1","","0","1","0","null","","","<div class = 'row'><div class = 'column'><img src = 'usneg/9415.bmp' width = '100%;'></div><div class = 'column'><img src = 'category3/CS10.png' width = '70%;'></div></div>","null","neg","CS","CS","3","category3/CS10.png","","","","",""
"","html-keyboard-response","8","189944","0.0-6.0-0.0-0.2","ezzhv9e7tp","many_one","0","indirect_first","0","lc04rt21","1","20","1","1","3","1","","0","1","0","null","","","<div class = 'row'><div class = 'column'><img src = 'uspos/2311.bmp' width = '100%;'></div><div class = 'column'><img src = 'category2/CS7.png' width = '70%;'></div></div>","null","pos","CS","CS","2","category2/CS7.png","","","","",""
"","html-keyboard-response","9","192476","0.0-6.0-0.0-0.3","ezzhv9e7tp","many_one","0","indirect_first","0","lc04rt21","1","20","1","1","3","1","","0","1","0","null","","","<div class = 'row'><div class = 'column'><img src = 'usneg/9421.bmp' width = '100%;'></div><div class = 'column'><img src = 'category3/CS3.png' width = '70%;'></div></div>","null","neg","CS","CS","3","category3/CS3.png","","","","",""
"","html-keyboard-response","10","195005","0.0-6.0-0.0-0.4","ezzhv9e7tp","many_one","0","indirect_first","0","lc04rt21","1","20","1","1","3","1","","0","1","0","null","","","<div class = 'row'><div class = 'column'><img src = 'uspos/4625.bmp' width = '100%;'></div><div class = 'column'><img src = 'category4/CS4.png' width = '70%;'></div></div>","null","pos","CS","CS","4","category4/CS4.png","","","","",""
"","html-keyboard-response","11","197544","0.0-6.0-0.0-0.5","ezzhv9e7tp","many_one","0","indirect_first","0","lc04rt21","1","20","1","1","3","1","","0","1","0","null","","","<div class = 'row'><div class = 'column'><img src = 'uspos/2340.bmp' width = '100%;'></div><div class = 'column'><img src = 'category2/CS5.png' width = '70%;'></div></div>","null","pos","CS","CS","2","category2/CS5.png","","","","",""
"","html-keyboard-response","12","200074","0.0-6.0-0.0-0.6","ezzhv9e7tp","many_one","0","indirect_first","0","lc04rt21","1","20","1","1","3","1","","0","1","0","null","","","<div class = 'row'><div class = 'column'><img src = 'category2/CS2.png' width = '70%;'></div><div class = 'column'><img src = 'uspos/2550.bmp' width = '100%;'></div></div>","null","pos","CS","CS","2","category2/CS2.png","","","","",""
"","html-keyboard-response","13","202610","0.0-6.0-0.0-0.7","ezzhv9e7tp","many_one","0","indirect_first","0","lc04rt21","1","20","1","1","3","1","","0","1","0","null","","","<div class = 'row'><div class = 'column'><img src = 'category1/CS1.png' width = '70%;'></div><div class = 'column'><img src = 'usneg/9920.bmp' width = '100%;'></div></div>","null","neg","CS","CS","1","category1/CS1.png","","","","",""
"","html-keyboard-response","14","205144","0.0-6.0-0.0-0.8","ezzhv9e7tp","many_one","0","indirect_first","0","lc04rt21","1","20","1","1","3","1","","0","1","0","null","","","<div class = 'row'><div class = 'column'><img src = 'category3/CS4.png' width = '70%;'></div><div class = 'column'><img src = 'usneg/9635.2.bmp' width = '100%;'></div></div>","null","neg","CS","CS","3","category3/CS4.png","","","","",""
"","html-keyboard-response","15","207684","0.0-6.0-0.0-0.9","ezzhv9e7tp","many_one","0","indirect_first","0","lc04rt21","1","20","1","1","3","1","","0","1","0","null","","","<div class = 'row'><div class = 'column'><img src = 'usneg/3181.bmp' width = '100%;'></div><div class = 'column'><img src = 'category1/CS5.png' width = '70%;'></div></div>","null","neg","CS","CS","1","category1/CS5.png","","","","",""
"","html-keyboard-response","16","210210","0.0-6.0-0.0-0.10","ezzhv9e7tp","many_one","0","indirect_first","0","lc04rt21","1","20","1","1","3","1","","0","1","0","null","","","<div class = 'row'><div class = 'column'><img src = 'usneg/8485.bmp' width = '100%;'></div><div class = 'column'><img src = 'category3/CS2.png' width = '70%;'></div></div>","null","neg","CS","CS","3","category3/CS2.png","","","","",""
"","html-keyboard-response","17","212755","0.0-6.0-0.0-0.11","ezzhv9e7tp","many_one","0","indirect_first","0","lc04rt21","1","20","1","1","3","1","","0","1","0","null","","","<div class = 'row'><div class = 'column'><img src = 'uspos/2165.bmp' width = '100%;'></div><div class = 'column'><img src = 'category4/CS6.png' width = '70%;'></div></div>","null","pos","CS","CS","4","category4/CS6.png","","","","",""
"","html-keyboard-response","18","215294","0.0-6.0-0.0-0.12","ezzhv9e7tp","many_one","0","indirect_first","0","lc04rt21","1","20","1","1","3","1","","0","1","0","null","","","<div class = 'row'><div class = 'column'><img src = 'category3/CS7.png' width = '70%;'></div><div class = 'column'><img src = 'usneg/9342.bmp' width = '100%;'></div></div>","null","neg","CS","CS","3","category3/CS7.png","","","","",""
"","html-keyboard-response","19","217834","0.0-6.0-0.0-0.13","ezzhv9e7tp","many_one","0","indirect_first","0","lc04rt21","1","20","1","1","3","1","","0","1","0","null","","","<div class = 'row'><div class = 'column'><img src = 'category4/CS3.png' width = '70%;'></div><div class = 'column'><img src = 'uspos/5830.bmp' width = '100%;'></div></div>","null","pos","CS","CS","4","category4/CS3.png","","","","",""
"","html-keyboard-response","20","220364","0.0-6.0-0.0-0.14","ezzhv9e7tp","many_one","0","indirect_first","0","lc04rt21","1","20","1","1","3","1","","0","1","0","null","","","<div class = 'row'><div class = 'column'><img src = 'usneg/6838.bmp' width = '100%;'></div><div class = 'column'><img src = 'category1/CS4.png' width = '70%;'></div></div>","null","neg","CS","CS","1","category1/CS4.png","","","","",""
"","html-keyboard-response","21","222904","0.0-6.0-0.0-0.15","ezzhv9e7tp","many_one","0","indirect_first","0","lc04rt21","1","20","1","1","3","1","","0","1","0","null","","","<div class = 'row'><div class = 'column'><img src = 'category1/CS10.png' width = '70%;'></div><div class = 'column'><img src = 'usneg/1280.bmp' width = '100%;'></div></div>","null","neg","CS","CS","1","category1/CS10.png","","","","",""
"","html-keyboard-response","22","225444","0.0-6.0-0.0-0.16","ezzhv9e7tp","many_one","0","indirect_first","0","lc04rt21","1","20","1","1","3","1","","0","1","0","null","","","<div class = 'row'><div class = 'column'><img src = 'uspos/2360.bmp' width = '100%;'></div><div class = 'column'><img src = 'category2/CS1.png' width = '70%;'></div></div>","null","pos","CS","CS","2","category2/CS1.png","","","","",""
"","html-keyboard-response","23","227985","0.0-6.0-0.0-0.17","ezzhv9e7tp","many_one","0","indirect_first","0","lc04rt21","1","20","1","1","3","1","","0","1","0","null","","","<div class = 'row'><div class = 'column'><img src = 'category2/CS10.png' width = '70%;'></div><div class = 'column'><img src = 'uspos/2900.2.bmp' width = '100%;'></div></div>","null","pos","CS","CS","2","category2/CS10.png","","","","",""
"","html-keyboard-response","24","230514","0.0-6.0-0.0-0.18","ezzhv9e7tp","many_one","0","indirect_first","0","lc04rt21","1","20","1","1","3","1","","0","1","0","null","","","<div class = 'row'><div class = 'column'><img src = 'category4/CS10.png' width = '70%;'></div><div class = 'column'><img src = 'uspos/5629.bmp' width = '100%;'></div></div>","null","pos","CS","CS","4","category4/CS10.png","","","","",""
"","html-keyboard-response","25","233055","0.0-6.0-0.0-0.19","ezzhv9e7tp","many_one","0","indirect_first","0","lc04rt21","1","20","1","1","3","1","","0","1","0","null","","","<div class = 'row'><div class = 'column'><img src = 'category1/CS8.png' width = '70%;'></div><div class = 'column'><img src = 'usneg/3300.bmp' width = '100%;'></div></div>","null","neg","CS","CS","1","category1/CS8.png","","","","",""
"","survey-html-form","26","244889","0.0-6.0-1.0","ezzhv9e7tp","many_one","0","indirect_first","0","lc04rt21","1","20","1","1","3","1","","0","1","0","11314","","{}","","","","","","","","","","","",""
"","html-keyboard-response","27","248910","0.0-6.0-2.0-0.0","ezzhv9e7tp","many_one","0","indirect_first","0","lc04rt21","1","20","1","1","3","1","","0","1","0","null","","","<div class = 'row'><div class = 'column'><img src = 'usneg/9920.bmp' width = '100%;'></div><div class = 'column'><img src = 'category1/CS1.png' width = '70%;'></div></div>","null","neg","CS","CS","1","category1/CS1.png","","","","",""
"","html-keyboard-response","28","251444","0.0-6.0-2.0-0.1","ezzhv9e7tp","many_one","0","indirect_first","0","lc04rt21","1","20","1","1","3","1","","0","1","0","null","","","<div class = 'row'><div class = 'column'><img src = 'uspos/2550.bmp' width = '100%;'></div><div class = 'column'><img src = 'category2/CS2.png' width = '70%;'></div></div>","null","pos","CS","CS","2","category2/CS2.png","","","","",""
"","html-keyboard-response","29","253984","0.0-6.0-2.0-0.2","ezzhv9e7tp","many_one","0","indirect_first","0","lc04rt21","1","20","1","1","3","1","","0","1","0","null","","","<div class = 'row'><div class = 'column'><img src = 'category4/CS10.png' width = '70%;'></div><div class = 'column'><img src = 'uspos/5629.bmp' width = '100%;'></div></div>","null","pos","CS","CS","4","category4/CS10.png","","","","",""
"","html-keyboard-response","30","256525","0.0-6.0-2.0-0.3","ezzhv9e7tp","many_one","0","indirect_first","0","lc04rt21","1","20","1","1","3","1","","0","1","0","null","","","<div class = 'row'><div class = 'column'><img src = 'category1/CS4.png' width = '70%;'></div><div class = 'column'><img src = 'usneg/6838.bmp' width = '100%;'></div></div>","null","neg","CS","CS","1","category1/CS4.png","","","","",""
"","html-keyboard-response","31","259065","0.0-6.0-2.0-0.4","ezzhv9e7tp","many_one","0","indirect_first","0","lc04rt21","1","20","1","1","3","1","","0","1","0","null","","","<div class = 'row'><div class = 'column'><img src = 'category2/CS7.png' width = '70%;'></div><div class = 'column'><img src = 'uspos/2311.bmp' width = '100%;'></div></div>","null","pos","CS","CS","2","category2/CS7.png","","","","",""
"","html-keyboard-response","32","261595","0.0-6.0-2.0-0.5","ezzhv9e7tp","many_one","0","indirect_first","0","lc04rt21","1","20","1","1","3","1","","0","1","0","null","","","<div class = 'row'><div class = 'column'><img src = 'category3/CS3.png' width = '70%;'></div><div class = 'column'><img src = 'usneg/9421.bmp' width = '100%;'></div></div>","null","neg","CS","CS","3","category3/CS3.png","","","","",""
"","html-keyboard-response","33","264134","0.0-6.0-2.0-0.6","ezzhv9e7tp","many_one","0","indirect_first","0","lc04rt21","1","20","1","1","3","1","","0","1","0","null","","","<div class = 'row'><div class = 'column'><img src = 'category2/CS10.png' width = '70%;'></div><div class = 'column'><img src = 'uspos/2900.2.bmp' width = '100%;'></div></div>","null","pos","CS","CS","2","category2/CS10.png","","","","",""
"","html-keyboard-response","34","266664","0.0-6.0-2.0-0.7","ezzhv9e7tp","many_one","0","indirect_first","0","lc04rt21","1","20","1","1","3","1","","0","1","0","null","","","<div class = 'row'><div class = 'column'><img src = 'uspos/5830.bmp' width = '100%;'></div><div class = 'column'><img src = 'category4/CS3.png' width = '70%;'></div></div>","null","pos","CS","CS","4","category4/CS3.png","","","","",""
"","html-keyboard-response","35","269205","0.0-6.0-2.0-0.8","ezzhv9e7tp","many_one","0","indirect_first","0","lc04rt21","1","20","1","1","3","1","","0","1","0","null","","","<div class = 'row'><div class = 'column'><img src = 'category2/CS1.png' width = '70%;'></div><div class = 'column'><img src = 'uspos/2360.bmp' width = '100%;'></div></div>","null","pos","CS","CS","2","category2/CS1.png","","","","",""
"","html-keyboard-response","36","271746","0.0-6.0-2.0-0.9","ezzhv9e7tp","many_one","0","indirect_first","0","lc04rt21","1","20","1","1","3","1","","0","1","0","null","","","<div class = 'row'><div class = 'column'><img src = 'usneg/3181.bmp' width = '100%;'></div><div class = 'column'><img src = 'category1/CS5.png' width = '70%;'></div></div>","null","neg","CS","CS","1","category1/CS5.png","","","","",""
"","html-keyboard-response","37","274275","0.0-6.0-2.0-0.10","ezzhv9e7tp","many_one","0","indirect_first","0","lc04rt21","1","20","1","1","3","1","","0","1","0","null","","","<div class = 'row'><div class = 'column'><img src = 'uspos/2208.bmp' width = '100%;'></div><div class = 'column'><img src = 'category4/CS8.png' width = '70%;'></div></div>","null","pos","CS","CS","4","category4/CS8.png","","","","",""
"","html-keyboard-response","38","276805","0.0-6.0-2.0-0.11","ezzhv9e7tp","many_one","0","indirect_first","0","lc04rt21","1","20","1","1","3","1","","0","1","0","null","","","<div class = 'row'><div class = 'column'><img src = 'usneg/9415.bmp' width = '100%;'></div><div class = 'column'><img src = 'category3/CS10.png' width = '70%;'></div></div>","null","neg","CS","CS","3","category3/CS10.png","","","","",""
"","html-keyboard-response","39","279345","0.0-6.0-2.0-0.12","ezzhv9e7tp","many_one","0","indirect_first","0","lc04rt21","1","20","1","1","3","1","","0","1","0","null","","","<div class = 'row'><div class = 'column'><img src = 'usneg/8485.bmp' width = '100%;'></div><div class = 'column'><img src = 'category3/CS2.png' width = '70%;'></div></div>","null","neg","CS","CS","3","category3/CS2.png","","","","",""
"","html-keyboard-response","40","281885","0.0-6.0-2.0-0.13","ezzhv9e7tp","many_one","0","indirect_first","0","lc04rt21","1","20","1","1","3","1","","0","1","0","null","","","<div class = 'row'><div class = 'column'><img src = 'category4/CS6.png' width = '70%;'></div><div class = 'column'><img src = 'uspos/2165.bmp' width = '100%;'></div></div>","null","pos","CS","CS","4","category4/CS6.png","","","","",""
"","html-keyboard-response","41","284424","0.0-6.0-2.0-0.14","ezzhv9e7tp","many_one","0","indirect_first","0","lc04rt21","1","20","1","1","3","1","","0","1","0","null","","","<div class = 'row'><div class = 'column'><img src = 'category1/CS8.png' width = '70%;'></div><div class = 'column'><img src = 'usneg/3300.bmp' width = '100%;'></div></div>","null","neg","CS","CS","1","category1/CS8.png","","","","",""
"","html-keyboard-response","42","286964","0.0-6.0-2.0-0.15","ezzhv9e7tp","many_one","0","indirect_first","0","lc04rt21","1","20","1","1","3","1","","0","1","0","null","","","<div class = 'row'><div class = 'column'><img src = 'uspos/4625.bmp' width = '100%;'></div><div class = 'column'><img src = 'category4/CS4.png' width = '70%;'></div></div>","null","pos","CS","CS","4","category4/CS4.png","","","","",""
"","html-keyboard-response","43","289504","0.0-6.0-2.0-0.16","ezzhv9e7tp","many_one","0","indirect_first","0","lc04rt21","1","20","1","1","3","1","","0","1","0","null","","","<div class = 'row'><div class = 'column'><img src = 'uspos/2340.bmp' width = '100%;'></div><div class = 'column'><img src = 'category2/CS5.png' width = '70%;'></div></div>","null","pos","CS","CS","2","category2/CS5.png","","","","",""
"","html-keyboard-response","44","292044","0.0-6.0-2.0-0.17","ezzhv9e7tp","many_one","0","indirect_first","0","lc04rt21","1","20","1","1","3","1","","0","1","0","null","","","<div class = 'row'><div class = 'column'><img src = 'category1/CS10.png' width = '70%;'></div><div class = 'column'><img src = 'usneg/1280.bmp' width = '100%;'></div></div>","null","neg","CS","CS","1","category1/CS10.png","","","","",""
"","html-keyboard-response","45","294585","0.0-6.0-2.0-0.18","ezzhv9e7tp","many_one","0","indirect_first","0","lc04rt21","1","20","1","1","3","1","","0","1","0","null","","","<div class = 'row'><div class = 'column'><img src = 'usneg/9635.2.bmp' width = '100%;'></div><div class = 'column'><img src = 'category3/CS4.png' width = '70%;'></div></div>","null","neg","CS","CS","3","category3/CS4.png","","","","",""
"","html-keyboard-response","46","297112","0.0-6.0-2.0-0.19","ezzhv9e7tp","many_one","0","indirect_first","0","lc04rt21","1","20","1","1","3","1","","0","1","0","null","","","<div class = 'row'><div class = 'column'><img src = 'usneg/9342.bmp' width = '100%;'></div><div class = 'column'><img src = 'category3/CS7.png' width = '70%;'></div></div>","null","neg","CS","CS","3","category3/CS7.png","","","","",""
"","survey-html-form","47","309546","0.0-6.0-3.0","ezzhv9e7tp","many_one","0","indirect_first","0","lc04rt21","1","20","1","1","3","1","","0","1","0","11910","","{}","","","","","","","","","","","",""
"","html-keyboard-response","48","313574","0.0-6.0-4.0-0.0","ezzhv9e7tp","many_one","0","indirect_first","0","lc04rt21","1","20","1","1","3","1","","0","1","0","null","","","<div class = 'row'><div class = 'column'><img src = 'category3/CS3.png' width = '70%;'></div><div class = 'column'><img src = 'usneg/9421.bmp' width = '100%;'></div></div>","null","neg","CS","CS","3","category3/CS3.png","","","","",""
"","html-keyboard-response","49","316114","0.0-6.0-4.0-0.1","ezzhv9e7tp","many_one","0","indirect_first","0","lc04rt21","1","20","1","1","3","1","","0","1","0","null","","","<div class = 'row'><div class = 'column'><img src = 'category4/CS4.png' width = '70%;'></div><div class = 'column'><img src = 'uspos/4625.bmp' width = '100%;'></div></div>","null","pos","CS","CS","4","category4/CS4.png","","","","",""
"","html-keyboard-response","50","318655","0.0-6.0-4.0-0.2","ezzhv9e7tp","many_one","0","indirect_first","0","lc04rt21","1","20","1","1","3","1","","0","1","0","null","","","<div class = 'row'><div class = 'column'><img src = 'uspos/5629.bmp' width = '100%;'></div><div class = 'column'><img src = 'category4/CS10.png' width = '70%;'></div></div>","null","pos","CS","CS","4","category4/CS10.png","","","","",""
"","html-keyboard-response","51","321195","0.0-6.0-4.0-0.3","ezzhv9e7tp","many_one","0","indirect_first","0","lc04rt21","1","20","1","1","3","1","","0","1","0","null","","","<div class = 'row'><div class = 'column'><img src = 'uspos/2165.bmp' width = '100%;'></div><div class = 'column'><img src = 'category4/CS6.png' width = '70%;'></div></div>","null","pos","CS","CS","4","category4/CS6.png","","","","",""
"","html-keyboard-response","52","323734","0.0-6.0-4.0-0.4","ezzhv9e7tp","many_one","0","indirect_first","0","lc04rt21","1","20","1","1","3","1","","0","1","0","null","","","<div class = 'row'><div class = 'column'><img src = 'category2/CS1.png' width = '70%;'></div><div class = 'column'><img src = 'uspos/2360.bmp' width = '100%;'></div></div>","null","pos","CS","CS","2","category2/CS1.png","","","","",""
"","html-keyboard-response","53","326275","0.0-6.0-4.0-0.5","ezzhv9e7tp","many_one","0","indirect_first","0","lc04rt21","1","20","1","1","3","1","","0","1","0","null","","","<div class = 'row'><div class = 'column'><img src = 'category3/CS10.png' width = '70%;'></div><div class = 'column'><img src = 'usneg/9415.bmp' width = '100%;'></div></div>","null","neg","CS","CS","3","category3/CS10.png","","","","",""
"","html-keyboard-response","54","328815","0.0-6.0-4.0-0.6","ezzhv9e7tp","many_one","0","indirect_first","0","lc04rt21","1","20","1","1","3","1","","0","1","0","null","","","<div class = 'row'><div class = 'column'><img src = 'category2/CS7.png' width = '70%;'></div><div class = 'column'><img src = 'uspos/2311.bmp' width = '100%;'></div></div>","null","pos","CS","CS","2","category2/CS7.png","","","","",""
"","html-keyboard-response","55","331355","0.0-6.0-4.0-0.7","ezzhv9e7tp","many_one","0","indirect_first","0","lc04rt21","1","20","1","1","3","1","","0","1","0","null","","","<div class = 'row'><div class = 'column'><img src = 'usneg/9342.bmp' width = '100%;'></div><div class = 'column'><img src = 'category3/CS7.png' width = '70%;'></div></div>","null","neg","CS","CS","3","category3/CS7.png","","","","",""
"","html-keyboard-response","56","333895","0.0-6.0-4.0-0.8","ezzhv9e7tp","many_one","0","indirect_first","0","lc04rt21","1","20","1","1","3","1","","0","1","0","null","","","<div class = 'row'><div class = 'column'><img src = 'category1/CS10.png' width = '70%;'></div><div class = 'column'><img src = 'usneg/1280.bmp' width = '100%;'></div></div>","null","neg","CS","CS","1","category1/CS10.png","","","","",""
"","html-keyboard-response","57","336435","0.0-6.0-4.0-0.9","ezzhv9e7tp","many_one","0","indirect_first","0","lc04rt21","1","20","1","1","3","1","","0","1","0","null","","","<div class = 'row'><div class = 'column'><img src = 'category2/CS5.png' width = '70%;'></div><div class = 'column'><img src = 'uspos/2340.bmp' width = '100%;'></div></div>","null","pos","CS","CS","2","category2/CS5.png","","","","",""
"","html-keyboard-response","58","338974","0.0-6.0-4.0-0.10","ezzhv9e7tp","many_one","0","indirect_first","0","lc04rt21","1","20","1","1","3","1","","0","1","0","null","","","<div class = 'row'><div class = 'column'><img src = 'category3/CS2.png' width = '70%;'></div><div class = 'column'><img src = 'usneg/8485.bmp' width = '100%;'></div></div>","null","neg","CS","CS","3","category3/CS2.png","","","","",""
"","html-keyboard-response","59","341504","0.0-6.0-4.0-0.11","ezzhv9e7tp","many_one","0","indirect_first","0","lc04rt21","1","20","1","1","3","1","","0","1","0","null","","","<div class = 'row'><div class = 'column'><img src = 'usneg/3300.bmp' width = '100%;'></div><div class = 'column'><img src = 'category1/CS8.png' width = '70%;'></div></div>","null","neg","CS","CS","1","category1/CS8.png","","","","",""
"","html-keyboard-response","60","344044","0.0-6.0-4.0-0.12","ezzhv9e7tp","many_one","0","indirect_first","0","lc04rt21","1","20","1","1","3","1","","0","1","0","null","","","<div class = 'row'><div class = 'column'><img src = 'usneg/6838.bmp' width = '100%;'></div><div class = 'column'><img src = 'category1/CS4.png' width = '70%;'></div></div>","null","neg","CS","CS","1","category1/CS4.png","","","","",""
"","html-keyboard-response","61","346584","0.0-6.0-4.0-0.13","ezzhv9e7tp","many_one","0","indirect_first","0","lc04rt21","1","20","1","1","3","1","","0","1","0","null","","","<div class = 'row'><div class = 'column'><img src = 'category4/CS3.png' width = '70%;'></div><div class = 'column'><img src = 'uspos/5830.bmp' width = '100%;'></div></div>","null","pos","CS","CS","4","category4/CS3.png","","","","",""
"","html-keyboard-response","62","349114","0.0-6.0-4.0-0.14","ezzhv9e7tp","many_one","0","indirect_first","0","lc04rt21","1","20","1","1","3","1","","0","1","0","null","","","<div class = 'row'><div class = 'column'><img src = 'category1/CS1.png' width = '70%;'></div><div class = 'column'><img src = 'usneg/9920.bmp' width = '100%;'></div></div>","null","neg","CS","CS","1","category1/CS1.png","","","","",""
"","html-keyboard-response","63","351644","0.0-6.0-4.0-0.15","ezzhv9e7tp","many_one","0","indirect_first","0","lc04rt21","1","20","1","1","3","1","","0","1","0","null","","","<div class = 'row'><div class = 'column'><img src = 'category3/CS4.png' width = '70%;'></div><div class = 'column'><img src = 'usneg/9635.2.bmp' width = '100%;'></div></div>","null","neg","CS","CS","3","category3/CS4.png","","","","",""
"","html-keyboard-response","64","354184","0.0-6.0-4.0-0.16","ezzhv9e7tp","many_one","0","indirect_first","0","lc04rt21","1","20","1","1","3","1","","0","1","0","null","","","<div class = 'row'><div class = 'column'><img src = 'uspos/2900.2.bmp' width = '100%;'></div><div class = 'column'><img src = 'category2/CS10.png' width = '70%;'></div></div>","null","pos","CS","CS","2","category2/CS10.png","","","","",""
"","html-keyboard-response","65","356724","0.0-6.0-4.0-0.17","ezzhv9e7tp","many_one","0","indirect_first","0","lc04rt21","1","20","1","1","3","1","","0","1","0","null","","","<div class = 'row'><div class = 'column'><img src = 'category4/CS8.png' width = '70%;'></div><div class = 'column'><img src = 'uspos/2208.bmp' width = '100%;'></div></div>","null","pos","CS","CS","4","category4/CS8.png","","","","",""
"","html-keyboard-response","66","359264","0.0-6.0-4.0-0.18","ezzhv9e7tp","many_one","0","indirect_first","0","lc04rt21","1","20","1","1","3","1","","0","1","0","null","","","<div class = 'row'><div class = 'column'><img src = 'usneg/3181.bmp' width = '100%;'></div><div class = 'column'><img src = 'category1/CS5.png' width = '70%;'></div></div>","null","neg","CS","CS","1","category1/CS5.png","","","","",""
"","html-keyboard-response","67","361796","0.0-6.0-4.0-0.19","ezzhv9e7tp","many_one","0","indirect_first","0","lc04rt21","1","20","1","1","3","1","","0","1","0","null","","","<div class = 'row'><div class = 'column'><img src = 'uspos/2550.bmp' width = '100%;'></div><div class = 'column'><img src = 'category2/CS2.png' width = '70%;'></div></div>","null","pos","CS","CS","2","category2/CS2.png","","","","",""
"","survey-html-form","68","368306","0.0-6.0-5.0","ezzhv9e7tp","many_one","0","indirect_first","0","lc04rt21","1","20","1","1","3","1","","0","1","0","5991","","{}","","","","","","","","","","","",""
"","html-keyboard-response","69","372335","0.0-6.0-6.0-0.0","ezzhv9e7tp","many_one","0","indirect_first","0","lc04rt21","1","20","1","1","3","1","","0","1","0","null","","","<div class = 'row'><div class = 'column'><img src = 'uspos/2208.bmp' width = '100%;'></div><div class = 'column'><img src = 'category4/CS8.png' width = '70%;'></div></div>","null","pos","CS","CS","4","category4/CS8.png","","","","",""
"","html-keyboard-response","70","374864","0.0-6.0-6.0-0.1","ezzhv9e7tp","many_one","0","indirect_first","0","lc04rt21","1","20","1","1","3","1","","0","1","0","null","","","<div class = 'row'><div class = 'column'><img src = 'usneg/9421.bmp' width = '100%;'></div><div class = 'column'><img src = 'category3/CS3.png' width = '70%;'></div></div>","null","neg","CS","CS","3","category3/CS3.png","","","","",""
"","html-keyboard-response","71","377405","0.0-6.0-6.0-0.2","ezzhv9e7tp","many_one","0","indirect_first","0","lc04rt21","1","20","1","1","3","1","","0","1","0","null","","","<div class = 'row'><div class = 'column'><img src = 'uspos/4625.bmp' width = '100%;'></div><div class = 'column'><img src = 'category4/CS4.png' width = '70%;'></div></div>","null","pos","CS","CS","4","category4/CS4.png","","","","",""
"","html-keyboard-response","72","379934","0.0-6.0-6.0-0.3","ezzhv9e7tp","many_one","0","indirect_first","0","lc04rt21","1","20","1","1","3","1","","0","1","0","null","","","<div class = 'row'><div class = 'column'><img src = 'category4/CS6.png' width = '70%;'></div><div class = 'column'><img src = 'uspos/2165.bmp' width = '100%;'></div></div>","null","pos","CS","CS","4","category4/CS6.png","","","","",""
"","html-keyboard-response","73","382473","0.0-6.0-6.0-0.4","ezzhv9e7tp","many_one","0","indirect_first","0","lc04rt21","1","20","1","1","3","1","","0","1","0","null","","","<div class = 'row'><div class = 'column'><img src = 'category2/CS7.png' width = '70%;'></div><div class = 'column'><img src = 'uspos/2311.bmp' width = '100%;'></div></div>","null","pos","CS","CS","2","category2/CS7.png","","","","",""
"","html-keyboard-response","74","385014","0.0-6.0-6.0-0.5","ezzhv9e7tp","many_one","0","indirect_first","0","lc04rt21","1","20","1","1","3","1","","0","1","0","null","","","<div class = 'row'><div class = 'column'><img src = 'category3/CS2.png' width = '70%;'></div><div class = 'column'><img src = 'usneg/8485.bmp' width = '100%;'></div></div>","null","neg","CS","CS","3","category3/CS2.png","","","","",""
"","html-keyboard-response","75","387545","0.0-6.0-6.0-0.6","ezzhv9e7tp","many_one","0","indirect_first","0","lc04rt21","1","20","1","1","3","1","","0","1","0","null","","","<div class = 'row'><div class = 'column'><img src = 'usneg/3300.bmp' width = '100%;'></div><div class = 'column'><img src = 'category1/CS8.png' width = '70%;'></div></div>","null","neg","CS","CS","1","category1/CS8.png","","","","",""
"","html-keyboard-response","76","390084","0.0-6.0-6.0-0.7","ezzhv9e7tp","many_one","0","indirect_first","0","lc04rt21","1","20","1","1","3","1","","0","1","0","null","","","<div class = 'row'><div class = 'column'><img src = 'category4/CS3.png' width = '70%;'></div><div class = 'column'><img src = 'uspos/5830.bmp' width = '100%;'></div></div>","null","pos","CS","CS","4","category4/CS3.png","","","","",""
"","html-keyboard-response","77","392614","0.0-6.0-6.0-0.8","ezzhv9e7tp","many_one","0","indirect_first","0","lc04rt21","1","20","1","1","3","1","","0","1","0","null","","","<div class = 'row'><div class = 'column'><img src = 'usneg/9920.bmp' width = '100%;'></div><div class = 'column'><img src = 'category1/CS1.png' width = '70%;'></div></div>","null","neg","CS","CS","1","category1/CS1.png","","","","",""
"","html-keyboard-response","78","395154","0.0-6.0-6.0-0.9","ezzhv9e7tp","many_one","0","indirect_first","0","lc04rt21","1","20","1","1","3","1","","0","1","0","null","","","<div class = 'row'><div class = 'column'><img src = 'uspos/2900.2.bmp' width = '100%;'></div><div class = 'column'><img src = 'category2/CS10.png' width = '70%;'></div></div>","null","pos","CS","CS","2","category2/CS10.png","","","","",""
"","html-keyboard-response","79","397695","0.0-6.0-6.0-0.10","ezzhv9e7tp","many_one","0","indirect_first","0","lc04rt21","1","20","1","1","3","1","","0","1","0","null","","","<div class = 'row'><div class = 'column'><img src = 'category1/CS5.png' width = '70%;'></div><div class = 'column'><img src = 'usneg/3181.bmp' width = '100%;'></div></div>","null","neg","CS","CS","1","category1/CS5.png","","","","",""
"","html-keyboard-response","80","400224","0.0-6.0-6.0-0.11","ezzhv9e7tp","many_one","0","indirect_first","0","lc04rt21","1","20","1","1","3","1","","0","1","0","null","","","<div class = 'row'><div class = 'column'><img src = 'category1/CS4.png' width = '70%;'></div><div class = 'column'><img src = 'usneg/6838.bmp' width = '100%;'></div></div>","null","neg","CS","CS","1","category1/CS4.png","","","","",""
"","html-keyboard-response","81","402756","0.0-6.0-6.0-0.12","ezzhv9e7tp","many_one","0","indirect_first","0","lc04rt21","1","20","1","1","3","1","","0","1","0","null","","","<div class = 'row'><div class = 'column'><img src = 'usneg/9635.2.bmp' width = '100%;'></div><div class = 'column'><img src = 'category3/CS4.png' width = '70%;'></div></div>","null","neg","CS","CS","3","category3/CS4.png","","","","",""
"","html-keyboard-response","82","405295","0.0-6.0-6.0-0.13","ezzhv9e7tp","many_one","0","indirect_first","0","lc04rt21","1","20","1","1","3","1","","0","1","0","null","","","<div class = 'row'><div class = 'column'><img src = 'usneg/9415.bmp' width = '100%;'></div><div class = 'column'><img src = 'category3/CS10.png' width = '70%;'></div></div>","null","neg","CS","CS","3","category3/CS10.png","","","","",""
"","html-keyboard-response","83","407834","0.0-6.0-6.0-0.14","ezzhv9e7tp","many_one","0","indirect_first","0","lc04rt21","1","20","1","1","3","1","","0","1","0","null","","","<div class = 'row'><div class = 'column'><img src = 'category2/CS5.png' width = '70%;'></div><div class = 'column'><img src = 'uspos/2340.bmp' width = '100%;'></div></div>","null","pos","CS","CS","2","category2/CS5.png","","","","",""
"","html-keyboard-response","84","410375","0.0-6.0-6.0-0.15","ezzhv9e7tp","many_one","0","indirect_first","0","lc04rt21","1","20","1","1","3","1","","0","1","0","null","","","<div class = 'row'><div class = 'column'><img src = 'category4/CS10.png' width = '70%;'></div><div class = 'column'><img src = 'uspos/5629.bmp' width = '100%;'></div></div>","null","pos","CS","CS","4","category4/CS10.png","","","","",""
"","html-keyboard-response","85","412914","0.0-6.0-6.0-0.16","ezzhv9e7tp","many_one","0","indirect_first","0","lc04rt21","1","20","1","1","3","1","","0","1","0","null","","","<div class = 'row'><div class = 'column'><img src = 'category3/CS7.png' width = '70%;'></div><div class = 'column'><img src = 'usneg/9342.bmp' width = '100%;'></div></div>","null","neg","CS","CS","3","category3/CS7.png","","","","",""
"","html-keyboard-response","86","415455","0.0-6.0-6.0-0.17","ezzhv9e7tp","many_one","0","indirect_first","0","lc04rt21","1","20","1","1","3","1","","0","1","0","null","","","<div class = 'row'><div class = 'column'><img src = 'usneg/1280.bmp' width = '100%;'></div><div class = 'column'><img src = 'category1/CS10.png' width = '70%;'></div></div>","null","neg","CS","CS","1","category1/CS10.png","","","","",""
"","html-keyboard-response","87","417995","0.0-6.0-6.0-0.18","ezzhv9e7tp","many_one","0","indirect_first","0","lc04rt21","1","20","1","1","3","1","","0","1","0","null","","","<div class = 'row'><div class = 'column'><img src = 'uspos/2360.bmp' width = '100%;'></div><div class = 'column'><img src = 'category2/CS1.png' width = '70%;'></div></div>","null","pos","CS","CS","2","category2/CS1.png","","","","",""
"","html-keyboard-response","88","420535","0.0-6.0-6.0-0.19","ezzhv9e7tp","many_one","0","indirect_first","0","lc04rt21","1","20","1","1","3","1","","0","1","0","null","","","<div class = 'row'><div class = 'column'><img src = 'uspos/2550.bmp' width = '100%;'></div><div class = 'column'><img src = 'category2/CS2.png' width = '70%;'></div></div>","null","pos","CS","CS","2","category2/CS2.png","","","","",""
"","html-keyboard-response","89","466475","0.0-7.0","ezzhv9e7tp","many_one","0","indirect_first","0","lc04rt21","1","20","1","1","3","1","","0","1","0","45417","","","<p>Sie sehen nun die chinesischen Zeichen nur ganz kurz. Danach sehen Sie die jeweilige Aussprache der Zeichen als Silbe auf dem Bildschrim. Ihre Aufgabe ist es, für jede Silbe anzugeben, ob diese etwas angenehmes, oder unangenehmes bedeuten könnte. Verlassen Sie sich hier vor allem auf Ihre Intuition.<br><br>Die Zeichen werden nur zur Orientierung dargestellt, beachten Sie sie deshalb nicht. Konzentrieren Sie sich vor allem auf die Silben. <br>Reagieren Sie mit folgenden zwei Tasten: <br><br><b>'D' </b> wenn die Silbe etwas <b>unangenehmes</b> bedeuten könnte. <br><b>'K'</b> wenn die Silbe etwas <b>angenehmes</b> bedeuten könnte. <br><br>Bitte legen Sie nun den Zeigefinger der linken Hand auf die Taste 'D' und den Zeigefinger der rechten Hand auf die Taste 'K'. <br>Reagieren Sie auf jede Silbe so schnell wie möglich. Uns interessiert Ihre spontane Reaktion. <br> <br> <br>Drücken Sie 'D' oder 'K', um die nächste Aufgabe zu starten. </p>","75","","","","","","","","","",""
"","html-keyboard-response","90","469514","0.0-8.0-0.0","ezzhv9e7tp","many_one","0","indirect_first","0","lc04rt21","1","20","1","1","3","1","","0","1","0","null","","","<div style=""font-size:60px;"">+</div>","null","","","","","","","","","",""
"","html-keyboard-response","91","469614","0.0-8.0-1.0","ezzhv9e7tp","many_one","0","indirect_first","0","lc04rt21","1","20","1","1","3","1","","0","1","0","null","","","<img src = 'category1/CS3.png' width = '100%;'>","null","","","","","","","","","",""
"","html-keyboard-response","92","469894","0.0-8.0-2.0","ezzhv9e7tp","many_one","0","indirect_first","0","lc04rt21","1","20","1","1","3","1","","0","1","0","null","","","<img src = 'targets/28.png' width = '100%;'>","null","","","","","","","","","",""
"","html-keyboard-response","93","472865","0.0-8.0-3.0","ezzhv9e7tp","many_one","0","indirect_first","0","lc04rt21","1","20","1","1","3","1","","0","1","0","2966","","","<img src = 'targets/mask.png' width = '100%;'>","68","neg","GS","GSold","1","category1/CS3.png","targets/28.png","0","indirect","0",""
"","html-keyboard-response","94","474395","0.0-8.0-0.1","ezzhv9e7tp","many_one","0","indirect_first","0","lc04rt21","1","20","1","1","3","1","","0","1","0","null","","","<div style=""font-size:60px;"">+</div>","null","","","","","","","","","",""
"","html-keyboard-response","95","474494","0.0-8.0-1.1","ezzhv9e7tp","many_one","0","indirect_first","0","lc04rt21","1","20","1","1","3","1","","0","1","0","null","","","<img src = 'category3/CS7.png' width = '100%;'>","null","","","","","","","","","",""
"","html-keyboard-response","96","474775","0.0-8.0-2.1","ezzhv9e7tp","many_one","0","indirect_first","0","lc04rt21","1","20","1","1","3","1","","0","1","0","null","","","<img src = 'targets/36.png' width = '100%;'>","null","","","","","","","","","",""
"","html-keyboard-response","97","476573","0.0-8.0-3.1","ezzhv9e7tp","many_one","0","indirect_first","0","lc04rt21","1","20","1","1","3","1","","0","1","0","1795","","","<img src = 'targets/mask.png' width = '100%;'>","75","neg","CS","CS","3","category3/CS7.png","targets/36.png","1","indirect","1",""
"","html-keyboard-response","98","478084","0.0-8.0-0.2","ezzhv9e7tp","many_one","0","indirect_first","0","lc04rt21","1","20","1","1","3","1","","0","1","0","null","","","<div style=""font-size:60px;"">+</div>","null","","","","","","","","","",""
"","html-keyboard-response","99","478184","0.0-8.0-1.2","ezzhv9e7tp","many_one","0","indirect_first","0","lc04rt21","1","20","1","1","3","1","","0","1","0","null","","","<img src = 'category4/CS10.png' width = '100%;'>","null","","","","","","","","","",""
"","html-keyboard-response","100","478456","0.0-8.0-2.2","ezzhv9e7tp","many_one","0","indirect_first","0","lc04rt21","1","20","1","1","3","1","","0","1","0","null","","","<img src = 'targets/16.png' width = '100%;'>","null","","","","","","","","","",""
"","html-keyboard-response","101","480069","0.0-8.0-3.2","ezzhv9e7tp","many_one","0","indirect_first","0","lc04rt21","1","20","1","1","3","1","","0","1","0","1611","","","<img src = 'targets/mask.png' width = '100%;'>","68","pos","CS","CS","4","category4/CS10.png","targets/16.png","0","indirect","2",""
"","html-keyboard-response","102","481594","0.0-8.0-0.3","ezzhv9e7tp","many_one","0","indirect_first","0","lc04rt21","1","20","1","1","3","1","","0","1","0","null","","","<div style=""font-size:60px;"">+</div>","null","","","","","","","","","",""
"","html-keyboard-response","103","481694","0.0-8.0-1.3","ezzhv9e7tp","many_one","0","indirect_first","0","lc04rt21","1","20","1","1","3","1","","0","1","0","null","","","<img src = 'category4/CS4.png' width = '100%;'>","null","","","","","","","","","",""
"","html-keyboard-response","104","481974","0.0-8.0-2.3","ezzhv9e7tp","many_one","0","indirect_first","0","lc04rt21","1","20","1","1","3","1","","0","1","0","null","","","<img src = 'targets/31.png' width = '100%;'>","null","","","","","","","","","",""
"","html-keyboard-response","105","483282","0.0-8.0-3.3","ezzhv9e7tp","many_one","0","indirect_first","0","lc04rt21","1","20","1","1","3","1","","0","1","0","1306","","","<img src = 'targets/mask.png' width = '100%;'>","75","pos","CS","CS","4","category4/CS4.png","targets/31.png","1","indirect","3",""
"","html-keyboard-response","106","484814","0.0-8.0-0.4","ezzhv9e7tp","many_one","0","indirect_first","0","lc04rt21","1","20","1","1","3","1","","0","1","0","null","","","<div style=""font-size:60px;"">+</div>","null","","","","","","","","","",""
"","html-keyboard-response","107","484914","0.0-8.0-1.4","ezzhv9e7tp","many_one","0","indirect_first","0","lc04rt21","1","20","1","1","3","1","","0","1","0","null","","","<img src = 'category2/CS1.png' width = '100%;'>","null","","","","","","","","","",""
"","html-keyboard-response","108","485194","0.0-8.0-2.4","ezzhv9e7tp","many_one","0","indirect_first","0","lc04rt21","1","20","1","1","3","1","","0","1","0","null","","","<img src = 'targets/18.png' width = '100%;'>","null","","","","","","","","","",""
"","html-keyboard-response","109","486531","0.0-8.0-3.4","ezzhv9e7tp","many_one","0","indirect_first","0","lc04rt21","1","20","1","1","3","1","","0","1","0","1335","","","<img src = 'targets/mask.png' width = '100%;'>","68","pos","CS","CS","2","category2/CS1.png","targets/18.png","0","indirect","4",""
"","html-keyboard-response","110","488054","0.0-8.0-0.5","ezzhv9e7tp","many_one","0","indirect_first","0","lc04rt21","1","20","1","1","3","1","","0","1","0","null","","","<div style=""font-size:60px;"">+</div>","null","","","","","","","","","",""
"","html-keyboard-response","111","488154","0.0-8.0-1.5","ezzhv9e7tp","many_one","0","indirect_first","0","lc04rt21","1","20","1","1","3","1","","0","1","0","null","","","<img src = 'category3/CS2.png' width = '100%;'>","null","","","","","","","","","",""
"","html-keyboard-response","112","488444","0.0-8.0-2.5","ezzhv9e7tp","many_one","0","indirect_first","0","lc04rt21","1","20","1","1","3","1","","0","1","0","null","","","<img src = 'targets/23.png' width = '100%;'>","null","","","","","","","","","",""
"","html-keyboard-response","113","490103","0.0-8.0-3.5","ezzhv9e7tp","many_one","0","indirect_first","0","lc04rt21","1","20","1","1","3","1","","0","1","0","1657","","","<img src = 'targets/mask.png' width = '100%;'>","75","neg","CS","CS","3","category3/CS2.png","targets/23.png","1","indirect","5",""
"","html-keyboard-response","114","491634","0.0-8.0-0.6","ezzhv9e7tp","many_one","0","indirect_first","0","lc04rt21","1","20","1","1","3","1","","0","1","0","null","","","<div style=""font-size:60px;"">+</div>","null","","","","","","","","","",""
"","html-keyboard-response","115","491735","0.0-8.0-1.6","ezzhv9e7tp","many_one","0","indirect_first","0","lc04rt21","1","20","1","1","3","1","","0","1","0","null","","","<img src = 'category2/CS6.png' width = '100%;'>","null","","","","","","","","","",""
"","html-keyboard-response","116","492014","0.0-8.0-2.6","ezzhv9e7tp","many_one","0","indirect_first","0","lc04rt21","1","20","1","1","3","1","","0","1","0","null","","","<img src = 'targets/46.png' width = '100%;'>","null","","","","","","","","","",""
"","html-keyboard-response","117","493187","0.0-8.0-3.6","ezzhv9e7tp","many_one","0","indirect_first","0","lc04rt21","1","20","1","1","3","1","","0","1","0","1171","","","<img src = 'targets/mask.png' width = '100%;'>","75","pos","GS","GSold","2","category2/CS6.png","targets/46.png","1","indirect","6",""
"","html-keyboard-response","118","494704","0.0-8.0-0.7","ezzhv9e7tp","many_one","0","indirect_first","0","lc04rt21","1","20","1","1","3","1","","0","1","0","null","","","<div style=""font-size:60px;"">+</div>","null","","","","","","","","","",""
"","html-keyboard-response","119","494804","0.0-8.0-1.7","ezzhv9e7tp","many_one","0","indirect_first","0","lc04rt21","1","20","1","1","3","1","","0","1","0","null","","","<img src = 'category1/CS7.png' width = '100%;'>","null","","","","","","","","","",""
"","html-keyboard-response","120","495084","0.0-8.0-2.7","ezzhv9e7tp","many_one","0","indirect_first","0","lc04rt21","1","20","1","1","3","1","","0","1","0","null","","","<img src = 'targets/3.png' width = '100%;'>","null","","","","","","","","","",""
"","html-keyboard-response","121","496870","0.0-8.0-3.7","ezzhv9e7tp","many_one","0","indirect_first","0","lc04rt21","1","20","1","1","3","1","","0","1","0","1783","","","<img src = 'targets/mask.png' width = '100%;'>","68","neg","GS","GSold","1","category1/CS7.png","targets/3.png","0","indirect","7",""
"","html-keyboard-response","122","498394","0.0-8.0-0.8","ezzhv9e7tp","many_one","0","indirect_first","0","lc04rt21","1","20","1","1","3","1","","0","1","0","null","","","<div style=""font-size:60px;"">+</div>","null","","","","","","","","","",""
"","html-keyboard-response","123","498494","0.0-8.0-1.8","ezzhv9e7tp","many_one","0","indirect_first","0","lc04rt21","1","20","1","1","3","1","","0","1","0","null","","","<img src = 'category1/CS10.png' width = '100%;'>","null","","","","","","","","","",""
"","html-keyboard-response","124","498765","0.0-8.0-2.8","ezzhv9e7tp","many_one","0","indirect_first","0","lc04rt21","1","20","1","1","3","1","","0","1","0","null","","","<img src = 'targets/37.png' width = '100%;'>","null","","","","","","","","","",""
"","html-keyboard-response","125","499907","0.0-8.0-3.8","ezzhv9e7tp","many_one","0","indirect_first","0","lc04rt21","1","20","1","1","3","1","","0","1","0","1140","","","<img src = 'targets/mask.png' width = '100%;'>","75","neg","CS","CS","1","category1/CS10.png","targets/37.png","1","indirect","8",""
"","html-keyboard-response","126","501434","0.0-8.0-0.9","ezzhv9e7tp","many_one","0","indirect_first","0","lc04rt21","1","20","1","1","3","1","","0","1","0","null","","","<div style=""font-size:60px;"">+</div>","null","","","","","","","","","",""
"","html-keyboard-response","127","501534","0.0-8.0-1.9","ezzhv9e7tp","many_one","0","indirect_first","0","lc04rt21","1","20","1","1","3","1","","0","1","0","null","","","<img src = 'category4/CS3.png' width = '100%;'>","null","","","","","","","","","",""
"","html-keyboard-response","128","501815","0.0-8.0-2.9","ezzhv9e7tp","many_one","0","indirect_first","0","lc04rt21","1","20","1","1","3","1","","0","1","0","null","","","<img src = 'targets/19.png' width = '100%;'>","null","","","","","","","","","",""
"","html-keyboard-response","129","503756","0.0-8.0-3.9","ezzhv9e7tp","many_one","0","indirect_first","0","lc04rt21","1","20","1","1","3","1","","0","1","0","1941","","","<img src = 'targets/mask.png' width = '100%;'>","68","pos","CS","CS","4","category4/CS3.png","targets/19.png","0","indirect","9",""
"","html-keyboard-response","130","505284","0.0-8.0-0.10","ezzhv9e7tp","many_one","0","indirect_first","0","lc04rt21","1","20","1","1","3","1","","0","1","0","null","","","<div style=""font-size:60px;"">+</div>","null","","","","","","","","","",""
"","html-keyboard-response","131","505385","0.0-8.0-1.10","ezzhv9e7tp","many_one","0","indirect_first","0","lc04rt21","1","20","1","1","3","1","","0","1","0","null","","","<img src = 'category1/CS8.png' width = '100%;'>","null","","","","","","","","","",""
"","html-keyboard-response","132","505664","0.0-8.0-2.10","ezzhv9e7tp","many_one","0","indirect_first","0","lc04rt21","1","20","1","1","3","1","","0","1","0","null","","","<img src = 'targets/44.png' width = '100%;'>","null","","","","","","","","","",""
"","html-keyboard-response","133","507428","0.0-8.0-3.10","ezzhv9e7tp","many_one","0","indirect_first","0","lc04rt21","1","20","1","1","3","1","","0","1","0","1762","","","<img src = 'targets/mask.png' width = '100%;'>","68","neg","CS","CS","1","category1/CS8.png","targets/44.png","0","indirect","10",""
"","html-keyboard-response","134","508965","0.0-8.0-0.11","ezzhv9e7tp","many_one","0","indirect_first","0","lc04rt21","1","20","1","1","3","1","","0","1","0","null","","","<div style=""font-size:60px;"">+</div>","null","","","","","","","","","",""
"","html-keyboard-response","135","509064","0.0-8.0-1.11","ezzhv9e7tp","many_one","0","indirect_first","0","lc04rt21","1","20","1","1","3","1","","0","1","0","null","","","<img src = 'category3/CS4.png' width = '100%;'>","null","","","","","","","","","",""
"","html-keyboard-response","136","509344","0.0-8.0-2.11","ezzhv9e7tp","many_one","0","indirect_first","0","lc04rt21","1","20","1","1","3","1","","0","1","0","null","","","<img src = 'targets/15.png' width = '100%;'>","null","","","","","","","","","",""
"","html-keyboard-response","137","510823","0.0-8.0-3.11","ezzhv9e7tp","many_one","0","indirect_first","0","lc04rt21","1","20","1","1","3","1","","0","1","0","1478","","","<img src = 'targets/mask.png' width = '100%;'>","75","neg","CS","CS","3","category3/CS4.png","targets/15.png","1","indirect","11",""
"","html-keyboard-response","138","512329","0.0-8.0-0.12","ezzhv9e7tp","many_one","0","indirect_first","0","lc04rt21","1","20","1","1","3","1","","0","1","0","null","","","<div style=""font-size:60px;"">+</div>","null","","","","","","","","","",""
"","html-keyboard-response","139","512430","0.0-8.0-1.12","ezzhv9e7tp","many_one","0","indirect_first","0","lc04rt21","1","20","1","1","3","1","","0","1","0","null","","","<img src = 'category2/CS7.png' width = '100%;'>","null","","","","","","","","","",""
"","html-keyboard-response","140","512714","0.0-8.0-2.12","ezzhv9e7tp","many_one","0","indirect_first","0","lc04rt21","1","20","1","1","3","1","","0","1","0","null","","","<img src = 'targets/13.png' width = '100%;'>","null","","","","","","","","","",""
"","html-keyboard-response","141","514813","0.0-8.0-3.12","ezzhv9e7tp","many_one","0","indirect_first","0","lc04rt21","1","20","1","1","3","1","","0","1","0","2097","","","<img src = 'targets/mask.png' width = '100%;'>","68","pos","CS","CS","2","category2/CS7.png","targets/13.png","0","indirect","12",""
"","html-keyboard-response","142","516330","0.0-8.0-0.13","ezzhv9e7tp","many_one","0","indirect_first","0","lc04rt21","1","20","1","1","3","1","","0","1","0","null","","","<div style=""font-size:60px;"">+</div>","null","","","","","","","","","",""
"","html-keyboard-response","143","516430","0.0-8.0-1.13","ezzhv9e7tp","many_one","0","indirect_first","0","lc04rt21","1","20","1","1","3","1","","0","1","0","null","","","<img src = 'category1/CS1.png' width = '100%;'>","null","","","","","","","","","",""
"","html-keyboard-response","144","516714","0.0-8.0-2.13","ezzhv9e7tp","many_one","0","indirect_first","0","lc04rt21","1","20","1","1","3","1","","0","1","0","null","","","<img src = 'targets/33.png' width = '100%;'>","null","","","","","","","","","",""
"","html-keyboard-response","145","517638","0.0-8.0-3.13","ezzhv9e7tp","many_one","0","indirect_first","0","lc04rt21","1","20","1","1","3","1","","0","1","0","923","","","<img src = 'targets/mask.png' width = '100%;'>","75","neg","CS","CS","1","category1/CS1.png","targets/33.png","1","indirect","13",""
"","html-keyboard-response","146","519164","0.0-8.0-0.14","ezzhv9e7tp","many_one","0","indirect_first","0","lc04rt21","1","20","1","1","3","1","","0","1","0","null","","","<div style=""font-size:60px;"">+</div>","null","","","","","","","","","",""
"","html-keyboard-response","147","519264","0.0-8.0-1.14","ezzhv9e7tp","many_one","0","indirect_first","0","lc04rt21","1","20","1","1","3","1","","0","1","0","null","","","<img src = 'category3/CS10.png' width = '100%;'>","null","","","","","","","","","",""
"","html-keyboard-response","148","519545","0.0-8.0-2.14","ezzhv9e7tp","many_one","0","indirect_first","0","lc04rt21","1","20","1","1","3","1","","0","1","0","null","","","<img src = 'targets/1.png' width = '100%;'>","null","","","","","","","","","",""
"","html-keyboard-response","149","521275","0.0-8.0-3.14","ezzhv9e7tp","many_one","0","indirect_first","0","lc04rt21","1","20","1","1","3","1","","0","1","0","1731","","","<img src = 'targets/mask.png' width = '100%;'>","75","neg","CS","CS","3","category3/CS10.png","targets/1.png","1","indirect","14",""
"","html-keyboard-response","150","522814","0.0-8.0-0.15","ezzhv9e7tp","many_one","0","indirect_first","0","lc04rt21","1","20","1","1","3","1","","0","1","0","null","","","<div style=""font-size:60px;"">+</div>","null","","","","","","","","","",""
"","html-keyboard-response","151","522915","0.0-8.0-1.15","ezzhv9e7tp","many_one","0","indirect_first","0","lc04rt21","1","20","1","1","3","1","","0","1","0","null","","","<img src = 'category2/CS2.png' width = '100%;'>","null","","","","","","","","","",""
"","html-keyboard-response","152","523185","0.0-8.0-2.15","ezzhv9e7tp","many_one","0","indirect_first","0","lc04rt21","1","20","1","1","3","1","","0","1","0","null","","","<img src = 'targets/2.png' width = '100%;'>","null","","","","","","","","","",""
"","html-keyboard-response","153","524136","0.0-8.0-3.15","ezzhv9e7tp","many_one","0","indirect_first","0","lc04rt21","1","20","1","1","3","1","","0","1","0","951","","","<img src = 'targets/mask.png' width = '100%;'>","75","pos","CS","CS","2","category2/CS2.png","targets/2.png","1","indirect","15",""
"","html-keyboard-response","154","525664","0.0-8.0-0.16","ezzhv9e7tp","many_one","0","indirect_first","0","lc04rt21","1","20","1","1","3","1","","0","1","0","null","","","<div style=""font-size:60px;"">+</div>","null","","","","","","","","","",""
"","html-keyboard-response","155","525765","0.0-8.0-1.16","ezzhv9e7tp","many_one","0","indirect_first","0","lc04rt21","1","20","1","1","3","1","","0","1","0","null","","","<img src = 'category4/CS8.png' width = '100%;'>","null","","","","","","","","","",""
"","html-keyboard-response","156","526044","0.0-8.0-2.16","ezzhv9e7tp","many_one","0","indirect_first","0","lc04rt21","1","20","1","1","3","1","","0","1","0","null","","","<img src = 'targets/30.png' width = '100%;'>","null","","","","","","","","","",""
"","html-keyboard-response","157","527067","0.0-8.0-3.16","ezzhv9e7tp","many_one","0","indirect_first","0","lc04rt21","1","20","1","1","3","1","","0","1","0","1020","","","<img src = 'targets/mask.png' width = '100%;'>","75","pos","CS","CS","4","category4/CS8.png","targets/30.png","1","indirect","16",""
"","html-keyboard-response","158","528604","0.0-8.0-0.17","ezzhv9e7tp","many_one","0","indirect_first","0","lc04rt21","1","20","1","1","3","1","","0","1","0","null","","","<div style=""font-size:60px;"">+</div>","null","","","","","","","","","",""
"","html-keyboard-response","159","528705","0.0-8.0-1.17","ezzhv9e7tp","many_one","0","indirect_first","0","lc04rt21","1","20","1","1","3","1","","0","1","0","null","","","<img src = 'category1/CS6.png' width = '100%;'>","null","","","","","","","","","",""
"","html-keyboard-response","160","528985","0.0-8.0-2.17","ezzhv9e7tp","many_one","0","indirect_first","0","lc04rt21","1","20","1","1","3","1","","0","1","0","null","","","<img src = 'targets/29.png' width = '100%;'>","null","","","","","","","","","",""
"","html-keyboard-response","161","530280","0.0-8.0-3.17","ezzhv9e7tp","many_one","0","indirect_first","0","lc04rt21","1","20","1","1","3","1","","0","1","0","1294","","","<img src = 'targets/mask.png' width = '100%;'>","75","neg","GS","GSold","1","category1/CS6.png","targets/29.png","1","indirect","17",""
"","html-keyboard-response","162","531804","0.0-8.0-0.18","ezzhv9e7tp","many_one","0","indirect_first","0","lc04rt21","1","20","1","1","3","1","","0","1","0","null","","","<div style=""font-size:60px;"">+</div>","null","","","","","","","","","",""
"","html-keyboard-response","163","531904","0.0-8.0-1.18","ezzhv9e7tp","many_one","0","indirect_first","0","lc04rt21","1","20","1","1","3","1","","0","1","0","null","","","<img src = 'category1/CS5.png' width = '100%;'>","null","","","","","","","","","",""
"","html-keyboard-response","164","532185","0.0-8.0-2.18","ezzhv9e7tp","many_one","0","indirect_first","0","lc04rt21","1","20","1","1","3","1","","0","1","0","null","","","<img src = 'targets/5.png' width = '100%;'>","null","","","","","","","","","",""
"","html-keyboard-response","165","533493","0.0-8.0-3.18","ezzhv9e7tp","many_one","0","indirect_first","0","lc04rt21","1","20","1","1","3","1","","0","1","0","1307","","","<img src = 'targets/mask.png' width = '100%;'>","75","neg","CS","CS","1","category1/CS5.png","targets/5.png","1","indirect","18",""
"","html-keyboard-response","166","535025","0.0-8.0-0.19","ezzhv9e7tp","many_one","0","indirect_first","0","lc04rt21","1","20","1","1","3","1","","0","1","0","null","","","<div style=""font-size:60px;"">+</div>","null","","","","","","","","","",""
"","html-keyboard-response","167","535125","0.0-8.0-1.19","ezzhv9e7tp","many_one","0","indirect_first","0","lc04rt21","1","20","1","1","3","1","","0","1","0","null","","","<img src = 'category1/CS4.png' width = '100%;'>","null","","","","","","","","","",""
"","html-keyboard-response","168","535405","0.0-8.0-2.19","ezzhv9e7tp","many_one","0","indirect_first","0","lc04rt21","1","20","1","1","3","1","","0","1","0","null","","","<img src = 'targets/12.png' width = '100%;'>","null","","","","","","","","","",""
"","html-keyboard-response","169","536812","0.0-8.0-3.19","ezzhv9e7tp","many_one","0","indirect_first","0","lc04rt21","1","20","1","1","3","1","","0","1","0","1406","","","<img src = 'targets/mask.png' width = '100%;'>","75","neg","CS","CS","1","category1/CS4.png","targets/12.png","1","indirect","19",""
"","html-keyboard-response","170","538344","0.0-8.0-0.20","ezzhv9e7tp","many_one","0","indirect_first","0","lc04rt21","1","20","1","1","3","1","","0","1","0","null","","","<div style=""font-size:60px;"">+</div>","null","","","","","","","","","",""
"","html-keyboard-response","171","538444","0.0-8.0-1.20","ezzhv9e7tp","many_one","0","indirect_first","0","lc04rt21","1","20","1","1","3","1","","0","1","0","null","","","<img src = 'category2/CS10.png' width = '100%;'>","null","","","","","","","","","",""
"","html-keyboard-response","172","538724","0.0-8.0-2.20","ezzhv9e7tp","many_one","0","indirect_first","0","lc04rt21","1","20","1","1","3","1","","0","1","0","null","","","<img src = 'targets/27.png' width = '100%;'>","null","","","","","","","","","",""
"","html-keyboard-response","173","540803","0.0-8.0-3.20","ezzhv9e7tp","many_one","0","indirect_first","0","lc04rt21","1","20","1","1","3","1","","0","1","0","2076","","","<img src = 'targets/mask.png' width = '100%;'>","75","pos","CS","CS","2","category2/CS10.png","targets/27.png","1","indirect","20",""
"","html-keyboard-response","174","542330","0.0-8.0-0.21","ezzhv9e7tp","many_one","0","indirect_first","0","lc04rt21","1","20","1","1","3","1","","0","1","0","null","","","<div style=""font-size:60px;"">+</div>","null","","","","","","","","","",""
"","html-keyboard-response","175","542430","0.0-8.0-1.21","ezzhv9e7tp","many_one","0","indirect_first","0","lc04rt21","1","20","1","1","3","1","","0","1","0","null","","","<img src = 'category4/CS6.png' width = '100%;'>","null","","","","","","","","","",""
"","html-keyboard-response","176","542714","0.0-8.0-2.21","ezzhv9e7tp","many_one","0","indirect_first","0","lc04rt21","1","20","1","1","3","1","","0","1","0","null","","","<img src = 'targets/11.png' width = '100%;'>","null","","","","","","","","","",""
"","html-keyboard-response","177","543628","0.0-8.0-3.21","ezzhv9e7tp","many_one","0","indirect_first","0","lc04rt21","1","20","1","1","3","1","","0","1","0","911","","","<img src = 'targets/mask.png' width = '100%;'>","75","pos","CS","CS","4","category4/CS6.png","targets/11.png","1","indirect","21",""
"","html-keyboard-response","178","545154","0.0-8.0-0.22","ezzhv9e7tp","many_one","0","indirect_first","0","lc04rt21","1","20","1","1","3","1","","0","1","0","null","","","<div style=""font-size:60px;"">+</div>","null","","","","","","","","","",""
"","html-keyboard-response","179","545254","0.0-8.0-1.22","ezzhv9e7tp","many_one","0","indirect_first","0","lc04rt21","1","20","1","1","3","1","","0","1","0","null","","","<img src = 'category2/CS5.png' width = '100%;'>","null","","","","","","","","","",""
"","html-keyboard-response","180","545530","0.0-8.0-2.22","ezzhv9e7tp","many_one","0","indirect_first","0","lc04rt21","1","20","1","1","3","1","","0","1","0","null","","","<img src = 'targets/24.png' width = '100%;'>","null","","","","","","","","","",""
"","html-keyboard-response","181","546594","0.0-8.0-3.22","ezzhv9e7tp","many_one","0","indirect_first","0","lc04rt21","1","20","1","1","3","1","","0","1","0","1064","","","<img src = 'targets/mask.png' width = '100%;'>","68","pos","CS","CS","2","category2/CS5.png","targets/24.png","0","indirect","22",""
"","html-keyboard-response","182","548129","0.0-8.0-0.23","ezzhv9e7tp","many_one","0","indirect_first","0","lc04rt21","1","20","1","1","3","1","","0","1","0","null","","","<div style=""font-size:60px;"">+</div>","null","","","","","","","","","",""
"","html-keyboard-response","183","548230","0.0-8.0-1.23","ezzhv9e7tp","many_one","0","indirect_first","0","lc04rt21","1","20","1","1","3","1","","0","1","0","null","","","<img src = 'category3/CS3.png' width = '100%;'>","null","","","","","","","","","",""
"","html-keyboard-response","184","548514","0.0-8.0-2.23","ezzhv9e7tp","many_one","0","indirect_first","0","lc04rt21","1","20","1","1","3","1","","0","1","0","null","","","<img src = 'targets/6.png' width = '100%;'>","null","","","","","","","","","",""
"","html-keyboard-response","185","549667","0.0-8.0-3.23","ezzhv9e7tp","many_one","0","indirect_first","0","lc04rt21","1","20","1","1","3","1","","0","1","0","1151","","","<img src = 'targets/mask.png' width = '100%;'>","75","neg","CS","CS","3","category3/CS3.png","targets/6.png","1","indirect","23",""
"","survey-html-form","186","574026","0.0-9.0","ezzhv9e7tp","many_one","0","indirect_first","0","lc04rt21","1","20","1","1","3","1","","0","1","0","23850","","{}","","","","","","","","","","","",""
"","html-keyboard-response","187","577044","0.0-10.0-0.0","ezzhv9e7tp","many_one","0","indirect_first","0","lc04rt21","1","20","1","1","3","1","","0","1","0","null","","","<div style=""font-size:60px;"">+</div>","null","","","","","","","","","",""
"","html-keyboard-response","188","577144","0.0-10.0-1.0","ezzhv9e7tp","many_one","0","indirect_first","0","lc04rt21","1","20","1","1","3","1","","0","1","0","null","","","<img src = 'category4/GS3.png' width = '100%;'>","null","","","","","","","","","",""
"","html-keyboard-response","189","577425","0.0-10.0-2.0","ezzhv9e7tp","many_one","0","indirect_first","0","lc04rt21","1","20","1","1","3","1","","0","1","0","null","","","<img src = 'targets/40.png' width = '100%;'>","null","","","","","","","","","",""
"","html-keyboard-response","190","578486","0.0-10.0-3.0","ezzhv9e7tp","many_one","0","indirect_first","0","lc04rt21","1","20","1","1","3","1","","0","1","0","1059","","","<img src = 'targets/mask.png' width = '100%;'>","68","pos","GS","GSnew","4","category4/GS3.png","targets/40.png","0","indirect","24",""
"","html-keyboard-response","191","580024","0.0-10.0-0.1","ezzhv9e7tp","many_one","0","indirect_first","0","lc04rt21","1","20","1","1","3","1","","0","1","0","null","","","<div style=""font-size:60px;"">+</div>","null","","","","","","","","","",""
"","html-keyboard-response","192","580124","0.0-10.0-1.1","ezzhv9e7tp","many_one","0","indirect_first","0","lc04rt21","1","20","1","1","3","1","","0","1","0","null","","","<img src = 'category3/wang.png' width = '100%;'>","null","","","","","","","","","",""
"","html-keyboard-response","193","580404","0.0-10.0-2.1","ezzhv9e7tp","many_one","0","indirect_first","0","lc04rt21","1","20","1","1","3","1","","0","1","0","null","","","<img src = 'targets/21.png' width = '100%;'>","null","","","","","","","","","",""
"","html-keyboard-response","194","582158","0.0-10.0-3.1","ezzhv9e7tp","many_one","0","indirect_first","0","lc04rt21","1","20","1","1","3","1","","0","1","0","1751","","","<img src = 'targets/mask.png' width = '100%;'>","68","neg","GS","abstract","3","category3/wang.png","targets/21.png","0","indirect","25",""
"","html-keyboard-response","195","583685","0.0-10.0-0.2","ezzhv9e7tp","many_one","0","indirect_first","0","lc04rt21","1","20","1","1","3","1","","0","1","0","null","","","<div style=""font-size:60px;"">+</div>","null","","","","","","","","","",""
"","html-keyboard-response","196","583785","0.0-10.0-1.2","ezzhv9e7tp","many_one","0","indirect_first","0","lc04rt21","1","20","1","1","3","1","","0","1","0","null","","","<img src = 'category2/GS3.png' width = '100%;'>","null","","","","","","","","","",""
"","html-keyboard-response","197","584065","0.0-10.0-2.2","ezzhv9e7tp","many_one","0","indirect_first","0","lc04rt21","1","20","1","1","3","1","","0","1","0","null","","","<img src = 'targets/48.png' width = '100%;'>","null","","","","","","","","","",""
"","html-keyboard-response","198","585125","0.0-10.0-3.2","ezzhv9e7tp","many_one","0","indirect_first","0","lc04rt21","1","20","1","1","3","1","","0","1","0","1059","","","<img src = 'targets/mask.png' width = '100%;'>","75","pos","GS","GSnew","2","category2/GS3.png","targets/48.png","1","indirect","26",""
"","html-keyboard-response","199","586664","0.0-10.0-0.3","ezzhv9e7tp","many_one","0","indirect_first","0","lc04rt21","1","20","1","1","3","1","","0","1","0","null","","","<div style=""font-size:60px;"">+</div>","null","","","","","","","","","",""
"","html-keyboard-response","200","586765","0.0-10.0-1.3","ezzhv9e7tp","many_one","0","indirect_first","0","lc04rt21","1","20","1","1","3","1","","0","1","0","null","","","<img src = 'category3/CS6.png' width = '100%;'>","null","","","","","","","","","",""
"","html-keyboard-response","201","587044","0.0-10.0-2.3","ezzhv9e7tp","many_one","0","indirect_first","0","lc04rt21","1","20","1","1","3","1","","0","1","0","null","","","<img src = 'targets/4.png' width = '100%;'>","null","","","","","","","","","",""
"","html-keyboard-response","202","587844","0.0-10.0-3.3","ezzhv9e7tp","many_one","0","indirect_first","0","lc04rt21","1","20","1","1","3","1","","0","1","0","796","","","<img src = 'targets/mask.png' width = '100%;'>","68","neg","GS","GSold","3","category3/CS6.png","targets/4.png","0","indirect","27",""
"","html-keyboard-response","203","589374","0.0-10.0-0.4","ezzhv9e7tp","many_one","0","indirect_first","0","lc04rt21","1","20","1","1","3","1","","0","1","0","null","","","<div style=""font-size:60px;"">+</div>","null","","","","","","","","","",""
"","html-keyboard-response","204","589474","0.0-10.0-1.4","ezzhv9e7tp","many_one","0","indirect_first","0","lc04rt21","1","20","1","1","3","1","","0","1","0","null","","","<img src = 'category3/GS1.png' width = '100%;'>","null","","","","","","","","","",""
"","html-keyboard-response","205","589745","0.0-10.0-2.4","ezzhv9e7tp","many_one","0","indirect_first","0","lc04rt21","1","20","1","1","3","1","","0","1","0","null","","","<img src = 'targets/17.png' width = '100%;'>","null","","","","","","","","","",""
"","html-keyboard-response","206","590846","0.0-10.0-3.4","ezzhv9e7tp","many_one","0","indirect_first","0","lc04rt21","1","20","1","1","3","1","","0","1","0","1100","","","<img src = 'targets/mask.png' width = '100%;'>","68","neg","GS","GSnew","3","category3/GS1.png","targets/17.png","0","indirect","28",""
"","html-keyboard-response","207","592385","0.0-10.0-0.5","ezzhv9e7tp","many_one","0","indirect_first","0","lc04rt21","1","20","1","1","3","1","","0","1","0","null","","","<div style=""font-size:60px;"">+</div>","null","","","","","","","","","",""
"","html-keyboard-response","208","592484","0.0-10.0-1.5","ezzhv9e7tp","many_one","0","indirect_first","0","lc04rt21","1","20","1","1","3","1","","0","1","0","null","","","<img src = 'category2/men.png' width = '100%;'>","null","","","","","","","","","",""
"","html-keyboard-response","209","592765","0.0-10.0-2.5","ezzhv9e7tp","many_one","0","indirect_first","0","lc04rt21","1","20","1","1","3","1","","0","1","0","null","","","<img src = 'targets/47.png' width = '100%;'>","null","","","","","","","","","",""
"","html-keyboard-response","210","593459","0.0-10.0-3.5","ezzhv9e7tp","many_one","0","indirect_first","0","lc04rt21","1","20","1","1","3","1","","0","1","0","692","","","<img src = 'targets/mask.png' width = '100%;'>","75","pos","GS","abstract","2","category2/men.png","targets/47.png","1","indirect","29",""
"","html-keyboard-response","211","594984","0.0-10.0-0.6","ezzhv9e7tp","many_one","0","indirect_first","0","lc04rt21","1","20","1","1","3","1","","0","1","0","null","","","<div style=""font-size:60px;"">+</div>","null","","","","","","","","","",""
"","html-keyboard-response","212","595084","0.0-10.0-1.6","ezzhv9e7tp","many_one","0","indirect_first","0","lc04rt21","1","20","1","1","3","1","","0","1","0","null","","","<img src = 'category4/GS2.png' width = '100%;'>","null","","","","","","","","","",""
"","html-keyboard-response","213","595364","0.0-10.0-2.6","ezzhv9e7tp","many_one","0","indirect_first","0","lc04rt21","1","20","1","1","3","1","","0","1","0","null","","","<img src = 'targets/43.png' width = '100%;'>","null","","","","","","","","","",""
"","html-keyboard-response","214","596249","0.0-10.0-3.6","ezzhv9e7tp","many_one","0","indirect_first","0","lc04rt21","1","20","1","1","3","1","","0","1","0","883","","","<img src = 'targets/mask.png' width = '100%;'>","68","pos","GS","GSnew","4","category4/GS2.png","targets/43.png","0","indirect","30",""
"","html-keyboard-response","215","597784","0.0-10.0-0.7","ezzhv9e7tp","many_one","0","indirect_first","0","lc04rt21","1","20","1","1","3","1","","0","1","0","null","","","<div style=""font-size:60px;"">+</div>","null","","","","","","","","","",""
"","html-keyboard-response","216","597885","0.0-10.0-1.7","ezzhv9e7tp","many_one","0","indirect_first","0","lc04rt21","1","20","1","1","3","1","","0","1","0","null","","","<img src = 'category3/CS8.png' width = '100%;'>","null","","","","","","","","","",""
"","html-keyboard-response","217","598165","0.0-10.0-2.7","ezzhv9e7tp","many_one","0","indirect_first","0","lc04rt21","1","20","1","1","3","1","","0","1","0","null","","","<img src = 'targets/25.png' width = '100%;'>","null","","","","","","","","","",""
"","html-keyboard-response","218","598897","0.0-10.0-3.7","ezzhv9e7tp","many_one","0","indirect_first","0","lc04rt21","1","20","1","1","3","1","","0","1","0","730","","","<img src = 'targets/mask.png' width = '100%;'>","75","neg","GS","GSold","3","category3/CS8.png","targets/25.png","1","indirect","31",""
"","html-keyboard-response","219","600424","0.0-10.0-0.8","ezzhv9e7tp","many_one","0","indirect_first","0","lc04rt21","1","20","1","1","3","1","","0","1","0","null","","","<div style=""font-size:60px;"">+</div>","null","","","","","","","","","",""
"","html-keyboard-response","220","600525","0.0-10.0-1.8","ezzhv9e7tp","many_one","0","indirect_first","0","lc04rt21","1","20","1","1","3","1","","0","1","0","null","","","<img src = 'category1/GS3.png' width = '100%;'>","null","","","","","","","","","",""
"","html-keyboard-response","221","600804","0.0-10.0-2.8","ezzhv9e7tp","many_one","0","indirect_first","0","lc04rt21","1","20","1","1","3","1","","0","1","0","null","","","<img src = 'targets/26.png' width = '100%;'>","null","","","","","","","","","",""
"","html-keyboard-response","222","601757","0.0-10.0-3.8","ezzhv9e7tp","many_one","0","indirect_first","0","lc04rt21","1","20","1","1","3","1","","0","1","0","951","","","<img src = 'targets/mask.png' width = '100%;'>","68","neg","GS","GSnew","1","category1/GS3.png","targets/26.png","0","indirect","32",""
"","html-keyboard-response","223","603284","0.0-10.0-0.9","ezzhv9e7tp","many_one","0","indirect_first","0","lc04rt21","1","20","1","1","3","1","","0","1","0","null","","","<div style=""font-size:60px;"">+</div>","null","","","","","","","","","",""
"","html-keyboard-response","224","603384","0.0-10.0-1.9","ezzhv9e7tp","many_one","0","indirect_first","0","lc04rt21","1","20","1","1","3","1","","0","1","0","null","","","<img src = 'category4/CS5.png' width = '100%;'>","null","","","","","","","","","",""
"","html-keyboard-response","225","603666","0.0-10.0-2.9","ezzhv9e7tp","many_one","0","indirect_first","0","lc04rt21","1","20","1","1","3","1","","0","1","0","null","","","<img src = 'targets/20.png' width = '100%;'>","null","","","","","","","","","",""
"","html-keyboard-response","226","604547","0.0-10.0-3.9","ezzhv9e7tp","many_one","0","indirect_first","0","lc04rt21","1","20","1","1","3","1","","0","1","0","881","","","<img src = 'targets/mask.png' width = '100%;'>","75","pos","GS","GSold","4","category4/CS5.png","targets/20.png","1","indirect","33",""
"","html-keyboard-response","227","606075","0.0-10.0-0.10","ezzhv9e7tp","many_one","0","indirect_first","0","lc04rt21","1","20","1","1","3","1","","0","1","0","null","","","<div style=""font-size:60px;"">+</div>","null","","","","","","","","","",""
"","html-keyboard-response","228","606174","0.0-10.0-1.10","ezzhv9e7tp","many_one","0","indirect_first","0","lc04rt21","1","20","1","1","3","1","","0","1","0","null","","","<img src = 'category4/GS1.png' width = '100%;'>","null","","","","","","","","","",""
"","html-keyboard-response","229","606454","0.0-10.0-2.10","ezzhv9e7tp","many_one","0","indirect_first","0","lc04rt21","1","20","1","1","3","1","","0","1","0","null","","","<img src = 'targets/39.png' width = '100%;'>","null","","","","","","","","","",""
"","html-keyboard-response","230","607454","0.0-10.0-3.10","ezzhv9e7tp","many_one","0","indirect_first","0","lc04rt21","1","20","1","1","3","1","","0","1","0","997","","","<img src = 'targets/mask.png' width = '100%;'>","75","pos","GS","GSnew","4","category4/GS1.png","targets/39.png","1","indirect","34",""
"","html-keyboard-response","231","608974","0.0-10.0-0.11","ezzhv9e7tp","many_one","0","indirect_first","0","lc04rt21","1","20","1","1","3","1","","0","1","0","null","","","<div style=""font-size:60px;"">+</div>","null","","","","","","","","","",""
"","html-keyboard-response","232","609074","0.0-10.0-1.11","ezzhv9e7tp","many_one","0","indirect_first","0","lc04rt21","1","20","1","1","3","1","","0","1","0","null","","","<img src = 'category3/GS3.png' width = '100%;'>","null","","","","","","","","","",""
"","html-keyboard-response","233","609354","0.0-10.0-2.11","ezzhv9e7tp","many_one","0","indirect_first","0","lc04rt21","1","20","1","1","3","1","","0","1","0","null","","","<img src = 'targets/14.png' width = '100%;'>","null","","","","","","","","","",""
"","html-keyboard-response","234","610031","0.0-10.0-3.11","ezzhv9e7tp","many_one","0","indirect_first","0","lc04rt21","1","20","1","1","3","1","","0","1","0","676","","","<img src = 'targets/mask.png' width = '100%;'>","75","neg","GS","GSnew","3","category3/GS3.png","targets/14.png","1","indirect","35",""
"","html-keyboard-response","235","611574","0.0-10.0-0.12","ezzhv9e7tp","many_one","0","indirect_first","0","lc04rt21","1","20","1","1","3","1","","0","1","0","null","","","<div style=""font-size:60px;"">+</div>","null","","","","","","","","","",""
"","html-keyboard-response","236","611675","0.0-10.0-1.12","ezzhv9e7tp","many_one","0","indirect_first","0","lc04rt21","1","20","1","1","3","1","","0","1","0","null","","","<img src = 'category4/CS7.png' width = '100%;'>","null","","","","","","","","","",""
"","html-keyboard-response","237","611955","0.0-10.0-2.12","ezzhv9e7tp","many_one","0","indirect_first","0","lc04rt21","1","20","1","1","3","1","","0","1","0","null","","","<img src = 'targets/10.png' width = '100%;'>","null","","","","","","","","","",""
"","html-keyboard-response","238","612609","0.0-10.0-3.12","ezzhv9e7tp","many_one","0","indirect_first","0","lc04rt21","1","20","1","1","3","1","","0","1","0","653","","","<img src = 'targets/mask.png' width = '100%;'>","75","pos","GS","GSold","4","category4/CS7.png","targets/10.png","1","indirect","36",""
"","html-keyboard-response","239","614130","0.0-10.0-0.13","ezzhv9e7tp","many_one","0","indirect_first","0","lc04rt21","1","20","1","1","3","1","","0","1","0","null","","","<div style=""font-size:60px;"">+</div>","null","","","","","","","","","",""
"","html-keyboard-response","240","614230","0.0-10.0-1.13","ezzhv9e7tp","many_one","0","indirect_first","0","lc04rt21","1","20","1","1","3","1","","0","1","0","null","","","<img src = 'category2/GS1.png' width = '100%;'>","null","","","","","","","","","",""
"","html-keyboard-response","241","614515","0.0-10.0-2.13","ezzhv9e7tp","many_one","0","indirect_first","0","lc04rt21","1","20","1","1","3","1","","0","1","0","null","","","<img src = 'targets/38.png' width = '100%;'>","null","","","","","","","","","",""
"","html-keyboard-response","242","615506","0.0-10.0-3.13","ezzhv9e7tp","many_one","0","indirect_first","0","lc04rt21","1","20","1","1","3","1","","0","1","0","988","","","<img src = 'targets/mask.png' width = '100%;'>","68","pos","GS","GSnew","2","category2/GS1.png","targets/38.png","0","indirect","37",""
"","html-keyboard-response","243","617044","0.0-10.0-0.14","ezzhv9e7tp","many_one","0","indirect_first","0","lc04rt21","1","20","1","1","3","1","","0","1","0","null","","","<div style=""font-size:60px;"">+</div>","null","","","","","","","","","",""
"","html-keyboard-response","244","617144","0.0-10.0-1.14","ezzhv9e7tp","many_one","0","indirect_first","0","lc04rt21","1","20","1","1","3","1","","0","1","0","null","","","<img src = 'category2/CS4.png' width = '100%;'>","null","","","","","","","","","",""
"","html-keyboard-response","245","617424","0.0-10.0-2.14","ezzhv9e7tp","many_one","0","indirect_first","0","lc04rt21","1","20","1","1","3","1","","0","1","0","null","","","<img src = 'targets/22.png' width = '100%;'>","null","","","","","","","","","",""
"","html-keyboard-response","246","618295","0.0-10.0-3.14","ezzhv9e7tp","many_one","0","indirect_first","0","lc04rt21","1","20","1","1","3","1","","0","1","0","869","","","<img src = 'targets/mask.png' width = '100%;'>","75","pos","GS","GSold","2","category2/CS4.png","targets/22.png","1","indirect","38",""
"","html-keyboard-response","247","619824","0.0-10.0-0.15","ezzhv9e7tp","many_one","0","indirect_first","0","lc04rt21","1","20","1","1","3","1","","0","1","0","null","","","<div style=""font-size:60px;"">+</div>","null","","","","","","","","","",""
"","html-keyboard-response","248","619924","0.0-10.0-1.15","ezzhv9e7tp","many_one","0","indirect_first","0","lc04rt21","1","20","1","1","3","1","","0","1","0","null","","","<img src = 'category2/GS2.png' width = '100%;'>","null","","","","","","","","","",""
"","html-keyboard-response","249","620205","0.0-10.0-2.15","ezzhv9e7tp","many_one","0","indirect_first","0","lc04rt21","1","20","1","1","3","1","","0","1","0","null","","","<img src = 'targets/9.png' width = '100%;'>","null","","","","","","","","","",""
"","html-keyboard-response","250","620908","0.0-10.0-3.15","ezzhv9e7tp","many_one","0","indirect_first","0","lc04rt21","1","20","1","1","3","1","","0","1","0","701","","","<img src = 'targets/mask.png' width = '100%;'>","75","pos","GS","GSnew","2","category2/GS2.png","targets/9.png","1","indirect","39",""
"","html-keyboard-response","251","622445","0.0-10.0-0.16","ezzhv9e7tp","many_one","0","indirect_first","0","lc04rt21","1","20","1","1","3","1","","0","1","0","null","","","<div style=""font-size:60px;"">+</div>","null","","","","","","","","","",""
"","html-keyboard-response","252","622545","0.0-10.0-1.16","ezzhv9e7tp","many_one","0","indirect_first","0","lc04rt21","1","20","1","1","3","1","","0","1","0","null","","","<img src = 'category3/GS2.png' width = '100%;'>","null","","","","","","","","","",""
"","html-keyboard-response","253","622824","0.0-10.0-2.16","ezzhv9e7tp","many_one","0","indirect_first","0","lc04rt21","1","20","1","1","3","1","","0","1","0","null","","","<img src = 'targets/35.png' width = '100%;'>","null","","","","","","","","","",""
"","html-keyboard-response","254","623663","0.0-10.0-3.16","ezzhv9e7tp","many_one","0","indirect_first","0","lc04rt21","1","20","1","1","3","1","","0","1","0","836","","","<img src = 'targets/mask.png' width = '100%;'>","75","neg","GS","GSnew","3","category3/GS2.png","targets/35.png","1","indirect","40",""
"","html-keyboard-response","255","625184","0.0-10.0-0.17","ezzhv9e7tp","many_one","0","indirect_first","0","lc04rt21","1","20","1","1","3","1","","0","1","0","null","","","<div style=""font-size:60px;"">+</div>","null","","","","","","","","","",""
"","html-keyboard-response","256","625284","0.0-10.0-1.17","ezzhv9e7tp","many_one","0","indirect_first","0","lc04rt21","1","20","1","1","3","1","","0","1","0","null","","","<img src = 'category4/lin.png' width = '100%;'>","null","","","","","","","","","",""
"","html-keyboard-response","257","625565","0.0-10.0-2.17","ezzhv9e7tp","many_one","0","indirect_first","0","lc04rt21","1","20","1","1","3","1","","0","1","0","null","","","<img src = 'targets/42.png' width = '100%;'>","null","","","","","","","","","",""
"","html-keyboard-response","258","626558","0.0-10.0-3.17","ezzhv9e7tp","many_one","0","indirect_first","0","lc04rt21","1","20","1","1","3","1","","0","1","0","991","","","<img src = 'targets/mask.png' width = '100%;'>","68","pos","GS","abstract","4","category4/lin.png","targets/42.png","0","indirect","41",""
"","html-keyboard-response","259","628094","0.0-10.0-0.18","ezzhv9e7tp","many_one","0","indirect_first","0","lc04rt21","1","20","1","1","3","1","","0","1","0","null","","","<div style=""font-size:60px;"">+</div>","null","","","","","","","","","",""
"","html-keyboard-response","260","628194","0.0-10.0-1.18","ezzhv9e7tp","many_one","0","indirect_first","0","lc04rt21","1","20","1","1","3","1","","0","1","0","null","","","<img src = 'category1/GS1.png' width = '100%;'>","null","","","","","","","","","",""
"","html-keyboard-response","261","628474","0.0-10.0-2.18","ezzhv9e7tp","many_one","0","indirect_first","0","lc04rt21","1","20","1","1","3","1","","0","1","0","null","","","<img src = 'targets/7.png' width = '100%;'>","null","","","","","","","","","",""
"","html-keyboard-response","262","629277","0.0-10.0-3.18","ezzhv9e7tp","many_one","0","indirect_first","0","lc04rt21","1","20","1","1","3","1","","0","1","0","800","","","<img src = 'targets/mask.png' width = '100%;'>","75","neg","GS","GSnew","1","category1/GS1.png","targets/7.png","1","indirect","42",""
"","html-keyboard-response","263","630815","0.0-10.0-0.19","ezzhv9e7tp","many_one","0","indirect_first","0","lc04rt21","1","20","1","1","3","1","","0","1","0","null","","","<div style=""font-size:60px;"">+</div>","null","","","","","","","","","",""
"","html-keyboard-response","264","630914","0.0-10.0-1.19","ezzhv9e7tp","many_one","0","indirect_first","0","lc04rt21","1","20","1","1","3","1","","0","1","0","null","","","<img src = 'category1/GS2.png' width = '100%;'>","null","","","","","","","","","",""
"","html-keyboard-response","265","631194","0.0-10.0-2.19","ezzhv9e7tp","many_one","0","indirect_first","0","lc04rt21","1","20","1","1","3","1","","0","1","0","null","","","<img src = 'targets/32.png' width = '100%;'>","null","","","","","","","","","",""
"","html-keyboard-response","266","632384","0.0-10.0-3.19","ezzhv9e7tp","many_one","0","indirect_first","0","lc04rt21","1","20","1","1","3","1","","0","1","0","1189","","","<img src = 'targets/mask.png' width = '100%;'>","68","neg","GS","GSnew","1","category1/GS2.png","targets/32.png","0","indirect","43",""
"","html-keyboard-response","267","633914","0.0-10.0-0.20","ezzhv9e7tp","many_one","0","indirect_first","0","lc04rt21","1","20","1","1","3","1","","0","1","0","null","","","<div style=""font-size:60px;"">+</div>","null","","","","","","","","","",""
"","html-keyboard-response","268","634016","0.0-10.0-1.20","ezzhv9e7tp","many_one","0","indirect_first","0","lc04rt21","1","20","1","1","3","1","","0","1","0","null","","","<img src = 'category1/ma.png' width = '100%;'>","null","","","","","","","","","",""
"","html-keyboard-response","269","634295","0.0-10.0-2.20","ezzhv9e7tp","many_one","0","indirect_first","0","lc04rt21","1","20","1","1","3","1","","0","1","0","null","","","<img src = 'targets/41.png' width = '100%;'>","null","","","","","","","","","",""
"","html-keyboard-response","270","635774","0.0-10.0-3.20","ezzhv9e7tp","many_one","0","indirect_first","0","lc04rt21","1","20","1","1","3","1","","0","1","0","1478","","","<img src = 'targets/mask.png' width = '100%;'>","68","neg","GS","abstract","1","category1/ma.png","targets/41.png","0","indirect","44",""
"","html-keyboard-response","271","637315","0.0-10.0-0.21","ezzhv9e7tp","many_one","0","indirect_first","0","lc04rt21","1","20","1","1","3","1","","0","1","0","null","","","<div style=""font-size:60px;"">+</div>","null","","","","","","","","","",""
"","html-keyboard-response","272","637415","0.0-10.0-1.21","ezzhv9e7tp","many_one","0","indirect_first","0","lc04rt21","1","20","1","1","3","1","","0","1","0","null","","","<img src = 'category3/CS1.png' width = '100%;'>","null","","","","","","","","","",""
"","html-keyboard-response","273","637694","0.0-10.0-2.21","ezzhv9e7tp","many_one","0","indirect_first","0","lc04rt21","1","20","1","1","3","1","","0","1","0","null","","","<img src = 'targets/34.png' width = '100%;'>","null","","","","","","","","","",""
"","html-keyboard-response","274","638388","0.0-10.0-3.21","ezzhv9e7tp","many_one","0","indirect_first","0","lc04rt21","1","20","1","1","3","1","","0","1","0","692","","","<img src = 'targets/mask.png' width = '100%;'>","75","neg","GS","GSold","3","category3/CS1.png","targets/34.png","1","indirect","45",""
"","html-keyboard-response","275","639914","0.0-10.0-0.22","ezzhv9e7tp","many_one","0","indirect_first","0","lc04rt21","1","20","1","1","3","1","","0","1","0","null","","","<div style=""font-size:60px;"">+</div>","null","","","","","","","","","",""
"","html-keyboard-response","276","640014","0.0-10.0-1.22","ezzhv9e7tp","many_one","0","indirect_first","0","lc04rt21","1","20","1","1","3","1","","0","1","0","null","","","<img src = 'category2/CS9.png' width = '100%;'>","null","","","","","","","","","",""
"","html-keyboard-response","277","640295","0.0-10.0-2.22","ezzhv9e7tp","many_one","0","indirect_first","0","lc04rt21","1","20","1","1","3","1","","0","1","0","null","","","<img src = 'targets/45.png' width = '100%;'>","null","","","","","","","","","",""
"","html-keyboard-response","278","640965","0.0-10.0-3.22","ezzhv9e7tp","many_one","0","indirect_first","0","lc04rt21","1","20","1","1","3","1","","0","1","0","668","","","<img src = 'targets/mask.png' width = '100%;'>","75","pos","GS","GSold","2","category2/CS9.png","targets/45.png","1","indirect","46",""
"","html-keyboard-response","279","642495","0.0-10.0-0.23","ezzhv9e7tp","many_one","0","indirect_first","0","lc04rt21","1","20","1","1","3","1","","0","1","0","null","","","<div style=""font-size:60px;"">+</div>","null","","","","","","","","","",""
"","html-keyboard-response","280","642594","0.0-10.0-1.23","ezzhv9e7tp","many_one","0","indirect_first","0","lc04rt21","1","20","1","1","3","1","","0","1","0","null","","","<img src = 'category4/CS9.png' width = '100%;'>","null","","","","","","","","","",""
"","html-keyboard-response","281","642874","0.0-10.0-2.23","ezzhv9e7tp","many_one","0","indirect_first","0","lc04rt21","1","20","1","1","3","1","","0","1","0","null","","","<img src = 'targets/8.png' width = '100%;'>","null","","","","","","","","","",""
"","html-keyboard-response","282","643547","0.0-10.0-3.23","ezzhv9e7tp","many_one","0","indirect_first","0","lc04rt21","1","20","1","1","3","1","","0","1","0","671","","","<img src = 'targets/mask.png' width = '100%;'>","75","pos","GS","GSold","4","category4/CS9.png","targets/8.png","1","indirect","47",""
"","survey-html-form","283","659578","0.0-11.0","ezzhv9e7tp","many_one","0","indirect_first","0","lc04rt21","1","20","1","1","3","1","","0","1","0","15523","","{}","","","","","","","","","","","",""
"","image-slider-response","284","676600","0.0-12.0-0.0","ezzhv9e7tp","many_one","0","indirect_first","0","lc04rt21","1","20","1","1","3","1","","0","1","0","14990","","","","","pos","CS","CS","2","category2/CS1.png","targets/18.png","","direct","","43"
"","image-slider-response","285","681666","0.0-12.0-0.1","ezzhv9e7tp","many_one","0","indirect_first","0","lc04rt21","1","20","1","1","3","1","","0","1","0","5062","","","","","neg","GS","GSnew","1","category1/GS2.png","targets/32.png","","direct","","-45"
"","image-slider-response","286","686993","0.0-12.0-0.2","ezzhv9e7tp","many_one","0","indirect_first","0","lc04rt21","1","20","1","1","3","1","","0","1","0","5324","","","","","pos","CS","CS","2","category2/CS7.png","targets/13.png","","direct","","-35"
"","image-slider-response","287","692281","0.0-12.0-0.3","ezzhv9e7tp","many_one","0","indirect_first","0","lc04rt21","1","20","1","1","3","1","","0","1","0","5284","","","","","pos","GS","GSnew","4","category4/GS2.png","targets/43.png","","direct","","-85"
"","image-slider-response","288","697041","0.0-12.0-0.4","ezzhv9e7tp","many_one","0","indirect_first","0","lc04rt21","1","20","1","1","3","1","","0","1","0","4758","","","","","pos","GS","GSold","4","category4/CS9.png","targets/8.png","","direct","","91"
"","image-slider-response","289","703641","0.0-12.0-0.5","ezzhv9e7tp","many_one","0","indirect_first","0","lc04rt21","1","20","1","1","3","1","","0","1","0","6596","","","","","pos","GS","GSnew","4","category4/GS1.png","targets/39.png","","direct","","11"
"","image-slider-response","290","707329","0.0-12.0-0.6","ezzhv9e7tp","many_one","0","indirect_first","0","lc04rt21","1","20","1","1","3","1","","0","1","0","3685","","","","","neg","GS","GSold","1","category1/CS3.png","targets/28.png","","direct","","-43"
"","image-slider-response","291","714761","0.0-12.0-0.7","ezzhv9e7tp","many_one","0","indirect_first","0","lc04rt21","1","20","1","1","3","1","","0","1","0","7428","","","","","neg","CS","CS","3","category3/CS4.png","targets/15.png","","direct","","-74"
"","image-slider-response","292","720873","0.0-12.0-0.8","ezzhv9e7tp","many_one","0","indirect_first","0","lc04rt21","1","20","1","1","3","1","","0","1","0","6108","","","","","pos","GS","abstract","2","category2/men.png","targets/47.png","","direct","","15"
"","image-slider-response","293","731257","0.0-12.0-0.9","ezzhv9e7tp","many_one","0","indirect_first","0","lc04rt21","1","20","1","1","3","1","","0","1","0","10381","","","","","pos","GS","GSold","2","category2/CS6.png","targets/46.png","","direct","","17"
"","image-slider-response","294","734441","0.0-12.0-0.10","ezzhv9e7tp","many_one","0","indirect_first","0","lc04rt21","1","20","1","1","3","1","","0","1","0","3181","","","","","pos","CS","CS","2","category2/CS2.png","targets/2.png","","direct","","-25"
"","image-slider-response","295","742889","0.0-12.0-0.11","ezzhv9e7tp","many_one","0","indirect_first","0","lc04rt21","1","20","1","1","3","1","","0","1","0","8444","","","","","neg","GS","GSnew","3","category3/GS2.png","targets/35.png","","direct","","-71"
"","image-slider-response","296","749234","0.0-12.0-0.12","ezzhv9e7tp","many_one","0","indirect_first","0","lc04rt21","1","20","1","1","3","1","","0","1","0","6341","","","","","neg","CS","CS","1","category1/CS10.png","targets/37.png","","direct","","-43"
"","image-slider-response","297","755392","0.0-12.0-0.13","ezzhv9e7tp","many_one","0","indirect_first","0","lc04rt21","1","20","1","1","3","1","","0","1","0","6155","","","","","neg","GS","abstract","1","category1/ma.png","targets/41.png","","direct","","15"
"","image-slider-response","298","761113","0.0-12.0-0.14","ezzhv9e7tp","many_one","0","indirect_first","0","lc04rt21","1","20","1","1","3","1","","0","1","0","5718","","","","","pos","CS","CS","4","category4/CS8.png","targets/30.png","","direct","","100"
"","image-slider-response","299","766872","0.0-12.0-0.15","ezzhv9e7tp","many_one","0","indirect_first","0","lc04rt21","1","20","1","1","3","1","","0","1","0","5756","","","","","neg","GS","abstract","3","category3/wang.png","targets/21.png","","direct","","-80"
"","image-slider-response","300","773985","0.0-12.0-0.16","ezzhv9e7tp","many_one","0","indirect_first","0","lc04rt21","1","20","1","1","3","1","","0","1","0","7108","","","","","neg","CS","CS","3","category3/CS7.png","targets/36.png","","direct","","-79"
"","image-slider-response","301","779008","0.0-12.0-0.17","ezzhv9e7tp","many_one","0","indirect_first","0","lc04rt21","1","20","1","1","3","1","","0","1","0","5021","","","","","pos","CS","CS","2","category2/CS10.png","targets/27.png","","direct","","46"
"","image-slider-response","302","785114","0.0-12.0-0.18","ezzhv9e7tp","many_one","0","indirect_first","0","lc04rt21","1","20","1","1","3","1","","0","1","0","6102","","","","","pos","GS","GSold","4","category4/CS7.png","targets/10.png","","direct","","86"
"","image-slider-response","303","788961","0.0-12.0-0.19","ezzhv9e7tp","many_one","0","indirect_first","0","lc04rt21","1","20","1","1","3","1","","0","1","0","3843","","","","","pos","GS","GSold","2","category2/CS4.png","targets/22.png","","direct","","32"
"","image-slider-response","304","797472","0.0-12.0-0.20","ezzhv9e7tp","many_one","0","indirect_first","0","lc04rt21","1","20","1","1","3","1","","0","1","0","8509","","","","","neg","GS","GSnew","1","category1/GS1.png","targets/7.png","","direct","","24"
"","image-slider-response","305","801448","0.0-12.0-0.21","ezzhv9e7tp","many_one","0","indirect_first","0","lc04rt21","1","20","1","1","3","1","","0","1","0","3973","","","","","neg","GS","GSold","1","category1/CS7.png","targets/3.png","","direct","","-40"
"","image-slider-response","306","805377","0.0-12.0-0.22","ezzhv9e7tp","many_one","0","indirect_first","0","lc04rt21","1","20","1","1","3","1","","0","1","0","3926","","","","","pos","CS","CS","2","category2/CS5.png","targets/24.png","","direct","","15"
"","image-slider-response","307","810025","0.0-12.0-0.23","ezzhv9e7tp","many_one","0","indirect_first","0","lc04rt21","1","20","1","1","3","1","","0","1","0","4645","","","","","neg","CS","CS","3","category3/CS2.png","targets/23.png","","direct","","-48"
"","image-slider-response","308","815177","0.0-12.0-0.24","ezzhv9e7tp","many_one","0","indirect_first","0","lc04rt21","1","20","1","1","3","1","","0","1","0","5148","","","","","neg","GS","GSnew","1","category1/GS3.png","targets/26.png","","direct","","-77"
"","image-slider-response","309","822297","0.0-12.0-0.25","ezzhv9e7tp","many_one","0","indirect_first","0","lc04rt21","1","20","1","1","3","1","","0","1","0","7117","","","","","pos","GS","GSold","2","category2/CS9.png","targets/45.png","","direct","","35"
"","image-slider-response","310","829450","0.0-12.0-0.26","ezzhv9e7tp","many_one","0","indirect_first","0","lc04rt21","1","20","1","1","3","1","","0","1","0","7148","","","","","pos","CS","CS","4","category4/CS10.png","targets/16.png","","direct","","89"
"","image-slider-response","311","834345","0.0-12.0-0.27","ezzhv9e7tp","many_one","0","indirect_first","0","lc04rt21","1","20","1","1","3","1","","0","1","0","4893","","","","","pos","CS","CS","4","category4/CS3.png","targets/19.png","","direct","","26"
"","image-slider-response","312","837546","0.0-12.0-0.28","ezzhv9e7tp","many_one","0","indirect_first","0","lc04rt21","1","20","1","1","3","1","","0","1","0","3197","","","","","neg","GS","GSold","3","category3/CS6.png","targets/4.png","","direct","","-71"
"","image-slider-response","313","844497","0.0-12.0-0.29","ezzhv9e7tp","many_one","0","indirect_first","0","lc04rt21","1","20","1","1","3","1","","0","1","0","6949","","","","","pos","GS","GSnew","2","category2/GS1.png","targets/38.png","","direct","","-31"
"","image-slider-response","314","859361","0.0-12.0-0.30","ezzhv9e7tp","many_one","0","indirect_first","0","lc04rt21","1","20","1","1","3","1","","0","1","0","14860","","","","","pos","GS","GSnew","4","category4/GS3.png","targets/40.png","","direct","","-2"
"","image-slider-response","315","873024","0.0-12.0-0.31","ezzhv9e7tp","many_one","0","indirect_first","0","lc04rt21","1","20","1","1","3","1","","0","1","0","13662","","","","","pos","GS","GSnew","2","category2/GS2.png","targets/9.png","","direct","","-37"
"","image-slider-response","316","876417","0.0-12.0-0.32","ezzhv9e7tp","many_one","0","indirect_first","0","lc04rt21","1","20","1","1","3","1","","0","1","0","3388","","","","","neg","CS","CS","3","category3/CS10.png","targets/1.png","","direct","","-88"
"","image-slider-response","317","881297","0.0-12.0-0.33","ezzhv9e7tp","many_one","0","indirect_first","0","lc04rt21","1","20","1","1","3","1","","0","1","0","4878","","","","","neg","GS","GSold","1","category1/CS6.png","targets/29.png","","direct","","-53"
"","image-slider-response","318","884993","0.0-12.0-0.34","ezzhv9e7tp","many_one","0","indirect_first","0","lc04rt21","1","20","1","1","3","1","","0","1","0","3694","","","","","neg","GS","GSnew","3","category3/GS1.png","targets/17.png","","direct","","-85"
"","image-slider-response","319","889097","0.0-12.0-0.35","ezzhv9e7tp","many_one","0","indirect_first","0","lc04rt21","1","20","1","1","3","1","","0","1","0","4100","","","","","neg","CS","CS","1","category1/CS1.png","targets/33.png","","direct","","-89"
"","image-slider-response","320","891713","0.0-12.0-0.36","ezzhv9e7tp","many_one","0","indirect_first","0","lc04rt21","1","20","1","1","3","1","","0","1","0","2612","","","","","neg","CS","CS","1","category1/CS4.png","targets/12.png","","direct","","-68"
"","image-slider-response","321","895641","0.0-12.0-0.37","ezzhv9e7tp","many_one","0","indirect_first","0","lc04rt21","1","20","1","1","3","1","","0","1","0","3924","","","","","pos","CS","CS","4","category4/CS6.png","targets/11.png","","direct","","58"
"","image-slider-response","322","900376","0.0-12.0-0.38","ezzhv9e7tp","many_one","0","indirect_first","0","lc04rt21","1","20","1","1","3","1","","0","1","0","4733","","","","","neg","CS","CS","3","category3/CS3.png","targets/6.png","","direct","","-49"
"","image-slider-response","323","904969","0.0-12.0-0.39","ezzhv9e7tp","many_one","0","indirect_first","0","lc04rt21","1","20","1","1","3","1","","0","1","0","4588","","","","","pos","GS","abstract","4","category4/lin.png","targets/42.png","","direct","","85"
"","image-slider-response","324","911865","0.0-12.0-0.40","ezzhv9e7tp","many_one","0","indirect_first","0","lc04rt21","1","20","1","1","3","1","","0","1","0","6893","","","","","neg","CS","CS","1","category1/CS8.png","targets/44.png","","direct","","-43"
"","image-slider-response","325","915416","0.0-12.0-0.41","ezzhv9e7tp","many_one","0","indirect_first","0","lc04rt21","1","20","1","1","3","1","","0","1","0","3549","","","","","pos","GS","GSnew","2","category2/GS3.png","targets/48.png","","direct","","44"
"","image-slider-response","326","918040","0.0-12.0-0.42","ezzhv9e7tp","many_one","0","indirect_first","0","lc04rt21","1","20","1","1","3","1","","0","1","0","2621","","","","","neg","GS","GSold","3","category3/CS1.png","targets/34.png","","direct","","-66"
"","image-slider-response","327","920721","0.0-12.0-0.43","ezzhv9e7tp","many_one","0","indirect_first","0","lc04rt21","1","20","1","1","3","1","","0","1","0","2679","","","","","pos","CS","CS","4","category4/CS4.png","targets/31.png","","direct","","76"
"","image-slider-response","328","923081","0.0-12.0-0.44","ezzhv9e7tp","many_one","0","indirect_first","0","lc04rt21","1","20","1","1","3","1","","0","1","0","2357","","","","","neg","CS","CS","1","category1/CS5.png","targets/5.png","","direct","","-71"
"","image-slider-response","329","927328","0.0-12.0-0.45","ezzhv9e7tp","many_one","0","indirect_first","0","lc04rt21","1","20","1","1","3","1","","0","1","0","4245","","","","","neg","GS","GSold","3","category3/CS8.png","targets/25.png","","direct","","-100"
