"success","trial_type","trial_index","time_elapsed","internal_node_id","subject","condition","condition_code","measure","measure_code","codeword","gender","age","education","chinese","fach","handedness","comment","hinschauen","ablenkung","gewissenhaft","rt","url","responses","stimulus","key_press","val","type","type_specific","category","cs_selected","response","target","task","indirect","nr_pres"
"true","fullscreen","0","7110","0.0-0.0","rx4ofmsh6m","many_one","0","direct_first","1","ff10er30","0","21","1","1","3","1","","0","1","0","","","","","","","","","","","","","","",""
"","external-html","1","61680","0.0-1.0","rx4ofmsh6m","many_one","0","direct_first","1","ff10er30","0","21","1","1","3","1","","0","1","0","54536","text/information.html","","","","","","","","","","","","",""
"","external-html","2","77964","0.0-2.0","rx4ofmsh6m","many_one","0","direct_first","1","ff10er30","0","21","1","1","3","1","","0","1","0","16233.999999999985","text/consent.html","","","","","","","","","","","","",""
"","survey-html-form","3","127159","0.0-3.0","rx4ofmsh6m","many_one","0","direct_first","1","ff10er30","0","21","1","1","3","1","","0","1","0","49191.999999999985","","{""codeword_enter"":""ff10er30""}","","","","","","","","","","","",""
"","survey-html-form","4","156141","0.0-4.0","rx4ofmsh6m","many_one","0","direct_first","1","ff10er30","0","21","1","1","3","1","","0","1","0","28979","","{""age"":""21"",""education"":""1"",""subject"":""3"",""gender"":""0"",""handedness"":""1"",""chinese"":""1""}","","","","","","","","","","","",""
"","survey-html-form","5","162633","0.0-5.0","rx4ofmsh6m","many_one","0","direct_first","1","ff10er30","0","21","1","1","3","1","","0","1","0","6489","","{}","","","","","","","","","","","",""
"","html-keyboard-response","6","166641","0.0-6.0-0.0-0.0","rx4ofmsh6m","many_one","0","direct_first","1","ff10er30","0","21","1","1","3","1","","0","1","0","null","","","<div class = 'row'><div class = 'column'><img src = 'uspos/2530.bmp' width = '100%;'></div><div class = 'column'><img src = 'category1/CS9.png' width = '70%;'></div></div>","null","pos","CS","CS","1","category1/CS9.png","","","","",""
"","html-keyboard-response","7","169148","0.0-6.0-0.0-0.1","rx4ofmsh6m","many_one","0","direct_first","1","ff10er30","0","21","1","1","3","1","","0","1","0","null","","","<div class = 'row'><div class = 'column'><img src = 'category4/CS1.png' width = '70%;'></div><div class = 'column'><img src = 'usneg/9415.bmp' width = '100%;'></div></div>","null","neg","CS","CS","4","category4/CS1.png","","","","",""
"","html-keyboard-response","8","171654","0.0-6.0-0.0-0.2","rx4ofmsh6m","many_one","0","direct_first","1","ff10er30","0","21","1","1","3","1","","0","1","0","null","","","<div class = 'row'><div class = 'column'><img src = 'category2/CS3.png' width = '70%;'></div><div class = 'column'><img src = 'uspos/8461.bmp' width = '100%;'></div></div>","null","pos","CS","CS","2","category2/CS3.png","","","","",""
"","html-keyboard-response","9","174158","0.0-6.0-0.0-0.3","rx4ofmsh6m","many_one","0","direct_first","1","ff10er30","0","21","1","1","3","1","","0","1","0","null","","","<div class = 'row'><div class = 'column'><img src = 'category1/CS4.png' width = '70%;'></div><div class = 'column'><img src = 'uspos/5621.bmp' width = '100%;'></div></div>","null","pos","CS","CS","1","category1/CS4.png","","","","",""
"","html-keyboard-response","10","176662","0.0-6.0-0.0-0.4","rx4ofmsh6m","many_one","0","direct_first","1","ff10er30","0","21","1","1","3","1","","0","1","0","null","","","<div class = 'row'><div class = 'column'><img src = 'category2/CS4.png' width = '70%;'></div><div class = 'column'><img src = 'uspos/8540.bmp' width = '100%;'></div></div>","null","pos","CS","CS","2","category2/CS4.png","","","","",""
"","html-keyboard-response","11","179167","0.0-6.0-0.0-0.5","rx4ofmsh6m","many_one","0","direct_first","1","ff10er30","0","21","1","1","3","1","","0","1","0","null","","","<div class = 'row'><div class = 'column'><img src = 'category1/CS2.png' width = '70%;'></div><div class = 'column'><img src = 'uspos/2311.bmp' width = '100%;'></div></div>","null","pos","CS","CS","1","category1/CS2.png","","","","",""
"","html-keyboard-response","12","181671","0.0-6.0-0.0-0.6","rx4ofmsh6m","many_one","0","direct_first","1","ff10er30","0","21","1","1","3","1","","0","1","0","null","","","<div class = 'row'><div class = 'column'><img src = 'category4/CS6.png' width = '70%;'></div><div class = 'column'><img src = 'usneg/6212.bmp' width = '100%;'></div></div>","null","neg","CS","CS","4","category4/CS6.png","","","","",""
"","html-keyboard-response","13","184178","0.0-6.0-0.0-0.7","rx4ofmsh6m","many_one","0","direct_first","1","ff10er30","0","21","1","1","3","1","","0","1","0","null","","","<div class = 'row'><div class = 'column'><img src = 'category3/CS6.png' width = '70%;'></div><div class = 'column'><img src = 'usneg/9041.bmp' width = '100%;'></div></div>","null","neg","CS","CS","3","category3/CS6.png","","","","",""
"","html-keyboard-response","14","186682","0.0-6.0-0.0-0.8","rx4ofmsh6m","many_one","0","direct_first","1","ff10er30","0","21","1","1","3","1","","0","1","0","null","","","<div class = 'row'><div class = 'column'><img src = 'uspos/5830.bmp' width = '100%;'></div><div class = 'column'><img src = 'category1/CS5.png' width = '70%;'></div></div>","null","pos","CS","CS","1","category1/CS5.png","","","","",""
"","html-keyboard-response","15","189186","0.0-6.0-0.0-0.9","rx4ofmsh6m","many_one","0","direct_first","1","ff10er30","0","21","1","1","3","1","","0","1","0","null","","","<div class = 'row'><div class = 'column'><img src = 'category1/CS6.png' width = '70%;'></div><div class = 'column'><img src = 'uspos/2360.bmp' width = '100%;'></div></div>","null","pos","CS","CS","1","category1/CS6.png","","","","",""
"","html-keyboard-response","16","191691","0.0-6.0-0.0-0.10","rx4ofmsh6m","many_one","0","direct_first","1","ff10er30","0","21","1","1","3","1","","0","1","0","null","","","<div class = 'row'><div class = 'column'><img src = 'category3/CS7.png' width = '70%;'></div><div class = 'column'><img src = 'usneg/1280.bmp' width = '100%;'></div></div>","null","neg","CS","CS","3","category3/CS7.png","","","","",""
"","html-keyboard-response","17","194196","0.0-6.0-0.0-0.11","rx4ofmsh6m","many_one","0","direct_first","1","ff10er30","0","21","1","1","3","1","","0","1","0","null","","","<div class = 'row'><div class = 'column'><img src = 'category2/CS10.png' width = '70%;'></div><div class = 'column'><img src = 'uspos/2900.2.bmp' width = '100%;'></div></div>","null","pos","CS","CS","2","category2/CS10.png","","","","",""
"","html-keyboard-response","18","196704","0.0-6.0-0.0-0.12","rx4ofmsh6m","many_one","0","direct_first","1","ff10er30","0","21","1","1","3","1","","0","1","0","null","","","<div class = 'row'><div class = 'column'><img src = 'usneg/9280.bmp' width = '100%;'></div><div class = 'column'><img src = 'category3/CS5.png' width = '70%;'></div></div>","null","neg","CS","CS","3","category3/CS5.png","","","","",""
"","html-keyboard-response","19","199209","0.0-6.0-0.0-0.13","rx4ofmsh6m","many_one","0","direct_first","1","ff10er30","0","21","1","1","3","1","","0","1","0","null","","","<div class = 'row'><div class = 'column'><img src = 'usneg/3160.bmp' width = '100%;'></div><div class = 'column'><img src = 'category3/CS10.png' width = '70%;'></div></div>","null","neg","CS","CS","3","category3/CS10.png","","","","",""
"","html-keyboard-response","20","201714","0.0-6.0-0.0-0.14","rx4ofmsh6m","many_one","0","direct_first","1","ff10er30","0","21","1","1","3","1","","0","1","0","null","","","<div class = 'row'><div class = 'column'><img src = 'category3/CS4.png' width = '70%;'></div><div class = 'column'><img src = 'usneg/2900.bmp' width = '100%;'></div></div>","null","neg","CS","CS","3","category3/CS4.png","","","","",""
"","html-keyboard-response","21","204223","0.0-6.0-0.0-0.15","rx4ofmsh6m","many_one","0","direct_first","1","ff10er30","0","21","1","1","3","1","","0","1","0","null","","","<div class = 'row'><div class = 'column'><img src = 'category2/CS6.png' width = '70%;'></div><div class = 'column'><img src = 'uspos/4625.bmp' width = '100%;'></div></div>","null","pos","CS","CS","2","category2/CS6.png","","","","",""
"","html-keyboard-response","22","206729","0.0-6.0-0.0-0.16","rx4ofmsh6m","many_one","0","direct_first","1","ff10er30","0","21","1","1","3","1","","0","1","0","null","","","<div class = 'row'><div class = 'column'><img src = 'uspos/5600.bmp' width = '100%;'></div><div class = 'column'><img src = 'category2/CS2.png' width = '70%;'></div></div>","null","pos","CS","CS","2","category2/CS2.png","","","","",""
"","html-keyboard-response","23","209235","0.0-6.0-0.0-0.17","rx4ofmsh6m","many_one","0","direct_first","1","ff10er30","0","21","1","1","3","1","","0","1","0","null","","","<div class = 'row'><div class = 'column'><img src = 'category4/CS3.png' width = '70%;'></div><div class = 'column'><img src = 'usneg/9635.2.bmp' width = '100%;'></div></div>","null","neg","CS","CS","4","category4/CS3.png","","","","",""
"","html-keyboard-response","24","211744","0.0-6.0-0.0-0.18","rx4ofmsh6m","many_one","0","direct_first","1","ff10er30","0","21","1","1","3","1","","0","1","0","null","","","<div class = 'row'><div class = 'column'><img src = 'usneg/9000.bmp' width = '100%;'></div><div class = 'column'><img src = 'category4/CS4.png' width = '70%;'></div></div>","null","neg","CS","CS","4","category4/CS4.png","","","","",""
"","html-keyboard-response","25","214250","0.0-6.0-0.0-0.19","rx4ofmsh6m","many_one","0","direct_first","1","ff10er30","0","21","1","1","3","1","","0","1","0","null","","","<div class = 'row'><div class = 'column'><img src = 'usneg/9404.bmp' width = '100%;'></div><div class = 'column'><img src = 'category4/CS2.png' width = '70%;'></div></div>","null","neg","CS","CS","4","category4/CS2.png","","","","",""
"","survey-html-form","26","219862","0.0-6.0-1.0","rx4ofmsh6m","many_one","0","direct_first","1","ff10er30","0","21","1","1","3","1","","0","1","0","5111","","{}","","","","","","","","","","","",""
"","html-keyboard-response","27","223866","0.0-6.0-2.0-0.0","rx4ofmsh6m","many_one","0","direct_first","1","ff10er30","0","21","1","1","3","1","","0","1","0","null","","","<div class = 'row'><div class = 'column'><img src = 'category1/CS4.png' width = '70%;'></div><div class = 'column'><img src = 'uspos/5621.bmp' width = '100%;'></div></div>","null","pos","CS","CS","1","category1/CS4.png","","","","",""
"","html-keyboard-response","28","226371","0.0-6.0-2.0-0.1","rx4ofmsh6m","many_one","0","direct_first","1","ff10er30","0","21","1","1","3","1","","0","1","0","null","","","<div class = 'row'><div class = 'column'><img src = 'uspos/2900.2.bmp' width = '100%;'></div><div class = 'column'><img src = 'category2/CS10.png' width = '70%;'></div></div>","null","pos","CS","CS","2","category2/CS10.png","","","","",""
"","html-keyboard-response","29","228878","0.0-6.0-2.0-0.2","rx4ofmsh6m","many_one","0","direct_first","1","ff10er30","0","21","1","1","3","1","","0","1","0","null","","","<div class = 'row'><div class = 'column'><img src = 'uspos/2360.bmp' width = '100%;'></div><div class = 'column'><img src = 'category1/CS6.png' width = '70%;'></div></div>","null","pos","CS","CS","1","category1/CS6.png","","","","",""
"","html-keyboard-response","30","231383","0.0-6.0-2.0-0.3","rx4ofmsh6m","many_one","0","direct_first","1","ff10er30","0","21","1","1","3","1","","0","1","0","null","","","<div class = 'row'><div class = 'column'><img src = 'category2/CS4.png' width = '70%;'></div><div class = 'column'><img src = 'uspos/8540.bmp' width = '100%;'></div></div>","null","pos","CS","CS","2","category2/CS4.png","","","","",""
"","html-keyboard-response","31","233888","0.0-6.0-2.0-0.4","rx4ofmsh6m","many_one","0","direct_first","1","ff10er30","0","21","1","1","3","1","","0","1","0","null","","","<div class = 'row'><div class = 'column'><img src = 'usneg/9635.2.bmp' width = '100%;'></div><div class = 'column'><img src = 'category4/CS3.png' width = '70%;'></div></div>","null","neg","CS","CS","4","category4/CS3.png","","","","",""
"","html-keyboard-response","32","236395","0.0-6.0-2.0-0.5","rx4ofmsh6m","many_one","0","direct_first","1","ff10er30","0","21","1","1","3","1","","0","1","0","null","","","<div class = 'row'><div class = 'column'><img src = 'category3/CS7.png' width = '70%;'></div><div class = 'column'><img src = 'usneg/1280.bmp' width = '100%;'></div></div>","null","neg","CS","CS","3","category3/CS7.png","","","","",""
"","html-keyboard-response","33","238901","0.0-6.0-2.0-0.6","rx4ofmsh6m","many_one","0","direct_first","1","ff10er30","0","21","1","1","3","1","","0","1","0","null","","","<div class = 'row'><div class = 'column'><img src = 'usneg/9000.bmp' width = '100%;'></div><div class = 'column'><img src = 'category4/CS4.png' width = '70%;'></div></div>","null","neg","CS","CS","4","category4/CS4.png","","","","",""
"","html-keyboard-response","34","241408","0.0-6.0-2.0-0.7","rx4ofmsh6m","many_one","0","direct_first","1","ff10er30","0","21","1","1","3","1","","0","1","0","null","","","<div class = 'row'><div class = 'column'><img src = 'category2/CS6.png' width = '70%;'></div><div class = 'column'><img src = 'uspos/4625.bmp' width = '100%;'></div></div>","null","pos","CS","CS","2","category2/CS6.png","","","","",""
"","html-keyboard-response","35","243912","0.0-6.0-2.0-0.8","rx4ofmsh6m","many_one","0","direct_first","1","ff10er30","0","21","1","1","3","1","","0","1","0","null","","","<div class = 'row'><div class = 'column'><img src = 'uspos/2530.bmp' width = '100%;'></div><div class = 'column'><img src = 'category1/CS9.png' width = '70%;'></div></div>","null","pos","CS","CS","1","category1/CS9.png","","","","",""
"","html-keyboard-response","36","246417","0.0-6.0-2.0-0.9","rx4ofmsh6m","many_one","0","direct_first","1","ff10er30","0","21","1","1","3","1","","0","1","0","null","","","<div class = 'row'><div class = 'column'><img src = 'uspos/5830.bmp' width = '100%;'></div><div class = 'column'><img src = 'category1/CS5.png' width = '70%;'></div></div>","null","pos","CS","CS","1","category1/CS5.png","","","","",""
"","html-keyboard-response","37","248922","0.0-6.0-2.0-0.10","rx4ofmsh6m","many_one","0","direct_first","1","ff10er30","0","21","1","1","3","1","","0","1","0","null","","","<div class = 'row'><div class = 'column'><img src = 'usneg/9280.bmp' width = '100%;'></div><div class = 'column'><img src = 'category3/CS5.png' width = '70%;'></div></div>","null","neg","CS","CS","3","category3/CS5.png","","","","",""
"","html-keyboard-response","38","251429","0.0-6.0-2.0-0.11","rx4ofmsh6m","many_one","0","direct_first","1","ff10er30","0","21","1","1","3","1","","0","1","0","null","","","<div class = 'row'><div class = 'column'><img src = 'category3/CS10.png' width = '70%;'></div><div class = 'column'><img src = 'usneg/3160.bmp' width = '100%;'></div></div>","null","neg","CS","CS","3","category3/CS10.png","","","","",""
"","html-keyboard-response","39","253935","0.0-6.0-2.0-0.12","rx4ofmsh6m","many_one","0","direct_first","1","ff10er30","0","21","1","1","3","1","","0","1","0","null","","","<div class = 'row'><div class = 'column'><img src = 'category3/CS4.png' width = '70%;'></div><div class = 'column'><img src = 'usneg/2900.bmp' width = '100%;'></div></div>","null","neg","CS","CS","3","category3/CS4.png","","","","",""
"","html-keyboard-response","40","256442","0.0-6.0-2.0-0.13","rx4ofmsh6m","many_one","0","direct_first","1","ff10er30","0","21","1","1","3","1","","0","1","0","null","","","<div class = 'row'><div class = 'column'><img src = 'category4/CS6.png' width = '70%;'></div><div class = 'column'><img src = 'usneg/6212.bmp' width = '100%;'></div></div>","null","neg","CS","CS","4","category4/CS6.png","","","","",""
"","html-keyboard-response","41","258946","0.0-6.0-2.0-0.14","rx4ofmsh6m","many_one","0","direct_first","1","ff10er30","0","21","1","1","3","1","","0","1","0","null","","","<div class = 'row'><div class = 'column'><img src = 'usneg/9404.bmp' width = '100%;'></div><div class = 'column'><img src = 'category4/CS2.png' width = '70%;'></div></div>","null","neg","CS","CS","4","category4/CS2.png","","","","",""
"","html-keyboard-response","42","261451","0.0-6.0-2.0-0.15","rx4ofmsh6m","many_one","0","direct_first","1","ff10er30","0","21","1","1","3","1","","0","1","0","null","","","<div class = 'row'><div class = 'column'><img src = 'category2/CS3.png' width = '70%;'></div><div class = 'column'><img src = 'uspos/8461.bmp' width = '100%;'></div></div>","null","pos","CS","CS","2","category2/CS3.png","","","","",""
"","html-keyboard-response","43","263957","0.0-6.0-2.0-0.16","rx4ofmsh6m","many_one","0","direct_first","1","ff10er30","0","21","1","1","3","1","","0","1","0","null","","","<div class = 'row'><div class = 'column'><img src = 'category1/CS2.png' width = '70%;'></div><div class = 'column'><img src = 'uspos/2311.bmp' width = '100%;'></div></div>","null","pos","CS","CS","1","category1/CS2.png","","","","",""
"","html-keyboard-response","44","266462","0.0-6.0-2.0-0.17","rx4ofmsh6m","many_one","0","direct_first","1","ff10er30","0","21","1","1","3","1","","0","1","0","null","","","<div class = 'row'><div class = 'column'><img src = 'category2/CS2.png' width = '70%;'></div><div class = 'column'><img src = 'uspos/5600.bmp' width = '100%;'></div></div>","null","pos","CS","CS","2","category2/CS2.png","","","","",""
"","html-keyboard-response","45","268970","0.0-6.0-2.0-0.18","rx4ofmsh6m","many_one","0","direct_first","1","ff10er30","0","21","1","1","3","1","","0","1","0","null","","","<div class = 'row'><div class = 'column'><img src = 'category4/CS1.png' width = '70%;'></div><div class = 'column'><img src = 'usneg/9415.bmp' width = '100%;'></div></div>","null","neg","CS","CS","4","category4/CS1.png","","","","",""
"","html-keyboard-response","46","271477","0.0-6.0-2.0-0.19","rx4ofmsh6m","many_one","0","direct_first","1","ff10er30","0","21","1","1","3","1","","0","1","0","null","","","<div class = 'row'><div class = 'column'><img src = 'usneg/9041.bmp' width = '100%;'></div><div class = 'column'><img src = 'category3/CS6.png' width = '70%;'></div></div>","null","neg","CS","CS","3","category3/CS6.png","","","","",""
"","survey-html-form","47","280137","0.0-6.0-3.0","rx4ofmsh6m","many_one","0","direct_first","1","ff10er30","0","21","1","1","3","1","","0","1","0","8158.000000000058","","{}","","","","","","","","","","","",""
"","html-keyboard-response","48","284142","0.0-6.0-4.0-0.0","rx4ofmsh6m","many_one","0","direct_first","1","ff10er30","0","21","1","1","3","1","","0","1","0","null","","","<div class = 'row'><div class = 'column'><img src = 'category1/CS2.png' width = '70%;'></div><div class = 'column'><img src = 'uspos/2311.bmp' width = '100%;'></div></div>","null","pos","CS","CS","1","category1/CS2.png","","","","",""
"","html-keyboard-response","49","286647","0.0-6.0-4.0-0.1","rx4ofmsh6m","many_one","0","direct_first","1","ff10er30","0","21","1","1","3","1","","0","1","0","null","","","<div class = 'row'><div class = 'column'><img src = 'category2/CS3.png' width = '70%;'></div><div class = 'column'><img src = 'uspos/8461.bmp' width = '100%;'></div></div>","null","pos","CS","CS","2","category2/CS3.png","","","","",""
"","html-keyboard-response","50","289156","0.0-6.0-4.0-0.2","rx4ofmsh6m","many_one","0","direct_first","1","ff10er30","0","21","1","1","3","1","","0","1","0","null","","","<div class = 'row'><div class = 'column'><img src = 'category3/CS7.png' width = '70%;'></div><div class = 'column'><img src = 'usneg/1280.bmp' width = '100%;'></div></div>","null","neg","CS","CS","3","category3/CS7.png","","","","",""
"","html-keyboard-response","51","291664","0.0-6.0-4.0-0.3","rx4ofmsh6m","many_one","0","direct_first","1","ff10er30","0","21","1","1","3","1","","0","1","0","null","","","<div class = 'row'><div class = 'column'><img src = 'category2/CS6.png' width = '70%;'></div><div class = 'column'><img src = 'uspos/4625.bmp' width = '100%;'></div></div>","null","pos","CS","CS","2","category2/CS6.png","","","","",""
"","html-keyboard-response","52","294172","0.0-6.0-4.0-0.4","rx4ofmsh6m","many_one","0","direct_first","1","ff10er30","0","21","1","1","3","1","","0","1","0","null","","","<div class = 'row'><div class = 'column'><img src = 'category4/CS3.png' width = '70%;'></div><div class = 'column'><img src = 'usneg/9635.2.bmp' width = '100%;'></div></div>","null","neg","CS","CS","4","category4/CS3.png","","","","",""
"","html-keyboard-response","53","296677","0.0-6.0-4.0-0.5","rx4ofmsh6m","many_one","0","direct_first","1","ff10er30","0","21","1","1","3","1","","0","1","0","null","","","<div class = 'row'><div class = 'column'><img src = 'category3/CS4.png' width = '70%;'></div><div class = 'column'><img src = 'usneg/2900.bmp' width = '100%;'></div></div>","null","neg","CS","CS","3","category3/CS4.png","","","","",""
"","html-keyboard-response","54","299180","0.0-6.0-4.0-0.6","rx4ofmsh6m","many_one","0","direct_first","1","ff10er30","0","21","1","1","3","1","","0","1","0","null","","","<div class = 'row'><div class = 'column'><img src = 'category3/CS6.png' width = '70%;'></div><div class = 'column'><img src = 'usneg/9041.bmp' width = '100%;'></div></div>","null","neg","CS","CS","3","category3/CS6.png","","","","",""
"","html-keyboard-response","55","301684","0.0-6.0-4.0-0.7","rx4ofmsh6m","many_one","0","direct_first","1","ff10er30","0","21","1","1","3","1","","0","1","0","null","","","<div class = 'row'><div class = 'column'><img src = 'uspos/8540.bmp' width = '100%;'></div><div class = 'column'><img src = 'category2/CS4.png' width = '70%;'></div></div>","null","pos","CS","CS","2","category2/CS4.png","","","","",""
"","html-keyboard-response","56","304189","0.0-6.0-4.0-0.8","rx4ofmsh6m","many_one","0","direct_first","1","ff10er30","0","21","1","1","3","1","","0","1","0","null","","","<div class = 'row'><div class = 'column'><img src = 'category2/CS2.png' width = '70%;'></div><div class = 'column'><img src = 'uspos/5600.bmp' width = '100%;'></div></div>","null","pos","CS","CS","2","category2/CS2.png","","","","",""
"","html-keyboard-response","57","306693","0.0-6.0-4.0-0.9","rx4ofmsh6m","many_one","0","direct_first","1","ff10er30","0","21","1","1","3","1","","0","1","0","null","","","<div class = 'row'><div class = 'column'><img src = 'usneg/9404.bmp' width = '100%;'></div><div class = 'column'><img src = 'category4/CS2.png' width = '70%;'></div></div>","null","neg","CS","CS","4","category4/CS2.png","","","","",""
"","html-keyboard-response","58","309199","0.0-6.0-4.0-0.10","rx4ofmsh6m","many_one","0","direct_first","1","ff10er30","0","21","1","1","3","1","","0","1","0","null","","","<div class = 'row'><div class = 'column'><img src = 'uspos/2360.bmp' width = '100%;'></div><div class = 'column'><img src = 'category1/CS6.png' width = '70%;'></div></div>","null","pos","CS","CS","1","category1/CS6.png","","","","",""
"","html-keyboard-response","59","311703","0.0-6.0-4.0-0.11","rx4ofmsh6m","many_one","0","direct_first","1","ff10er30","0","21","1","1","3","1","","0","1","0","null","","","<div class = 'row'><div class = 'column'><img src = 'category3/CS10.png' width = '70%;'></div><div class = 'column'><img src = 'usneg/3160.bmp' width = '100%;'></div></div>","null","neg","CS","CS","3","category3/CS10.png","","","","",""
"","html-keyboard-response","60","314212","0.0-6.0-4.0-0.12","rx4ofmsh6m","many_one","0","direct_first","1","ff10er30","0","21","1","1","3","1","","0","1","0","null","","","<div class = 'row'><div class = 'column'><img src = 'category4/CS4.png' width = '70%;'></div><div class = 'column'><img src = 'usneg/9000.bmp' width = '100%;'></div></div>","null","neg","CS","CS","4","category4/CS4.png","","","","",""
"","html-keyboard-response","61","316718","0.0-6.0-4.0-0.13","rx4ofmsh6m","many_one","0","direct_first","1","ff10er30","0","21","1","1","3","1","","0","1","0","null","","","<div class = 'row'><div class = 'column'><img src = 'uspos/5830.bmp' width = '100%;'></div><div class = 'column'><img src = 'category1/CS5.png' width = '70%;'></div></div>","null","pos","CS","CS","1","category1/CS5.png","","","","",""
"","html-keyboard-response","62","319224","0.0-6.0-4.0-0.14","rx4ofmsh6m","many_one","0","direct_first","1","ff10er30","0","21","1","1","3","1","","0","1","0","null","","","<div class = 'row'><div class = 'column'><img src = 'usneg/9280.bmp' width = '100%;'></div><div class = 'column'><img src = 'category3/CS5.png' width = '70%;'></div></div>","null","neg","CS","CS","3","category3/CS5.png","","","","",""
"","html-keyboard-response","63","321731","0.0-6.0-4.0-0.15","rx4ofmsh6m","many_one","0","direct_first","1","ff10er30","0","21","1","1","3","1","","0","1","0","null","","","<div class = 'row'><div class = 'column'><img src = 'category4/CS1.png' width = '70%;'></div><div class = 'column'><img src = 'usneg/9415.bmp' width = '100%;'></div></div>","null","neg","CS","CS","4","category4/CS1.png","","","","",""
"","html-keyboard-response","64","324239","0.0-6.0-4.0-0.16","rx4ofmsh6m","many_one","0","direct_first","1","ff10er30","0","21","1","1","3","1","","0","1","0","null","","","<div class = 'row'><div class = 'column'><img src = 'category1/CS9.png' width = '70%;'></div><div class = 'column'><img src = 'uspos/2530.bmp' width = '100%;'></div></div>","null","pos","CS","CS","1","category1/CS9.png","","","","",""
"","html-keyboard-response","65","326746","0.0-6.0-4.0-0.17","rx4ofmsh6m","many_one","0","direct_first","1","ff10er30","0","21","1","1","3","1","","0","1","0","null","","","<div class = 'row'><div class = 'column'><img src = 'usneg/6212.bmp' width = '100%;'></div><div class = 'column'><img src = 'category4/CS6.png' width = '70%;'></div></div>","null","neg","CS","CS","4","category4/CS6.png","","","","",""
"","html-keyboard-response","66","329250","0.0-6.0-4.0-0.18","rx4ofmsh6m","many_one","0","direct_first","1","ff10er30","0","21","1","1","3","1","","0","1","0","null","","","<div class = 'row'><div class = 'column'><img src = 'category2/CS10.png' width = '70%;'></div><div class = 'column'><img src = 'uspos/2900.2.bmp' width = '100%;'></div></div>","null","pos","CS","CS","2","category2/CS10.png","","","","",""
"","html-keyboard-response","67","331759","0.0-6.0-4.0-0.19","rx4ofmsh6m","many_one","0","direct_first","1","ff10er30","0","21","1","1","3","1","","0","1","0","null","","","<div class = 'row'><div class = 'column'><img src = 'uspos/5621.bmp' width = '100%;'></div><div class = 'column'><img src = 'category1/CS4.png' width = '70%;'></div></div>","null","pos","CS","CS","1","category1/CS4.png","","","","",""
"","survey-html-form","68","333944","0.0-6.0-5.0","rx4ofmsh6m","many_one","0","direct_first","1","ff10er30","0","21","1","1","3","1","","0","1","0","1683","","{}","","","","","","","","","","","",""
"","html-keyboard-response","69","337950","0.0-6.0-6.0-0.0","rx4ofmsh6m","many_one","0","direct_first","1","ff10er30","0","21","1","1","3","1","","0","1","0","null","","","<div class = 'row'><div class = 'column'><img src = 'category2/CS4.png' width = '70%;'></div><div class = 'column'><img src = 'uspos/8540.bmp' width = '100%;'></div></div>","null","pos","CS","CS","2","category2/CS4.png","","","","",""
"","html-keyboard-response","70","340458","0.0-6.0-6.0-0.1","rx4ofmsh6m","many_one","0","direct_first","1","ff10er30","0","21","1","1","3","1","","0","1","0","null","","","<div class = 'row'><div class = 'column'><img src = 'category4/CS6.png' width = '70%;'></div><div class = 'column'><img src = 'usneg/6212.bmp' width = '100%;'></div></div>","null","neg","CS","CS","4","category4/CS6.png","","","","",""
"","html-keyboard-response","71","342962","0.0-6.0-6.0-0.2","rx4ofmsh6m","many_one","0","direct_first","1","ff10er30","0","21","1","1","3","1","","0","1","0","null","","","<div class = 'row'><div class = 'column'><img src = 'usneg/2900.bmp' width = '100%;'></div><div class = 'column'><img src = 'category3/CS4.png' width = '70%;'></div></div>","null","neg","CS","CS","3","category3/CS4.png","","","","",""
"","html-keyboard-response","72","345472","0.0-6.0-6.0-0.3","rx4ofmsh6m","many_one","0","direct_first","1","ff10er30","0","21","1","1","3","1","","0","1","0","null","","","<div class = 'row'><div class = 'column'><img src = 'category4/CS1.png' width = '70%;'></div><div class = 'column'><img src = 'usneg/9415.bmp' width = '100%;'></div></div>","null","neg","CS","CS","4","category4/CS1.png","","","","",""
"","html-keyboard-response","73","347980","0.0-6.0-6.0-0.4","rx4ofmsh6m","many_one","0","direct_first","1","ff10er30","0","21","1","1","3","1","","0","1","0","null","","","<div class = 'row'><div class = 'column'><img src = 'uspos/2900.2.bmp' width = '100%;'></div><div class = 'column'><img src = 'category2/CS10.png' width = '70%;'></div></div>","null","pos","CS","CS","2","category2/CS10.png","","","","",""
"","html-keyboard-response","74","350484","0.0-6.0-6.0-0.5","rx4ofmsh6m","many_one","0","direct_first","1","ff10er30","0","21","1","1","3","1","","0","1","0","null","","","<div class = 'row'><div class = 'column'><img src = 'category2/CS2.png' width = '70%;'></div><div class = 'column'><img src = 'uspos/5600.bmp' width = '100%;'></div></div>","null","pos","CS","CS","2","category2/CS2.png","","","","",""
"","html-keyboard-response","75","352990","0.0-6.0-6.0-0.6","rx4ofmsh6m","many_one","0","direct_first","1","ff10er30","0","21","1","1","3","1","","0","1","0","null","","","<div class = 'row'><div class = 'column'><img src = 'category3/CS7.png' width = '70%;'></div><div class = 'column'><img src = 'usneg/1280.bmp' width = '100%;'></div></div>","null","neg","CS","CS","3","category3/CS7.png","","","","",""
"","html-keyboard-response","76","355495","0.0-6.0-6.0-0.7","rx4ofmsh6m","many_one","0","direct_first","1","ff10er30","0","21","1","1","3","1","","0","1","0","null","","","<div class = 'row'><div class = 'column'><img src = 'usneg/9404.bmp' width = '100%;'></div><div class = 'column'><img src = 'category4/CS2.png' width = '70%;'></div></div>","null","neg","CS","CS","4","category4/CS2.png","","","","",""
"","html-keyboard-response","77","358000","0.0-6.0-6.0-0.8","rx4ofmsh6m","many_one","0","direct_first","1","ff10er30","0","21","1","1","3","1","","0","1","0","null","","","<div class = 'row'><div class = 'column'><img src = 'usneg/9000.bmp' width = '100%;'></div><div class = 'column'><img src = 'category4/CS4.png' width = '70%;'></div></div>","null","neg","CS","CS","4","category4/CS4.png","","","","",""
"","html-keyboard-response","78","360505","0.0-6.0-6.0-0.9","rx4ofmsh6m","many_one","0","direct_first","1","ff10er30","0","21","1","1","3","1","","0","1","0","null","","","<div class = 'row'><div class = 'column'><img src = 'category1/CS9.png' width = '70%;'></div><div class = 'column'><img src = 'uspos/2530.bmp' width = '100%;'></div></div>","null","pos","CS","CS","1","category1/CS9.png","","","","",""
"","html-keyboard-response","79","363013","0.0-6.0-6.0-0.10","rx4ofmsh6m","many_one","0","direct_first","1","ff10er30","0","21","1","1","3","1","","0","1","0","null","","","<div class = 'row'><div class = 'column'><img src = 'uspos/8461.bmp' width = '100%;'></div><div class = 'column'><img src = 'category2/CS3.png' width = '70%;'></div></div>","null","pos","CS","CS","2","category2/CS3.png","","","","",""
"","html-keyboard-response","80","365522","0.0-6.0-6.0-0.11","rx4ofmsh6m","many_one","0","direct_first","1","ff10er30","0","21","1","1","3","1","","0","1","0","null","","","<div class = 'row'><div class = 'column'><img src = 'category3/CS10.png' width = '70%;'></div><div class = 'column'><img src = 'usneg/3160.bmp' width = '100%;'></div></div>","null","neg","CS","CS","3","category3/CS10.png","","","","",""
"","html-keyboard-response","81","368026","0.0-6.0-6.0-0.12","rx4ofmsh6m","many_one","0","direct_first","1","ff10er30","0","21","1","1","3","1","","0","1","0","null","","","<div class = 'row'><div class = 'column'><img src = 'category1/CS2.png' width = '70%;'></div><div class = 'column'><img src = 'uspos/2311.bmp' width = '100%;'></div></div>","null","pos","CS","CS","1","category1/CS2.png","","","","",""
"","html-keyboard-response","82","370530","0.0-6.0-6.0-0.13","rx4ofmsh6m","many_one","0","direct_first","1","ff10er30","0","21","1","1","3","1","","0","1","0","null","","","<div class = 'row'><div class = 'column'><img src = 'uspos/2360.bmp' width = '100%;'></div><div class = 'column'><img src = 'category1/CS6.png' width = '70%;'></div></div>","null","pos","CS","CS","1","category1/CS6.png","","","","",""
"","html-keyboard-response","83","373038","0.0-6.0-6.0-0.14","rx4ofmsh6m","many_one","0","direct_first","1","ff10er30","0","21","1","1","3","1","","0","1","0","null","","","<div class = 'row'><div class = 'column'><img src = 'uspos/5830.bmp' width = '100%;'></div><div class = 'column'><img src = 'category1/CS5.png' width = '70%;'></div></div>","null","pos","CS","CS","1","category1/CS5.png","","","","",""
"","html-keyboard-response","84","375542","0.0-6.0-6.0-0.15","rx4ofmsh6m","many_one","0","direct_first","1","ff10er30","0","21","1","1","3","1","","0","1","0","null","","","<div class = 'row'><div class = 'column'><img src = 'usneg/9280.bmp' width = '100%;'></div><div class = 'column'><img src = 'category3/CS5.png' width = '70%;'></div></div>","null","neg","CS","CS","3","category3/CS5.png","","","","",""
"","html-keyboard-response","85","378050","0.0-6.0-6.0-0.16","rx4ofmsh6m","many_one","0","direct_first","1","ff10er30","0","21","1","1","3","1","","0","1","0","null","","","<div class = 'row'><div class = 'column'><img src = 'usneg/9041.bmp' width = '100%;'></div><div class = 'column'><img src = 'category3/CS6.png' width = '70%;'></div></div>","null","neg","CS","CS","3","category3/CS6.png","","","","",""
"","html-keyboard-response","86","380557","0.0-6.0-6.0-0.17","rx4ofmsh6m","many_one","0","direct_first","1","ff10er30","0","21","1","1","3","1","","0","1","0","null","","","<div class = 'row'><div class = 'column'><img src = 'usneg/9635.2.bmp' width = '100%;'></div><div class = 'column'><img src = 'category4/CS3.png' width = '70%;'></div></div>","null","neg","CS","CS","4","category4/CS3.png","","","","",""
"","html-keyboard-response","87","383061","0.0-6.0-6.0-0.18","rx4ofmsh6m","many_one","0","direct_first","1","ff10er30","0","21","1","1","3","1","","0","1","0","null","","","<div class = 'row'><div class = 'column'><img src = 'category2/CS6.png' width = '70%;'></div><div class = 'column'><img src = 'uspos/4625.bmp' width = '100%;'></div></div>","null","pos","CS","CS","2","category2/CS6.png","","","","",""
"","html-keyboard-response","88","385567","0.0-6.0-6.0-0.19","rx4ofmsh6m","many_one","0","direct_first","1","ff10er30","0","21","1","1","3","1","","0","1","0","null","","","<div class = 'row'><div class = 'column'><img src = 'uspos/5621.bmp' width = '100%;'></div><div class = 'column'><img src = 'category1/CS4.png' width = '70%;'></div></div>","null","pos","CS","CS","1","category1/CS4.png","","","","",""
"","survey-html-form","89","396684","0.0-7.0","rx4ofmsh6m","many_one","0","direct_first","1","ff10er30","0","21","1","1","3","1","","0","1","0","10615","","{}","","","","","","","","","","","",""
"","image-slider-response","90","409400","0.0-8.0-0.0","rx4ofmsh6m","many_one","0","direct_first","1","ff10er30","0","21","1","1","3","1","","0","1","0","10711","","","","","pos","GS","GSnew","2","category2/GS2.png","-30","targets/22.png","direct","",""
"","image-slider-response","91","414237","0.0-8.0-0.1","rx4ofmsh6m","many_one","0","direct_first","1","ff10er30","0","21","1","1","3","1","","0","1","0","4834","","","","","neg","GS","GSold","4","category4/CS10.png","40","targets/13.png","direct","",""
"","image-slider-response","92","420300","0.0-8.0-0.2","rx4ofmsh6m","many_one","0","direct_first","1","ff10er30","0","21","1","1","3","1","","0","1","0","6061","","","","","neg","CS","CS","4","category4/CS2.png","-35","targets/21.png","direct","",""
"","image-slider-response","93","424090","0.0-8.0-0.3","rx4ofmsh6m","many_one","0","direct_first","1","ff10er30","0","21","1","1","3","1","","0","1","0","3789","","","","","neg","CS","CS","4","category4/CS1.png","-26","targets/34.png","direct","",""
"","image-slider-response","94","427309","0.0-8.0-0.4","rx4ofmsh6m","many_one","0","direct_first","1","ff10er30","0","21","1","1","3","1","","0","1","0","3216","","","","","pos","CS","CS","2","category2/CS3.png","45","targets/47.png","direct","",""
"","image-slider-response","95","431053","0.0-8.0-0.5","rx4ofmsh6m","many_one","0","direct_first","1","ff10er30","0","21","1","1","3","1","","0","1","0","3741","","","","","pos","CS","CS","1","category1/CS9.png","72","targets/36.png","direct","",""
"","image-slider-response","96","436448","0.0-8.0-0.6","rx4ofmsh6m","many_one","0","direct_first","1","ff10er30","0","21","1","1","3","1","","0","1","0","5392.999999999942","","","","","neg","CS","CS","3","category3/CS4.png","-43","targets/9.png","direct","",""
"","image-slider-response","97","441062","0.0-8.0-0.7","rx4ofmsh6m","many_one","0","direct_first","1","ff10er30","0","21","1","1","3","1","","0","1","0","4611","","","","","pos","CS","CS","2","category2/CS6.png","8","targets/6.png","direct","",""
"","image-slider-response","98","446246","0.0-8.0-0.8","rx4ofmsh6m","many_one","0","direct_first","1","ff10er30","0","21","1","1","3","1","","0","1","0","5182","","","","","neg","GS","GSold","3","category3/CS8.png","-63","targets/2.png","direct","",""
"","image-slider-response","99","450770","0.0-8.0-0.9","rx4ofmsh6m","many_one","0","direct_first","1","ff10er30","0","21","1","1","3","1","","0","1","0","4522","","","","","pos","CS","CS","2","category2/CS4.png","67","targets/38.png","direct","",""
"","image-slider-response","100","457450","0.0-8.0-0.10","rx4ofmsh6m","many_one","0","direct_first","1","ff10er30","0","21","1","1","3","1","","0","1","0","6678","","","","","pos","GS","GSold","1","category1/CS3.png","-24","targets/12.png","direct","",""
"","image-slider-response","101","461227","0.0-8.0-0.11","rx4ofmsh6m","many_one","0","direct_first","1","ff10er30","0","21","1","1","3","1","","0","1","0","3774","","","","","pos","GS","abstract","1","category1/ma.png","-24","targets/25.png","direct","",""
"","image-slider-response","102","464055","0.0-8.0-0.12","rx4ofmsh6m","many_one","0","direct_first","1","ff10er30","0","21","1","1","3","1","","0","1","0","2826.000000000058","","","","","pos","GS","GSnew","1","category1/GS2.png","28","targets/5.png","direct","",""
"","image-slider-response","103","467244","0.0-8.0-0.13","rx4ofmsh6m","many_one","0","direct_first","1","ff10er30","0","21","1","1","3","1","","0","1","0","3186","","","","","neg","GS","GSnew","3","category3/GS2.png","34","targets/17.png","direct","",""
"","image-slider-response","104","473551","0.0-8.0-0.14","rx4ofmsh6m","many_one","0","direct_first","1","ff10er30","0","21","1","1","3","1","","0","1","0","6305","","","","","neg","GS","GSold","3","category3/CS9.png","-17","targets/44.png","direct","",""
"","image-slider-response","105","477480","0.0-8.0-0.15","rx4ofmsh6m","many_one","0","direct_first","1","ff10er30","0","21","1","1","3","1","","0","1","0","3927","","","","","neg","GS","GSnew","4","category4/GS3.png","-28","targets/1.png","direct","",""
"","image-slider-response","106","480743","0.0-8.0-0.16","rx4ofmsh6m","many_one","0","direct_first","1","ff10er30","0","21","1","1","3","1","","0","1","0","3260.999999999942","","","","","neg","CS","CS","3","category3/CS7.png","-17","targets/45.png","direct","",""
"","image-slider-response","107","483745","0.0-8.0-0.17","rx4ofmsh6m","many_one","0","direct_first","1","ff10er30","0","21","1","1","3","1","","0","1","0","3000","","","","","neg","CS","CS","4","category4/CS3.png","-18","targets/37.png","direct","",""
"","image-slider-response","108","487329","0.0-8.0-0.18","rx4ofmsh6m","many_one","0","direct_first","1","ff10er30","0","21","1","1","3","1","","0","1","0","3582","","","","","pos","GS","GSnew","1","category1/GS3.png","19","targets/46.png","direct","",""
"","image-slider-response","109","490463","0.0-8.0-0.19","rx4ofmsh6m","many_one","0","direct_first","1","ff10er30","0","21","1","1","3","1","","0","1","0","3132","","","","","pos","GS","GSold","1","category1/CS1.png","55","targets/40.png","direct","",""
"","image-slider-response","110","493327","0.0-8.0-0.20","rx4ofmsh6m","many_one","0","direct_first","1","ff10er30","0","21","1","1","3","1","","0","1","0","2861.999999999942","","","","","pos","CS","CS","1","category1/CS5.png","36","targets/29.png","direct","",""
"","image-slider-response","111","497190","0.0-8.0-0.21","rx4ofmsh6m","many_one","0","direct_first","1","ff10er30","0","21","1","1","3","1","","0","1","0","3861.000000000058","","","","","pos","CS","CS","1","category1/CS2.png","-42","targets/15.png","direct","",""
"","image-slider-response","112","504835","0.0-8.0-0.22","rx4ofmsh6m","many_one","0","direct_first","1","ff10er30","0","21","1","1","3","1","","0","1","0","7642","","","","","neg","CS","CS","4","category4/CS4.png","-36","targets/20.png","direct","",""
"","image-slider-response","113","507296","0.0-8.0-0.23","rx4ofmsh6m","many_one","0","direct_first","1","ff10er30","0","21","1","1","3","1","","0","1","0","2459.000000000058","","","","","neg","GS","GSold","4","category4/CS9.png","41","targets/48.png","direct","",""
"","image-slider-response","114","510618","0.0-8.0-0.24","rx4ofmsh6m","many_one","0","direct_first","1","ff10er30","0","21","1","1","3","1","","0","1","0","3321.000000000058","","","","","pos","GS","GSold","1","category1/CS7.png","-19","targets/18.png","direct","",""
"","image-slider-response","115","513857","0.0-8.0-0.25","rx4ofmsh6m","many_one","0","direct_first","1","ff10er30","0","21","1","1","3","1","","0","1","0","3237.000000000058","","","","","pos","GS","GSold","2","category2/CS7.png","98","targets/7.png","direct","",""
"","image-slider-response","116","516575","0.0-8.0-0.26","rx4ofmsh6m","many_one","0","direct_first","1","ff10er30","0","21","1","1","3","1","","0","1","0","2716.999999999942","","","","","neg","CS","CS","4","category4/CS6.png","53","targets/24.png","direct","",""
"","image-slider-response","117","520776","0.0-8.0-0.27","rx4ofmsh6m","many_one","0","direct_first","1","ff10er30","0","21","1","1","3","1","","0","1","0","4199","","","","","neg","GS","GSnew","3","category3/GS3.png","-31","targets/31.png","direct","",""
"","image-slider-response","118","523556","0.0-8.0-0.28","rx4ofmsh6m","many_one","0","direct_first","1","ff10er30","0","21","1","1","3","1","","0","1","0","2778","","","","","neg","GS","GSnew","3","category3/GS1.png","-36","targets/41.png","direct","",""
"","image-slider-response","119","526159","0.0-8.0-0.29","rx4ofmsh6m","many_one","0","direct_first","1","ff10er30","0","21","1","1","3","1","","0","1","0","2599.9999999998836","","","","","pos","GS","abstract","2","category2/men.png","-17","targets/8.png","direct","",""
"","image-slider-response","120","530924","0.0-8.0-0.30","rx4ofmsh6m","many_one","0","direct_first","1","ff10er30","0","21","1","1","3","1","","0","1","0","4764","","","","","pos","CS","CS","1","category1/CS6.png","-15","targets/19.png","direct","",""
"","image-slider-response","121","533767","0.0-8.0-0.31","rx4ofmsh6m","many_one","0","direct_first","1","ff10er30","0","21","1","1","3","1","","0","1","0","2836","","","","","neg","GS","GSnew","4","category4/GS2.png","58","targets/30.png","direct","",""
"","image-slider-response","122","536258","0.0-8.0-0.32","rx4ofmsh6m","many_one","0","direct_first","1","ff10er30","0","21","1","1","3","1","","0","1","0","2489","","","","","neg","GS","abstract","3","category3/wang.png","-7","targets/43.png","direct","",""
"","image-slider-response","123","540233","0.0-8.0-0.33","rx4ofmsh6m","many_one","0","direct_first","1","ff10er30","0","21","1","1","3","1","","0","1","0","3971.9999999998836","","","","","pos","GS","GSold","2","category2/CS9.png","32","targets/28.png","direct","",""
"","image-slider-response","124","545135","0.0-8.0-0.34","rx4ofmsh6m","many_one","0","direct_first","1","ff10er30","0","21","1","1","3","1","","0","1","0","4901.000000000116","","","","","pos","GS","GSold","2","category2/CS8.png","17","targets/23.png","direct","",""
"","image-slider-response","125","549030","0.0-8.0-0.35","rx4ofmsh6m","many_one","0","direct_first","1","ff10er30","0","21","1","1","3","1","","0","1","0","3893","","","","","pos","GS","GSnew","2","category2/GS1.png","-18","targets/26.png","direct","",""
"","image-slider-response","126","551972","0.0-8.0-0.36","rx4ofmsh6m","many_one","0","direct_first","1","ff10er30","0","21","1","1","3","1","","0","1","0","2940","","","","","pos","CS","CS","2","category2/CS10.png","80","targets/32.png","direct","",""
"","image-slider-response","127","556157","0.0-8.0-0.37","rx4ofmsh6m","many_one","0","direct_first","1","ff10er30","0","21","1","1","3","1","","0","1","0","4183","","","","","neg","CS","CS","3","category3/CS5.png","15","targets/10.png","direct","",""
"","image-slider-response","128","561203","0.0-8.0-0.38","rx4ofmsh6m","many_one","0","direct_first","1","ff10er30","0","21","1","1","3","1","","0","1","0","5043","","","","","pos","GS","GSnew","2","category2/GS3.png","-2","targets/39.png","direct","",""
"","image-slider-response","129","565610","0.0-8.0-0.39","rx4ofmsh6m","many_one","0","direct_first","1","ff10er30","0","21","1","1","3","1","","0","1","0","4406.000000000116","","","","","pos","CS","CS","1","category1/CS4.png","22","targets/27.png","direct","",""
"","image-slider-response","130","568968","0.0-8.0-0.40","rx4ofmsh6m","many_one","0","direct_first","1","ff10er30","0","21","1","1","3","1","","0","1","0","3355","","","","","neg","CS","CS","3","category3/CS6.png","33","targets/14.png","direct","",""
"","image-slider-response","131","572068","0.0-8.0-0.41","rx4ofmsh6m","many_one","0","direct_first","1","ff10er30","0","21","1","1","3","1","","0","1","0","3098","","","","","neg","GS","abstract","4","category4/lin.png","-34","targets/16.png","direct","",""
"","image-slider-response","132","574769","0.0-8.0-0.42","rx4ofmsh6m","many_one","0","direct_first","1","ff10er30","0","21","1","1","3","1","","0","1","0","2699","","","","","neg","GS","GSnew","4","category4/GS1.png","-19","targets/4.png","direct","",""
"","image-slider-response","133","578089","0.0-8.0-0.43","rx4ofmsh6m","many_one","0","direct_first","1","ff10er30","0","21","1","1","3","1","","0","1","0","3318","","","","","neg","GS","GSold","4","category4/CS5.png","-44","targets/42.png","direct","",""
"","image-slider-response","134","581047","0.0-8.0-0.44","rx4ofmsh6m","many_one","0","direct_first","1","ff10er30","0","21","1","1","3","1","","0","1","0","2956","","","","","pos","CS","CS","2","category2/CS2.png","50","targets/3.png","direct","",""
"","image-slider-response","135","584206","0.0-8.0-0.45","rx4ofmsh6m","many_one","0","direct_first","1","ff10er30","0","21","1","1","3","1","","0","1","0","3158.0000000001164","","","","","pos","GS","GSnew","1","category1/GS1.png","-29","targets/35.png","direct","",""
"","image-slider-response","136","587633","0.0-8.0-0.46","rx4ofmsh6m","many_one","0","direct_first","1","ff10er30","0","21","1","1","3","1","","0","1","0","3425","","","","","neg","GS","GSold","3","category3/CS3.png","-19","targets/11.png","direct","",""
"","image-slider-response","137","594371","0.0-8.0-0.47","rx4ofmsh6m","many_one","0","direct_first","1","ff10er30","0","21","1","1","3","1","","0","1","0","6736.999999999884","","","","","neg","CS","CS","3","category3/CS10.png","-27","targets/33.png","direct","",""
"","html-keyboard-response","138","628852","0.0-9.0","rx4ofmsh6m","many_one","0","direct_first","1","ff10er30","0","21","1","1","3","1","","0","1","0","34480","","","<p>Sie sehen nun die chinesischen Zeichen nur ganz kurz. Danach sehen Sie die jeweilige Aussprache der Zeichen als Silbe auf dem Bildschrim. Ihre Aufgabe ist es, für jede Silbe anzugeben, ob diese etwas angenehmes, oder unangenehmes bedeuten könnte. Verlassen Sie sich hier vor allem auf Ihre Intuition.<br><br>Die Zeichen werden nur zur Orientierung dargestellt, beachten Sie sie deshalb nicht. Konzentrieren Sie sich vor allem auf die Silben. <br>Reagieren Sie mit folgenden zwei Tasten: <br><br><b>'D' </b> wenn die Silbe etwas <b>unangenehmes</b> bedeuten könnte. <br><b>'K'</b> wenn die Silbe etwas <b>angenehmes</b> bedeuten könnte. <br><br>Bitte legen Sie nun den Zeigefinger der linken Hand auf die Taste 'D' und den Zeigefinger der rechten Hand auf die Taste 'K'. <br>Reagieren Sie auf jede Silbe so schnell wie möglich. Uns interessiert Ihre spontane Reaktion. <br> <br> <br>Drücken Sie 'D' oder 'K', um die nächste Aufgabe zu starten. </p>","68","","","","","","","","","",""
"","html-keyboard-response","139","631855","0.0-10.0-0.0","rx4ofmsh6m","many_one","0","direct_first","1","ff10er30","0","21","1","1","3","1","","0","1","0","null","","","<div style=""font-size:60px;"">+</div>","null","","","","","","","","","",""
"","html-keyboard-response","140","631948","0.0-10.0-1.0","rx4ofmsh6m","many_one","0","direct_first","1","ff10er30","0","21","1","1","3","1","","0","1","0","null","","","<img src = 'category2/CS4.png' width = '100%;'>","null","","","","","","","","","",""
"","html-keyboard-response","141","632202","0.0-10.0-2.0","rx4ofmsh6m","many_one","0","direct_first","1","ff10er30","0","21","1","1","3","1","","0","1","0","null","","","<img src = 'targets/38.png' width = '100%;'>","null","","","","","","","","","",""
"","html-keyboard-response","142","639830","0.0-10.0-3.0","rx4ofmsh6m","many_one","0","direct_first","1","ff10er30","0","21","1","1","3","1","","0","1","0","7625","","","<img src = 'targets/mask.png' width = '100%;'>","75","pos","CS","CS","2","category2/CS4.png","","targets/38.png","indirect","1","0"
"","html-keyboard-response","143","641334","0.0-10.0-0.1","rx4ofmsh6m","many_one","0","direct_first","1","ff10er30","0","21","1","1","3","1","","0","1","0","null","","","<div style=""font-size:60px;"">+</div>","null","","","","","","","","","",""
"","html-keyboard-response","144","641428","0.0-10.0-1.1","rx4ofmsh6m","many_one","0","direct_first","1","ff10er30","0","21","1","1","3","1","","0","1","0","null","","","<img src = 'category4/CS10.png' width = '100%;'>","null","","","","","","","","","",""
"","html-keyboard-response","145","641682","0.0-10.0-2.1","rx4ofmsh6m","many_one","0","direct_first","1","ff10er30","0","21","1","1","3","1","","0","1","0","null","","","<img src = 'targets/13.png' width = '100%;'>","null","","","","","","","","","",""
"","html-keyboard-response","146","645046","0.0-10.0-3.1","rx4ofmsh6m","many_one","0","direct_first","1","ff10er30","0","21","1","1","3","1","","0","1","0","3363","","","<img src = 'targets/mask.png' width = '100%;'>","75","neg","GS","GSold","4","category4/CS10.png","","targets/13.png","indirect","1","1"
"","html-keyboard-response","147","646553","0.0-10.0-0.2","rx4ofmsh6m","many_one","0","direct_first","1","ff10er30","0","21","1","1","3","1","","0","1","0","null","","","<div style=""font-size:60px;"">+</div>","null","","","","","","","","","",""
"","html-keyboard-response","148","646645","0.0-10.0-1.2","rx4ofmsh6m","many_one","0","direct_first","1","ff10er30","0","21","1","1","3","1","","0","1","0","null","","","<img src = 'category1/CS4.png' width = '100%;'>","null","","","","","","","","","",""
"","html-keyboard-response","149","646899","0.0-10.0-2.2","rx4ofmsh6m","many_one","0","direct_first","1","ff10er30","0","21","1","1","3","1","","0","1","0","null","","","<img src = 'targets/27.png' width = '100%;'>","null","","","","","","","","","",""
"","html-keyboard-response","150","647755","0.0-10.0-3.2","rx4ofmsh6m","many_one","0","direct_first","1","ff10er30","0","21","1","1","3","1","","0","1","0","853.9999999998836","","","<img src = 'targets/mask.png' width = '100%;'>","75","pos","CS","CS","1","category1/CS4.png","","targets/27.png","indirect","1","2"
"","html-keyboard-response","151","649259","0.0-10.0-0.3","rx4ofmsh6m","many_one","0","direct_first","1","ff10er30","0","21","1","1","3","1","","0","1","0","null","","","<div style=""font-size:60px;"">+</div>","null","","","","","","","","","",""
"","html-keyboard-response","152","649352","0.0-10.0-1.3","rx4ofmsh6m","many_one","0","direct_first","1","ff10er30","0","21","1","1","3","1","","0","1","0","null","","","<img src = 'category3/CS10.png' width = '100%;'>","null","","","","","","","","","",""
"","html-keyboard-response","153","649605","0.0-10.0-2.3","rx4ofmsh6m","many_one","0","direct_first","1","ff10er30","0","21","1","1","3","1","","0","1","0","null","","","<img src = 'targets/33.png' width = '100%;'>","null","","","","","","","","","",""
"","html-keyboard-response","154","650320","0.0-10.0-3.3","rx4ofmsh6m","many_one","0","direct_first","1","ff10er30","0","21","1","1","3","1","","0","1","0","713","","","<img src = 'targets/mask.png' width = '100%;'>","68","neg","CS","CS","3","category3/CS10.png","","targets/33.png","indirect","0","3"
"","html-keyboard-response","155","651823","0.0-10.0-0.4","rx4ofmsh6m","many_one","0","direct_first","1","ff10er30","0","21","1","1","3","1","","0","1","0","null","","","<div style=""font-size:60px;"">+</div>","null","","","","","","","","","",""
"","html-keyboard-response","156","651916","0.0-10.0-1.4","rx4ofmsh6m","many_one","0","direct_first","1","ff10er30","0","21","1","1","3","1","","0","1","0","null","","","<img src = 'category4/CS4.png' width = '100%;'>","null","","","","","","","","","",""
"","html-keyboard-response","157","652169","0.0-10.0-2.4","rx4ofmsh6m","many_one","0","direct_first","1","ff10er30","0","21","1","1","3","1","","0","1","0","null","","","<img src = 'targets/20.png' width = '100%;'>","null","","","","","","","","","",""
"","html-keyboard-response","158","653777","0.0-10.0-3.4","rx4ofmsh6m","many_one","0","direct_first","1","ff10er30","0","21","1","1","3","1","","0","1","0","1606","","","<img src = 'targets/mask.png' width = '100%;'>","75","neg","CS","CS","4","category4/CS4.png","","targets/20.png","indirect","1","4"
"","html-keyboard-response","159","655283","0.0-10.0-0.5","rx4ofmsh6m","many_one","0","direct_first","1","ff10er30","0","21","1","1","3","1","","0","1","0","null","","","<div style=""font-size:60px;"">+</div>","null","","","","","","","","","",""
"","html-keyboard-response","160","655375","0.0-10.0-1.5","rx4ofmsh6m","many_one","0","direct_first","1","ff10er30","0","21","1","1","3","1","","0","1","0","null","","","<img src = 'category2/CS3.png' width = '100%;'>","null","","","","","","","","","",""
"","html-keyboard-response","161","655630","0.0-10.0-2.5","rx4ofmsh6m","many_one","0","direct_first","1","ff10er30","0","21","1","1","3","1","","0","1","0","null","","","<img src = 'targets/47.png' width = '100%;'>","null","","","","","","","","","",""
"","html-keyboard-response","162","656301","0.0-10.0-3.5","rx4ofmsh6m","many_one","0","direct_first","1","ff10er30","0","21","1","1","3","1","","0","1","0","668.9999999998836","","","<img src = 'targets/mask.png' width = '100%;'>","68","pos","CS","CS","2","category2/CS3.png","","targets/47.png","indirect","0","5"
"","html-keyboard-response","163","657807","0.0-10.0-0.6","rx4ofmsh6m","many_one","0","direct_first","1","ff10er30","0","21","1","1","3","1","","0","1","0","null","","","<div style=""font-size:60px;"">+</div>","null","","","","","","","","","",""
"","html-keyboard-response","164","657900","0.0-10.0-1.6","rx4ofmsh6m","many_one","0","direct_first","1","ff10er30","0","21","1","1","3","1","","0","1","0","null","","","<img src = 'category3/CS7.png' width = '100%;'>","null","","","","","","","","","",""
"","html-keyboard-response","165","658154","0.0-10.0-2.6","rx4ofmsh6m","many_one","0","direct_first","1","ff10er30","0","21","1","1","3","1","","0","1","0","null","","","<img src = 'targets/45.png' width = '100%;'>","null","","","","","","","","","",""
"","html-keyboard-response","166","659796","0.0-10.0-3.6","rx4ofmsh6m","many_one","0","direct_first","1","ff10er30","0","21","1","1","3","1","","0","1","0","1639.9999999998836","","","<img src = 'targets/mask.png' width = '100%;'>","75","neg","CS","CS","3","category3/CS7.png","","targets/45.png","indirect","1","6"
"","html-keyboard-response","167","661303","0.0-10.0-0.7","rx4ofmsh6m","many_one","0","direct_first","1","ff10er30","0","21","1","1","3","1","","0","1","0","null","","","<div style=""font-size:60px;"">+</div>","null","","","","","","","","","",""
"","html-keyboard-response","168","661396","0.0-10.0-1.7","rx4ofmsh6m","many_one","0","direct_first","1","ff10er30","0","21","1","1","3","1","","0","1","0","null","","","<img src = 'category2/CS6.png' width = '100%;'>","null","","","","","","","","","",""
"","html-keyboard-response","169","661652","0.0-10.0-2.7","rx4ofmsh6m","many_one","0","direct_first","1","ff10er30","0","21","1","1","3","1","","0","1","0","null","","","<img src = 'targets/6.png' width = '100%;'>","null","","","","","","","","","",""
"","html-keyboard-response","170","663102","0.0-10.0-3.7","rx4ofmsh6m","many_one","0","direct_first","1","ff10er30","0","21","1","1","3","1","","0","1","0","1448","","","<img src = 'targets/mask.png' width = '100%;'>","75","pos","CS","CS","2","category2/CS6.png","","targets/6.png","indirect","1","7"
"","html-keyboard-response","171","664606","0.0-10.0-0.8","rx4ofmsh6m","many_one","0","direct_first","1","ff10er30","0","21","1","1","3","1","","0","1","0","null","","","<div style=""font-size:60px;"">+</div>","null","","","","","","","","","",""
"","html-keyboard-response","172","664699","0.0-10.0-1.8","rx4ofmsh6m","many_one","0","direct_first","1","ff10er30","0","21","1","1","3","1","","0","1","0","null","","","<img src = 'category4/CS3.png' width = '100%;'>","null","","","","","","","","","",""
"","html-keyboard-response","173","664953","0.0-10.0-2.8","rx4ofmsh6m","many_one","0","direct_first","1","ff10er30","0","21","1","1","3","1","","0","1","0","null","","","<img src = 'targets/37.png' width = '100%;'>","null","","","","","","","","","",""
"","html-keyboard-response","174","665530","0.0-10.0-3.8","rx4ofmsh6m","many_one","0","direct_first","1","ff10er30","0","21","1","1","3","1","","0","1","0","576.0000000001164","","","<img src = 'targets/mask.png' width = '100%;'>","68","neg","CS","CS","4","category4/CS3.png","","targets/37.png","indirect","0","8"
"","html-keyboard-response","175","667035","0.0-10.0-0.9","rx4ofmsh6m","many_one","0","direct_first","1","ff10er30","0","21","1","1","3","1","","0","1","0","null","","","<div style=""font-size:60px;"">+</div>","null","","","","","","","","","",""
"","html-keyboard-response","176","667127","0.0-10.0-1.9","rx4ofmsh6m","many_one","0","direct_first","1","ff10er30","0","21","1","1","3","1","","0","1","0","null","","","<img src = 'category1/CS6.png' width = '100%;'>","null","","","","","","","","","",""
"","html-keyboard-response","177","667386","0.0-10.0-2.9","rx4ofmsh6m","many_one","0","direct_first","1","ff10er30","0","21","1","1","3","1","","0","1","0","null","","","<img src = 'targets/19.png' width = '100%;'>","null","","","","","","","","","",""
"","html-keyboard-response","178","668070","0.0-10.0-3.9","rx4ofmsh6m","many_one","0","direct_first","1","ff10er30","0","21","1","1","3","1","","0","1","0","683","","","<img src = 'targets/mask.png' width = '100%;'>","68","pos","CS","CS","1","category1/CS6.png","","targets/19.png","indirect","0","9"
"","html-keyboard-response","179","669576","0.0-10.0-0.10","rx4ofmsh6m","many_one","0","direct_first","1","ff10er30","0","21","1","1","3","1","","0","1","0","null","","","<div style=""font-size:60px;"">+</div>","null","","","","","","","","","",""
"","html-keyboard-response","180","669669","0.0-10.0-1.10","rx4ofmsh6m","many_one","0","direct_first","1","ff10er30","0","21","1","1","3","1","","0","1","0","null","","","<img src = 'category4/CS2.png' width = '100%;'>","null","","","","","","","","","",""
"","html-keyboard-response","181","669925","0.0-10.0-2.10","rx4ofmsh6m","many_one","0","direct_first","1","ff10er30","0","21","1","1","3","1","","0","1","0","null","","","<img src = 'targets/21.png' width = '100%;'>","null","","","","","","","","","",""
"","html-keyboard-response","182","671327","0.0-10.0-3.10","rx4ofmsh6m","many_one","0","direct_first","1","ff10er30","0","21","1","1","3","1","","0","1","0","1400","","","<img src = 'targets/mask.png' width = '100%;'>","75","neg","CS","CS","4","category4/CS2.png","","targets/21.png","indirect","1","10"
"","html-keyboard-response","183","672833","0.0-10.0-0.11","rx4ofmsh6m","many_one","0","direct_first","1","ff10er30","0","21","1","1","3","1","","0","1","0","null","","","<div style=""font-size:60px;"">+</div>","null","","","","","","","","","",""
"","html-keyboard-response","184","672928","0.0-10.0-1.11","rx4ofmsh6m","many_one","0","direct_first","1","ff10er30","0","21","1","1","3","1","","0","1","0","null","","","<img src = 'category2/CS10.png' width = '100%;'>","null","","","","","","","","","",""
"","html-keyboard-response","185","673181","0.0-10.0-2.11","rx4ofmsh6m","many_one","0","direct_first","1","ff10er30","0","21","1","1","3","1","","0","1","0","null","","","<img src = 'targets/32.png' width = '100%;'>","null","","","","","","","","","",""
"","html-keyboard-response","186","673722","0.0-10.0-3.11","rx4ofmsh6m","many_one","0","direct_first","1","ff10er30","0","21","1","1","3","1","","0","1","0","539","","","<img src = 'targets/mask.png' width = '100%;'>","68","pos","CS","CS","2","category2/CS10.png","","targets/32.png","indirect","0","11"
"","html-keyboard-response","187","675225","0.0-10.0-0.12","rx4ofmsh6m","many_one","0","direct_first","1","ff10er30","0","21","1","1","3","1","","0","1","0","null","","","<div style=""font-size:60px;"">+</div>","null","","","","","","","","","",""
"","html-keyboard-response","188","675318","0.0-10.0-1.12","rx4ofmsh6m","many_one","0","direct_first","1","ff10er30","0","21","1","1","3","1","","0","1","0","null","","","<img src = 'category1/CS5.png' width = '100%;'>","null","","","","","","","","","",""
"","html-keyboard-response","189","675571","0.0-10.0-2.12","rx4ofmsh6m","many_one","0","direct_first","1","ff10er30","0","21","1","1","3","1","","0","1","0","null","","","<img src = 'targets/29.png' width = '100%;'>","null","","","","","","","","","",""
"","html-keyboard-response","190","676371","0.0-10.0-3.12","rx4ofmsh6m","many_one","0","direct_first","1","ff10er30","0","21","1","1","3","1","","0","1","0","796.9999999998836","","","<img src = 'targets/mask.png' width = '100%;'>","75","pos","CS","CS","1","category1/CS5.png","","targets/29.png","indirect","1","12"
"","html-keyboard-response","191","677877","0.0-10.0-0.13","rx4ofmsh6m","many_one","0","direct_first","1","ff10er30","0","21","1","1","3","1","","0","1","0","null","","","<div style=""font-size:60px;"">+</div>","null","","","","","","","","","",""
"","html-keyboard-response","192","677969","0.0-10.0-1.13","rx4ofmsh6m","many_one","0","direct_first","1","ff10er30","0","21","1","1","3","1","","0","1","0","null","","","<img src = 'category4/CS9.png' width = '100%;'>","null","","","","","","","","","",""
"","html-keyboard-response","193","678222","0.0-10.0-2.13","rx4ofmsh6m","many_one","0","direct_first","1","ff10er30","0","21","1","1","3","1","","0","1","0","null","","","<img src = 'targets/48.png' width = '100%;'>","null","","","","","","","","","",""
"","html-keyboard-response","194","679699","0.0-10.0-3.13","rx4ofmsh6m","many_one","0","direct_first","1","ff10er30","0","21","1","1","3","1","","0","1","0","1475","","","<img src = 'targets/mask.png' width = '100%;'>","68","neg","GS","GSold","4","category4/CS9.png","","targets/48.png","indirect","0","13"
"","html-keyboard-response","195","681205","0.0-10.0-0.14","rx4ofmsh6m","many_one","0","direct_first","1","ff10er30","0","21","1","1","3","1","","0","1","0","null","","","<div style=""font-size:60px;"">+</div>","null","","","","","","","","","",""
"","html-keyboard-response","196","681300","0.0-10.0-1.14","rx4ofmsh6m","many_one","0","direct_first","1","ff10er30","0","21","1","1","3","1","","0","1","0","null","","","<img src = 'category2/CS2.png' width = '100%;'>","null","","","","","","","","","",""
"","html-keyboard-response","197","681556","0.0-10.0-2.14","rx4ofmsh6m","many_one","0","direct_first","1","ff10er30","0","21","1","1","3","1","","0","1","0","null","","","<img src = 'targets/3.png' width = '100%;'>","null","","","","","","","","","",""
"","html-keyboard-response","198","682169","0.0-10.0-3.14","rx4ofmsh6m","many_one","0","direct_first","1","ff10er30","0","21","1","1","3","1","","0","1","0","611","","","<img src = 'targets/mask.png' width = '100%;'>","68","pos","CS","CS","2","category2/CS2.png","","targets/3.png","indirect","0","14"
"","html-keyboard-response","199","683675","0.0-10.0-0.15","rx4ofmsh6m","many_one","0","direct_first","1","ff10er30","0","21","1","1","3","1","","0","1","0","null","","","<div style=""font-size:60px;"">+</div>","null","","","","","","","","","",""
"","html-keyboard-response","200","683768","0.0-10.0-1.15","rx4ofmsh6m","many_one","0","direct_first","1","ff10er30","0","21","1","1","3","1","","0","1","0","null","","","<img src = 'category3/CS5.png' width = '100%;'>","null","","","","","","","","","",""
"","html-keyboard-response","201","684022","0.0-10.0-2.15","rx4ofmsh6m","many_one","0","direct_first","1","ff10er30","0","21","1","1","3","1","","0","1","0","null","","","<img src = 'targets/10.png' width = '100%;'>","null","","","","","","","","","",""
"","html-keyboard-response","202","684669","0.0-10.0-3.15","rx4ofmsh6m","many_one","0","direct_first","1","ff10er30","0","21","1","1","3","1","","0","1","0","645","","","<img src = 'targets/mask.png' width = '100%;'>","68","neg","CS","CS","3","category3/CS5.png","","targets/10.png","indirect","0","15"
"","html-keyboard-response","203","686176","0.0-10.0-0.16","rx4ofmsh6m","many_one","0","direct_first","1","ff10er30","0","21","1","1","3","1","","0","1","0","null","","","<div style=""font-size:60px;"">+</div>","null","","","","","","","","","",""
"","html-keyboard-response","204","686273","0.0-10.0-1.16","rx4ofmsh6m","many_one","0","direct_first","1","ff10er30","0","21","1","1","3","1","","0","1","0","null","","","<img src = 'category3/CS4.png' width = '100%;'>","null","","","","","","","","","",""
"","html-keyboard-response","205","686527","0.0-10.0-2.16","rx4ofmsh6m","many_one","0","direct_first","1","ff10er30","0","21","1","1","3","1","","0","1","0","null","","","<img src = 'targets/9.png' width = '100%;'>","null","","","","","","","","","",""
"","html-keyboard-response","206","687443","0.0-10.0-3.16","rx4ofmsh6m","many_one","0","direct_first","1","ff10er30","0","21","1","1","3","1","","0","1","0","912.9999999998836","","","<img src = 'targets/mask.png' width = '100%;'>","75","neg","CS","CS","3","category3/CS4.png","","targets/9.png","indirect","1","16"
"","html-keyboard-response","207","688950","0.0-10.0-0.17","rx4ofmsh6m","many_one","0","direct_first","1","ff10er30","0","21","1","1","3","1","","0","1","0","null","","","<div style=""font-size:60px;"">+</div>","null","","","","","","","","","",""
"","html-keyboard-response","208","689042","0.0-10.0-1.17","rx4ofmsh6m","many_one","0","direct_first","1","ff10er30","0","21","1","1","3","1","","0","1","0","null","","","<img src = 'category4/CS5.png' width = '100%;'>","null","","","","","","","","","",""
"","html-keyboard-response","209","689296","0.0-10.0-2.17","rx4ofmsh6m","many_one","0","direct_first","1","ff10er30","0","21","1","1","3","1","","0","1","0","null","","","<img src = 'targets/42.png' width = '100%;'>","null","","","","","","","","","",""
"","html-keyboard-response","210","690522","0.0-10.0-3.17","rx4ofmsh6m","many_one","0","direct_first","1","ff10er30","0","21","1","1","3","1","","0","1","0","1223.9999999998836","","","<img src = 'targets/mask.png' width = '100%;'>","75","neg","GS","GSold","4","category4/CS5.png","","targets/42.png","indirect","1","17"
"","html-keyboard-response","211","692031","0.0-10.0-0.18","rx4ofmsh6m","many_one","0","direct_first","1","ff10er30","0","21","1","1","3","1","","0","1","0","null","","","<div style=""font-size:60px;"">+</div>","null","","","","","","","","","",""
"","html-keyboard-response","212","692124","0.0-10.0-1.18","rx4ofmsh6m","many_one","0","direct_first","1","ff10er30","0","21","1","1","3","1","","0","1","0","null","","","<img src = 'category1/CS9.png' width = '100%;'>","null","","","","","","","","","",""
"","html-keyboard-response","213","692378","0.0-10.0-2.18","rx4ofmsh6m","many_one","0","direct_first","1","ff10er30","0","21","1","1","3","1","","0","1","0","null","","","<img src = 'targets/36.png' width = '100%;'>","null","","","","","","","","","",""
"","html-keyboard-response","214","692807","0.0-10.0-3.18","rx4ofmsh6m","many_one","0","direct_first","1","ff10er30","0","21","1","1","3","1","","0","1","0","427","","","<img src = 'targets/mask.png' width = '100%;'>","68","pos","CS","CS","1","category1/CS9.png","","targets/36.png","indirect","0","18"
"","html-keyboard-response","215","694311","0.0-10.0-0.19","rx4ofmsh6m","many_one","0","direct_first","1","ff10er30","0","21","1","1","3","1","","0","1","0","null","","","<div style=""font-size:60px;"">+</div>","null","","","","","","","","","",""
"","html-keyboard-response","216","694404","0.0-10.0-1.19","rx4ofmsh6m","many_one","0","direct_first","1","ff10er30","0","21","1","1","3","1","","0","1","0","null","","","<img src = 'category3/CS6.png' width = '100%;'>","null","","","","","","","","","",""
"","html-keyboard-response","217","694657","0.0-10.0-2.19","rx4ofmsh6m","many_one","0","direct_first","1","ff10er30","0","21","1","1","3","1","","0","1","0","null","","","<img src = 'targets/14.png' width = '100%;'>","null","","","","","","","","","",""
"","html-keyboard-response","218","695733","0.0-10.0-3.19","rx4ofmsh6m","many_one","0","direct_first","1","ff10er30","0","21","1","1","3","1","","0","1","0","1073","","","<img src = 'targets/mask.png' width = '100%;'>","68","neg","CS","CS","3","category3/CS6.png","","targets/14.png","indirect","0","19"
"","html-keyboard-response","219","697237","0.0-10.0-0.20","rx4ofmsh6m","many_one","0","direct_first","1","ff10er30","0","21","1","1","3","1","","0","1","0","null","","","<div style=""font-size:60px;"">+</div>","null","","","","","","","","","",""
"","html-keyboard-response","220","697330","0.0-10.0-1.20","rx4ofmsh6m","many_one","0","direct_first","1","ff10er30","0","21","1","1","3","1","","0","1","0","null","","","<img src = 'category4/CS1.png' width = '100%;'>","null","","","","","","","","","",""
"","html-keyboard-response","221","697584","0.0-10.0-2.20","rx4ofmsh6m","many_one","0","direct_first","1","ff10er30","0","21","1","1","3","1","","0","1","0","null","","","<img src = 'targets/34.png' width = '100%;'>","null","","","","","","","","","",""
"","html-keyboard-response","222","698445","0.0-10.0-3.20","rx4ofmsh6m","many_one","0","direct_first","1","ff10er30","0","21","1","1","3","1","","0","1","0","859","","","<img src = 'targets/mask.png' width = '100%;'>","75","neg","CS","CS","4","category4/CS1.png","","targets/34.png","indirect","1","20"
"","html-keyboard-response","223","699954","0.0-10.0-0.21","rx4ofmsh6m","many_one","0","direct_first","1","ff10er30","0","21","1","1","3","1","","0","1","0","null","","","<div style=""font-size:60px;"">+</div>","null","","","","","","","","","",""
"","html-keyboard-response","224","700046","0.0-10.0-1.21","rx4ofmsh6m","many_one","0","direct_first","1","ff10er30","0","21","1","1","3","1","","0","1","0","null","","","<img src = 'category4/CS6.png' width = '100%;'>","null","","","","","","","","","",""
"","html-keyboard-response","225","700300","0.0-10.0-2.21","rx4ofmsh6m","many_one","0","direct_first","1","ff10er30","0","21","1","1","3","1","","0","1","0","null","","","<img src = 'targets/24.png' width = '100%;'>","null","","","","","","","","","",""
"","html-keyboard-response","226","701021","0.0-10.0-3.21","rx4ofmsh6m","many_one","0","direct_first","1","ff10er30","0","21","1","1","3","1","","0","1","0","720","","","<img src = 'targets/mask.png' width = '100%;'>","68","neg","CS","CS","4","category4/CS6.png","","targets/24.png","indirect","0","21"
"","html-keyboard-response","227","702527","0.0-10.0-0.22","rx4ofmsh6m","many_one","0","direct_first","1","ff10er30","0","21","1","1","3","1","","0","1","0","null","","","<div style=""font-size:60px;"">+</div>","null","","","","","","","","","",""
"","html-keyboard-response","228","702623","0.0-10.0-1.22","rx4ofmsh6m","many_one","0","direct_first","1","ff10er30","0","21","1","1","3","1","","0","1","0","null","","","<img src = 'category1/CS2.png' width = '100%;'>","null","","","","","","","","","",""
"","html-keyboard-response","229","702878","0.0-10.0-2.22","rx4ofmsh6m","many_one","0","direct_first","1","ff10er30","0","21","1","1","3","1","","0","1","0","null","","","<img src = 'targets/15.png' width = '100%;'>","null","","","","","","","","","",""
"","html-keyboard-response","230","703882","0.0-10.0-3.22","rx4ofmsh6m","many_one","0","direct_first","1","ff10er30","0","21","1","1","3","1","","0","1","0","1000.9999999998836","","","<img src = 'targets/mask.png' width = '100%;'>","68","pos","CS","CS","1","category1/CS2.png","","targets/15.png","indirect","0","22"
"","html-keyboard-response","231","705388","0.0-10.0-0.23","rx4ofmsh6m","many_one","0","direct_first","1","ff10er30","0","21","1","1","3","1","","0","1","0","null","","","<div style=""font-size:60px;"">+</div>","null","","","","","","","","","",""
"","html-keyboard-response","232","705480","0.0-10.0-1.23","rx4ofmsh6m","many_one","0","direct_first","1","ff10er30","0","21","1","1","3","1","","0","1","0","null","","","<img src = 'category1/CS1.png' width = '100%;'>","null","","","","","","","","","",""
"","html-keyboard-response","233","705734","0.0-10.0-2.23","rx4ofmsh6m","many_one","0","direct_first","1","ff10er30","0","21","1","1","3","1","","0","1","0","null","","","<img src = 'targets/40.png' width = '100%;'>","null","","","","","","","","","",""
"","html-keyboard-response","234","706721","0.0-10.0-3.23","rx4ofmsh6m","many_one","0","direct_first","1","ff10er30","0","21","1","1","3","1","","0","1","0","985.0000000001164","","","<img src = 'targets/mask.png' width = '100%;'>","75","pos","GS","GSold","1","category1/CS1.png","","targets/40.png","indirect","1","23"
"","survey-html-form","235","709824","0.0-11.0","rx4ofmsh6m","many_one","0","direct_first","1","ff10er30","0","21","1","1","3","1","","0","1","0","2600","","{}","","","","","","","","","","","",""
"","html-keyboard-response","236","712827","0.0-12.0-0.0","rx4ofmsh6m","many_one","0","direct_first","1","ff10er30","0","21","1","1","3","1","","0","1","0","null","","","<div style=""font-size:60px;"">+</div>","null","","","","","","","","","",""
"","html-keyboard-response","237","712919","0.0-12.0-1.0","rx4ofmsh6m","many_one","0","direct_first","1","ff10er30","0","21","1","1","3","1","","0","1","0","null","","","<img src = 'category2/GS2.png' width = '100%;'>","null","","","","","","","","","",""
"","html-keyboard-response","238","713173","0.0-12.0-2.0","rx4ofmsh6m","many_one","0","direct_first","1","ff10er30","0","21","1","1","3","1","","0","1","0","null","","","<img src = 'targets/22.png' width = '100%;'>","null","","","","","","","","","",""
"","html-keyboard-response","239","714328","0.0-12.0-3.0","rx4ofmsh6m","many_one","0","direct_first","1","ff10er30","0","21","1","1","3","1","","0","1","0","1153","","","<img src = 'targets/mask.png' width = '100%;'>","68","pos","GS","GSnew","2","category2/GS2.png","","targets/22.png","indirect","0","24"
"","html-keyboard-response","240","715833","0.0-12.0-0.1","rx4ofmsh6m","many_one","0","direct_first","1","ff10er30","0","21","1","1","3","1","","0","1","0","null","","","<div style=""font-size:60px;"">+</div>","null","","","","","","","","","",""
"","html-keyboard-response","241","715927","0.0-12.0-1.1","rx4ofmsh6m","many_one","0","direct_first","1","ff10er30","0","21","1","1","3","1","","0","1","0","null","","","<img src = 'category2/CS9.png' width = '100%;'>","null","","","","","","","","","",""
"","html-keyboard-response","242","716183","0.0-12.0-2.1","rx4ofmsh6m","many_one","0","direct_first","1","ff10er30","0","21","1","1","3","1","","0","1","0","null","","","<img src = 'targets/28.png' width = '100%;'>","null","","","","","","","","","",""
"","html-keyboard-response","243","717053","0.0-12.0-3.1","rx4ofmsh6m","many_one","0","direct_first","1","ff10er30","0","21","1","1","3","1","","0","1","0","868.0000000001164","","","<img src = 'targets/mask.png' width = '100%;'>","75","pos","GS","GSold","2","category2/CS9.png","","targets/28.png","indirect","1","25"
"","html-keyboard-response","244","718560","0.0-12.0-0.2","rx4ofmsh6m","many_one","0","direct_first","1","ff10er30","0","21","1","1","3","1","","0","1","0","null","","","<div style=""font-size:60px;"">+</div>","null","","","","","","","","","",""
"","html-keyboard-response","245","718653","0.0-12.0-1.2","rx4ofmsh6m","many_one","0","direct_first","1","ff10er30","0","21","1","1","3","1","","0","1","0","null","","","<img src = 'category4/GS1.png' width = '100%;'>","null","","","","","","","","","",""
"","html-keyboard-response","246","718907","0.0-12.0-2.2","rx4ofmsh6m","many_one","0","direct_first","1","ff10er30","0","21","1","1","3","1","","0","1","0","null","","","<img src = 'targets/4.png' width = '100%;'>","null","","","","","","","","","",""
"","html-keyboard-response","247","719546","0.0-12.0-3.2","rx4ofmsh6m","many_one","0","direct_first","1","ff10er30","0","21","1","1","3","1","","0","1","0","638","","","<img src = 'targets/mask.png' width = '100%;'>","68","neg","GS","GSnew","4","category4/GS1.png","","targets/4.png","indirect","0","26"
"","html-keyboard-response","248","721051","0.0-12.0-0.3","rx4ofmsh6m","many_one","0","direct_first","1","ff10er30","0","21","1","1","3","1","","0","1","0","null","","","<div style=""font-size:60px;"">+</div>","null","","","","","","","","","",""
"","html-keyboard-response","249","721148","0.0-12.0-1.3","rx4ofmsh6m","many_one","0","direct_first","1","ff10er30","0","21","1","1","3","1","","0","1","0","null","","","<img src = 'category1/ma.png' width = '100%;'>","null","","","","","","","","","",""
"","html-keyboard-response","250","721402","0.0-12.0-2.3","rx4ofmsh6m","many_one","0","direct_first","1","ff10er30","0","21","1","1","3","1","","0","1","0","null","","","<img src = 'targets/25.png' width = '100%;'>","null","","","","","","","","","",""
"","html-keyboard-response","251","721871","0.0-12.0-3.3","rx4ofmsh6m","many_one","0","direct_first","1","ff10er30","0","21","1","1","3","1","","0","1","0","466.9999999998836","","","<img src = 'targets/mask.png' width = '100%;'>","68","pos","GS","abstract","1","category1/ma.png","","targets/25.png","indirect","0","27"
"","html-keyboard-response","252","723375","0.0-12.0-0.4","rx4ofmsh6m","many_one","0","direct_first","1","ff10er30","0","21","1","1","3","1","","0","1","0","null","","","<div style=""font-size:60px;"">+</div>","null","","","","","","","","","",""
"","html-keyboard-response","253","723470","0.0-12.0-1.4","rx4ofmsh6m","many_one","0","direct_first","1","ff10er30","0","21","1","1","3","1","","0","1","0","null","","","<img src = 'category2/GS3.png' width = '100%;'>","null","","","","","","","","","",""
"","html-keyboard-response","254","723725","0.0-12.0-2.4","rx4ofmsh6m","many_one","0","direct_first","1","ff10er30","0","21","1","1","3","1","","0","1","0","null","","","<img src = 'targets/39.png' width = '100%;'>","null","","","","","","","","","",""
"","html-keyboard-response","255","724316","0.0-12.0-3.4","rx4ofmsh6m","many_one","0","direct_first","1","ff10er30","0","21","1","1","3","1","","0","1","0","589","","","<img src = 'targets/mask.png' width = '100%;'>","68","pos","GS","GSnew","2","category2/GS3.png","","targets/39.png","indirect","0","28"
"","html-keyboard-response","256","725822","0.0-12.0-0.5","rx4ofmsh6m","many_one","0","direct_first","1","ff10er30","0","21","1","1","3","1","","0","1","0","null","","","<div style=""font-size:60px;"">+</div>","null","","","","","","","","","",""
"","html-keyboard-response","257","725915","0.0-12.0-1.5","rx4ofmsh6m","many_one","0","direct_first","1","ff10er30","0","21","1","1","3","1","","0","1","0","null","","","<img src = 'category3/GS1.png' width = '100%;'>","null","","","","","","","","","",""
"","html-keyboard-response","258","726170","0.0-12.0-2.5","rx4ofmsh6m","many_one","0","direct_first","1","ff10er30","0","21","1","1","3","1","","0","1","0","null","","","<img src = 'targets/41.png' width = '100%;'>","null","","","","","","","","","",""
"","html-keyboard-response","259","726655","0.0-12.0-3.5","rx4ofmsh6m","many_one","0","direct_first","1","ff10er30","0","21","1","1","3","1","","0","1","0","484","","","<img src = 'targets/mask.png' width = '100%;'>","75","neg","GS","GSnew","3","category3/GS1.png","","targets/41.png","indirect","1","29"
"","html-keyboard-response","260","728160","0.0-12.0-0.6","rx4ofmsh6m","many_one","0","direct_first","1","ff10er30","0","21","1","1","3","1","","0","1","0","null","","","<div style=""font-size:60px;"">+</div>","null","","","","","","","","","",""
"","html-keyboard-response","261","728255","0.0-12.0-1.6","rx4ofmsh6m","many_one","0","direct_first","1","ff10er30","0","21","1","1","3","1","","0","1","0","null","","","<img src = 'category4/lin.png' width = '100%;'>","null","","","","","","","","","",""
"","html-keyboard-response","262","728510","0.0-12.0-2.6","rx4ofmsh6m","many_one","0","direct_first","1","ff10er30","0","21","1","1","3","1","","0","1","0","null","","","<img src = 'targets/16.png' width = '100%;'>","null","","","","","","","","","",""
"","html-keyboard-response","263","728962","0.0-12.0-3.6","rx4ofmsh6m","many_one","0","direct_first","1","ff10er30","0","21","1","1","3","1","","0","1","0","451","","","<img src = 'targets/mask.png' width = '100%;'>","68","neg","GS","abstract","4","category4/lin.png","","targets/16.png","indirect","0","30"
"","html-keyboard-response","264","730466","0.0-12.0-0.7","rx4ofmsh6m","many_one","0","direct_first","1","ff10er30","0","21","1","1","3","1","","0","1","0","null","","","<div style=""font-size:60px;"">+</div>","null","","","","","","","","","",""
"","html-keyboard-response","265","730559","0.0-12.0-1.7","rx4ofmsh6m","many_one","0","direct_first","1","ff10er30","0","21","1","1","3","1","","0","1","0","null","","","<img src = 'category2/men.png' width = '100%;'>","null","","","","","","","","","",""
"","html-keyboard-response","266","730817","0.0-12.0-2.7","rx4ofmsh6m","many_one","0","direct_first","1","ff10er30","0","21","1","1","3","1","","0","1","0","null","","","<img src = 'targets/8.png' width = '100%;'>","null","","","","","","","","","",""
"","html-keyboard-response","267","731756","0.0-12.0-3.7","rx4ofmsh6m","many_one","0","direct_first","1","ff10er30","0","21","1","1","3","1","","0","1","0","937","","","<img src = 'targets/mask.png' width = '100%;'>","75","pos","GS","abstract","2","category2/men.png","","targets/8.png","indirect","1","31"
"","html-keyboard-response","268","733260","0.0-12.0-0.8","rx4ofmsh6m","many_one","0","direct_first","1","ff10er30","0","21","1","1","3","1","","0","1","0","null","","","<div style=""font-size:60px;"">+</div>","null","","","","","","","","","",""
"","html-keyboard-response","269","733355","0.0-12.0-1.8","rx4ofmsh6m","many_one","0","direct_first","1","ff10er30","0","21","1","1","3","1","","0","1","0","null","","","<img src = 'category3/CS8.png' width = '100%;'>","null","","","","","","","","","",""
"","html-keyboard-response","270","733610","0.0-12.0-2.8","rx4ofmsh6m","many_one","0","direct_first","1","ff10er30","0","21","1","1","3","1","","0","1","0","null","","","<img src = 'targets/2.png' width = '100%;'>","null","","","","","","","","","",""
"","html-keyboard-response","271","734635","0.0-12.0-3.8","rx4ofmsh6m","many_one","0","direct_first","1","ff10er30","0","21","1","1","3","1","","0","1","0","1023","","","<img src = 'targets/mask.png' width = '100%;'>","75","neg","GS","GSold","3","category3/CS8.png","","targets/2.png","indirect","1","32"
"","html-keyboard-response","272","736142","0.0-12.0-0.9","rx4ofmsh6m","many_one","0","direct_first","1","ff10er30","0","21","1","1","3","1","","0","1","0","null","","","<div style=""font-size:60px;"">+</div>","null","","","","","","","","","",""
"","html-keyboard-response","273","736235","0.0-12.0-1.9","rx4ofmsh6m","many_one","0","direct_first","1","ff10er30","0","21","1","1","3","1","","0","1","0","null","","","<img src = 'category1/GS2.png' width = '100%;'>","null","","","","","","","","","",""
"","html-keyboard-response","274","736492","0.0-12.0-2.9","rx4ofmsh6m","many_one","0","direct_first","1","ff10er30","0","21","1","1","3","1","","0","1","0","null","","","<img src = 'targets/5.png' width = '100%;'>","null","","","","","","","","","",""
"","html-keyboard-response","275","736989","0.0-12.0-3.9","rx4ofmsh6m","many_one","0","direct_first","1","ff10er30","0","21","1","1","3","1","","0","1","0","493.9999999998836","","","<img src = 'targets/mask.png' width = '100%;'>","68","pos","GS","GSnew","1","category1/GS2.png","","targets/5.png","indirect","0","33"
"","html-keyboard-response","276","738493","0.0-12.0-0.10","rx4ofmsh6m","many_one","0","direct_first","1","ff10er30","0","21","1","1","3","1","","0","1","0","null","","","<div style=""font-size:60px;"">+</div>","null","","","","","","","","","",""
"","html-keyboard-response","277","738586","0.0-12.0-1.10","rx4ofmsh6m","many_one","0","direct_first","1","ff10er30","0","21","1","1","3","1","","0","1","0","null","","","<img src = 'category1/GS1.png' width = '100%;'>","null","","","","","","","","","",""
"","html-keyboard-response","278","738839","0.0-12.0-2.10","rx4ofmsh6m","many_one","0","direct_first","1","ff10er30","0","21","1","1","3","1","","0","1","0","null","","","<img src = 'targets/35.png' width = '100%;'>","null","","","","","","","","","",""
"","html-keyboard-response","279","739355","0.0-12.0-3.10","rx4ofmsh6m","many_one","0","direct_first","1","ff10er30","0","21","1","1","3","1","","0","1","0","514.0000000001164","","","<img src = 'targets/mask.png' width = '100%;'>","68","pos","GS","GSnew","1","category1/GS1.png","","targets/35.png","indirect","0","34"
"","html-keyboard-response","280","740861","0.0-12.0-0.11","rx4ofmsh6m","many_one","0","direct_first","1","ff10er30","0","21","1","1","3","1","","0","1","0","null","","","<div style=""font-size:60px;"">+</div>","null","","","","","","","","","",""
"","html-keyboard-response","281","740956","0.0-12.0-1.11","rx4ofmsh6m","many_one","0","direct_first","1","ff10er30","0","21","1","1","3","1","","0","1","0","null","","","<img src = 'category4/GS3.png' width = '100%;'>","null","","","","","","","","","",""
"","html-keyboard-response","282","741209","0.0-12.0-2.11","rx4ofmsh6m","many_one","0","direct_first","1","ff10er30","0","21","1","1","3","1","","0","1","0","null","","","<img src = 'targets/1.png' width = '100%;'>","null","","","","","","","","","",""
"","html-keyboard-response","283","741778","0.0-12.0-3.11","rx4ofmsh6m","many_one","0","direct_first","1","ff10er30","0","21","1","1","3","1","","0","1","0","568.0000000001164","","","<img src = 'targets/mask.png' width = '100%;'>","75","neg","GS","GSnew","4","category4/GS3.png","","targets/1.png","indirect","1","35"
"","html-keyboard-response","284","743283","0.0-12.0-0.12","rx4ofmsh6m","many_one","0","direct_first","1","ff10er30","0","21","1","1","3","1","","0","1","0","null","","","<div style=""font-size:60px;"">+</div>","null","","","","","","","","","",""
"","html-keyboard-response","285","743376","0.0-12.0-1.12","rx4ofmsh6m","many_one","0","direct_first","1","ff10er30","0","21","1","1","3","1","","0","1","0","null","","","<img src = 'category1/GS3.png' width = '100%;'>","null","","","","","","","","","",""
"","html-keyboard-response","286","743634","0.0-12.0-2.12","rx4ofmsh6m","many_one","0","direct_first","1","ff10er30","0","21","1","1","3","1","","0","1","0","null","","","<img src = 'targets/46.png' width = '100%;'>","null","","","","","","","","","",""
"","html-keyboard-response","287","744095","0.0-12.0-3.12","rx4ofmsh6m","many_one","0","direct_first","1","ff10er30","0","21","1","1","3","1","","0","1","0","459.0000000001164","","","<img src = 'targets/mask.png' width = '100%;'>","68","pos","GS","GSnew","1","category1/GS3.png","","targets/46.png","indirect","0","36"
"","html-keyboard-response","288","745599","0.0-12.0-0.13","rx4ofmsh6m","many_one","0","direct_first","1","ff10er30","0","21","1","1","3","1","","0","1","0","null","","","<div style=""font-size:60px;"">+</div>","null","","","","","","","","","",""
"","html-keyboard-response","289","745693","0.0-12.0-1.13","rx4ofmsh6m","many_one","0","direct_first","1","ff10er30","0","21","1","1","3","1","","0","1","0","null","","","<img src = 'category2/CS8.png' width = '100%;'>","null","","","","","","","","","",""
"","html-keyboard-response","290","745947","0.0-12.0-2.13","rx4ofmsh6m","many_one","0","direct_first","1","ff10er30","0","21","1","1","3","1","","0","1","0","null","","","<img src = 'targets/23.png' width = '100%;'>","null","","","","","","","","","",""
"","html-keyboard-response","291","746374","0.0-12.0-3.13","rx4ofmsh6m","many_one","0","direct_first","1","ff10er30","0","21","1","1","3","1","","0","1","0","426.0000000001164","","","<img src = 'targets/mask.png' width = '100%;'>","75","pos","GS","GSold","2","category2/CS8.png","","targets/23.png","indirect","1","37"
"","html-keyboard-response","292","747879","0.0-12.0-0.14","rx4ofmsh6m","many_one","0","direct_first","1","ff10er30","0","21","1","1","3","1","","0","1","0","null","","","<div style=""font-size:60px;"">+</div>","null","","","","","","","","","",""
"","html-keyboard-response","293","747972","0.0-12.0-1.14","rx4ofmsh6m","many_one","0","direct_first","1","ff10er30","0","21","1","1","3","1","","0","1","0","null","","","<img src = 'category3/GS2.png' width = '100%;'>","null","","","","","","","","","",""
"","html-keyboard-response","294","748228","0.0-12.0-2.14","rx4ofmsh6m","many_one","0","direct_first","1","ff10er30","0","21","1","1","3","1","","0","1","0","null","","","<img src = 'targets/17.png' width = '100%;'>","null","","","","","","","","","",""
"","html-keyboard-response","295","748637","0.0-12.0-3.14","rx4ofmsh6m","many_one","0","direct_first","1","ff10er30","0","21","1","1","3","1","","0","1","0","406.9999999998836","","","<img src = 'targets/mask.png' width = '100%;'>","68","neg","GS","GSnew","3","category3/GS2.png","","targets/17.png","indirect","0","38"
"","html-keyboard-response","296","750142","0.0-12.0-0.15","rx4ofmsh6m","many_one","0","direct_first","1","ff10er30","0","21","1","1","3","1","","0","1","0","null","","","<div style=""font-size:60px;"">+</div>","null","","","","","","","","","",""
"","html-keyboard-response","297","750234","0.0-12.0-1.15","rx4ofmsh6m","many_one","0","direct_first","1","ff10er30","0","21","1","1","3","1","","0","1","0","null","","","<img src = 'category4/GS2.png' width = '100%;'>","null","","","","","","","","","",""
"","html-keyboard-response","298","750490","0.0-12.0-2.15","rx4ofmsh6m","many_one","0","direct_first","1","ff10er30","0","21","1","1","3","1","","0","1","0","null","","","<img src = 'targets/30.png' width = '100%;'>","null","","","","","","","","","",""
"","html-keyboard-response","299","751484","0.0-12.0-3.15","rx4ofmsh6m","many_one","0","direct_first","1","ff10er30","0","21","1","1","3","1","","0","1","0","992","","","<img src = 'targets/mask.png' width = '100%;'>","68","neg","GS","GSnew","4","category4/GS2.png","","targets/30.png","indirect","0","39"
"","html-keyboard-response","300","752990","0.0-12.0-0.16","rx4ofmsh6m","many_one","0","direct_first","1","ff10er30","0","21","1","1","3","1","","0","1","0","null","","","<div style=""font-size:60px;"">+</div>","null","","","","","","","","","",""
"","html-keyboard-response","301","753083","0.0-12.0-1.16","rx4ofmsh6m","many_one","0","direct_first","1","ff10er30","0","21","1","1","3","1","","0","1","0","null","","","<img src = 'category3/CS3.png' width = '100%;'>","null","","","","","","","","","",""
"","html-keyboard-response","302","753336","0.0-12.0-2.16","rx4ofmsh6m","many_one","0","direct_first","1","ff10er30","0","21","1","1","3","1","","0","1","0","null","","","<img src = 'targets/11.png' width = '100%;'>","null","","","","","","","","","",""
"","html-keyboard-response","303","754309","0.0-12.0-3.16","rx4ofmsh6m","many_one","0","direct_first","1","ff10er30","0","21","1","1","3","1","","0","1","0","971","","","<img src = 'targets/mask.png' width = '100%;'>","75","neg","GS","GSold","3","category3/CS3.png","","targets/11.png","indirect","1","40"
"","html-keyboard-response","304","755813","0.0-12.0-0.17","rx4ofmsh6m","many_one","0","direct_first","1","ff10er30","0","21","1","1","3","1","","0","1","0","null","","","<div style=""font-size:60px;"">+</div>","null","","","","","","","","","",""
"","html-keyboard-response","305","755906","0.0-12.0-1.17","rx4ofmsh6m","many_one","0","direct_first","1","ff10er30","0","21","1","1","3","1","","0","1","0","null","","","<img src = 'category1/CS7.png' width = '100%;'>","null","","","","","","","","","",""
"","html-keyboard-response","306","756160","0.0-12.0-2.17","rx4ofmsh6m","many_one","0","direct_first","1","ff10er30","0","21","1","1","3","1","","0","1","0","null","","","<img src = 'targets/18.png' width = '100%;'>","null","","","","","","","","","",""
"","html-keyboard-response","307","756542","0.0-12.0-3.17","rx4ofmsh6m","many_one","0","direct_first","1","ff10er30","0","21","1","1","3","1","","0","1","0","380","","","<img src = 'targets/mask.png' width = '100%;'>","68","pos","GS","GSold","1","category1/CS7.png","","targets/18.png","indirect","0","41"
"","html-keyboard-response","308","758048","0.0-12.0-0.18","rx4ofmsh6m","many_one","0","direct_first","1","ff10er30","0","21","1","1","3","1","","0","1","0","null","","","<div style=""font-size:60px;"">+</div>","null","","","","","","","","","",""
"","html-keyboard-response","309","758140","0.0-12.0-1.18","rx4ofmsh6m","many_one","0","direct_first","1","ff10er30","0","21","1","1","3","1","","0","1","0","null","","","<img src = 'category3/CS9.png' width = '100%;'>","null","","","","","","","","","",""
"","html-keyboard-response","310","758396","0.0-12.0-2.18","rx4ofmsh6m","many_one","0","direct_first","1","ff10er30","0","21","1","1","3","1","","0","1","0","null","","","<img src = 'targets/44.png' width = '100%;'>","null","","","","","","","","","",""
"","html-keyboard-response","311","758848","0.0-12.0-3.18","rx4ofmsh6m","many_one","0","direct_first","1","ff10er30","0","21","1","1","3","1","","0","1","0","449.9999999998836","","","<img src = 'targets/mask.png' width = '100%;'>","68","neg","GS","GSold","3","category3/CS9.png","","targets/44.png","indirect","0","42"
"","html-keyboard-response","312","760351","0.0-12.0-0.19","rx4ofmsh6m","many_one","0","direct_first","1","ff10er30","0","21","1","1","3","1","","0","1","0","null","","","<div style=""font-size:60px;"">+</div>","null","","","","","","","","","",""
"","html-keyboard-response","313","760444","0.0-12.0-1.19","rx4ofmsh6m","many_one","0","direct_first","1","ff10er30","0","21","1","1","3","1","","0","1","0","null","","","<img src = 'category2/GS1.png' width = '100%;'>","null","","","","","","","","","",""
"","html-keyboard-response","314","760698","0.0-12.0-2.19","rx4ofmsh6m","many_one","0","direct_first","1","ff10er30","0","21","1","1","3","1","","0","1","0","null","","","<img src = 'targets/26.png' width = '100%;'>","null","","","","","","","","","",""
"","html-keyboard-response","315","761566","0.0-12.0-3.19","rx4ofmsh6m","many_one","0","direct_first","1","ff10er30","0","21","1","1","3","1","","0","1","0","866","","","<img src = 'targets/mask.png' width = '100%;'>","75","pos","GS","GSnew","2","category2/GS1.png","","targets/26.png","indirect","1","43"
"","html-keyboard-response","316","763072","0.0-12.0-0.20","rx4ofmsh6m","many_one","0","direct_first","1","ff10er30","0","21","1","1","3","1","","0","1","0","null","","","<div style=""font-size:60px;"">+</div>","null","","","","","","","","","",""
"","html-keyboard-response","317","763164","0.0-12.0-1.20","rx4ofmsh6m","many_one","0","direct_first","1","ff10er30","0","21","1","1","3","1","","0","1","0","null","","","<img src = 'category3/GS3.png' width = '100%;'>","null","","","","","","","","","",""
"","html-keyboard-response","318","763416","0.0-12.0-2.20","rx4ofmsh6m","many_one","0","direct_first","1","ff10er30","0","21","1","1","3","1","","0","1","0","null","","","<img src = 'targets/31.png' width = '100%;'>","null","","","","","","","","","",""
"","html-keyboard-response","319","764444","0.0-12.0-3.20","rx4ofmsh6m","many_one","0","direct_first","1","ff10er30","0","21","1","1","3","1","","0","1","0","1027","","","<img src = 'targets/mask.png' width = '100%;'>","68","neg","GS","GSnew","3","category3/GS3.png","","targets/31.png","indirect","0","44"
"","html-keyboard-response","320","765950","0.0-12.0-0.21","rx4ofmsh6m","many_one","0","direct_first","1","ff10er30","0","21","1","1","3","1","","0","1","0","null","","","<div style=""font-size:60px;"">+</div>","null","","","","","","","","","",""
"","html-keyboard-response","321","766045","0.0-12.0-1.21","rx4ofmsh6m","many_one","0","direct_first","1","ff10er30","0","21","1","1","3","1","","0","1","0","null","","","<img src = 'category1/CS3.png' width = '100%;'>","null","","","","","","","","","",""
"","html-keyboard-response","322","766299","0.0-12.0-2.21","rx4ofmsh6m","many_one","0","direct_first","1","ff10er30","0","21","1","1","3","1","","0","1","0","null","","","<img src = 'targets/12.png' width = '100%;'>","null","","","","","","","","","",""
"","html-keyboard-response","323","767317","0.0-12.0-3.21","rx4ofmsh6m","many_one","0","direct_first","1","ff10er30","0","21","1","1","3","1","","0","1","0","1017","","","<img src = 'targets/mask.png' width = '100%;'>","75","pos","GS","GSold","1","category1/CS3.png","","targets/12.png","indirect","1","45"
"","html-keyboard-response","324","768821","0.0-12.0-0.22","rx4ofmsh6m","many_one","0","direct_first","1","ff10er30","0","21","1","1","3","1","","0","1","0","null","","","<div style=""font-size:60px;"">+</div>","null","","","","","","","","","",""
"","html-keyboard-response","325","768915","0.0-12.0-1.22","rx4ofmsh6m","many_one","0","direct_first","1","ff10er30","0","21","1","1","3","1","","0","1","0","null","","","<img src = 'category3/wang.png' width = '100%;'>","null","","","","","","","","","",""
"","html-keyboard-response","326","769169","0.0-12.0-2.22","rx4ofmsh6m","many_one","0","direct_first","1","ff10er30","0","21","1","1","3","1","","0","1","0","null","","","<img src = 'targets/43.png' width = '100%;'>","null","","","","","","","","","",""
"","html-keyboard-response","327","769719","0.0-12.0-3.22","rx4ofmsh6m","many_one","0","direct_first","1","ff10er30","0","21","1","1","3","1","","0","1","0","548","","","<img src = 'targets/mask.png' width = '100%;'>","68","neg","GS","abstract","3","category3/wang.png","","targets/43.png","indirect","0","46"
"","html-keyboard-response","328","771226","0.0-12.0-0.23","rx4ofmsh6m","many_one","0","direct_first","1","ff10er30","0","21","1","1","3","1","","0","1","0","null","","","<div style=""font-size:60px;"">+</div>","null","","","","","","","","","",""
"","html-keyboard-response","329","771319","0.0-12.0-1.23","rx4ofmsh6m","many_one","0","direct_first","1","ff10er30","0","21","1","1","3","1","","0","1","0","null","","","<img src = 'category2/CS7.png' width = '100%;'>","null","","","","","","","","","",""
"","html-keyboard-response","330","771573","0.0-12.0-2.23","rx4ofmsh6m","many_one","0","direct_first","1","ff10er30","0","21","1","1","3","1","","0","1","0","null","","","<img src = 'targets/7.png' width = '100%;'>","null","","","","","","","","","",""
