"success","trial_type","trial_index","time_elapsed","internal_node_id","subject","condition","condition_code","measure","measure_code","codeword","gender","age","education","chinese","fach","handedness","rt","url","responses","stimulus","key_press","val","type","type_specific","category","cs_selected","response","target","task","indirect","nr_pres"
"true","fullscreen","0","2232","0.0-0.0","c3vdbdcgob","one_one","1","direct_first","1","ke08en03","0","18","1","1","1","1","","","","","","","","","","","","","","",""
"","external-html","1","18039","0.0-1.0","c3vdbdcgob","one_one","1","direct_first","1","ke08en03","0","18","1","1","1","1","15793","text/information.html","","","","","","","","","","","","",""
"","external-html","2","33886","0.0-2.0","c3vdbdcgob","one_one","1","direct_first","1","ke08en03","0","18","1","1","1","1","15833","text/consent.html","","","","","","","","","","","","",""
"","survey-html-form","3","93364","0.0-3.0","c3vdbdcgob","one_one","1","direct_first","1","ke08en03","0","18","1","1","1","1","59478","","{""codeword_enter"":""ke08en03""}","","","","","","","","","","","",""
"","survey-html-form","4","110934","0.0-4.0","c3vdbdcgob","one_one","1","direct_first","1","ke08en03","0","18","1","1","1","1","17568","","{""age"":""18"",""education"":""1"",""subject"":""1"",""gender"":""0"",""handedness"":""1"",""chinese"":""1""}","","","","","","","","","","","",""
"","survey-html-form","5","142804","0.0-5.0","c3vdbdcgob","one_one","1","direct_first","1","ke08en03","0","18","1","1","1","1","31870","","{}","","","","","","","","","","","",""
"","html-keyboard-response","6","146831","0.0-6.0-0.0-0.0","c3vdbdcgob","one_one","1","direct_first","1","ke08en03","0","18","1","1","1","1","null","","","<div class = 'row'><div class = 'column'><img src = 'category3/CS1.png' width = '70%;'></div><div class = 'column'><img src = 'usneg/7380.bmp' width = '100%;'></div></div>","null","neg","CS","CS","3","category3/CS1.png","","","","",""
"","html-keyboard-response","7","149370","0.0-6.0-0.0-0.1","c3vdbdcgob","one_one","1","direct_first","1","ke08en03","0","18","1","1","1","1","null","","","<div class = 'row'><div class = 'column'><img src = 'category1/CS10.png' width = '70%;'></div><div class = 'column'><img src = 'uspos/5760.bmp' width = '100%;'></div></div>","null","pos","CS","CS","1","category1/CS10.png","","","","",""
"","html-keyboard-response","8","151901","0.0-6.0-0.0-0.2","c3vdbdcgob","one_one","1","direct_first","1","ke08en03","0","18","1","1","1","1","null","","","<div class = 'row'><div class = 'column'><img src = 'usneg/9561.bmp' width = '100%;'></div><div class = 'column'><img src = 'category4/CS9.png' width = '70%;'></div></div>","null","neg","CS","CS","4","category4/CS9.png","","","","",""
"","html-keyboard-response","9","154439","0.0-6.0-0.0-0.3","c3vdbdcgob","one_one","1","direct_first","1","ke08en03","0","18","1","1","1","1","null","","","<div class = 'row'><div class = 'column'><img src = 'usneg/7380.bmp' width = '100%;'></div><div class = 'column'><img src = 'category3/CS1.png' width = '70%;'></div></div>","null","neg","CS","CS","3","category3/CS1.png","","","","",""
"","html-keyboard-response","10","156980","0.0-6.0-0.0-0.4","c3vdbdcgob","one_one","1","direct_first","1","ke08en03","0","18","1","1","1","1","null","","","<div class = 'row'><div class = 'column'><img src = 'uspos/1440.bmp' width = '100%;'></div><div class = 'column'><img src = 'category2/CS9.png' width = '70%;'></div></div>","null","pos","CS","CS","2","category2/CS9.png","","","","",""
"","html-keyboard-response","11","159520","0.0-6.0-0.0-0.5","c3vdbdcgob","one_one","1","direct_first","1","ke08en03","0","18","1","1","1","1","null","","","<div class = 'row'><div class = 'column'><img src = 'uspos/5760.bmp' width = '100%;'></div><div class = 'column'><img src = 'category1/CS10.png' width = '70%;'></div></div>","null","pos","CS","CS","1","category1/CS10.png","","","","",""
"","html-keyboard-response","12","162059","0.0-6.0-0.0-0.6","c3vdbdcgob","one_one","1","direct_first","1","ke08en03","0","18","1","1","1","1","null","","","<div class = 'row'><div class = 'column'><img src = 'usneg/9561.bmp' width = '100%;'></div><div class = 'column'><img src = 'category4/CS9.png' width = '70%;'></div></div>","null","neg","CS","CS","4","category4/CS9.png","","","","",""
"","html-keyboard-response","13","164588","0.0-6.0-0.0-0.7","c3vdbdcgob","one_one","1","direct_first","1","ke08en03","0","18","1","1","1","1","null","","","<div class = 'row'><div class = 'column'><img src = 'category2/CS9.png' width = '70%;'></div><div class = 'column'><img src = 'uspos/1440.bmp' width = '100%;'></div></div>","null","pos","CS","CS","2","category2/CS9.png","","","","",""
"","html-keyboard-response","14","167119","0.0-6.0-0.0-0.8","c3vdbdcgob","one_one","1","direct_first","1","ke08en03","0","18","1","1","1","1","null","","","<div class = 'row'><div class = 'column'><img src = 'category4/CS9.png' width = '70%;'></div><div class = 'column'><img src = 'usneg/9561.bmp' width = '100%;'></div></div>","null","neg","CS","CS","4","category4/CS9.png","","","","",""
"","html-keyboard-response","15","169659","0.0-6.0-0.0-0.9","c3vdbdcgob","one_one","1","direct_first","1","ke08en03","0","18","1","1","1","1","null","","","<div class = 'row'><div class = 'column'><img src = 'usneg/7380.bmp' width = '100%;'></div><div class = 'column'><img src = 'category3/CS1.png' width = '70%;'></div></div>","null","neg","CS","CS","3","category3/CS1.png","","","","",""
"","html-keyboard-response","16","172200","0.0-6.0-0.0-0.10","c3vdbdcgob","one_one","1","direct_first","1","ke08en03","0","18","1","1","1","1","null","","","<div class = 'row'><div class = 'column'><img src = 'uspos/1440.bmp' width = '100%;'></div><div class = 'column'><img src = 'category2/CS9.png' width = '70%;'></div></div>","null","pos","CS","CS","2","category2/CS9.png","","","","",""
"","html-keyboard-response","17","174739","0.0-6.0-0.0-0.11","c3vdbdcgob","one_one","1","direct_first","1","ke08en03","0","18","1","1","1","1","null","","","<div class = 'row'><div class = 'column'><img src = 'category4/CS9.png' width = '70%;'></div><div class = 'column'><img src = 'usneg/9561.bmp' width = '100%;'></div></div>","null","neg","CS","CS","4","category4/CS9.png","","","","",""
"","html-keyboard-response","18","177259","0.0-6.0-0.0-0.12","c3vdbdcgob","one_one","1","direct_first","1","ke08en03","0","18","1","1","1","1","null","","","<div class = 'row'><div class = 'column'><img src = 'uspos/1440.bmp' width = '100%;'></div><div class = 'column'><img src = 'category2/CS9.png' width = '70%;'></div></div>","null","pos","CS","CS","2","category2/CS9.png","","","","",""
"","html-keyboard-response","19","179799","0.0-6.0-0.0-0.13","c3vdbdcgob","one_one","1","direct_first","1","ke08en03","0","18","1","1","1","1","null","","","<div class = 'row'><div class = 'column'><img src = 'category3/CS1.png' width = '70%;'></div><div class = 'column'><img src = 'usneg/7380.bmp' width = '100%;'></div></div>","null","neg","CS","CS","3","category3/CS1.png","","","","",""
"","html-keyboard-response","20","182339","0.0-6.0-0.0-0.14","c3vdbdcgob","one_one","1","direct_first","1","ke08en03","0","18","1","1","1","1","null","","","<div class = 'row'><div class = 'column'><img src = 'category1/CS10.png' width = '70%;'></div><div class = 'column'><img src = 'uspos/5760.bmp' width = '100%;'></div></div>","null","pos","CS","CS","1","category1/CS10.png","","","","",""
"","html-keyboard-response","21","184878","0.0-6.0-0.0-0.15","c3vdbdcgob","one_one","1","direct_first","1","ke08en03","0","18","1","1","1","1","null","","","<div class = 'row'><div class = 'column'><img src = 'category4/CS9.png' width = '70%;'></div><div class = 'column'><img src = 'usneg/9561.bmp' width = '100%;'></div></div>","null","neg","CS","CS","4","category4/CS9.png","","","","",""
"","html-keyboard-response","22","187418","0.0-6.0-0.0-0.16","c3vdbdcgob","one_one","1","direct_first","1","ke08en03","0","18","1","1","1","1","null","","","<div class = 'row'><div class = 'column'><img src = 'category3/CS1.png' width = '70%;'></div><div class = 'column'><img src = 'usneg/7380.bmp' width = '100%;'></div></div>","null","neg","CS","CS","3","category3/CS1.png","","","","",""
"","html-keyboard-response","23","189939","0.0-6.0-0.0-0.17","c3vdbdcgob","one_one","1","direct_first","1","ke08en03","0","18","1","1","1","1","null","","","<div class = 'row'><div class = 'column'><img src = 'category1/CS10.png' width = '70%;'></div><div class = 'column'><img src = 'uspos/5760.bmp' width = '100%;'></div></div>","null","pos","CS","CS","1","category1/CS10.png","","","","",""
"","html-keyboard-response","24","192478","0.0-6.0-0.0-0.18","c3vdbdcgob","one_one","1","direct_first","1","ke08en03","0","18","1","1","1","1","null","","","<div class = 'row'><div class = 'column'><img src = 'category2/CS9.png' width = '70%;'></div><div class = 'column'><img src = 'uspos/1440.bmp' width = '100%;'></div></div>","null","pos","CS","CS","2","category2/CS9.png","","","","",""
"","html-keyboard-response","25","195009","0.0-6.0-0.0-0.19","c3vdbdcgob","one_one","1","direct_first","1","ke08en03","0","18","1","1","1","1","null","","","<div class = 'row'><div class = 'column'><img src = 'uspos/5760.bmp' width = '100%;'></div><div class = 'column'><img src = 'category1/CS10.png' width = '70%;'></div></div>","null","pos","CS","CS","1","category1/CS10.png","","","","",""
"","survey-html-form","26","204681","0.0-6.0-1.0","c3vdbdcgob","one_one","1","direct_first","1","ke08en03","0","18","1","1","1","1","9152","","{}","","","","","","","","","","","",""
"","html-keyboard-response","27","208708","0.0-6.0-2.0-0.0","c3vdbdcgob","one_one","1","direct_first","1","ke08en03","0","18","1","1","1","1","null","","","<div class = 'row'><div class = 'column'><img src = 'usneg/7380.bmp' width = '100%;'></div><div class = 'column'><img src = 'category3/CS1.png' width = '70%;'></div></div>","null","neg","CS","CS","3","category3/CS1.png","","","","",""
"","html-keyboard-response","28","211248","0.0-6.0-2.0-0.1","c3vdbdcgob","one_one","1","direct_first","1","ke08en03","0","18","1","1","1","1","null","","","<div class = 'row'><div class = 'column'><img src = 'uspos/5760.bmp' width = '100%;'></div><div class = 'column'><img src = 'category1/CS10.png' width = '70%;'></div></div>","null","pos","CS","CS","1","category1/CS10.png","","","","",""
"","html-keyboard-response","29","213778","0.0-6.0-2.0-0.2","c3vdbdcgob","one_one","1","direct_first","1","ke08en03","0","18","1","1","1","1","null","","","<div class = 'row'><div class = 'column'><img src = 'category4/CS9.png' width = '70%;'></div><div class = 'column'><img src = 'usneg/9561.bmp' width = '100%;'></div></div>","null","neg","CS","CS","4","category4/CS9.png","","","","",""
"","html-keyboard-response","30","216318","0.0-6.0-2.0-0.3","c3vdbdcgob","one_one","1","direct_first","1","ke08en03","0","18","1","1","1","1","null","","","<div class = 'row'><div class = 'column'><img src = 'category1/CS10.png' width = '70%;'></div><div class = 'column'><img src = 'uspos/5760.bmp' width = '100%;'></div></div>","null","pos","CS","CS","1","category1/CS10.png","","","","",""
"","html-keyboard-response","31","218838","0.0-6.0-2.0-0.4","c3vdbdcgob","one_one","1","direct_first","1","ke08en03","0","18","1","1","1","1","null","","","<div class = 'row'><div class = 'column'><img src = 'category4/CS9.png' width = '70%;'></div><div class = 'column'><img src = 'usneg/9561.bmp' width = '100%;'></div></div>","null","neg","CS","CS","4","category4/CS9.png","","","","",""
"","html-keyboard-response","32","221378","0.0-6.0-2.0-0.5","c3vdbdcgob","one_one","1","direct_first","1","ke08en03","0","18","1","1","1","1","null","","","<div class = 'row'><div class = 'column'><img src = 'category1/CS10.png' width = '70%;'></div><div class = 'column'><img src = 'uspos/5760.bmp' width = '100%;'></div></div>","null","pos","CS","CS","1","category1/CS10.png","","","","",""
"","html-keyboard-response","33","223917","0.0-6.0-2.0-0.6","c3vdbdcgob","one_one","1","direct_first","1","ke08en03","0","18","1","1","1","1","null","","","<div class = 'row'><div class = 'column'><img src = 'category3/CS1.png' width = '70%;'></div><div class = 'column'><img src = 'usneg/7380.bmp' width = '100%;'></div></div>","null","neg","CS","CS","3","category3/CS1.png","","","","",""
"","html-keyboard-response","34","226458","0.0-6.0-2.0-0.7","c3vdbdcgob","one_one","1","direct_first","1","ke08en03","0","18","1","1","1","1","null","","","<div class = 'row'><div class = 'column'><img src = 'usneg/9561.bmp' width = '100%;'></div><div class = 'column'><img src = 'category4/CS9.png' width = '70%;'></div></div>","null","neg","CS","CS","4","category4/CS9.png","","","","",""
"","html-keyboard-response","35","228997","0.0-6.0-2.0-0.8","c3vdbdcgob","one_one","1","direct_first","1","ke08en03","0","18","1","1","1","1","null","","","<div class = 'row'><div class = 'column'><img src = 'uspos/1440.bmp' width = '100%;'></div><div class = 'column'><img src = 'category2/CS9.png' width = '70%;'></div></div>","null","pos","CS","CS","2","category2/CS9.png","","","","",""
"","html-keyboard-response","36","231538","0.0-6.0-2.0-0.9","c3vdbdcgob","one_one","1","direct_first","1","ke08en03","0","18","1","1","1","1","null","","","<div class = 'row'><div class = 'column'><img src = 'category3/CS1.png' width = '70%;'></div><div class = 'column'><img src = 'usneg/7380.bmp' width = '100%;'></div></div>","null","neg","CS","CS","3","category3/CS1.png","","","","",""
"","html-keyboard-response","37","234077","0.0-6.0-2.0-0.10","c3vdbdcgob","one_one","1","direct_first","1","ke08en03","0","18","1","1","1","1","null","","","<div class = 'row'><div class = 'column'><img src = 'category1/CS10.png' width = '70%;'></div><div class = 'column'><img src = 'uspos/5760.bmp' width = '100%;'></div></div>","null","pos","CS","CS","1","category1/CS10.png","","","","",""
"","html-keyboard-response","38","236617","0.0-6.0-2.0-0.11","c3vdbdcgob","one_one","1","direct_first","1","ke08en03","0","18","1","1","1","1","null","","","<div class = 'row'><div class = 'column'><img src = 'category2/CS9.png' width = '70%;'></div><div class = 'column'><img src = 'uspos/1440.bmp' width = '100%;'></div></div>","null","pos","CS","CS","2","category2/CS9.png","","","","",""
"","html-keyboard-response","39","239158","0.0-6.0-2.0-0.12","c3vdbdcgob","one_one","1","direct_first","1","ke08en03","0","18","1","1","1","1","null","","","<div class = 'row'><div class = 'column'><img src = 'category1/CS10.png' width = '70%;'></div><div class = 'column'><img src = 'uspos/5760.bmp' width = '100%;'></div></div>","null","pos","CS","CS","1","category1/CS10.png","","","","",""
"","html-keyboard-response","40","241698","0.0-6.0-2.0-0.13","c3vdbdcgob","one_one","1","direct_first","1","ke08en03","0","18","1","1","1","1","null","","","<div class = 'row'><div class = 'column'><img src = 'uspos/1440.bmp' width = '100%;'></div><div class = 'column'><img src = 'category2/CS9.png' width = '70%;'></div></div>","null","pos","CS","CS","2","category2/CS9.png","","","","",""
"","html-keyboard-response","41","244237","0.0-6.0-2.0-0.14","c3vdbdcgob","one_one","1","direct_first","1","ke08en03","0","18","1","1","1","1","null","","","<div class = 'row'><div class = 'column'><img src = 'usneg/7380.bmp' width = '100%;'></div><div class = 'column'><img src = 'category3/CS1.png' width = '70%;'></div></div>","null","neg","CS","CS","3","category3/CS1.png","","","","",""
"","html-keyboard-response","42","246757","0.0-6.0-2.0-0.15","c3vdbdcgob","one_one","1","direct_first","1","ke08en03","0","18","1","1","1","1","null","","","<div class = 'row'><div class = 'column'><img src = 'category2/CS9.png' width = '70%;'></div><div class = 'column'><img src = 'uspos/1440.bmp' width = '100%;'></div></div>","null","pos","CS","CS","2","category2/CS9.png","","","","",""
"","html-keyboard-response","43","249297","0.0-6.0-2.0-0.16","c3vdbdcgob","one_one","1","direct_first","1","ke08en03","0","18","1","1","1","1","null","","","<div class = 'row'><div class = 'column'><img src = 'usneg/9561.bmp' width = '100%;'></div><div class = 'column'><img src = 'category4/CS9.png' width = '70%;'></div></div>","null","neg","CS","CS","4","category4/CS9.png","","","","",""
"","html-keyboard-response","44","251836","0.0-6.0-2.0-0.17","c3vdbdcgob","one_one","1","direct_first","1","ke08en03","0","18","1","1","1","1","null","","","<div class = 'row'><div class = 'column'><img src = 'category2/CS9.png' width = '70%;'></div><div class = 'column'><img src = 'uspos/1440.bmp' width = '100%;'></div></div>","null","pos","CS","CS","2","category2/CS9.png","","","","",""
"","html-keyboard-response","45","254376","0.0-6.0-2.0-0.18","c3vdbdcgob","one_one","1","direct_first","1","ke08en03","0","18","1","1","1","1","null","","","<div class = 'row'><div class = 'column'><img src = 'category3/CS1.png' width = '70%;'></div><div class = 'column'><img src = 'usneg/7380.bmp' width = '100%;'></div></div>","null","neg","CS","CS","3","category3/CS1.png","","","","",""
"","html-keyboard-response","46","256916","0.0-6.0-2.0-0.19","c3vdbdcgob","one_one","1","direct_first","1","ke08en03","0","18","1","1","1","1","null","","","<div class = 'row'><div class = 'column'><img src = 'category4/CS9.png' width = '70%;'></div><div class = 'column'><img src = 'usneg/9561.bmp' width = '100%;'></div></div>","null","neg","CS","CS","4","category4/CS9.png","","","","",""
"","survey-html-form","47","270744","0.0-6.0-3.0","c3vdbdcgob","one_one","1","direct_first","1","ke08en03","0","18","1","1","1","1","13307","","{}","","","","","","","","","","","",""
"","html-keyboard-response","48","274766","0.0-6.0-4.0-0.0","c3vdbdcgob","one_one","1","direct_first","1","ke08en03","0","18","1","1","1","1","null","","","<div class = 'row'><div class = 'column'><img src = 'category1/CS10.png' width = '70%;'></div><div class = 'column'><img src = 'uspos/5760.bmp' width = '100%;'></div></div>","null","pos","CS","CS","1","category1/CS10.png","","","","",""
"","html-keyboard-response","49","277306","0.0-6.0-4.0-0.1","c3vdbdcgob","one_one","1","direct_first","1","ke08en03","0","18","1","1","1","1","null","","","<div class = 'row'><div class = 'column'><img src = 'category2/CS9.png' width = '70%;'></div><div class = 'column'><img src = 'uspos/1440.bmp' width = '100%;'></div></div>","null","pos","CS","CS","2","category2/CS9.png","","","","",""
"","html-keyboard-response","50","279826","0.0-6.0-4.0-0.2","c3vdbdcgob","one_one","1","direct_first","1","ke08en03","0","18","1","1","1","1","null","","","<div class = 'row'><div class = 'column'><img src = 'usneg/9561.bmp' width = '100%;'></div><div class = 'column'><img src = 'category4/CS9.png' width = '70%;'></div></div>","null","neg","CS","CS","4","category4/CS9.png","","","","",""
"","html-keyboard-response","51","282366","0.0-6.0-4.0-0.3","c3vdbdcgob","one_one","1","direct_first","1","ke08en03","0","18","1","1","1","1","null","","","<div class = 'row'><div class = 'column'><img src = 'uspos/5760.bmp' width = '100%;'></div><div class = 'column'><img src = 'category1/CS10.png' width = '70%;'></div></div>","null","pos","CS","CS","1","category1/CS10.png","","","","",""
"","html-keyboard-response","52","284905","0.0-6.0-4.0-0.4","c3vdbdcgob","one_one","1","direct_first","1","ke08en03","0","18","1","1","1","1","null","","","<div class = 'row'><div class = 'column'><img src = 'category2/CS9.png' width = '70%;'></div><div class = 'column'><img src = 'uspos/1440.bmp' width = '100%;'></div></div>","null","pos","CS","CS","2","category2/CS9.png","","","","",""
"","html-keyboard-response","53","287446","0.0-6.0-4.0-0.5","c3vdbdcgob","one_one","1","direct_first","1","ke08en03","0","18","1","1","1","1","null","","","<div class = 'row'><div class = 'column'><img src = 'usneg/7380.bmp' width = '100%;'></div><div class = 'column'><img src = 'category3/CS1.png' width = '70%;'></div></div>","null","neg","CS","CS","3","category3/CS1.png","","","","",""
"","html-keyboard-response","54","289986","0.0-6.0-4.0-0.6","c3vdbdcgob","one_one","1","direct_first","1","ke08en03","0","18","1","1","1","1","null","","","<div class = 'row'><div class = 'column'><img src = 'category4/CS9.png' width = '70%;'></div><div class = 'column'><img src = 'usneg/9561.bmp' width = '100%;'></div></div>","null","neg","CS","CS","4","category4/CS9.png","","","","",""
"","html-keyboard-response","55","292525","0.0-6.0-4.0-0.7","c3vdbdcgob","one_one","1","direct_first","1","ke08en03","0","18","1","1","1","1","null","","","<div class = 'row'><div class = 'column'><img src = 'category3/CS1.png' width = '70%;'></div><div class = 'column'><img src = 'usneg/7380.bmp' width = '100%;'></div></div>","null","neg","CS","CS","3","category3/CS1.png","","","","",""
"","html-keyboard-response","56","295065","0.0-6.0-4.0-0.8","c3vdbdcgob","one_one","1","direct_first","1","ke08en03","0","18","1","1","1","1","null","","","<div class = 'row'><div class = 'column'><img src = 'category4/CS9.png' width = '70%;'></div><div class = 'column'><img src = 'usneg/9561.bmp' width = '100%;'></div></div>","null","neg","CS","CS","4","category4/CS9.png","","","","",""
"","html-keyboard-response","57","297595","0.0-6.0-4.0-0.9","c3vdbdcgob","one_one","1","direct_first","1","ke08en03","0","18","1","1","1","1","null","","","<div class = 'row'><div class = 'column'><img src = 'category3/CS1.png' width = '70%;'></div><div class = 'column'><img src = 'usneg/7380.bmp' width = '100%;'></div></div>","null","neg","CS","CS","3","category3/CS1.png","","","","",""
"","html-keyboard-response","58","300135","0.0-6.0-4.0-0.10","c3vdbdcgob","one_one","1","direct_first","1","ke08en03","0","18","1","1","1","1","null","","","<div class = 'row'><div class = 'column'><img src = 'category4/CS9.png' width = '70%;'></div><div class = 'column'><img src = 'usneg/9561.bmp' width = '100%;'></div></div>","null","neg","CS","CS","4","category4/CS9.png","","","","",""
"","html-keyboard-response","59","302655","0.0-6.0-4.0-0.11","c3vdbdcgob","one_one","1","direct_first","1","ke08en03","0","18","1","1","1","1","null","","","<div class = 'row'><div class = 'column'><img src = 'category2/CS9.png' width = '70%;'></div><div class = 'column'><img src = 'uspos/1440.bmp' width = '100%;'></div></div>","null","pos","CS","CS","2","category2/CS9.png","","","","",""
"","html-keyboard-response","60","305195","0.0-6.0-4.0-0.12","c3vdbdcgob","one_one","1","direct_first","1","ke08en03","0","18","1","1","1","1","null","","","<div class = 'row'><div class = 'column'><img src = 'category1/CS10.png' width = '70%;'></div><div class = 'column'><img src = 'uspos/5760.bmp' width = '100%;'></div></div>","null","pos","CS","CS","1","category1/CS10.png","","","","",""
"","html-keyboard-response","61","307735","0.0-6.0-4.0-0.13","c3vdbdcgob","one_one","1","direct_first","1","ke08en03","0","18","1","1","1","1","null","","","<div class = 'row'><div class = 'column'><img src = 'category2/CS9.png' width = '70%;'></div><div class = 'column'><img src = 'uspos/1440.bmp' width = '100%;'></div></div>","null","pos","CS","CS","2","category2/CS9.png","","","","",""
"","html-keyboard-response","62","310275","0.0-6.0-4.0-0.14","c3vdbdcgob","one_one","1","direct_first","1","ke08en03","0","18","1","1","1","1","null","","","<div class = 'row'><div class = 'column'><img src = 'uspos/5760.bmp' width = '100%;'></div><div class = 'column'><img src = 'category1/CS10.png' width = '70%;'></div></div>","null","pos","CS","CS","1","category1/CS10.png","","","","",""
"","html-keyboard-response","63","312815","0.0-6.0-4.0-0.15","c3vdbdcgob","one_one","1","direct_first","1","ke08en03","0","18","1","1","1","1","null","","","<div class = 'row'><div class = 'column'><img src = 'category4/CS9.png' width = '70%;'></div><div class = 'column'><img src = 'usneg/9561.bmp' width = '100%;'></div></div>","null","neg","CS","CS","4","category4/CS9.png","","","","",""
"","html-keyboard-response","64","315355","0.0-6.0-4.0-0.16","c3vdbdcgob","one_one","1","direct_first","1","ke08en03","0","18","1","1","1","1","null","","","<div class = 'row'><div class = 'column'><img src = 'usneg/7380.bmp' width = '100%;'></div><div class = 'column'><img src = 'category3/CS1.png' width = '70%;'></div></div>","null","neg","CS","CS","3","category3/CS1.png","","","","",""
"","html-keyboard-response","65","317894","0.0-6.0-4.0-0.17","c3vdbdcgob","one_one","1","direct_first","1","ke08en03","0","18","1","1","1","1","null","","","<div class = 'row'><div class = 'column'><img src = 'uspos/5760.bmp' width = '100%;'></div><div class = 'column'><img src = 'category1/CS10.png' width = '70%;'></div></div>","null","pos","CS","CS","1","category1/CS10.png","","","","",""
"","html-keyboard-response","66","320415","0.0-6.0-4.0-0.18","c3vdbdcgob","one_one","1","direct_first","1","ke08en03","0","18","1","1","1","1","null","","","<div class = 'row'><div class = 'column'><img src = 'category2/CS9.png' width = '70%;'></div><div class = 'column'><img src = 'uspos/1440.bmp' width = '100%;'></div></div>","null","pos","CS","CS","2","category2/CS9.png","","","","",""
"","html-keyboard-response","67","322944","0.0-6.0-4.0-0.19","c3vdbdcgob","one_one","1","direct_first","1","ke08en03","0","18","1","1","1","1","null","","","<div class = 'row'><div class = 'column'><img src = 'category3/CS1.png' width = '70%;'></div><div class = 'column'><img src = 'usneg/7380.bmp' width = '100%;'></div></div>","null","neg","CS","CS","3","category3/CS1.png","","","","",""
"","survey-html-form","68","331494","0.0-6.0-5.0","c3vdbdcgob","one_one","1","direct_first","1","ke08en03","0","18","1","1","1","1","8030","","{}","","","","","","","","","","","",""
"","html-keyboard-response","69","335525","0.0-6.0-6.0-0.0","c3vdbdcgob","one_one","1","direct_first","1","ke08en03","0","18","1","1","1","1","null","","","<div class = 'row'><div class = 'column'><img src = 'category4/CS9.png' width = '70%;'></div><div class = 'column'><img src = 'usneg/9561.bmp' width = '100%;'></div></div>","null","neg","CS","CS","4","category4/CS9.png","","","","",""
"","html-keyboard-response","70","338046","0.0-6.0-6.0-0.1","c3vdbdcgob","one_one","1","direct_first","1","ke08en03","0","18","1","1","1","1","null","","","<div class = 'row'><div class = 'column'><img src = 'category1/CS10.png' width = '70%;'></div><div class = 'column'><img src = 'uspos/5760.bmp' width = '100%;'></div></div>","null","pos","CS","CS","1","category1/CS10.png","","","","",""
"","html-keyboard-response","71","340554","0.0-6.0-6.0-0.2","c3vdbdcgob","one_one","1","direct_first","1","ke08en03","0","18","1","1","1","1","null","","","<div class = 'row'><div class = 'column'><img src = 'category2/CS9.png' width = '70%;'></div><div class = 'column'><img src = 'uspos/1440.bmp' width = '100%;'></div></div>","null","pos","CS","CS","2","category2/CS9.png","","","","",""
"","html-keyboard-response","72","343095","0.0-6.0-6.0-0.3","c3vdbdcgob","one_one","1","direct_first","1","ke08en03","0","18","1","1","1","1","null","","","<div class = 'row'><div class = 'column'><img src = 'category4/CS9.png' width = '70%;'></div><div class = 'column'><img src = 'usneg/9561.bmp' width = '100%;'></div></div>","null","neg","CS","CS","4","category4/CS9.png","","","","",""
"","html-keyboard-response","73","345634","0.0-6.0-6.0-0.4","c3vdbdcgob","one_one","1","direct_first","1","ke08en03","0","18","1","1","1","1","null","","","<div class = 'row'><div class = 'column'><img src = 'category3/CS1.png' width = '70%;'></div><div class = 'column'><img src = 'usneg/7380.bmp' width = '100%;'></div></div>","null","neg","CS","CS","3","category3/CS1.png","","","","",""
"","html-keyboard-response","74","348175","0.0-6.0-6.0-0.5","c3vdbdcgob","one_one","1","direct_first","1","ke08en03","0","18","1","1","1","1","null","","","<div class = 'row'><div class = 'column'><img src = 'usneg/9561.bmp' width = '100%;'></div><div class = 'column'><img src = 'category4/CS9.png' width = '70%;'></div></div>","null","neg","CS","CS","4","category4/CS9.png","","","","",""
"","html-keyboard-response","75","350696","0.0-6.0-6.0-0.6","c3vdbdcgob","one_one","1","direct_first","1","ke08en03","0","18","1","1","1","1","null","","","<div class = 'row'><div class = 'column'><img src = 'uspos/1440.bmp' width = '100%;'></div><div class = 'column'><img src = 'category2/CS9.png' width = '70%;'></div></div>","null","pos","CS","CS","2","category2/CS9.png","","","","",""
"","html-keyboard-response","76","353235","0.0-6.0-6.0-0.7","c3vdbdcgob","one_one","1","direct_first","1","ke08en03","0","18","1","1","1","1","null","","","<div class = 'row'><div class = 'column'><img src = 'category3/CS1.png' width = '70%;'></div><div class = 'column'><img src = 'usneg/7380.bmp' width = '100%;'></div></div>","null","neg","CS","CS","3","category3/CS1.png","","","","",""
"","html-keyboard-response","77","355775","0.0-6.0-6.0-0.8","c3vdbdcgob","one_one","1","direct_first","1","ke08en03","0","18","1","1","1","1","null","","","<div class = 'row'><div class = 'column'><img src = 'usneg/9561.bmp' width = '100%;'></div><div class = 'column'><img src = 'category4/CS9.png' width = '70%;'></div></div>","null","neg","CS","CS","4","category4/CS9.png","","","","",""
"","html-keyboard-response","78","358314","0.0-6.0-6.0-0.9","c3vdbdcgob","one_one","1","direct_first","1","ke08en03","0","18","1","1","1","1","null","","","<div class = 'row'><div class = 'column'><img src = 'uspos/5760.bmp' width = '100%;'></div><div class = 'column'><img src = 'category1/CS10.png' width = '70%;'></div></div>","null","pos","CS","CS","1","category1/CS10.png","","","","",""
"","html-keyboard-response","79","360844","0.0-6.0-6.0-0.10","c3vdbdcgob","one_one","1","direct_first","1","ke08en03","0","18","1","1","1","1","null","","","<div class = 'row'><div class = 'column'><img src = 'category3/CS1.png' width = '70%;'></div><div class = 'column'><img src = 'usneg/7380.bmp' width = '100%;'></div></div>","null","neg","CS","CS","3","category3/CS1.png","","","","",""
"","html-keyboard-response","80","363364","0.0-6.0-6.0-0.11","c3vdbdcgob","one_one","1","direct_first","1","ke08en03","0","18","1","1","1","1","null","","","<div class = 'row'><div class = 'column'><img src = 'uspos/1440.bmp' width = '100%;'></div><div class = 'column'><img src = 'category2/CS9.png' width = '70%;'></div></div>","null","pos","CS","CS","2","category2/CS9.png","","","","",""
"","html-keyboard-response","81","365875","0.0-6.0-6.0-0.12","c3vdbdcgob","one_one","1","direct_first","1","ke08en03","0","18","1","1","1","1","null","","","<div class = 'row'><div class = 'column'><img src = 'uspos/5760.bmp' width = '100%;'></div><div class = 'column'><img src = 'category1/CS10.png' width = '70%;'></div></div>","null","pos","CS","CS","1","category1/CS10.png","","","","",""
"","html-keyboard-response","82","368405","0.0-6.0-6.0-0.13","c3vdbdcgob","one_one","1","direct_first","1","ke08en03","0","18","1","1","1","1","null","","","<div class = 'row'><div class = 'column'><img src = 'uspos/1440.bmp' width = '100%;'></div><div class = 'column'><img src = 'category2/CS9.png' width = '70%;'></div></div>","null","pos","CS","CS","2","category2/CS9.png","","","","",""
"","html-keyboard-response","83","370925","0.0-6.0-6.0-0.14","c3vdbdcgob","one_one","1","direct_first","1","ke08en03","0","18","1","1","1","1","null","","","<div class = 'row'><div class = 'column'><img src = 'usneg/7380.bmp' width = '100%;'></div><div class = 'column'><img src = 'category3/CS1.png' width = '70%;'></div></div>","null","neg","CS","CS","3","category3/CS1.png","","","","",""
"","html-keyboard-response","84","373462","0.0-6.0-6.0-0.15","c3vdbdcgob","one_one","1","direct_first","1","ke08en03","0","18","1","1","1","1","null","","","<div class = 'row'><div class = 'column'><img src = 'category1/CS10.png' width = '70%;'></div><div class = 'column'><img src = 'uspos/5760.bmp' width = '100%;'></div></div>","null","pos","CS","CS","1","category1/CS10.png","","","","",""
"","html-keyboard-response","85","375984","0.0-6.0-6.0-0.16","c3vdbdcgob","one_one","1","direct_first","1","ke08en03","0","18","1","1","1","1","null","","","<div class = 'row'><div class = 'column'><img src = 'uspos/1440.bmp' width = '100%;'></div><div class = 'column'><img src = 'category2/CS9.png' width = '70%;'></div></div>","null","pos","CS","CS","2","category2/CS9.png","","","","",""
"","html-keyboard-response","86","378525","0.0-6.0-6.0-0.17","c3vdbdcgob","one_one","1","direct_first","1","ke08en03","0","18","1","1","1","1","null","","","<div class = 'row'><div class = 'column'><img src = 'category4/CS9.png' width = '70%;'></div><div class = 'column'><img src = 'usneg/9561.bmp' width = '100%;'></div></div>","null","neg","CS","CS","4","category4/CS9.png","","","","",""
"","html-keyboard-response","87","381044","0.0-6.0-6.0-0.18","c3vdbdcgob","one_one","1","direct_first","1","ke08en03","0","18","1","1","1","1","null","","","<div class = 'row'><div class = 'column'><img src = 'category3/CS1.png' width = '70%;'></div><div class = 'column'><img src = 'usneg/7380.bmp' width = '100%;'></div></div>","null","neg","CS","CS","3","category3/CS1.png","","","","",""
"","html-keyboard-response","88","383584","0.0-6.0-6.0-0.19","c3vdbdcgob","one_one","1","direct_first","1","ke08en03","0","18","1","1","1","1","null","","","<div class = 'row'><div class = 'column'><img src = 'category1/CS10.png' width = '70%;'></div><div class = 'column'><img src = 'uspos/5760.bmp' width = '100%;'></div></div>","null","pos","CS","CS","1","category1/CS10.png","","","","",""
"","survey-html-form","89","403142","0.0-7.0","c3vdbdcgob","one_one","1","direct_first","1","ke08en03","0","18","1","1","1","1","19037","","{}","","","","","","","","","","","",""
"","image-slider-response","90","419518","0.0-8.0-0.0","c3vdbdcgob","one_one","1","direct_first","1","ke08en03","0","18","1","1","1","1","14367","","","","","neg","GS","GSold","4","category4/CS2.png","33","targets/45.png","direct","",""
"","image-slider-response","91","424837","0.0-8.0-0.1","c3vdbdcgob","one_one","1","direct_first","1","ke08en03","0","18","1","1","1","1","5319","","","","","pos","GS","GSnew","2","category2/GS2.png","34","targets/33.png","direct","",""
"","image-slider-response","92","430094","0.0-8.0-0.2","c3vdbdcgob","one_one","1","direct_first","1","ke08en03","0","18","1","1","1","1","5255","","","","","neg","GS","GSnew","4","category4/GS2.png","-39","targets/18.png","direct","",""
"","image-slider-response","93","436173","0.0-8.0-0.3","c3vdbdcgob","one_one","1","direct_first","1","ke08en03","0","18","1","1","1","1","6079","","","","","pos","GS","GSnew","1","category1/GS1.png","32","targets/29.png","direct","",""
"","image-slider-response","94","440966","0.0-8.0-0.4","c3vdbdcgob","one_one","1","direct_first","1","ke08en03","0","18","1","1","1","1","4791","","","","","pos","GS","GSnew","2","category2/GS3.png","59","targets/34.png","direct","",""
"","image-slider-response","95","446054","0.0-8.0-0.5","c3vdbdcgob","one_one","1","direct_first","1","ke08en03","0","18","1","1","1","1","5087","","","","","pos","GS","GSnew","1","category1/GS2.png","35","targets/16.png","direct","",""
"","image-slider-response","96","451501","0.0-8.0-0.6","c3vdbdcgob","one_one","1","direct_first","1","ke08en03","0","18","1","1","1","1","5447","","","","","neg","GS","GSnew","4","category4/GS1.png","-26","targets/43.png","direct","",""
"","image-slider-response","97","456117","0.0-8.0-0.7","c3vdbdcgob","one_one","1","direct_first","1","ke08en03","0","18","1","1","1","1","4614","","","","","pos","GS","abstract","2","category2/men.png","52","targets/38.png","direct","",""
"","image-slider-response","98","459589","0.0-8.0-0.8","c3vdbdcgob","one_one","1","direct_first","1","ke08en03","0","18","1","1","1","1","3471","","","","","neg","GS","abstract","4","category4/lin.png","6","targets/6.png","direct","",""
"","image-slider-response","99","465750","0.0-8.0-0.9","c3vdbdcgob","one_one","1","direct_first","1","ke08en03","0","18","1","1","1","1","6159","","","","","neg","GS","GSnew","3","category3/GS3.png","-34","targets/27.png","direct","",""
"","image-slider-response","100","470485","0.0-8.0-0.10","c3vdbdcgob","one_one","1","direct_first","1","ke08en03","0","18","1","1","1","1","4735","","","","","neg","GS","GSold","4","category4/CS8.png","-4","targets/17.png","direct","",""
"","image-slider-response","101","475013","0.0-8.0-0.11","c3vdbdcgob","one_one","1","direct_first","1","ke08en03","0","18","1","1","1","1","4527","","","","","neg","GS","GSnew","4","category4/GS3.png","-36","targets/44.png","direct","",""
"","image-slider-response","102","480166","0.0-8.0-0.12","c3vdbdcgob","one_one","1","direct_first","1","ke08en03","0","18","1","1","1","1","5151","","","","","pos","GS","GSold","2","category2/CS6.png","21","targets/37.png","direct","",""
"","image-slider-response","103","484485","0.0-8.0-0.13","c3vdbdcgob","one_one","1","direct_first","1","ke08en03","0","18","1","1","1","1","4319","","","","","neg","GS","GSold","3","category3/CS10.png","-49","targets/23.png","direct","",""
"","image-slider-response","104","488750","0.0-8.0-0.14","c3vdbdcgob","one_one","1","direct_first","1","ke08en03","0","18","1","1","1","1","4263","","","","","neg","CS","CS","3","category3/CS1.png","18","targets/42.png","direct","",""
"","image-slider-response","105","495342","0.0-8.0-0.15","c3vdbdcgob","one_one","1","direct_first","1","ke08en03","0","18","1","1","1","1","6591","","","","","neg","GS","GSnew","3","category3/GS1.png","5","targets/1.png","direct","",""
"","image-slider-response","106","501933","0.0-8.0-0.16","c3vdbdcgob","one_one","1","direct_first","1","ke08en03","0","18","1","1","1","1","6590","","","","","pos","GS","GSnew","1","category1/GS3.png","-7","targets/32.png","direct","",""
"","image-slider-response","107","505845","0.0-8.0-0.17","c3vdbdcgob","one_one","1","direct_first","1","ke08en03","0","18","1","1","1","1","3911","","","","","pos","CS","CS","1","category1/CS10.png","24","targets/7.png","direct","",""
"","image-slider-response","108","509709","0.0-8.0-0.18","c3vdbdcgob","one_one","1","direct_first","1","ke08en03","0","18","1","1","1","1","3862","","","","","pos","GS","GSold","1","category1/CS9.png","-21","targets/19.png","direct","",""
"","image-slider-response","109","515997","0.0-8.0-0.19","c3vdbdcgob","one_one","1","direct_first","1","ke08en03","0","18","1","1","1","1","6286","","","","","pos","GS","GSold","2","category2/CS1.png","5","targets/46.png","direct","",""
"","image-slider-response","110","519421","0.0-8.0-0.20","c3vdbdcgob","one_one","1","direct_first","1","ke08en03","0","18","1","1","1","1","3423","","","","","neg","GS","abstract","3","category3/wang.png","-30","targets/40.png","direct","",""
"","image-slider-response","111","525438","0.0-8.0-0.21","c3vdbdcgob","one_one","1","direct_first","1","ke08en03","0","18","1","1","1","1","6015","","","","","pos","GS","GSnew","2","category2/GS1.png","17","targets/8.png","direct","",""
"","image-slider-response","112","529965","0.0-8.0-0.22","c3vdbdcgob","one_one","1","direct_first","1","ke08en03","0","18","1","1","1","1","4527","","","","","pos","GS","GSold","1","category1/CS2.png","-49","targets/22.png","direct","",""
"","image-slider-response","113","534030","0.0-8.0-0.23","c3vdbdcgob","one_one","1","direct_first","1","ke08en03","0","18","1","1","1","1","4063","","","","","neg","CS","CS","4","category4/CS9.png","12","targets/20.png","direct","",""
"","image-slider-response","114","537925","0.0-8.0-0.24","c3vdbdcgob","one_one","1","direct_first","1","ke08en03","0","18","1","1","1","1","3895","","","","","pos","CS","CS","2","category2/CS9.png","31","targets/3.png","direct","",""
"","image-slider-response","115","541469","0.0-8.0-0.25","c3vdbdcgob","one_one","1","direct_first","1","ke08en03","0","18","1","1","1","1","3542","","","","","neg","GS","GSnew","3","category3/GS2.png","-53","targets/47.png","direct","",""
"","image-slider-response","116","547069","0.0-8.0-0.26","c3vdbdcgob","one_one","1","direct_first","1","ke08en03","0","18","1","1","1","1","5599","","","","","neg","GS","GSold","3","category3/CS9.png","-30","targets/21.png","direct","",""
"","image-slider-response","117","550453","0.0-8.0-0.27","c3vdbdcgob","one_one","1","direct_first","1","ke08en03","0","18","1","1","1","1","3382","","","","","pos","GS","abstract","1","category1/ma.png","-12","targets/14.png","direct","",""
"","image-slider-response","118","554830","0.0-8.0-0.28","c3vdbdcgob","one_one","1","direct_first","1","ke08en03","0","18","1","1","1","1","4375","","","","","pos","GS","GSold","2","category2/CS10.png","23","targets/35.png","direct","",""
"","image-slider-response","119","560917","0.0-8.0-0.29","c3vdbdcgob","one_one","1","direct_first","1","ke08en03","0","18","1","1","1","1","6086","","","","","neg","GS","GSold","4","category4/CS6.png","19","targets/31.png","direct","",""
"","image-slider-response","120","567934","0.0-8.0-0.30","c3vdbdcgob","one_one","1","direct_first","1","ke08en03","0","18","1","1","1","1","7015","","","","","pos","GS","GSold","1","category1/CS8.png","-10","targets/41.png","direct","",""
"","image-slider-response","121","573549","0.0-8.0-0.31","c3vdbdcgob","one_one","1","direct_first","1","ke08en03","0","18","1","1","1","1","5615","","","","","neg","GS","GSold","3","category3/CS2.png","-24","targets/24.png","direct","",""
"","html-keyboard-response","122","623039","0.0-9.0","c3vdbdcgob","one_one","1","direct_first","1","ke08en03","0","18","1","1","1","1","49489","","","<p>Sie sehen nun die chinesischen Zeichen nur ganz kurz. Danach sehen Sie die jeweilige Aussprache der Zeichen als Silbe auf dem Bildschrim. Ihre Aufgabe ist es, für jede Silbe anzugeben, ob diese etwas angenehmes, oder unangenehmes bedeuten könnte. Verlassen Sie sich hier vor allem auf Ihre Intuition.<br><br>Die Zeichen werden nur zur Orientierung dargestellt, beachten Sie sie deshalb nicht. Konzentrieren Sie sich vor allem auf die Silben. <br>Reagieren Sie mit folgenden zwei Tasten: <br><br><b>'D' </b> wenn die Silbe etwas <b>unangenehmes</b> bedeuten könnte. <br><b>'K'</b> wenn die Silbe etwas <b>angenehmes</b> bedeuten könnte. <br><br>Bitte legen Sie nun den Zeigefinger der linken Hand auf die Taste 'D' und den Zeigefinger der rechten Hand auf die Taste 'K'. <br>Reagieren Sie auf jede Silbe so schnell wie möglich. Uns interessiert Ihre spontane Reaktion. <br> <br> <br>Drücken Sie 'D' oder 'K', um die nächste Aufgabe zu starten. </p>","75","","","","","","","","","",""
"","html-keyboard-response","123","626064","0.0-10.0-0.0","c3vdbdcgob","one_one","1","direct_first","1","ke08en03","0","18","1","1","1","1","null","","","<div style=""font-size:60px;"">+</div>","null","","","","","","","","","",""
"","html-keyboard-response","124","626165","0.0-10.0-1.0","c3vdbdcgob","one_one","1","direct_first","1","ke08en03","0","18","1","1","1","1","null","","","<img src = 'category3/CS9.png' width = '100%;'>","null","","","","","","","","","",""
"","html-keyboard-response","125","626444","0.0-10.0-2.0","c3vdbdcgob","one_one","1","direct_first","1","ke08en03","0","18","1","1","1","1","null","","","<img src = 'targets/21.png' width = '100%;'>","null","","","","","","","","","",""
"","html-keyboard-response","126","628855","0.0-10.0-3.0","c3vdbdcgob","one_one","1","direct_first","1","ke08en03","0","18","1","1","1","1","2408","","","<img src = 'targets/mask.png' width = '100%;'>","75","neg","GS","GSold","3","category3/CS9.png","","targets/21.png","indirect","1","0"
"","html-keyboard-response","127","630380","0.0-10.0-0.1","c3vdbdcgob","one_one","1","direct_first","1","ke08en03","0","18","1","1","1","1","null","","","<div style=""font-size:60px;"">+</div>","null","","","","","","","","","",""
"","html-keyboard-response","128","630481","0.0-10.0-1.1","c3vdbdcgob","one_one","1","direct_first","1","ke08en03","0","18","1","1","1","1","null","","","<img src = 'category1/CS2.png' width = '100%;'>","null","","","","","","","","","",""
"","html-keyboard-response","129","630764","0.0-10.0-2.1","c3vdbdcgob","one_one","1","direct_first","1","ke08en03","0","18","1","1","1","1","null","","","<img src = 'targets/22.png' width = '100%;'>","null","","","","","","","","","",""
"","html-keyboard-response","130","633967","0.0-10.0-3.1","c3vdbdcgob","one_one","1","direct_first","1","ke08en03","0","18","1","1","1","1","3200","","","<img src = 'targets/mask.png' width = '100%;'>","68","pos","GS","GSold","1","category1/CS2.png","","targets/22.png","indirect","0","1"
"","html-keyboard-response","131","635495","0.0-10.0-0.2","c3vdbdcgob","one_one","1","direct_first","1","ke08en03","0","18","1","1","1","1","null","","","<div style=""font-size:60px;"">+</div>","null","","","","","","","","","",""
"","html-keyboard-response","132","635595","0.0-10.0-1.2","c3vdbdcgob","one_one","1","direct_first","1","ke08en03","0","18","1","1","1","1","null","","","<img src = 'category4/CS2.png' width = '100%;'>","null","","","","","","","","","",""
"","html-keyboard-response","133","635875","0.0-10.0-2.2","c3vdbdcgob","one_one","1","direct_first","1","ke08en03","0","18","1","1","1","1","null","","","<img src = 'targets/45.png' width = '100%;'>","null","","","","","","","","","",""
"","html-keyboard-response","134","637318","0.0-10.0-3.2","c3vdbdcgob","one_one","1","direct_first","1","ke08en03","0","18","1","1","1","1","1443","","","<img src = 'targets/mask.png' width = '100%;'>","75","neg","GS","GSold","4","category4/CS2.png","","targets/45.png","indirect","1","2"
"","html-keyboard-response","135","638854","0.0-10.0-0.3","c3vdbdcgob","one_one","1","direct_first","1","ke08en03","0","18","1","1","1","1","null","","","<div style=""font-size:60px;"">+</div>","null","","","","","","","","","",""
"","html-keyboard-response","136","638955","0.0-10.0-1.3","c3vdbdcgob","one_one","1","direct_first","1","ke08en03","0","18","1","1","1","1","null","","","<img src = 'category3/CS2.png' width = '100%;'>","null","","","","","","","","","",""
"","html-keyboard-response","137","639235","0.0-10.0-2.3","c3vdbdcgob","one_one","1","direct_first","1","ke08en03","0","18","1","1","1","1","null","","","<img src = 'targets/24.png' width = '100%;'>","null","","","","","","","","","",""
"","html-keyboard-response","138","640150","0.0-10.0-3.3","c3vdbdcgob","one_one","1","direct_first","1","ke08en03","0","18","1","1","1","1","915","","","<img src = 'targets/mask.png' width = '100%;'>","68","neg","GS","GSold","3","category3/CS2.png","","targets/24.png","indirect","0","3"
"","html-keyboard-response","139","641664","0.0-10.0-0.4","c3vdbdcgob","one_one","1","direct_first","1","ke08en03","0","18","1","1","1","1","null","","","<div style=""font-size:60px;"">+</div>","null","","","","","","","","","",""
"","html-keyboard-response","140","641765","0.0-10.0-1.4","c3vdbdcgob","one_one","1","direct_first","1","ke08en03","0","18","1","1","1","1","null","","","<img src = 'category3/CS10.png' width = '100%;'>","null","","","","","","","","","",""
"","html-keyboard-response","141","642044","0.0-10.0-2.4","c3vdbdcgob","one_one","1","direct_first","1","ke08en03","0","18","1","1","1","1","null","","","<img src = 'targets/23.png' width = '100%;'>","null","","","","","","","","","",""
"","html-keyboard-response","142","643998","0.0-10.0-3.4","c3vdbdcgob","one_one","1","direct_first","1","ke08en03","0","18","1","1","1","1","1953","","","<img src = 'targets/mask.png' width = '100%;'>","68","neg","GS","GSold","3","category3/CS10.png","","targets/23.png","indirect","0","4"
"","html-keyboard-response","143","645525","0.0-10.0-0.5","c3vdbdcgob","one_one","1","direct_first","1","ke08en03","0","18","1","1","1","1","null","","","<div style=""font-size:60px;"">+</div>","null","","","","","","","","","",""
"","html-keyboard-response","144","645617","0.0-10.0-1.5","c3vdbdcgob","one_one","1","direct_first","1","ke08en03","0","18","1","1","1","1","null","","","<img src = 'category2/CS1.png' width = '100%;'>","null","","","","","","","","","",""
"","html-keyboard-response","145","645869","0.0-10.0-2.5","c3vdbdcgob","one_one","1","direct_first","1","ke08en03","0","18","1","1","1","1","null","","","<img src = 'targets/46.png' width = '100%;'>","null","","","","","","","","","",""
"","html-keyboard-response","146","647023","0.0-10.0-3.5","c3vdbdcgob","one_one","1","direct_first","1","ke08en03","0","18","1","1","1","1","1152","","","<img src = 'targets/mask.png' width = '100%;'>","75","pos","GS","GSold","2","category2/CS1.png","","targets/46.png","indirect","1","5"
"","html-keyboard-response","147","648545","0.0-10.0-0.6","c3vdbdcgob","one_one","1","direct_first","1","ke08en03","0","18","1","1","1","1","null","","","<div style=""font-size:60px;"">+</div>","null","","","","","","","","","",""
"","html-keyboard-response","148","648645","0.0-10.0-1.6","c3vdbdcgob","one_one","1","direct_first","1","ke08en03","0","18","1","1","1","1","null","","","<img src = 'category2/CS9.png' width = '100%;'>","null","","","","","","","","","",""
"","html-keyboard-response","149","648925","0.0-10.0-2.6","c3vdbdcgob","one_one","1","direct_first","1","ke08en03","0","18","1","1","1","1","null","","","<img src = 'targets/3.png' width = '100%;'>","null","","","","","","","","","",""
"","html-keyboard-response","150","650590","0.0-10.0-3.6","c3vdbdcgob","one_one","1","direct_first","1","ke08en03","0","18","1","1","1","1","1664","","","<img src = 'targets/mask.png' width = '100%;'>","68","pos","CS","CS","2","category2/CS9.png","","targets/3.png","indirect","0","6"
"","html-keyboard-response","151","652095","0.0-10.0-0.7","c3vdbdcgob","one_one","1","direct_first","1","ke08en03","0","18","1","1","1","1","null","","","<div style=""font-size:60px;"">+</div>","null","","","","","","","","","",""
"","html-keyboard-response","152","652194","0.0-10.0-1.7","c3vdbdcgob","one_one","1","direct_first","1","ke08en03","0","18","1","1","1","1","null","","","<img src = 'category1/CS8.png' width = '100%;'>","null","","","","","","","","","",""
"","html-keyboard-response","153","652475","0.0-10.0-2.7","c3vdbdcgob","one_one","1","direct_first","1","ke08en03","0","18","1","1","1","1","null","","","<img src = 'targets/41.png' width = '100%;'>","null","","","","","","","","","",""
"","html-keyboard-response","154","653348","0.0-10.0-3.7","c3vdbdcgob","one_one","1","direct_first","1","ke08en03","0","18","1","1","1","1","874","","","<img src = 'targets/mask.png' width = '100%;'>","75","pos","GS","GSold","1","category1/CS8.png","","targets/41.png","indirect","1","7"
"","html-keyboard-response","155","654874","0.0-10.0-0.8","c3vdbdcgob","one_one","1","direct_first","1","ke08en03","0","18","1","1","1","1","null","","","<div style=""font-size:60px;"">+</div>","null","","","","","","","","","",""
"","html-keyboard-response","156","654975","0.0-10.0-1.8","c3vdbdcgob","one_one","1","direct_first","1","ke08en03","0","18","1","1","1","1","null","","","<img src = 'category2/CS6.png' width = '100%;'>","null","","","","","","","","","",""
"","html-keyboard-response","157","655251","0.0-10.0-2.8","c3vdbdcgob","one_one","1","direct_first","1","ke08en03","0","18","1","1","1","1","null","","","<img src = 'targets/37.png' width = '100%;'>","null","","","","","","","","","",""
"","html-keyboard-response","158","657374","0.0-10.0-3.8","c3vdbdcgob","one_one","1","direct_first","1","ke08en03","0","18","1","1","1","1","2123","","","<img src = 'targets/mask.png' width = '100%;'>","68","pos","GS","GSold","2","category2/CS6.png","","targets/37.png","indirect","0","8"
"","html-keyboard-response","159","658895","0.0-10.0-0.9","c3vdbdcgob","one_one","1","direct_first","1","ke08en03","0","18","1","1","1","1","null","","","<div style=""font-size:60px;"">+</div>","null","","","","","","","","","",""
"","html-keyboard-response","160","658994","0.0-10.0-1.9","c3vdbdcgob","one_one","1","direct_first","1","ke08en03","0","18","1","1","1","1","null","","","<img src = 'category4/CS6.png' width = '100%;'>","null","","","","","","","","","",""
"","html-keyboard-response","161","659275","0.0-10.0-2.9","c3vdbdcgob","one_one","1","direct_first","1","ke08en03","0","18","1","1","1","1","null","","","<img src = 'targets/31.png' width = '100%;'>","null","","","","","","","","","",""
"","html-keyboard-response","162","660095","0.0-10.0-3.9","c3vdbdcgob","one_one","1","direct_first","1","ke08en03","0","18","1","1","1","1","820","","","<img src = 'targets/mask.png' width = '100%;'>","75","neg","GS","GSold","4","category4/CS6.png","","targets/31.png","indirect","1","9"
"","html-keyboard-response","163","661614","0.0-10.0-0.10","c3vdbdcgob","one_one","1","direct_first","1","ke08en03","0","18","1","1","1","1","null","","","<div style=""font-size:60px;"">+</div>","null","","","","","","","","","",""
"","html-keyboard-response","164","661714","0.0-10.0-1.10","c3vdbdcgob","one_one","1","direct_first","1","ke08en03","0","18","1","1","1","1","null","","","<img src = 'category4/CS8.png' width = '100%;'>","null","","","","","","","","","",""
"","html-keyboard-response","165","661995","0.0-10.0-2.10","c3vdbdcgob","one_one","1","direct_first","1","ke08en03","0","18","1","1","1","1","null","","","<img src = 'targets/17.png' width = '100%;'>","null","","","","","","","","","",""
"","html-keyboard-response","166","665390","0.0-10.0-3.10","c3vdbdcgob","one_one","1","direct_first","1","ke08en03","0","18","1","1","1","1","3395","","","<img src = 'targets/mask.png' width = '100%;'>","75","neg","GS","GSold","4","category4/CS8.png","","targets/17.png","indirect","1","10"
"","html-keyboard-response","167","666924","0.0-10.0-0.11","c3vdbdcgob","one_one","1","direct_first","1","ke08en03","0","18","1","1","1","1","null","","","<div style=""font-size:60px;"">+</div>","null","","","","","","","","","",""
"","html-keyboard-response","168","667025","0.0-10.0-1.11","c3vdbdcgob","one_one","1","direct_first","1","ke08en03","0","18","1","1","1","1","null","","","<img src = 'category1/CS9.png' width = '100%;'>","null","","","","","","","","","",""
"","html-keyboard-response","169","667305","0.0-10.0-2.11","c3vdbdcgob","one_one","1","direct_first","1","ke08en03","0","18","1","1","1","1","null","","","<img src = 'targets/19.png' width = '100%;'>","null","","","","","","","","","",""
"","html-keyboard-response","170","669439","0.0-10.0-3.11","c3vdbdcgob","one_one","1","direct_first","1","ke08en03","0","18","1","1","1","1","2132","","","<img src = 'targets/mask.png' width = '100%;'>","75","pos","GS","GSold","1","category1/CS9.png","","targets/19.png","indirect","1","11"
"","html-keyboard-response","171","670955","0.0-10.0-0.12","c3vdbdcgob","one_one","1","direct_first","1","ke08en03","0","18","1","1","1","1","null","","","<div style=""font-size:60px;"">+</div>","null","","","","","","","","","",""
"","html-keyboard-response","172","671054","0.0-10.0-1.12","c3vdbdcgob","one_one","1","direct_first","1","ke08en03","0","18","1","1","1","1","null","","","<img src = 'category2/CS10.png' width = '100%;'>","null","","","","","","","","","",""
"","html-keyboard-response","173","671315","0.0-10.0-2.12","c3vdbdcgob","one_one","1","direct_first","1","ke08en03","0","18","1","1","1","1","null","","","<img src = 'targets/35.png' width = '100%;'>","null","","","","","","","","","",""
"","html-keyboard-response","174","672375","0.0-10.0-3.12","c3vdbdcgob","one_one","1","direct_first","1","ke08en03","0","18","1","1","1","1","1059","","","<img src = 'targets/mask.png' width = '100%;'>","75","pos","GS","GSold","2","category2/CS10.png","","targets/35.png","indirect","1","12"
"","html-keyboard-response","175","673910","0.0-10.0-0.13","c3vdbdcgob","one_one","1","direct_first","1","ke08en03","0","18","1","1","1","1","null","","","<div style=""font-size:60px;"">+</div>","null","","","","","","","","","",""
"","html-keyboard-response","176","674011","0.0-10.0-1.13","c3vdbdcgob","one_one","1","direct_first","1","ke08en03","0","18","1","1","1","1","null","","","<img src = 'category3/CS1.png' width = '100%;'>","null","","","","","","","","","",""
"","html-keyboard-response","177","674294","0.0-10.0-2.13","c3vdbdcgob","one_one","1","direct_first","1","ke08en03","0","18","1","1","1","1","null","","","<img src = 'targets/42.png' width = '100%;'>","null","","","","","","","","","",""
"","html-keyboard-response","178","675878","0.0-10.0-3.13","c3vdbdcgob","one_one","1","direct_first","1","ke08en03","0","18","1","1","1","1","1581","","","<img src = 'targets/mask.png' width = '100%;'>","75","neg","CS","CS","3","category3/CS1.png","","targets/42.png","indirect","1","13"
"","html-keyboard-response","179","677414","0.0-10.0-0.14","c3vdbdcgob","one_one","1","direct_first","1","ke08en03","0","18","1","1","1","1","null","","","<div style=""font-size:60px;"">+</div>","null","","","","","","","","","",""
"","html-keyboard-response","180","677514","0.0-10.0-1.14","c3vdbdcgob","one_one","1","direct_first","1","ke08en03","0","18","1","1","1","1","null","","","<img src = 'category1/CS10.png' width = '100%;'>","null","","","","","","","","","",""
"","html-keyboard-response","181","677794","0.0-10.0-2.14","c3vdbdcgob","one_one","1","direct_first","1","ke08en03","0","18","1","1","1","1","null","","","<img src = 'targets/7.png' width = '100%;'>","null","","","","","","","","","",""
"","html-keyboard-response","182","678958","0.0-10.0-3.14","c3vdbdcgob","one_one","1","direct_first","1","ke08en03","0","18","1","1","1","1","1162","","","<img src = 'targets/mask.png' width = '100%;'>","75","pos","CS","CS","1","category1/CS10.png","","targets/7.png","indirect","1","14"
"","html-keyboard-response","183","680494","0.0-10.0-0.15","c3vdbdcgob","one_one","1","direct_first","1","ke08en03","0","18","1","1","1","1","null","","","<div style=""font-size:60px;"">+</div>","null","","","","","","","","","",""
"","html-keyboard-response","184","680595","0.0-10.0-1.15","c3vdbdcgob","one_one","1","direct_first","1","ke08en03","0","18","1","1","1","1","null","","","<img src = 'category4/CS9.png' width = '100%;'>","null","","","","","","","","","",""
"","html-keyboard-response","185","680875","0.0-10.0-2.15","c3vdbdcgob","one_one","1","direct_first","1","ke08en03","0","18","1","1","1","1","null","","","<img src = 'targets/20.png' width = '100%;'>","null","","","","","","","","","",""
"","html-keyboard-response","186","682838","0.0-10.0-3.15","c3vdbdcgob","one_one","1","direct_first","1","ke08en03","0","18","1","1","1","1","1963","","","<img src = 'targets/mask.png' width = '100%;'>","75","neg","CS","CS","4","category4/CS9.png","","targets/20.png","indirect","1","15"
"","survey-html-form","187","687830","0.0-11.0","c3vdbdcgob","one_one","1","direct_first","1","ke08en03","0","18","1","1","1","1","4485","","{}","","","","","","","","","","","",""
"","html-keyboard-response","188","690865","0.0-12.0-0.0","c3vdbdcgob","one_one","1","direct_first","1","ke08en03","0","18","1","1","1","1","null","","","<div style=""font-size:60px;"">+</div>","null","","","","","","","","","",""
"","html-keyboard-response","189","690965","0.0-12.0-1.0","c3vdbdcgob","one_one","1","direct_first","1","ke08en03","0","18","1","1","1","1","null","","","<img src = 'category2/GS3.png' width = '100%;'>","null","","","","","","","","","",""
"","html-keyboard-response","190","691245","0.0-12.0-2.0","c3vdbdcgob","one_one","1","direct_first","1","ke08en03","0","18","1","1","1","1","null","","","<img src = 'targets/34.png' width = '100%;'>","null","","","","","","","","","",""
"","html-keyboard-response","191","692510","0.0-12.0-3.0","c3vdbdcgob","one_one","1","direct_first","1","ke08en03","0","18","1","1","1","1","1265","","","<img src = 'targets/mask.png' width = '100%;'>","75","pos","GS","GSnew","2","category2/GS3.png","","targets/34.png","indirect","1","16"
"","html-keyboard-response","192","694034","0.0-12.0-0.1","c3vdbdcgob","one_one","1","direct_first","1","ke08en03","0","18","1","1","1","1","null","","","<div style=""font-size:60px;"">+</div>","null","","","","","","","","","",""
"","html-keyboard-response","193","694135","0.0-12.0-1.1","c3vdbdcgob","one_one","1","direct_first","1","ke08en03","0","18","1","1","1","1","null","","","<img src = 'category4/GS2.png' width = '100%;'>","null","","","","","","","","","",""
"","html-keyboard-response","194","694414","0.0-12.0-2.1","c3vdbdcgob","one_one","1","direct_first","1","ke08en03","0","18","1","1","1","1","null","","","<img src = 'targets/18.png' width = '100%;'>","null","","","","","","","","","",""
"","html-keyboard-response","195","695078","0.0-12.0-3.1","c3vdbdcgob","one_one","1","direct_first","1","ke08en03","0","18","1","1","1","1","662","","","<img src = 'targets/mask.png' width = '100%;'>","68","neg","GS","GSnew","4","category4/GS2.png","","targets/18.png","indirect","0","17"
"","html-keyboard-response","196","696614","0.0-12.0-0.2","c3vdbdcgob","one_one","1","direct_first","1","ke08en03","0","18","1","1","1","1","null","","","<div style=""font-size:60px;"">+</div>","null","","","","","","","","","",""
"","html-keyboard-response","197","696715","0.0-12.0-1.2","c3vdbdcgob","one_one","1","direct_first","1","ke08en03","0","18","1","1","1","1","null","","","<img src = 'category4/lin.png' width = '100%;'>","null","","","","","","","","","",""
"","html-keyboard-response","198","696994","0.0-12.0-2.2","c3vdbdcgob","one_one","1","direct_first","1","ke08en03","0","18","1","1","1","1","null","","","<img src = 'targets/6.png' width = '100%;'>","null","","","","","","","","","",""
"","html-keyboard-response","199","697766","0.0-12.0-3.2","c3vdbdcgob","one_one","1","direct_first","1","ke08en03","0","18","1","1","1","1","771","","","<img src = 'targets/mask.png' width = '100%;'>","75","neg","GS","abstract","4","category4/lin.png","","targets/6.png","indirect","1","18"
"","html-keyboard-response","200","699273","0.0-12.0-0.3","c3vdbdcgob","one_one","1","direct_first","1","ke08en03","0","18","1","1","1","1","null","","","<div style=""font-size:60px;"">+</div>","null","","","","","","","","","",""
"","html-keyboard-response","201","699374","0.0-12.0-1.3","c3vdbdcgob","one_one","1","direct_first","1","ke08en03","0","18","1","1","1","1","null","","","<img src = 'category1/ma.png' width = '100%;'>","null","","","","","","","","","",""
"","html-keyboard-response","202","699654","0.0-12.0-2.3","c3vdbdcgob","one_one","1","direct_first","1","ke08en03","0","18","1","1","1","1","null","","","<img src = 'targets/14.png' width = '100%;'>","null","","","","","","","","","",""
"","html-keyboard-response","203","703822","0.0-12.0-3.3","c3vdbdcgob","one_one","1","direct_first","1","ke08en03","0","18","1","1","1","1","4167","","","<img src = 'targets/mask.png' width = '100%;'>","68","pos","GS","abstract","1","category1/ma.png","","targets/14.png","indirect","0","19"
"","html-keyboard-response","204","705354","0.0-12.0-0.4","c3vdbdcgob","one_one","1","direct_first","1","ke08en03","0","18","1","1","1","1","null","","","<div style=""font-size:60px;"">+</div>","null","","","","","","","","","",""
"","html-keyboard-response","205","705454","0.0-12.0-1.4","c3vdbdcgob","one_one","1","direct_first","1","ke08en03","0","18","1","1","1","1","null","","","<img src = 'category4/GS1.png' width = '100%;'>","null","","","","","","","","","",""
"","html-keyboard-response","206","705734","0.0-12.0-2.4","c3vdbdcgob","one_one","1","direct_first","1","ke08en03","0","18","1","1","1","1","null","","","<img src = 'targets/43.png' width = '100%;'>","null","","","","","","","","","",""
"","html-keyboard-response","207","707654","0.0-12.0-3.4","c3vdbdcgob","one_one","1","direct_first","1","ke08en03","0","18","1","1","1","1","1917","","","<img src = 'targets/mask.png' width = '100%;'>","68","neg","GS","GSnew","4","category4/GS1.png","","targets/43.png","indirect","0","20"
"","html-keyboard-response","208","709194","0.0-12.0-0.5","c3vdbdcgob","one_one","1","direct_first","1","ke08en03","0","18","1","1","1","1","null","","","<div style=""font-size:60px;"">+</div>","null","","","","","","","","","",""
"","html-keyboard-response","209","709294","0.0-12.0-1.5","c3vdbdcgob","one_one","1","direct_first","1","ke08en03","0","18","1","1","1","1","null","","","<img src = 'category1/GS3.png' width = '100%;'>","null","","","","","","","","","",""
"","html-keyboard-response","210","709574","0.0-12.0-2.5","c3vdbdcgob","one_one","1","direct_first","1","ke08en03","0","18","1","1","1","1","null","","","<img src = 'targets/32.png' width = '100%;'>","null","","","","","","","","","",""
"","html-keyboard-response","211","711070","0.0-12.0-3.5","c3vdbdcgob","one_one","1","direct_first","1","ke08en03","0","18","1","1","1","1","1495","","","<img src = 'targets/mask.png' width = '100%;'>","68","pos","GS","GSnew","1","category1/GS3.png","","targets/32.png","indirect","0","21"
"","html-keyboard-response","212","712594","0.0-12.0-0.6","c3vdbdcgob","one_one","1","direct_first","1","ke08en03","0","18","1","1","1","1","null","","","<div style=""font-size:60px;"">+</div>","null","","","","","","","","","",""
"","html-keyboard-response","213","712694","0.0-12.0-1.6","c3vdbdcgob","one_one","1","direct_first","1","ke08en03","0","18","1","1","1","1","null","","","<img src = 'category3/GS2.png' width = '100%;'>","null","","","","","","","","","",""
"","html-keyboard-response","214","712955","0.0-12.0-2.6","c3vdbdcgob","one_one","1","direct_first","1","ke08en03","0","18","1","1","1","1","null","","","<img src = 'targets/47.png' width = '100%;'>","null","","","","","","","","","",""
"","html-keyboard-response","215","713855","0.0-12.0-3.6","c3vdbdcgob","one_one","1","direct_first","1","ke08en03","0","18","1","1","1","1","898","","","<img src = 'targets/mask.png' width = '100%;'>","75","neg","GS","GSnew","3","category3/GS2.png","","targets/47.png","indirect","1","22"
"","html-keyboard-response","216","715395","0.0-12.0-0.7","c3vdbdcgob","one_one","1","direct_first","1","ke08en03","0","18","1","1","1","1","null","","","<div style=""font-size:60px;"">+</div>","null","","","","","","","","","",""
"","html-keyboard-response","217","715495","0.0-12.0-1.7","c3vdbdcgob","one_one","1","direct_first","1","ke08en03","0","18","1","1","1","1","null","","","<img src = 'category2/men.png' width = '100%;'>","null","","","","","","","","","",""
"","html-keyboard-response","218","715774","0.0-12.0-2.7","c3vdbdcgob","one_one","1","direct_first","1","ke08en03","0","18","1","1","1","1","null","","","<img src = 'targets/38.png' width = '100%;'>","null","","","","","","","","","",""
"","html-keyboard-response","219","717982","0.0-12.0-3.7","c3vdbdcgob","one_one","1","direct_first","1","ke08en03","0","18","1","1","1","1","2206","","","<img src = 'targets/mask.png' width = '100%;'>","68","pos","GS","abstract","2","category2/men.png","","targets/38.png","indirect","0","23"
"","html-keyboard-response","220","719515","0.0-12.0-0.8","c3vdbdcgob","one_one","1","direct_first","1","ke08en03","0","18","1","1","1","1","null","","","<div style=""font-size:60px;"">+</div>","null","","","","","","","","","",""
"","html-keyboard-response","221","719615","0.0-12.0-1.8","c3vdbdcgob","one_one","1","direct_first","1","ke08en03","0","18","1","1","1","1","null","","","<img src = 'category2/GS1.png' width = '100%;'>","null","","","","","","","","","",""
"","html-keyboard-response","222","719895","0.0-12.0-2.8","c3vdbdcgob","one_one","1","direct_first","1","ke08en03","0","18","1","1","1","1","null","","","<img src = 'targets/8.png' width = '100%;'>","null","","","","","","","","","",""
"","html-keyboard-response","223","720614","0.0-12.0-3.8","c3vdbdcgob","one_one","1","direct_first","1","ke08en03","0","18","1","1","1","1","718","","","<img src = 'targets/mask.png' width = '100%;'>","75","pos","GS","GSnew","2","category2/GS1.png","","targets/8.png","indirect","1","24"
"","html-keyboard-response","224","722134","0.0-12.0-0.9","c3vdbdcgob","one_one","1","direct_first","1","ke08en03","0","18","1","1","1","1","null","","","<div style=""font-size:60px;"">+</div>","null","","","","","","","","","",""
"","html-keyboard-response","225","722235","0.0-12.0-1.9","c3vdbdcgob","one_one","1","direct_first","1","ke08en03","0","18","1","1","1","1","null","","","<img src = 'category2/GS2.png' width = '100%;'>","null","","","","","","","","","",""
"","html-keyboard-response","226","722515","0.0-12.0-2.9","c3vdbdcgob","one_one","1","direct_first","1","ke08en03","0","18","1","1","1","1","null","","","<img src = 'targets/33.png' width = '100%;'>","null","","","","","","","","","",""
"","html-keyboard-response","227","724455","0.0-12.0-3.9","c3vdbdcgob","one_one","1","direct_first","1","ke08en03","0","18","1","1","1","1","1937","","","<img src = 'targets/mask.png' width = '100%;'>","68","pos","GS","GSnew","2","category2/GS2.png","","targets/33.png","indirect","0","25"
"","html-keyboard-response","228","725995","0.0-12.0-0.10","c3vdbdcgob","one_one","1","direct_first","1","ke08en03","0","18","1","1","1","1","null","","","<div style=""font-size:60px;"">+</div>","null","","","","","","","","","",""
"","html-keyboard-response","229","726095","0.0-12.0-1.10","c3vdbdcgob","one_one","1","direct_first","1","ke08en03","0","18","1","1","1","1","null","","","<img src = 'category1/GS1.png' width = '100%;'>","null","","","","","","","","","",""
"","html-keyboard-response","230","726375","0.0-12.0-2.10","c3vdbdcgob","one_one","1","direct_first","1","ke08en03","0","18","1","1","1","1","null","","","<img src = 'targets/29.png' width = '100%;'>","null","","","","","","","","","",""
"","html-keyboard-response","231","727318","0.0-12.0-3.10","c3vdbdcgob","one_one","1","direct_first","1","ke08en03","0","18","1","1","1","1","941","","","<img src = 'targets/mask.png' width = '100%;'>","75","pos","GS","GSnew","1","category1/GS1.png","","targets/29.png","indirect","1","26"
"","html-keyboard-response","232","728825","0.0-12.0-0.11","c3vdbdcgob","one_one","1","direct_first","1","ke08en03","0","18","1","1","1","1","null","","","<div style=""font-size:60px;"">+</div>","null","","","","","","","","","",""
"","html-keyboard-response","233","728925","0.0-12.0-1.11","c3vdbdcgob","one_one","1","direct_first","1","ke08en03","0","18","1","1","1","1","null","","","<img src = 'category1/GS2.png' width = '100%;'>","null","","","","","","","","","",""
"","html-keyboard-response","234","729204","0.0-12.0-2.11","c3vdbdcgob","one_one","1","direct_first","1","ke08en03","0","18","1","1","1","1","null","","","<img src = 'targets/16.png' width = '100%;'>","null","","","","","","","","","",""
"","html-keyboard-response","235","730646","0.0-12.0-3.11","c3vdbdcgob","one_one","1","direct_first","1","ke08en03","0","18","1","1","1","1","1440","","","<img src = 'targets/mask.png' width = '100%;'>","68","pos","GS","GSnew","1","category1/GS2.png","","targets/16.png","indirect","0","27"
"","html-keyboard-response","236","732154","0.0-12.0-0.12","c3vdbdcgob","one_one","1","direct_first","1","ke08en03","0","18","1","1","1","1","null","","","<div style=""font-size:60px;"">+</div>","null","","","","","","","","","",""
"","html-keyboard-response","237","732254","0.0-12.0-1.12","c3vdbdcgob","one_one","1","direct_first","1","ke08en03","0","18","1","1","1","1","null","","","<img src = 'category3/GS1.png' width = '100%;'>","null","","","","","","","","","",""
"","html-keyboard-response","238","732535","0.0-12.0-2.12","c3vdbdcgob","one_one","1","direct_first","1","ke08en03","0","18","1","1","1","1","null","","","<img src = 'targets/1.png' width = '100%;'>","null","","","","","","","","","",""
"","html-keyboard-response","239","734374","0.0-12.0-3.12","c3vdbdcgob","one_one","1","direct_first","1","ke08en03","0","18","1","1","1","1","1838","","","<img src = 'targets/mask.png' width = '100%;'>","75","neg","GS","GSnew","3","category3/GS1.png","","targets/1.png","indirect","1","28"
"","html-keyboard-response","240","735914","0.0-12.0-0.13","c3vdbdcgob","one_one","1","direct_first","1","ke08en03","0","18","1","1","1","1","null","","","<div style=""font-size:60px;"">+</div>","null","","","","","","","","","",""
"","html-keyboard-response","241","736015","0.0-12.0-1.13","c3vdbdcgob","one_one","1","direct_first","1","ke08en03","0","18","1","1","1","1","null","","","<img src = 'category3/wang.png' width = '100%;'>","null","","","","","","","","","",""
"","html-keyboard-response","242","736295","0.0-12.0-2.13","c3vdbdcgob","one_one","1","direct_first","1","ke08en03","0","18","1","1","1","1","null","","","<img src = 'targets/40.png' width = '100%;'>","null","","","","","","","","","",""
"","html-keyboard-response","243","740942","0.0-12.0-3.13","c3vdbdcgob","one_one","1","direct_first","1","ke08en03","0","18","1","1","1","1","4646","","","<img src = 'targets/mask.png' width = '100%;'>","68","neg","GS","abstract","3","category3/wang.png","","targets/40.png","indirect","0","29"
"","html-keyboard-response","244","742474","0.0-12.0-0.14","c3vdbdcgob","one_one","1","direct_first","1","ke08en03","0","18","1","1","1","1","null","","","<div style=""font-size:60px;"">+</div>","null","","","","","","","","","",""
"","html-keyboard-response","245","742574","0.0-12.0-1.14","c3vdbdcgob","one_one","1","direct_first","1","ke08en03","0","18","1","1","1","1","null","","","<img src = 'category3/GS3.png' width = '100%;'>","null","","","","","","","","","",""
"","html-keyboard-response","246","742855","0.0-12.0-2.14","c3vdbdcgob","one_one","1","direct_first","1","ke08en03","0","18","1","1","1","1","null","","","<img src = 'targets/27.png' width = '100%;'>","null","","","","","","","","","",""
"","html-keyboard-response","247","745255","0.0-12.0-3.14","c3vdbdcgob","one_one","1","direct_first","1","ke08en03","0","18","1","1","1","1","2398","","","<img src = 'targets/mask.png' width = '100%;'>","75","neg","GS","GSnew","3","category3/GS3.png","","targets/27.png","indirect","1","30"
"","html-keyboard-response","248","746795","0.0-12.0-0.15","c3vdbdcgob","one_one","1","direct_first","1","ke08en03","0","18","1","1","1","1","null","","","<div style=""font-size:60px;"">+</div>","null","","","","","","","","","",""
"","html-keyboard-response","249","746895","0.0-12.0-1.15","c3vdbdcgob","one_one","1","direct_first","1","ke08en03","0","18","1","1","1","1","null","","","<img src = 'category4/GS3.png' width = '100%;'>","null","","","","","","","","","",""
"","html-keyboard-response","250","747174","0.0-12.0-2.15","c3vdbdcgob","one_one","1","direct_first","1","ke08en03","0","18","1","1","1","1","null","","","<img src = 'targets/44.png' width = '100%;'>","null","","","","","","","","","",""
"","html-keyboard-response","251","748422","0.0-12.0-3.15","c3vdbdcgob","one_one","1","direct_first","1","ke08en03","0","18","1","1","1","1","1247","","","<img src = 'targets/mask.png' width = '100%;'>","68","neg","GS","GSnew","4","category4/GS3.png","","targets/44.png","indirect","0","31"
"","survey-html-form","252","756438","0.0-13.0","c3vdbdcgob","one_one","1","direct_first","1","ke08en03","0","18","1","1","1","1","7502","","{}","","","","","","","","","","","",""
"","image-slider-response","253","765237","0.0-14.0-0.0","c3vdbdcgob","one_one","1","direct_first","1","ke08en03","0","18","1","1","1","1","7789","","","","","pos","All","all","1","category1/ma_all.png","43","","all","",""
"","image-slider-response","254","770597","0.0-14.0-0.1","c3vdbdcgob","one_one","1","direct_first","1","ke08en03","0","18","1","1","1","1","5359","","","","","neg","All","all","4","category4/lin_all.png","-25","","all","",""
"","image-slider-response","255","773590","0.0-14.0-0.2","c3vdbdcgob","one_one","1","direct_first","1","ke08en03","0","18","1","1","1","1","2991","","","","","pos","All","all","2","category2/men_all.png","32","","all","",""
"","image-slider-response","256","780301","0.0-14.0-0.3","c3vdbdcgob","one_one","1","direct_first","1","ke08en03","0","18","1","1","1","1","6710","","","","","neg","All","all","3","category3/wang_all.png","28","","all","",""
"","survey-text","257","783887","0.0-15.0","c3vdbdcgob","one_one","1","direct_first","1","ke08en03","0","18","1","1","1","1","3583","","{""Q0"":""""}","","","","","","","","","","","",""
