"success","trial_type","trial_index","time_elapsed","internal_node_id","subject","condition","condition_code","measure","measure_code","codeword","gender","age","education","chinese","fach","handedness","rt","url","responses","stimulus","key_press","val","type","type_specific","category","cs_selected","response","target","task","indirect","nr_pres"
"true","fullscreen","0","2573","0.0-0.0","3s4ehdljbo","many_one","0","direct_first","1","is06nk06","0","23","1","0","3","1","","","","","","","","","","","","","","",""
"","external-html","1","42773","0.0-1.0","3s4ehdljbo","many_one","0","direct_first","1","is06nk06","0","23","1","0","3","1","40189","text/information.html","","","","","","","","","","","","",""
"","external-html","2","71133","0.0-2.0","3s4ehdljbo","many_one","0","direct_first","1","is06nk06","0","23","1","0","3","1","28353","text/consent.html","","","","","","","","","","","","",""
"","survey-html-form","3","145812","0.0-3.0","3s4ehdljbo","many_one","0","direct_first","1","is06nk06","0","23","1","0","3","1","74677","","{""codeword_enter"":""is06nk06""}","","","","","","","","","","","",""
"","survey-html-form","4","164742","0.0-4.0","3s4ehdljbo","many_one","0","direct_first","1","is06nk06","0","23","1","0","3","1","18929","","{""age"":""23"",""education"":""1"",""subject"":""3"",""gender"":""0"",""handedness"":""1"",""chinese"":""0""}","","","","","","","","","","","",""
"","survey-html-form","5","168477","0.0-5.0","3s4ehdljbo","many_one","0","direct_first","1","is06nk06","0","23","1","0","3","1","3733","","{}","","","","","","","","","","","",""
"","html-keyboard-response","6","172502","0.0-6.0-0.0-0.0","3s4ehdljbo","many_one","0","direct_first","1","is06nk06","0","23","1","0","3","1","null","","","<div class = 'row'><div class = 'column'><img src = 'category4/CS3.png' width = '70%;'></div><div class = 'column'><img src = 'usneg/6838.bmp' width = '100%;'></div></div>","null","neg","CS","CS","4","category4/CS3.png","","","","",""
"","html-keyboard-response","7","175038","0.0-6.0-0.0-0.1","3s4ehdljbo","many_one","0","direct_first","1","is06nk06","0","23","1","0","3","1","null","","","<div class = 'row'><div class = 'column'><img src = 'uspos/1440.bmp' width = '100%;'></div><div class = 'column'><img src = 'category1/CS4.png' width = '70%;'></div></div>","null","pos","CS","CS","1","category1/CS4.png","","","","",""
"","html-keyboard-response","8","177542","0.0-6.0-0.0-0.2","3s4ehdljbo","many_one","0","direct_first","1","is06nk06","0","23","1","0","3","1","null","","","<div class = 'row'><div class = 'column'><img src = 'usneg/9330.bmp' width = '100%;'></div><div class = 'column'><img src = 'category3/CS1.png' width = '70%;'></div></div>","null","neg","CS","CS","3","category3/CS1.png","","","","",""
"","html-keyboard-response","9","180082","0.0-6.0-0.0-0.3","3s4ehdljbo","many_one","0","direct_first","1","is06nk06","0","23","1","0","3","1","null","","","<div class = 'row'><div class = 'column'><img src = 'usneg/2205.bmp' width = '100%;'></div><div class = 'column'><img src = 'category4/CS10.png' width = '70%;'></div></div>","null","neg","CS","CS","4","category4/CS10.png","","","","",""
"","html-keyboard-response","10","182622","0.0-6.0-0.0-0.4","3s4ehdljbo","many_one","0","direct_first","1","is06nk06","0","23","1","0","3","1","null","","","<div class = 'row'><div class = 'column'><img src = 'uspos/2530.bmp' width = '100%;'></div><div class = 'column'><img src = 'category1/CS7.png' width = '70%;'></div></div>","null","pos","CS","CS","1","category1/CS7.png","","","","",""
"","html-keyboard-response","11","185162","0.0-6.0-0.0-0.5","3s4ehdljbo","many_one","0","direct_first","1","is06nk06","0","23","1","0","3","1","null","","","<div class = 'row'><div class = 'column'><img src = 'category3/CS10.png' width = '70%;'></div><div class = 'column'><img src = 'usneg/6212.bmp' width = '100%;'></div></div>","null","neg","CS","CS","3","category3/CS10.png","","","","",""
"","html-keyboard-response","12","187702","0.0-6.0-0.0-0.6","3s4ehdljbo","many_one","0","direct_first","1","is06nk06","0","23","1","0","3","1","null","","","<div class = 'row'><div class = 'column'><img src = 'usneg/3160.bmp' width = '100%;'></div><div class = 'column'><img src = 'category4/CS2.png' width = '70%;'></div></div>","null","neg","CS","CS","4","category4/CS2.png","","","","",""
"","html-keyboard-response","13","190243","0.0-6.0-0.0-0.7","3s4ehdljbo","many_one","0","direct_first","1","is06nk06","0","23","1","0","3","1","null","","","<div class = 'row'><div class = 'column'><img src = 'uspos/8490.bmp' width = '100%;'></div><div class = 'column'><img src = 'category2/CS4.png' width = '70%;'></div></div>","null","pos","CS","CS","2","category2/CS4.png","","","","",""
"","html-keyboard-response","14","192782","0.0-6.0-0.0-0.8","3s4ehdljbo","many_one","0","direct_first","1","is06nk06","0","23","1","0","3","1","null","","","<div class = 'row'><div class = 'column'><img src = 'category3/CS6.png' width = '70%;'></div><div class = 'column'><img src = 'usneg/8485.bmp' width = '100%;'></div></div>","null","neg","CS","CS","3","category3/CS6.png","","","","",""
"","html-keyboard-response","15","195322","0.0-6.0-0.0-0.9","3s4ehdljbo","many_one","0","direct_first","1","is06nk06","0","23","1","0","3","1","null","","","<div class = 'row'><div class = 'column'><img src = 'usneg/3300.bmp' width = '100%;'></div><div class = 'column'><img src = 'category3/CS9.png' width = '70%;'></div></div>","null","neg","CS","CS","3","category3/CS9.png","","","","",""
"","html-keyboard-response","16","197863","0.0-6.0-0.0-0.10","3s4ehdljbo","many_one","0","direct_first","1","is06nk06","0","23","1","0","3","1","null","","","<div class = 'row'><div class = 'column'><img src = 'category2/CS10.png' width = '70%;'></div><div class = 'column'><img src = 'uspos/2058.bmp' width = '100%;'></div></div>","null","pos","CS","CS","2","category2/CS10.png","","","","",""
"","html-keyboard-response","17","200403","0.0-6.0-0.0-0.11","3s4ehdljbo","many_one","0","direct_first","1","is06nk06","0","23","1","0","3","1","null","","","<div class = 'row'><div class = 'column'><img src = 'category4/CS5.png' width = '70%;'></div><div class = 'column'><img src = 'usneg/9560.bmp' width = '100%;'></div></div>","null","neg","CS","CS","4","category4/CS5.png","","","","",""
"","html-keyboard-response","18","202942","0.0-6.0-0.0-0.12","3s4ehdljbo","many_one","0","direct_first","1","is06nk06","0","23","1","0","3","1","null","","","<div class = 'row'><div class = 'column'><img src = 'uspos/1710.bmp' width = '100%;'></div><div class = 'column'><img src = 'category2/CS7.png' width = '70%;'></div></div>","null","pos","CS","CS","2","category2/CS7.png","","","","",""
"","html-keyboard-response","19","205482","0.0-6.0-0.0-0.13","3s4ehdljbo","many_one","0","direct_first","1","is06nk06","0","23","1","0","3","1","null","","","<div class = 'row'><div class = 'column'><img src = 'usneg/2141.bmp' width = '100%;'></div><div class = 'column'><img src = 'category4/CS7.png' width = '70%;'></div></div>","null","neg","CS","CS","4","category4/CS7.png","","","","",""
"","html-keyboard-response","20","208012","0.0-6.0-0.0-0.14","3s4ehdljbo","many_one","0","direct_first","1","is06nk06","0","23","1","0","3","1","null","","","<div class = 'row'><div class = 'column'><img src = 'category1/CS3.png' width = '70%;'></div><div class = 'column'><img src = 'uspos/1463.bmp' width = '100%;'></div></div>","null","pos","CS","CS","1","category1/CS3.png","","","","",""
"","html-keyboard-response","21","210552","0.0-6.0-0.0-0.15","3s4ehdljbo","many_one","0","direct_first","1","is06nk06","0","23","1","0","3","1","null","","","<div class = 'row'><div class = 'column'><img src = 'category1/CS1.png' width = '70%;'></div><div class = 'column'><img src = 'uspos/4625.bmp' width = '100%;'></div></div>","null","pos","CS","CS","1","category1/CS1.png","","","","",""
"","html-keyboard-response","22","213092","0.0-6.0-0.0-0.16","3s4ehdljbo","many_one","0","direct_first","1","is06nk06","0","23","1","0","3","1","null","","","<div class = 'row'><div class = 'column'><img src = 'category2/CS2.png' width = '70%;'></div><div class = 'column'><img src = 'uspos/2340.bmp' width = '100%;'></div></div>","null","pos","CS","CS","2","category2/CS2.png","","","","",""
"","html-keyboard-response","23","215632","0.0-6.0-0.0-0.17","3s4ehdljbo","many_one","0","direct_first","1","is06nk06","0","23","1","0","3","1","null","","","<div class = 'row'><div class = 'column'><img src = 'category1/CS9.png' width = '70%;'></div><div class = 'column'><img src = 'uspos/2900.2.bmp' width = '100%;'></div></div>","null","pos","CS","CS","1","category1/CS9.png","","","","",""
"","html-keyboard-response","24","218172","0.0-6.0-0.0-0.18","3s4ehdljbo","many_one","0","direct_first","1","is06nk06","0","23","1","0","3","1","null","","","<div class = 'row'><div class = 'column'><img src = 'usneg/9830.bmp' width = '100%;'></div><div class = 'column'><img src = 'category3/CS2.png' width = '70%;'></div></div>","null","neg","CS","CS","3","category3/CS2.png","","","","",""
"","html-keyboard-response","25","220712","0.0-6.0-0.0-0.19","3s4ehdljbo","many_one","0","direct_first","1","is06nk06","0","23","1","0","3","1","null","","","<div class = 'row'><div class = 'column'><img src = 'uspos/5470.bmp' width = '100%;'></div><div class = 'column'><img src = 'category2/CS8.png' width = '70%;'></div></div>","null","pos","CS","CS","2","category2/CS8.png","","","","",""
"","survey-html-form","26","223989","0.0-6.0-1.0","3s4ehdljbo","many_one","0","direct_first","1","is06nk06","0","23","1","0","3","1","2757","","{}","","","","","","","","","","","",""
"","html-keyboard-response","27","228012","0.0-6.0-2.0-0.0","3s4ehdljbo","many_one","0","direct_first","1","is06nk06","0","23","1","0","3","1","null","","","<div class = 'row'><div class = 'column'><img src = 'usneg/3300.bmp' width = '100%;'></div><div class = 'column'><img src = 'category3/CS9.png' width = '70%;'></div></div>","null","neg","CS","CS","3","category3/CS9.png","","","","",""
"","html-keyboard-response","28","230532","0.0-6.0-2.0-0.1","3s4ehdljbo","many_one","0","direct_first","1","is06nk06","0","23","1","0","3","1","null","","","<div class = 'row'><div class = 'column'><img src = 'category4/CS2.png' width = '70%;'></div><div class = 'column'><img src = 'usneg/3160.bmp' width = '100%;'></div></div>","null","neg","CS","CS","4","category4/CS2.png","","","","",""
"","html-keyboard-response","29","233071","0.0-6.0-2.0-0.2","3s4ehdljbo","many_one","0","direct_first","1","is06nk06","0","23","1","0","3","1","null","","","<div class = 'row'><div class = 'column'><img src = 'uspos/2900.2.bmp' width = '100%;'></div><div class = 'column'><img src = 'category1/CS9.png' width = '70%;'></div></div>","null","pos","CS","CS","1","category1/CS9.png","","","","",""
"","html-keyboard-response","30","235607","0.0-6.0-2.0-0.3","3s4ehdljbo","many_one","0","direct_first","1","is06nk06","0","23","1","0","3","1","null","","","<div class = 'row'><div class = 'column'><img src = 'category2/CS4.png' width = '70%;'></div><div class = 'column'><img src = 'uspos/8490.bmp' width = '100%;'></div></div>","null","pos","CS","CS","2","category2/CS4.png","","","","",""
"","html-keyboard-response","31","238131","0.0-6.0-2.0-0.4","3s4ehdljbo","many_one","0","direct_first","1","is06nk06","0","23","1","0","3","1","null","","","<div class = 'row'><div class = 'column'><img src = 'usneg/2141.bmp' width = '100%;'></div><div class = 'column'><img src = 'category4/CS7.png' width = '70%;'></div></div>","null","neg","CS","CS","4","category4/CS7.png","","","","",""
"","html-keyboard-response","32","240662","0.0-6.0-2.0-0.5","3s4ehdljbo","many_one","0","direct_first","1","is06nk06","0","23","1","0","3","1","null","","","<div class = 'row'><div class = 'column'><img src = 'uspos/1440.bmp' width = '100%;'></div><div class = 'column'><img src = 'category1/CS4.png' width = '70%;'></div></div>","null","pos","CS","CS","1","category1/CS4.png","","","","",""
"","html-keyboard-response","33","243202","0.0-6.0-2.0-0.6","3s4ehdljbo","many_one","0","direct_first","1","is06nk06","0","23","1","0","3","1","null","","","<div class = 'row'><div class = 'column'><img src = 'usneg/9560.bmp' width = '100%;'></div><div class = 'column'><img src = 'category4/CS5.png' width = '70%;'></div></div>","null","neg","CS","CS","4","category4/CS5.png","","","","",""
"","html-keyboard-response","34","245731","0.0-6.0-2.0-0.7","3s4ehdljbo","many_one","0","direct_first","1","is06nk06","0","23","1","0","3","1","null","","","<div class = 'row'><div class = 'column'><img src = 'usneg/2205.bmp' width = '100%;'></div><div class = 'column'><img src = 'category4/CS10.png' width = '70%;'></div></div>","null","neg","CS","CS","4","category4/CS10.png","","","","",""
"","html-keyboard-response","35","248247","0.0-6.0-2.0-0.8","3s4ehdljbo","many_one","0","direct_first","1","is06nk06","0","23","1","0","3","1","null","","","<div class = 'row'><div class = 'column'><img src = 'usneg/8485.bmp' width = '100%;'></div><div class = 'column'><img src = 'category3/CS6.png' width = '70%;'></div></div>","null","neg","CS","CS","3","category3/CS6.png","","","","",""
"","html-keyboard-response","36","250752","0.0-6.0-2.0-0.9","3s4ehdljbo","many_one","0","direct_first","1","is06nk06","0","23","1","0","3","1","null","","","<div class = 'row'><div class = 'column'><img src = 'category2/CS10.png' width = '70%;'></div><div class = 'column'><img src = 'uspos/2058.bmp' width = '100%;'></div></div>","null","pos","CS","CS","2","category2/CS10.png","","","","",""
"","html-keyboard-response","37","253291","0.0-6.0-2.0-0.10","3s4ehdljbo","many_one","0","direct_first","1","is06nk06","0","23","1","0","3","1","null","","","<div class = 'row'><div class = 'column'><img src = 'usneg/9330.bmp' width = '100%;'></div><div class = 'column'><img src = 'category3/CS1.png' width = '70%;'></div></div>","null","neg","CS","CS","3","category3/CS1.png","","","","",""
"","html-keyboard-response","38","255811","0.0-6.0-2.0-0.11","3s4ehdljbo","many_one","0","direct_first","1","is06nk06","0","23","1","0","3","1","null","","","<div class = 'row'><div class = 'column'><img src = 'uspos/2340.bmp' width = '100%;'></div><div class = 'column'><img src = 'category2/CS2.png' width = '70%;'></div></div>","null","pos","CS","CS","2","category2/CS2.png","","","","",""
"","html-keyboard-response","39","258352","0.0-6.0-2.0-0.12","3s4ehdljbo","many_one","0","direct_first","1","is06nk06","0","23","1","0","3","1","null","","","<div class = 'row'><div class = 'column'><img src = 'usneg/6838.bmp' width = '100%;'></div><div class = 'column'><img src = 'category4/CS3.png' width = '70%;'></div></div>","null","neg","CS","CS","4","category4/CS3.png","","","","",""
"","html-keyboard-response","40","260891","0.0-6.0-2.0-0.13","3s4ehdljbo","many_one","0","direct_first","1","is06nk06","0","23","1","0","3","1","null","","","<div class = 'row'><div class = 'column'><img src = 'uspos/1463.bmp' width = '100%;'></div><div class = 'column'><img src = 'category1/CS3.png' width = '70%;'></div></div>","null","pos","CS","CS","1","category1/CS3.png","","","","",""
"","html-keyboard-response","41","263432","0.0-6.0-2.0-0.14","3s4ehdljbo","many_one","0","direct_first","1","is06nk06","0","23","1","0","3","1","null","","","<div class = 'row'><div class = 'column'><img src = 'category2/CS8.png' width = '70%;'></div><div class = 'column'><img src = 'uspos/5470.bmp' width = '100%;'></div></div>","null","pos","CS","CS","2","category2/CS8.png","","","","",""
"","html-keyboard-response","42","265971","0.0-6.0-2.0-0.15","3s4ehdljbo","many_one","0","direct_first","1","is06nk06","0","23","1","0","3","1","null","","","<div class = 'row'><div class = 'column'><img src = 'uspos/2530.bmp' width = '100%;'></div><div class = 'column'><img src = 'category1/CS7.png' width = '70%;'></div></div>","null","pos","CS","CS","1","category1/CS7.png","","","","",""
"","html-keyboard-response","43","268512","0.0-6.0-2.0-0.16","3s4ehdljbo","many_one","0","direct_first","1","is06nk06","0","23","1","0","3","1","null","","","<div class = 'row'><div class = 'column'><img src = 'uspos/4625.bmp' width = '100%;'></div><div class = 'column'><img src = 'category1/CS1.png' width = '70%;'></div></div>","null","pos","CS","CS","1","category1/CS1.png","","","","",""
"","html-keyboard-response","44","271032","0.0-6.0-2.0-0.17","3s4ehdljbo","many_one","0","direct_first","1","is06nk06","0","23","1","0","3","1","null","","","<div class = 'row'><div class = 'column'><img src = 'category3/CS2.png' width = '70%;'></div><div class = 'column'><img src = 'usneg/9830.bmp' width = '100%;'></div></div>","null","neg","CS","CS","3","category3/CS2.png","","","","",""
"","html-keyboard-response","45","273571","0.0-6.0-2.0-0.18","3s4ehdljbo","many_one","0","direct_first","1","is06nk06","0","23","1","0","3","1","null","","","<div class = 'row'><div class = 'column'><img src = 'category3/CS10.png' width = '70%;'></div><div class = 'column'><img src = 'usneg/6212.bmp' width = '100%;'></div></div>","null","neg","CS","CS","3","category3/CS10.png","","","","",""
"","html-keyboard-response","46","276112","0.0-6.0-2.0-0.19","3s4ehdljbo","many_one","0","direct_first","1","is06nk06","0","23","1","0","3","1","null","","","<div class = 'row'><div class = 'column'><img src = 'category2/CS7.png' width = '70%;'></div><div class = 'column'><img src = 'uspos/1710.bmp' width = '100%;'></div></div>","null","pos","CS","CS","2","category2/CS7.png","","","","",""
"","survey-html-form","47","278333","0.0-6.0-3.0","3s4ehdljbo","many_one","0","direct_first","1","is06nk06","0","23","1","0","3","1","1701","","{}","","","","","","","","","","","",""
"","html-keyboard-response","48","282356","0.0-6.0-4.0-0.0","3s4ehdljbo","many_one","0","direct_first","1","is06nk06","0","23","1","0","3","1","null","","","<div class = 'row'><div class = 'column'><img src = 'usneg/3300.bmp' width = '100%;'></div><div class = 'column'><img src = 'category3/CS9.png' width = '70%;'></div></div>","null","neg","CS","CS","3","category3/CS9.png","","","","",""
"","html-keyboard-response","49","284882","0.0-6.0-4.0-0.1","3s4ehdljbo","many_one","0","direct_first","1","is06nk06","0","23","1","0","3","1","null","","","<div class = 'row'><div class = 'column'><img src = 'category4/CS5.png' width = '70%;'></div><div class = 'column'><img src = 'usneg/9560.bmp' width = '100%;'></div></div>","null","neg","CS","CS","4","category4/CS5.png","","","","",""
"","html-keyboard-response","50","287422","0.0-6.0-4.0-0.2","3s4ehdljbo","many_one","0","direct_first","1","is06nk06","0","23","1","0","3","1","null","","","<div class = 'row'><div class = 'column'><img src = 'uspos/1440.bmp' width = '100%;'></div><div class = 'column'><img src = 'category1/CS4.png' width = '70%;'></div></div>","null","pos","CS","CS","1","category1/CS4.png","","","","",""
"","html-keyboard-response","51","289961","0.0-6.0-4.0-0.3","3s4ehdljbo","many_one","0","direct_first","1","is06nk06","0","23","1","0","3","1","null","","","<div class = 'row'><div class = 'column'><img src = 'category4/CS7.png' width = '70%;'></div><div class = 'column'><img src = 'usneg/2141.bmp' width = '100%;'></div></div>","null","neg","CS","CS","4","category4/CS7.png","","","","",""
"","html-keyboard-response","52","292502","0.0-6.0-4.0-0.4","3s4ehdljbo","many_one","0","direct_first","1","is06nk06","0","23","1","0","3","1","null","","","<div class = 'row'><div class = 'column'><img src = 'uspos/2900.2.bmp' width = '100%;'></div><div class = 'column'><img src = 'category1/CS9.png' width = '70%;'></div></div>","null","pos","CS","CS","1","category1/CS9.png","","","","",""
"","html-keyboard-response","53","295042","0.0-6.0-4.0-0.5","3s4ehdljbo","many_one","0","direct_first","1","is06nk06","0","23","1","0","3","1","null","","","<div class = 'row'><div class = 'column'><img src = 'uspos/2340.bmp' width = '100%;'></div><div class = 'column'><img src = 'category2/CS2.png' width = '70%;'></div></div>","null","pos","CS","CS","2","category2/CS2.png","","","","",""
"","html-keyboard-response","54","297582","0.0-6.0-4.0-0.6","3s4ehdljbo","many_one","0","direct_first","1","is06nk06","0","23","1","0","3","1","null","","","<div class = 'row'><div class = 'column'><img src = 'uspos/5470.bmp' width = '100%;'></div><div class = 'column'><img src = 'category2/CS8.png' width = '70%;'></div></div>","null","pos","CS","CS","2","category2/CS8.png","","","","",""
"","html-keyboard-response","55","300121","0.0-6.0-4.0-0.7","3s4ehdljbo","many_one","0","direct_first","1","is06nk06","0","23","1","0","3","1","null","","","<div class = 'row'><div class = 'column'><img src = 'category1/CS1.png' width = '70%;'></div><div class = 'column'><img src = 'uspos/4625.bmp' width = '100%;'></div></div>","null","pos","CS","CS","1","category1/CS1.png","","","","",""
"","html-keyboard-response","56","302642","0.0-6.0-4.0-0.8","3s4ehdljbo","many_one","0","direct_first","1","is06nk06","0","23","1","0","3","1","null","","","<div class = 'row'><div class = 'column'><img src = 'category3/CS6.png' width = '70%;'></div><div class = 'column'><img src = 'usneg/8485.bmp' width = '100%;'></div></div>","null","neg","CS","CS","3","category3/CS6.png","","","","",""
"","html-keyboard-response","57","305162","0.0-6.0-4.0-0.9","3s4ehdljbo","many_one","0","direct_first","1","is06nk06","0","23","1","0","3","1","null","","","<div class = 'row'><div class = 'column'><img src = 'usneg/6212.bmp' width = '100%;'></div><div class = 'column'><img src = 'category3/CS10.png' width = '70%;'></div></div>","null","neg","CS","CS","3","category3/CS10.png","","","","",""
"","html-keyboard-response","58","307681","0.0-6.0-4.0-0.10","3s4ehdljbo","many_one","0","direct_first","1","is06nk06","0","23","1","0","3","1","null","","","<div class = 'row'><div class = 'column'><img src = 'uspos/8490.bmp' width = '100%;'></div><div class = 'column'><img src = 'category2/CS4.png' width = '70%;'></div></div>","null","pos","CS","CS","2","category2/CS4.png","","","","",""
"","html-keyboard-response","59","310222","0.0-6.0-4.0-0.11","3s4ehdljbo","many_one","0","direct_first","1","is06nk06","0","23","1","0","3","1","null","","","<div class = 'row'><div class = 'column'><img src = 'category4/CS2.png' width = '70%;'></div><div class = 'column'><img src = 'usneg/3160.bmp' width = '100%;'></div></div>","null","neg","CS","CS","4","category4/CS2.png","","","","",""
"","html-keyboard-response","60","312761","0.0-6.0-4.0-0.12","3s4ehdljbo","many_one","0","direct_first","1","is06nk06","0","23","1","0","3","1","null","","","<div class = 'row'><div class = 'column'><img src = 'category2/CS10.png' width = '70%;'></div><div class = 'column'><img src = 'uspos/2058.bmp' width = '100%;'></div></div>","null","pos","CS","CS","2","category2/CS10.png","","","","",""
"","html-keyboard-response","61","315281","0.0-6.0-4.0-0.13","3s4ehdljbo","many_one","0","direct_first","1","is06nk06","0","23","1","0","3","1","null","","","<div class = 'row'><div class = 'column'><img src = 'category4/CS10.png' width = '70%;'></div><div class = 'column'><img src = 'usneg/2205.bmp' width = '100%;'></div></div>","null","neg","CS","CS","4","category4/CS10.png","","","","",""
"","html-keyboard-response","62","317782","0.0-6.0-4.0-0.14","3s4ehdljbo","many_one","0","direct_first","1","is06nk06","0","23","1","0","3","1","null","","","<div class = 'row'><div class = 'column'><img src = 'category1/CS7.png' width = '70%;'></div><div class = 'column'><img src = 'uspos/2530.bmp' width = '100%;'></div></div>","null","pos","CS","CS","1","category1/CS7.png","","","","",""
"","html-keyboard-response","63","320322","0.0-6.0-4.0-0.15","3s4ehdljbo","many_one","0","direct_first","1","is06nk06","0","23","1","0","3","1","null","","","<div class = 'row'><div class = 'column'><img src = 'category4/CS3.png' width = '70%;'></div><div class = 'column'><img src = 'usneg/6838.bmp' width = '100%;'></div></div>","null","neg","CS","CS","4","category4/CS3.png","","","","",""
"","html-keyboard-response","64","322862","0.0-6.0-4.0-0.16","3s4ehdljbo","many_one","0","direct_first","1","is06nk06","0","23","1","0","3","1","null","","","<div class = 'row'><div class = 'column'><img src = 'usneg/9830.bmp' width = '100%;'></div><div class = 'column'><img src = 'category3/CS2.png' width = '70%;'></div></div>","null","neg","CS","CS","3","category3/CS2.png","","","","",""
"","html-keyboard-response","65","325401","0.0-6.0-4.0-0.17","3s4ehdljbo","many_one","0","direct_first","1","is06nk06","0","23","1","0","3","1","null","","","<div class = 'row'><div class = 'column'><img src = 'category1/CS3.png' width = '70%;'></div><div class = 'column'><img src = 'uspos/1463.bmp' width = '100%;'></div></div>","null","pos","CS","CS","1","category1/CS3.png","","","","",""
"","html-keyboard-response","66","327922","0.0-6.0-4.0-0.18","3s4ehdljbo","many_one","0","direct_first","1","is06nk06","0","23","1","0","3","1","null","","","<div class = 'row'><div class = 'column'><img src = 'category3/CS1.png' width = '70%;'></div><div class = 'column'><img src = 'usneg/9330.bmp' width = '100%;'></div></div>","null","neg","CS","CS","3","category3/CS1.png","","","","",""
"","html-keyboard-response","67","330461","0.0-6.0-4.0-0.19","3s4ehdljbo","many_one","0","direct_first","1","is06nk06","0","23","1","0","3","1","null","","","<div class = 'row'><div class = 'column'><img src = 'category2/CS7.png' width = '70%;'></div><div class = 'column'><img src = 'uspos/1710.bmp' width = '100%;'></div></div>","null","pos","CS","CS","2","category2/CS7.png","","","","",""
"","survey-html-form","68","332277","0.0-6.0-5.0","3s4ehdljbo","many_one","0","direct_first","1","is06nk06","0","23","1","0","3","1","1294","","{}","","","","","","","","","","","",""
"","html-keyboard-response","69","336301","0.0-6.0-6.0-0.0","3s4ehdljbo","many_one","0","direct_first","1","is06nk06","0","23","1","0","3","1","null","","","<div class = 'row'><div class = 'column'><img src = 'category3/CS1.png' width = '70%;'></div><div class = 'column'><img src = 'usneg/9330.bmp' width = '100%;'></div></div>","null","neg","CS","CS","3","category3/CS1.png","","","","",""
"","html-keyboard-response","70","338841","0.0-6.0-6.0-0.1","3s4ehdljbo","many_one","0","direct_first","1","is06nk06","0","23","1","0","3","1","null","","","<div class = 'row'><div class = 'column'><img src = 'category1/CS1.png' width = '70%;'></div><div class = 'column'><img src = 'uspos/4625.bmp' width = '100%;'></div></div>","null","pos","CS","CS","1","category1/CS1.png","","","","",""
"","html-keyboard-response","71","341381","0.0-6.0-6.0-0.2","3s4ehdljbo","many_one","0","direct_first","1","is06nk06","0","23","1","0","3","1","null","","","<div class = 'row'><div class = 'column'><img src = 'uspos/2900.2.bmp' width = '100%;'></div><div class = 'column'><img src = 'category1/CS9.png' width = '70%;'></div></div>","null","pos","CS","CS","1","category1/CS9.png","","","","",""
"","html-keyboard-response","72","343922","0.0-6.0-6.0-0.3","3s4ehdljbo","many_one","0","direct_first","1","is06nk06","0","23","1","0","3","1","null","","","<div class = 'row'><div class = 'column'><img src = 'category3/CS2.png' width = '70%;'></div><div class = 'column'><img src = 'usneg/9830.bmp' width = '100%;'></div></div>","null","neg","CS","CS","3","category3/CS2.png","","","","",""
"","html-keyboard-response","73","346461","0.0-6.0-6.0-0.4","3s4ehdljbo","many_one","0","direct_first","1","is06nk06","0","23","1","0","3","1","null","","","<div class = 'row'><div class = 'column'><img src = 'category1/CS3.png' width = '70%;'></div><div class = 'column'><img src = 'uspos/1463.bmp' width = '100%;'></div></div>","null","pos","CS","CS","1","category1/CS3.png","","","","",""
"","html-keyboard-response","74","348972","0.0-6.0-6.0-0.5","3s4ehdljbo","many_one","0","direct_first","1","is06nk06","0","23","1","0","3","1","null","","","<div class = 'row'><div class = 'column'><img src = 'uspos/2340.bmp' width = '100%;'></div><div class = 'column'><img src = 'category2/CS2.png' width = '70%;'></div></div>","null","pos","CS","CS","2","category2/CS2.png","","","","",""
"","html-keyboard-response","75","351512","0.0-6.0-6.0-0.6","3s4ehdljbo","many_one","0","direct_first","1","is06nk06","0","23","1","0","3","1","null","","","<div class = 'row'><div class = 'column'><img src = 'uspos/5470.bmp' width = '100%;'></div><div class = 'column'><img src = 'category2/CS8.png' width = '70%;'></div></div>","null","pos","CS","CS","2","category2/CS8.png","","","","",""
"","html-keyboard-response","76","354051","0.0-6.0-6.0-0.7","3s4ehdljbo","many_one","0","direct_first","1","is06nk06","0","23","1","0","3","1","null","","","<div class = 'row'><div class = 'column'><img src = 'category4/CS2.png' width = '70%;'></div><div class = 'column'><img src = 'usneg/3160.bmp' width = '100%;'></div></div>","null","neg","CS","CS","4","category4/CS2.png","","","","",""
"","html-keyboard-response","77","356592","0.0-6.0-6.0-0.8","3s4ehdljbo","many_one","0","direct_first","1","is06nk06","0","23","1","0","3","1","null","","","<div class = 'row'><div class = 'column'><img src = 'uspos/2058.bmp' width = '100%;'></div><div class = 'column'><img src = 'category2/CS10.png' width = '70%;'></div></div>","null","pos","CS","CS","2","category2/CS10.png","","","","",""
"","html-keyboard-response","78","359131","0.0-6.0-6.0-0.9","3s4ehdljbo","many_one","0","direct_first","1","is06nk06","0","23","1","0","3","1","null","","","<div class = 'row'><div class = 'column'><img src = 'usneg/9560.bmp' width = '100%;'></div><div class = 'column'><img src = 'category4/CS5.png' width = '70%;'></div></div>","null","neg","CS","CS","4","category4/CS5.png","","","","",""
"","html-keyboard-response","79","361672","0.0-6.0-6.0-0.10","3s4ehdljbo","many_one","0","direct_first","1","is06nk06","0","23","1","0","3","1","null","","","<div class = 'row'><div class = 'column'><img src = 'usneg/3300.bmp' width = '100%;'></div><div class = 'column'><img src = 'category3/CS9.png' width = '70%;'></div></div>","null","neg","CS","CS","3","category3/CS9.png","","","","",""
"","html-keyboard-response","80","364192","0.0-6.0-6.0-0.11","3s4ehdljbo","many_one","0","direct_first","1","is06nk06","0","23","1","0","3","1","null","","","<div class = 'row'><div class = 'column'><img src = 'usneg/8485.bmp' width = '100%;'></div><div class = 'column'><img src = 'category3/CS6.png' width = '70%;'></div></div>","null","neg","CS","CS","3","category3/CS6.png","","","","",""
"","html-keyboard-response","81","366730","0.0-6.0-6.0-0.12","3s4ehdljbo","many_one","0","direct_first","1","is06nk06","0","23","1","0","3","1","null","","","<div class = 'row'><div class = 'column'><img src = 'category2/CS4.png' width = '70%;'></div><div class = 'column'><img src = 'uspos/8490.bmp' width = '100%;'></div></div>","null","pos","CS","CS","2","category2/CS4.png","","","","",""
"","html-keyboard-response","82","369271","0.0-6.0-6.0-0.13","3s4ehdljbo","many_one","0","direct_first","1","is06nk06","0","23","1","0","3","1","null","","","<div class = 'row'><div class = 'column'><img src = 'uspos/2530.bmp' width = '100%;'></div><div class = 'column'><img src = 'category1/CS7.png' width = '70%;'></div></div>","null","pos","CS","CS","1","category1/CS7.png","","","","",""
"","html-keyboard-response","83","371800","0.0-6.0-6.0-0.14","3s4ehdljbo","many_one","0","direct_first","1","is06nk06","0","23","1","0","3","1","null","","","<div class = 'row'><div class = 'column'><img src = 'uspos/1710.bmp' width = '100%;'></div><div class = 'column'><img src = 'category2/CS7.png' width = '70%;'></div></div>","null","pos","CS","CS","2","category2/CS7.png","","","","",""
"","html-keyboard-response","84","374311","0.0-6.0-6.0-0.15","3s4ehdljbo","many_one","0","direct_first","1","is06nk06","0","23","1","0","3","1","null","","","<div class = 'row'><div class = 'column'><img src = 'usneg/2205.bmp' width = '100%;'></div><div class = 'column'><img src = 'category4/CS10.png' width = '70%;'></div></div>","null","neg","CS","CS","4","category4/CS10.png","","","","",""
"","html-keyboard-response","85","376851","0.0-6.0-6.0-0.16","3s4ehdljbo","many_one","0","direct_first","1","is06nk06","0","23","1","0","3","1","null","","","<div class = 'row'><div class = 'column'><img src = 'category3/CS10.png' width = '70%;'></div><div class = 'column'><img src = 'usneg/6212.bmp' width = '100%;'></div></div>","null","neg","CS","CS","3","category3/CS10.png","","","","",""
"","html-keyboard-response","86","379382","0.0-6.0-6.0-0.17","3s4ehdljbo","many_one","0","direct_first","1","is06nk06","0","23","1","0","3","1","null","","","<div class = 'row'><div class = 'column'><img src = 'uspos/1440.bmp' width = '100%;'></div><div class = 'column'><img src = 'category1/CS4.png' width = '70%;'></div></div>","null","pos","CS","CS","1","category1/CS4.png","","","","",""
"","html-keyboard-response","87","381921","0.0-6.0-6.0-0.18","3s4ehdljbo","many_one","0","direct_first","1","is06nk06","0","23","1","0","3","1","null","","","<div class = 'row'><div class = 'column'><img src = 'category4/CS3.png' width = '70%;'></div><div class = 'column'><img src = 'usneg/6838.bmp' width = '100%;'></div></div>","null","neg","CS","CS","4","category4/CS3.png","","","","",""
"","html-keyboard-response","88","384451","0.0-6.0-6.0-0.19","3s4ehdljbo","many_one","0","direct_first","1","is06nk06","0","23","1","0","3","1","null","","","<div class = 'row'><div class = 'column'><img src = 'usneg/2141.bmp' width = '100%;'></div><div class = 'column'><img src = 'category4/CS7.png' width = '70%;'></div></div>","null","neg","CS","CS","4","category4/CS7.png","","","","",""
"","survey-html-form","89","392491","0.0-7.0","3s4ehdljbo","many_one","0","direct_first","1","is06nk06","0","23","1","0","3","1","7522","","{}","","","","","","","","","","","",""
"","image-slider-response","90","400219","0.0-8.0-0.0","3s4ehdljbo","many_one","0","direct_first","1","is06nk06","0","23","1","0","3","1","5713","","","","","neg","GS","GSnew","4","category4/GS3.png","-31","targets/8.png","direct","",""
"","image-slider-response","91","406018","0.0-8.0-0.1","3s4ehdljbo","many_one","0","direct_first","1","is06nk06","0","23","1","0","3","1","5799","","","","","pos","GS","GSnew","2","category2/GS3.png","1","targets/15.png","direct","",""
"","image-slider-response","92","414986","0.0-8.0-0.2","3s4ehdljbo","many_one","0","direct_first","1","is06nk06","0","23","1","0","3","1","8966","","","","","pos","GS","abstract","2","category2/men.png","-37","targets/21.png","direct","",""
"","image-slider-response","93","418827","0.0-8.0-0.3","3s4ehdljbo","many_one","0","direct_first","1","is06nk06","0","23","1","0","3","1","3838","","","","","neg","CS","CS","4","category4/CS5.png","20","targets/35.png","direct","",""
"","image-slider-response","94","421634","0.0-8.0-0.4","3s4ehdljbo","many_one","0","direct_first","1","is06nk06","0","23","1","0","3","1","2806","","","","","pos","CS","CS","2","category2/CS7.png","15","targets/13.png","direct","",""
"","image-slider-response","95","425666","0.0-8.0-0.5","3s4ehdljbo","many_one","0","direct_first","1","is06nk06","0","23","1","0","3","1","4030","","","","","pos","CS","CS","1","category1/CS7.png","16","targets/10.png","direct","",""
"","image-slider-response","96","428762","0.0-8.0-0.6","3s4ehdljbo","many_one","0","direct_first","1","is06nk06","0","23","1","0","3","1","3094","","","","","neg","GS","GSold","4","category4/CS9.png","44","targets/26.png","direct","",""
"","image-slider-response","97","432041","0.0-8.0-0.7","3s4ehdljbo","many_one","0","direct_first","1","is06nk06","0","23","1","0","3","1","3279","","","","","pos","GS","GSold","2","category2/CS9.png","-28","targets/20.png","direct","",""
"","image-slider-response","98","435362","0.0-8.0-0.8","3s4ehdljbo","many_one","0","direct_first","1","is06nk06","0","23","1","0","3","1","3318","","","","","neg","GS","GSnew","3","category3/GS2.png","-20","targets/24.png","direct","",""
"","image-slider-response","99","438338","0.0-8.0-0.9","3s4ehdljbo","many_one","0","direct_first","1","is06nk06","0","23","1","0","3","1","2975","","","","","pos","CS","CS","2","category2/CS10.png","45","targets/17.png","direct","",""
"","image-slider-response","100","441682","0.0-8.0-0.10","3s4ehdljbo","many_one","0","direct_first","1","is06nk06","0","23","1","0","3","1","3343","","","","","neg","GS","abstract","4","category4/lin.png","62","targets/6.png","direct","",""
"","image-slider-response","101","444538","0.0-8.0-0.11","3s4ehdljbo","many_one","0","direct_first","1","is06nk06","0","23","1","0","3","1","2855","","","","","pos","CS","CS","1","category1/CS9.png","37","targets/37.png","direct","",""
"","image-slider-response","102","448010","0.0-8.0-0.12","3s4ehdljbo","many_one","0","direct_first","1","is06nk06","0","23","1","0","3","1","3471","","","","","pos","CS","CS","1","category1/CS3.png","-28","targets/42.png","direct","",""
"","image-slider-response","103","450521","0.0-8.0-0.13","3s4ehdljbo","many_one","0","direct_first","1","is06nk06","0","23","1","0","3","1","2511","","","","","neg","CS","CS","4","category4/CS2.png","37","targets/33.png","direct","",""
"","image-slider-response","104","453666","0.0-8.0-0.14","3s4ehdljbo","many_one","0","direct_first","1","is06nk06","0","23","1","0","3","1","3143","","","","","neg","CS","CS","3","category3/CS9.png","34","targets/38.png","direct","",""
"","image-slider-response","105","456554","0.0-8.0-0.15","3s4ehdljbo","many_one","0","direct_first","1","is06nk06","0","23","1","0","3","1","2887","","","","","neg","CS","CS","4","category4/CS3.png","24","targets/30.png","direct","",""
"","image-slider-response","106","459818","0.0-8.0-0.16","3s4ehdljbo","many_one","0","direct_first","1","is06nk06","0","23","1","0","3","1","3262","","","","","neg","GS","GSold","4","category4/CS4.png","38","targets/46.png","direct","",""
"","image-slider-response","107","463570","0.0-8.0-0.17","3s4ehdljbo","many_one","0","direct_first","1","is06nk06","0","23","1","0","3","1","3751","","","","","pos","CS","CS","1","category1/CS1.png","-31","targets/44.png","direct","",""
"","image-slider-response","108","467410","0.0-8.0-0.18","3s4ehdljbo","many_one","0","direct_first","1","is06nk06","0","23","1","0","3","1","3838","","","","","neg","CS","CS","3","category3/CS6.png","-24","targets/32.png","direct","",""
"","image-slider-response","109","470217","0.0-8.0-0.19","3s4ehdljbo","many_one","0","direct_first","1","is06nk06","0","23","1","0","3","1","2807","","","","","neg","GS","GSnew","3","category3/GS1.png","-25","targets/14.png","direct","",""
"","image-slider-response","110","472801","0.0-8.0-0.20","3s4ehdljbo","many_one","0","direct_first","1","is06nk06","0","23","1","0","3","1","2583","","","","","neg","CS","CS","3","category3/CS1.png","39","targets/43.png","direct","",""
"","image-slider-response","111","475185","0.0-8.0-0.21","3s4ehdljbo","many_one","0","direct_first","1","is06nk06","0","23","1","0","3","1","2384","","","","","pos","GS","GSnew","2","category2/GS2.png","25","targets/23.png","direct","",""
"","image-slider-response","112","477681","0.0-8.0-0.22","3s4ehdljbo","many_one","0","direct_first","1","is06nk06","0","23","1","0","3","1","2494","","","","","neg","GS","GSnew","3","category3/GS3.png","-28","targets/48.png","direct","",""
"","image-slider-response","113","480162","0.0-8.0-0.23","3s4ehdljbo","many_one","0","direct_first","1","is06nk06","0","23","1","0","3","1","2479","","","","","neg","GS","GSold","4","category4/CS1.png","51","targets/5.png","direct","",""
"","image-slider-response","114","483977","0.0-8.0-0.24","3s4ehdljbo","many_one","0","direct_first","1","is06nk06","0","23","1","0","3","1","3814","","","","","pos","GS","GSnew","2","category2/GS1.png","-17","targets/27.png","direct","",""
"","image-slider-response","115","486690","0.0-8.0-0.25","3s4ehdljbo","many_one","0","direct_first","1","is06nk06","0","23","1","0","3","1","2711","","","","","neg","GS","abstract","3","category3/wang.png","-15","targets/41.png","direct","",""
"","image-slider-response","116","489417","0.0-8.0-0.26","3s4ehdljbo","many_one","0","direct_first","1","is06nk06","0","23","1","0","3","1","2728","","","","","neg","GS","GSnew","4","category4/GS1.png","33","targets/19.png","direct","",""
"","image-slider-response","117","492073","0.0-8.0-0.27","3s4ehdljbo","many_one","0","direct_first","1","is06nk06","0","23","1","0","3","1","2656","","","","","pos","CS","CS","2","category2/CS2.png","-21","targets/40.png","direct","",""
"","image-slider-response","118","495137","0.0-8.0-0.28","3s4ehdljbo","many_one","0","direct_first","1","is06nk06","0","23","1","0","3","1","3063","","","","","pos","GS","GSnew","1","category1/GS1.png","-41","targets/31.png","direct","",""
"","image-slider-response","119","499113","0.0-8.0-0.29","3s4ehdljbo","many_one","0","direct_first","1","is06nk06","0","23","1","0","3","1","3974","","","","","neg","CS","CS","4","category4/CS7.png","9","targets/4.png","direct","",""
"","image-slider-response","120","501673","0.0-8.0-0.30","3s4ehdljbo","many_one","0","direct_first","1","is06nk06","0","23","1","0","3","1","2559","","","","","pos","CS","CS","2","category2/CS4.png","-18","targets/36.png","direct","",""
"","image-slider-response","121","504640","0.0-8.0-0.31","3s4ehdljbo","many_one","0","direct_first","1","is06nk06","0","23","1","0","3","1","2967","","","","","pos","GS","GSold","1","category1/CS8.png","-55","targets/12.png","direct","",""
"","image-slider-response","122","507065","0.0-8.0-0.32","3s4ehdljbo","many_one","0","direct_first","1","is06nk06","0","23","1","0","3","1","2424","","","","","neg","GS","GSnew","4","category4/GS2.png","-75","targets/11.png","direct","",""
"","image-slider-response","123","509656","0.0-8.0-0.33","3s4ehdljbo","many_one","0","direct_first","1","is06nk06","0","23","1","0","3","1","2591","","","","","pos","GS","GSold","2","category2/CS3.png","13","targets/7.png","direct","",""
"","image-slider-response","124","511929","0.0-8.0-0.34","3s4ehdljbo","many_one","0","direct_first","1","is06nk06","0","23","1","0","3","1","2271","","","","","neg","GS","GSold","3","category3/CS5.png","-16","targets/28.png","direct","",""
"","image-slider-response","125","515224","0.0-8.0-0.35","3s4ehdljbo","many_one","0","direct_first","1","is06nk06","0","23","1","0","3","1","3295","","","","","pos","CS","CS","2","category2/CS8.png","-74","targets/22.png","direct","",""
"","image-slider-response","126","517745","0.0-8.0-0.36","3s4ehdljbo","many_one","0","direct_first","1","is06nk06","0","23","1","0","3","1","2519","","","","","pos","GS","abstract","1","category1/ma.png","36","targets/34.png","direct","",""
"","image-slider-response","127","520617","0.0-8.0-0.37","3s4ehdljbo","many_one","0","direct_first","1","is06nk06","0","23","1","0","3","1","2871","","","","","pos","CS","CS","1","category1/CS4.png","31","targets/2.png","direct","",""
"","image-slider-response","128","523016","0.0-8.0-0.38","3s4ehdljbo","many_one","0","direct_first","1","is06nk06","0","23","1","0","3","1","2399","","","","","pos","GS","GSold","1","category1/CS2.png","21","targets/16.png","direct","",""
"","image-slider-response","129","525673","0.0-8.0-0.39","3s4ehdljbo","many_one","0","direct_first","1","is06nk06","0","23","1","0","3","1","2656","","","","","pos","GS","GSnew","1","category1/GS2.png","17","targets/47.png","direct","",""
"","image-slider-response","130","529177","0.0-8.0-0.40","3s4ehdljbo","many_one","0","direct_first","1","is06nk06","0","23","1","0","3","1","3503","","","","","pos","GS","GSold","1","category1/CS6.png","-34","targets/1.png","direct","",""
"","image-slider-response","131","532289","0.0-8.0-0.41","3s4ehdljbo","many_one","0","direct_first","1","is06nk06","0","23","1","0","3","1","3111","","","","","neg","CS","CS","3","category3/CS10.png","-51","targets/39.png","direct","",""
"","image-slider-response","132","534889","0.0-8.0-0.42","3s4ehdljbo","many_one","0","direct_first","1","is06nk06","0","23","1","0","3","1","2598","","","","","neg","CS","CS","4","category4/CS10.png","37","targets/45.png","direct","",""
"","image-slider-response","133","537400","0.0-8.0-0.43","3s4ehdljbo","many_one","0","direct_first","1","is06nk06","0","23","1","0","3","1","2512","","","","","pos","GS","GSold","2","category2/CS1.png","13","targets/9.png","direct","",""
"","image-slider-response","134","539760","0.0-8.0-0.44","3s4ehdljbo","many_one","0","direct_first","1","is06nk06","0","23","1","0","3","1","2359","","","","","neg","GS","GSold","3","category3/CS8.png","-66","targets/3.png","direct","",""
"","image-slider-response","135","542496","0.0-8.0-0.45","3s4ehdljbo","many_one","0","direct_first","1","is06nk06","0","23","1","0","3","1","2736","","","","","neg","GS","GSold","3","category3/CS3.png","-58","targets/18.png","direct","",""
"","image-slider-response","136","544848","0.0-8.0-0.46","3s4ehdljbo","many_one","0","direct_first","1","is06nk06","0","23","1","0","3","1","2351","","","","","pos","GS","GSnew","1","category1/GS3.png","30","targets/25.png","direct","",""
"","image-slider-response","137","546825","0.0-8.0-0.47","3s4ehdljbo","many_one","0","direct_first","1","is06nk06","0","23","1","0","3","1","1975","","","","","neg","CS","CS","3","category3/CS2.png","-36","targets/29.png","direct","",""
"","html-keyboard-response","138","587626","0.0-9.0","3s4ehdljbo","many_one","0","direct_first","1","is06nk06","0","23","1","0","3","1","40800","","","<p>Sie sehen nun die chinesischen Zeichen nur ganz kurz. Danach sehen Sie die jeweilige Aussprache der Zeichen als Silbe auf dem Bildschrim. Ihre Aufgabe ist es, für jede Silbe anzugeben, ob diese etwas angenehmes, oder unangenehmes bedeuten könnte. Verlassen Sie sich hier vor allem auf Ihre Intuition.<br><br>Die Zeichen werden nur zur Orientierung dargestellt, beachten Sie sie deshalb nicht. Konzentrieren Sie sich vor allem auf die Silben. <br>Reagieren Sie mit folgenden zwei Tasten: <br><br><b>'D' </b> wenn die Silbe etwas <b>unangenehmes</b> bedeuten könnte. <br><b>'K'</b> wenn die Silbe etwas <b>angenehmes</b> bedeuten könnte. <br><br>Bitte legen Sie nun den Zeigefinger der linken Hand auf die Taste 'D' und den Zeigefinger der rechten Hand auf die Taste 'K'. <br>Reagieren Sie auf jede Silbe so schnell wie möglich. Uns interessiert Ihre spontane Reaktion. <br> <br> <br>Drücken Sie 'D' oder 'K', um die nächste Aufgabe zu starten. </p>","75","","","","","","","","","",""
"","html-keyboard-response","139","590647","0.0-10.0-0.0","3s4ehdljbo","many_one","0","direct_first","1","is06nk06","0","23","1","0","3","1","null","","","<div style=""font-size:60px;"">+</div>","null","","","","","","","","","",""
"","html-keyboard-response","140","590746","0.0-10.0-1.0","3s4ehdljbo","many_one","0","direct_first","1","is06nk06","0","23","1","0","3","1","null","","","<img src = 'category4/CS3.png' width = '100%;'>","null","","","","","","","","","",""
"","html-keyboard-response","141","591027","0.0-10.0-2.0","3s4ehdljbo","many_one","0","direct_first","1","is06nk06","0","23","1","0","3","1","null","","","<img src = 'targets/30.png' width = '100%;'>","null","","","","","","","","","",""
"","html-keyboard-response","142","595577","0.0-10.0-3.0","3s4ehdljbo","many_one","0","direct_first","1","is06nk06","0","23","1","0","3","1","4548","","","<img src = 'targets/mask.png' width = '100%;'>","75","neg","CS","CS","4","category4/CS3.png","","targets/30.png","indirect","1","0"
"","html-keyboard-response","143","597117","0.0-10.0-0.1","3s4ehdljbo","many_one","0","direct_first","1","is06nk06","0","23","1","0","3","1","null","","","<div style=""font-size:60px;"">+</div>","null","","","","","","","","","",""
"","html-keyboard-response","144","597217","0.0-10.0-1.1","3s4ehdljbo","many_one","0","direct_first","1","is06nk06","0","23","1","0","3","1","null","","","<img src = 'category2/CS4.png' width = '100%;'>","null","","","","","","","","","",""
"","html-keyboard-response","145","597494","0.0-10.0-2.1","3s4ehdljbo","many_one","0","direct_first","1","is06nk06","0","23","1","0","3","1","null","","","<img src = 'targets/36.png' width = '100%;'>","null","","","","","","","","","",""
"","html-keyboard-response","146","599647","0.0-10.0-3.1","3s4ehdljbo","many_one","0","direct_first","1","is06nk06","0","23","1","0","3","1","2151","","","<img src = 'targets/mask.png' width = '100%;'>","68","pos","CS","CS","2","category2/CS4.png","","targets/36.png","indirect","0","1"
"","html-keyboard-response","147","601157","0.0-10.0-0.2","3s4ehdljbo","many_one","0","direct_first","1","is06nk06","0","23","1","0","3","1","null","","","<div style=""font-size:60px;"">+</div>","null","","","","","","","","","",""
"","html-keyboard-response","148","601257","0.0-10.0-1.2","3s4ehdljbo","many_one","0","direct_first","1","is06nk06","0","23","1","0","3","1","null","","","<img src = 'category3/CS6.png' width = '100%;'>","null","","","","","","","","","",""
"","html-keyboard-response","149","601537","0.0-10.0-2.2","3s4ehdljbo","many_one","0","direct_first","1","is06nk06","0","23","1","0","3","1","null","","","<img src = 'targets/32.png' width = '100%;'>","null","","","","","","","","","",""
"","html-keyboard-response","150","603256","0.0-10.0-3.2","3s4ehdljbo","many_one","0","direct_first","1","is06nk06","0","23","1","0","3","1","1718","","","<img src = 'targets/mask.png' width = '100%;'>","75","neg","CS","CS","3","category3/CS6.png","","targets/32.png","indirect","1","2"
"","html-keyboard-response","151","604797","0.0-10.0-0.3","3s4ehdljbo","many_one","0","direct_first","1","is06nk06","0","23","1","0","3","1","null","","","<div style=""font-size:60px;"">+</div>","null","","","","","","","","","",""
"","html-keyboard-response","152","604897","0.0-10.0-1.3","3s4ehdljbo","many_one","0","direct_first","1","is06nk06","0","23","1","0","3","1","null","","","<img src = 'category1/CS9.png' width = '100%;'>","null","","","","","","","","","",""
"","html-keyboard-response","153","605177","0.0-10.0-2.3","3s4ehdljbo","many_one","0","direct_first","1","is06nk06","0","23","1","0","3","1","null","","","<img src = 'targets/37.png' width = '100%;'>","null","","","","","","","","","",""
"","html-keyboard-response","154","606120","0.0-10.0-3.3","3s4ehdljbo","many_one","0","direct_first","1","is06nk06","0","23","1","0","3","1","942","","","<img src = 'targets/mask.png' width = '100%;'>","75","pos","CS","CS","1","category1/CS9.png","","targets/37.png","indirect","1","3"
"","html-keyboard-response","155","607656","0.0-10.0-0.4","3s4ehdljbo","many_one","0","direct_first","1","is06nk06","0","23","1","0","3","1","null","","","<div style=""font-size:60px;"">+</div>","null","","","","","","","","","",""
"","html-keyboard-response","156","607756","0.0-10.0-1.4","3s4ehdljbo","many_one","0","direct_first","1","is06nk06","0","23","1","0","3","1","null","","","<img src = 'category1/CS4.png' width = '100%;'>","null","","","","","","","","","",""
"","html-keyboard-response","157","608037","0.0-10.0-2.4","3s4ehdljbo","many_one","0","direct_first","1","is06nk06","0","23","1","0","3","1","null","","","<img src = 'targets/2.png' width = '100%;'>","null","","","","","","","","","",""
"","html-keyboard-response","158","608920","0.0-10.0-3.4","3s4ehdljbo","many_one","0","direct_first","1","is06nk06","0","23","1","0","3","1","881","","","<img src = 'targets/mask.png' width = '100%;'>","68","pos","CS","CS","1","category1/CS4.png","","targets/2.png","indirect","0","4"
"","html-keyboard-response","159","610432","0.0-10.0-0.5","3s4ehdljbo","many_one","0","direct_first","1","is06nk06","0","23","1","0","3","1","null","","","<div style=""font-size:60px;"">+</div>","null","","","","","","","","","",""
"","html-keyboard-response","160","610533","0.0-10.0-1.5","3s4ehdljbo","many_one","0","direct_first","1","is06nk06","0","23","1","0","3","1","null","","","<img src = 'category2/CS1.png' width = '100%;'>","null","","","","","","","","","",""
"","html-keyboard-response","161","610817","0.0-10.0-2.5","3s4ehdljbo","many_one","0","direct_first","1","is06nk06","0","23","1","0","3","1","null","","","<img src = 'targets/9.png' width = '100%;'>","null","","","","","","","","","",""
"","html-keyboard-response","162","612889","0.0-10.0-3.5","3s4ehdljbo","many_one","0","direct_first","1","is06nk06","0","23","1","0","3","1","2070","","","<img src = 'targets/mask.png' width = '100%;'>","68","pos","GS","GSold","2","category2/CS1.png","","targets/9.png","indirect","0","5"
"","html-keyboard-response","163","614417","0.0-10.0-0.6","3s4ehdljbo","many_one","0","direct_first","1","is06nk06","0","23","1","0","3","1","null","","","<div style=""font-size:60px;"">+</div>","null","","","","","","","","","",""
"","html-keyboard-response","164","614517","0.0-10.0-1.6","3s4ehdljbo","many_one","0","direct_first","1","is06nk06","0","23","1","0","3","1","null","","","<img src = 'category3/CS3.png' width = '100%;'>","null","","","","","","","","","",""
"","html-keyboard-response","165","614797","0.0-10.0-2.6","3s4ehdljbo","many_one","0","direct_first","1","is06nk06","0","23","1","0","3","1","null","","","<img src = 'targets/18.png' width = '100%;'>","null","","","","","","","","","",""
"","html-keyboard-response","166","616320","0.0-10.0-3.6","3s4ehdljbo","many_one","0","direct_first","1","is06nk06","0","23","1","0","3","1","1521","","","<img src = 'targets/mask.png' width = '100%;'>","68","neg","GS","GSold","3","category3/CS3.png","","targets/18.png","indirect","0","6"
"","html-keyboard-response","167","617856","0.0-10.0-0.7","3s4ehdljbo","many_one","0","direct_first","1","is06nk06","0","23","1","0","3","1","null","","","<div style=""font-size:60px;"">+</div>","null","","","","","","","","","",""
"","html-keyboard-response","168","617957","0.0-10.0-1.7","3s4ehdljbo","many_one","0","direct_first","1","is06nk06","0","23","1","0","3","1","null","","","<img src = 'category1/CS7.png' width = '100%;'>","null","","","","","","","","","",""
"","html-keyboard-response","169","618236","0.0-10.0-2.7","3s4ehdljbo","many_one","0","direct_first","1","is06nk06","0","23","1","0","3","1","null","","","<img src = 'targets/10.png' width = '100%;'>","null","","","","","","","","","",""
"","html-keyboard-response","170","619072","0.0-10.0-3.7","3s4ehdljbo","many_one","0","direct_first","1","is06nk06","0","23","1","0","3","1","834","","","<img src = 'targets/mask.png' width = '100%;'>","75","pos","CS","CS","1","category1/CS7.png","","targets/10.png","indirect","1","7"
"","html-keyboard-response","171","620597","0.0-10.0-0.8","3s4ehdljbo","many_one","0","direct_first","1","is06nk06","0","23","1","0","3","1","null","","","<div style=""font-size:60px;"">+</div>","null","","","","","","","","","",""
"","html-keyboard-response","172","620696","0.0-10.0-1.8","3s4ehdljbo","many_one","0","direct_first","1","is06nk06","0","23","1","0","3","1","null","","","<img src = 'category1/CS1.png' width = '100%;'>","null","","","","","","","","","",""
"","html-keyboard-response","173","620977","0.0-10.0-2.8","3s4ehdljbo","many_one","0","direct_first","1","is06nk06","0","23","1","0","3","1","null","","","<img src = 'targets/44.png' width = '100%;'>","null","","","","","","","","","",""
"","html-keyboard-response","174","621904","0.0-10.0-3.8","3s4ehdljbo","many_one","0","direct_first","1","is06nk06","0","23","1","0","3","1","926","","","<img src = 'targets/mask.png' width = '100%;'>","75","pos","CS","CS","1","category1/CS1.png","","targets/44.png","indirect","1","8"
"","html-keyboard-response","175","623436","0.0-10.0-0.9","3s4ehdljbo","many_one","0","direct_first","1","is06nk06","0","23","1","0","3","1","null","","","<div style=""font-size:60px;"">+</div>","null","","","","","","","","","",""
"","html-keyboard-response","176","623536","0.0-10.0-1.9","3s4ehdljbo","many_one","0","direct_first","1","is06nk06","0","23","1","0","3","1","null","","","<img src = 'category4/CS2.png' width = '100%;'>","null","","","","","","","","","",""
"","html-keyboard-response","177","623817","0.0-10.0-2.9","3s4ehdljbo","many_one","0","direct_first","1","is06nk06","0","23","1","0","3","1","null","","","<img src = 'targets/33.png' width = '100%;'>","null","","","","","","","","","",""
"","html-keyboard-response","178","624632","0.0-10.0-3.9","3s4ehdljbo","many_one","0","direct_first","1","is06nk06","0","23","1","0","3","1","814","","","<img src = 'targets/mask.png' width = '100%;'>","68","neg","CS","CS","4","category4/CS2.png","","targets/33.png","indirect","0","9"
"","html-keyboard-response","179","626166","0.0-10.0-0.10","3s4ehdljbo","many_one","0","direct_first","1","is06nk06","0","23","1","0","3","1","null","","","<div style=""font-size:60px;"">+</div>","null","","","","","","","","","",""
"","html-keyboard-response","180","626267","0.0-10.0-1.10","3s4ehdljbo","many_one","0","direct_first","1","is06nk06","0","23","1","0","3","1","null","","","<img src = 'category3/CS2.png' width = '100%;'>","null","","","","","","","","","",""
"","html-keyboard-response","181","626546","0.0-10.0-2.10","3s4ehdljbo","many_one","0","direct_first","1","is06nk06","0","23","1","0","3","1","null","","","<img src = 'targets/29.png' width = '100%;'>","null","","","","","","","","","",""
"","html-keyboard-response","182","627928","0.0-10.0-3.10","3s4ehdljbo","many_one","0","direct_first","1","is06nk06","0","23","1","0","3","1","1382","","","<img src = 'targets/mask.png' width = '100%;'>","68","neg","CS","CS","3","category3/CS2.png","","targets/29.png","indirect","0","10"
"","html-keyboard-response","183","629466","0.0-10.0-0.11","3s4ehdljbo","many_one","0","direct_first","1","is06nk06","0","23","1","0","3","1","null","","","<div style=""font-size:60px;"">+</div>","null","","","","","","","","","",""
"","html-keyboard-response","184","629566","0.0-10.0-1.11","3s4ehdljbo","many_one","0","direct_first","1","is06nk06","0","23","1","0","3","1","null","","","<img src = 'category2/CS2.png' width = '100%;'>","null","","","","","","","","","",""
"","html-keyboard-response","185","629846","0.0-10.0-2.11","3s4ehdljbo","many_one","0","direct_first","1","is06nk06","0","23","1","0","3","1","null","","","<img src = 'targets/40.png' width = '100%;'>","null","","","","","","","","","",""
"","html-keyboard-response","186","631376","0.0-10.0-3.11","3s4ehdljbo","many_one","0","direct_first","1","is06nk06","0","23","1","0","3","1","1527","","","<img src = 'targets/mask.png' width = '100%;'>","75","pos","CS","CS","2","category2/CS2.png","","targets/40.png","indirect","1","11"
"","html-keyboard-response","187","632916","0.0-10.0-0.12","3s4ehdljbo","many_one","0","direct_first","1","is06nk06","0","23","1","0","3","1","null","","","<div style=""font-size:60px;"">+</div>","null","","","","","","","","","",""
"","html-keyboard-response","188","633016","0.0-10.0-1.12","3s4ehdljbo","many_one","0","direct_first","1","is06nk06","0","23","1","0","3","1","null","","","<img src = 'category4/CS7.png' width = '100%;'>","null","","","","","","","","","",""
"","html-keyboard-response","189","633296","0.0-10.0-2.12","3s4ehdljbo","many_one","0","direct_first","1","is06nk06","0","23","1","0","3","1","null","","","<img src = 'targets/4.png' width = '100%;'>","null","","","","","","","","","",""
"","html-keyboard-response","190","634695","0.0-10.0-3.12","3s4ehdljbo","many_one","0","direct_first","1","is06nk06","0","23","1","0","3","1","1399","","","<img src = 'targets/mask.png' width = '100%;'>","68","neg","CS","CS","4","category4/CS7.png","","targets/4.png","indirect","0","12"
"","html-keyboard-response","191","636236","0.0-10.0-0.13","3s4ehdljbo","many_one","0","direct_first","1","is06nk06","0","23","1","0","3","1","null","","","<div style=""font-size:60px;"">+</div>","null","","","","","","","","","",""
"","html-keyboard-response","192","636336","0.0-10.0-1.13","3s4ehdljbo","many_one","0","direct_first","1","is06nk06","0","23","1","0","3","1","null","","","<img src = 'category2/CS8.png' width = '100%;'>","null","","","","","","","","","",""
"","html-keyboard-response","193","636606","0.0-10.0-2.13","3s4ehdljbo","many_one","0","direct_first","1","is06nk06","0","23","1","0","3","1","null","","","<img src = 'targets/22.png' width = '100%;'>","null","","","","","","","","","",""
"","html-keyboard-response","194","638264","0.0-10.0-3.13","3s4ehdljbo","many_one","0","direct_first","1","is06nk06","0","23","1","0","3","1","1656","","","<img src = 'targets/mask.png' width = '100%;'>","68","pos","CS","CS","2","category2/CS8.png","","targets/22.png","indirect","0","13"
"","html-keyboard-response","195","639795","0.0-10.0-0.14","3s4ehdljbo","many_one","0","direct_first","1","is06nk06","0","23","1","0","3","1","null","","","<div style=""font-size:60px;"">+</div>","null","","","","","","","","","",""
"","html-keyboard-response","196","639897","0.0-10.0-1.14","3s4ehdljbo","many_one","0","direct_first","1","is06nk06","0","23","1","0","3","1","null","","","<img src = 'category2/CS7.png' width = '100%;'>","null","","","","","","","","","",""
"","html-keyboard-response","197","640177","0.0-10.0-2.14","3s4ehdljbo","many_one","0","direct_first","1","is06nk06","0","23","1","0","3","1","null","","","<img src = 'targets/13.png' width = '100%;'>","null","","","","","","","","","",""
"","html-keyboard-response","198","641607","0.0-10.0-3.14","3s4ehdljbo","many_one","0","direct_first","1","is06nk06","0","23","1","0","3","1","1429","","","<img src = 'targets/mask.png' width = '100%;'>","75","pos","CS","CS","2","category2/CS7.png","","targets/13.png","indirect","1","14"
"","html-keyboard-response","199","643136","0.0-10.0-0.15","3s4ehdljbo","many_one","0","direct_first","1","is06nk06","0","23","1","0","3","1","null","","","<div style=""font-size:60px;"">+</div>","null","","","","","","","","","",""
"","html-keyboard-response","200","643236","0.0-10.0-1.15","3s4ehdljbo","many_one","0","direct_first","1","is06nk06","0","23","1","0","3","1","null","","","<img src = 'category3/CS5.png' width = '100%;'>","null","","","","","","","","","",""
"","html-keyboard-response","201","643516","0.0-10.0-2.15","3s4ehdljbo","many_one","0","direct_first","1","is06nk06","0","23","1","0","3","1","null","","","<img src = 'targets/28.png' width = '100%;'>","null","","","","","","","","","",""
"","html-keyboard-response","202","644319","0.0-10.0-3.15","3s4ehdljbo","many_one","0","direct_first","1","is06nk06","0","23","1","0","3","1","802","","","<img src = 'targets/mask.png' width = '100%;'>","68","neg","GS","GSold","3","category3/CS5.png","","targets/28.png","indirect","0","15"
"","html-keyboard-response","203","645836","0.0-10.0-0.16","3s4ehdljbo","many_one","0","direct_first","1","is06nk06","0","23","1","0","3","1","null","","","<div style=""font-size:60px;"">+</div>","null","","","","","","","","","",""
"","html-keyboard-response","204","645936","0.0-10.0-1.16","3s4ehdljbo","many_one","0","direct_first","1","is06nk06","0","23","1","0","3","1","null","","","<img src = 'category3/CS8.png' width = '100%;'>","null","","","","","","","","","",""
"","html-keyboard-response","205","646215","0.0-10.0-2.16","3s4ehdljbo","many_one","0","direct_first","1","is06nk06","0","23","1","0","3","1","null","","","<img src = 'targets/3.png' width = '100%;'>","null","","","","","","","","","",""
"","html-keyboard-response","206","646816","0.0-10.0-3.16","3s4ehdljbo","many_one","0","direct_first","1","is06nk06","0","23","1","0","3","1","598","","","<img src = 'targets/mask.png' width = '100%;'>","68","neg","GS","GSold","3","category3/CS8.png","","targets/3.png","indirect","0","16"
"","html-keyboard-response","207","648336","0.0-10.0-0.17","3s4ehdljbo","many_one","0","direct_first","1","is06nk06","0","23","1","0","3","1","null","","","<div style=""font-size:60px;"">+</div>","null","","","","","","","","","",""
"","html-keyboard-response","208","648436","0.0-10.0-1.17","3s4ehdljbo","many_one","0","direct_first","1","is06nk06","0","23","1","0","3","1","null","","","<img src = 'category3/CS10.png' width = '100%;'>","null","","","","","","","","","",""
"","html-keyboard-response","209","648716","0.0-10.0-2.17","3s4ehdljbo","many_one","0","direct_first","1","is06nk06","0","23","1","0","3","1","null","","","<img src = 'targets/39.png' width = '100%;'>","null","","","","","","","","","",""
"","html-keyboard-response","210","649583","0.0-10.0-3.17","3s4ehdljbo","many_one","0","direct_first","1","is06nk06","0","23","1","0","3","1","867","","","<img src = 'targets/mask.png' width = '100%;'>","68","neg","CS","CS","3","category3/CS10.png","","targets/39.png","indirect","0","17"
"","html-keyboard-response","211","651116","0.0-10.0-0.18","3s4ehdljbo","many_one","0","direct_first","1","is06nk06","0","23","1","0","3","1","null","","","<div style=""font-size:60px;"">+</div>","null","","","","","","","","","",""
"","html-keyboard-response","212","651216","0.0-10.0-1.18","3s4ehdljbo","many_one","0","direct_first","1","is06nk06","0","23","1","0","3","1","null","","","<img src = 'category3/CS9.png' width = '100%;'>","null","","","","","","","","","",""
"","html-keyboard-response","213","651496","0.0-10.0-2.18","3s4ehdljbo","many_one","0","direct_first","1","is06nk06","0","23","1","0","3","1","null","","","<img src = 'targets/38.png' width = '100%;'>","null","","","","","","","","","",""
"","html-keyboard-response","214","651999","0.0-10.0-3.18","3s4ehdljbo","many_one","0","direct_first","1","is06nk06","0","23","1","0","3","1","502","","","<img src = 'targets/mask.png' width = '100%;'>","75","neg","CS","CS","3","category3/CS9.png","","targets/38.png","indirect","1","18"
"","html-keyboard-response","215","653525","0.0-10.0-0.19","3s4ehdljbo","many_one","0","direct_first","1","is06nk06","0","23","1","0","3","1","null","","","<div style=""font-size:60px;"">+</div>","null","","","","","","","","","",""
"","html-keyboard-response","216","653626","0.0-10.0-1.19","3s4ehdljbo","many_one","0","direct_first","1","is06nk06","0","23","1","0","3","1","null","","","<img src = 'category2/CS10.png' width = '100%;'>","null","","","","","","","","","",""
"","html-keyboard-response","217","653906","0.0-10.0-2.19","3s4ehdljbo","many_one","0","direct_first","1","is06nk06","0","23","1","0","3","1","null","","","<img src = 'targets/17.png' width = '100%;'>","null","","","","","","","","","",""
"","html-keyboard-response","218","654591","0.0-10.0-3.19","3s4ehdljbo","many_one","0","direct_first","1","is06nk06","0","23","1","0","3","1","684","","","<img src = 'targets/mask.png' width = '100%;'>","68","pos","CS","CS","2","category2/CS10.png","","targets/17.png","indirect","0","19"
"","html-keyboard-response","219","656126","0.0-10.0-0.20","3s4ehdljbo","many_one","0","direct_first","1","is06nk06","0","23","1","0","3","1","null","","","<div style=""font-size:60px;"">+</div>","null","","","","","","","","","",""
"","html-keyboard-response","220","656226","0.0-10.0-1.20","3s4ehdljbo","many_one","0","direct_first","1","is06nk06","0","23","1","0","3","1","null","","","<img src = 'category4/CS5.png' width = '100%;'>","null","","","","","","","","","",""
"","html-keyboard-response","221","656506","0.0-10.0-2.20","3s4ehdljbo","many_one","0","direct_first","1","is06nk06","0","23","1","0","3","1","null","","","<img src = 'targets/35.png' width = '100%;'>","null","","","","","","","","","",""
"","html-keyboard-response","222","657719","0.0-10.0-3.20","3s4ehdljbo","many_one","0","direct_first","1","is06nk06","0","23","1","0","3","1","1212","","","<img src = 'targets/mask.png' width = '100%;'>","68","neg","CS","CS","4","category4/CS5.png","","targets/35.png","indirect","0","20"
"","html-keyboard-response","223","659225","0.0-10.0-0.21","3s4ehdljbo","many_one","0","direct_first","1","is06nk06","0","23","1","0","3","1","null","","","<div style=""font-size:60px;"">+</div>","null","","","","","","","","","",""
"","html-keyboard-response","224","659326","0.0-10.0-1.21","3s4ehdljbo","many_one","0","direct_first","1","is06nk06","0","23","1","0","3","1","null","","","<img src = 'category1/CS3.png' width = '100%;'>","null","","","","","","","","","",""
"","html-keyboard-response","225","659586","0.0-10.0-2.21","3s4ehdljbo","many_one","0","direct_first","1","is06nk06","0","23","1","0","3","1","null","","","<img src = 'targets/42.png' width = '100%;'>","null","","","","","","","","","",""
"","html-keyboard-response","226","660454","0.0-10.0-3.21","3s4ehdljbo","many_one","0","direct_first","1","is06nk06","0","23","1","0","3","1","866","","","<img src = 'targets/mask.png' width = '100%;'>","68","pos","CS","CS","1","category1/CS3.png","","targets/42.png","indirect","0","21"
"","html-keyboard-response","227","661985","0.0-10.0-0.22","3s4ehdljbo","many_one","0","direct_first","1","is06nk06","0","23","1","0","3","1","null","","","<div style=""font-size:60px;"">+</div>","null","","","","","","","","","",""
"","html-keyboard-response","228","662086","0.0-10.0-1.22","3s4ehdljbo","many_one","0","direct_first","1","is06nk06","0","23","1","0","3","1","null","","","<img src = 'category3/CS1.png' width = '100%;'>","null","","","","","","","","","",""
"","html-keyboard-response","229","662366","0.0-10.0-2.22","3s4ehdljbo","many_one","0","direct_first","1","is06nk06","0","23","1","0","3","1","null","","","<img src = 'targets/43.png' width = '100%;'>","null","","","","","","","","","",""
"","html-keyboard-response","230","663479","0.0-10.0-3.22","3s4ehdljbo","many_one","0","direct_first","1","is06nk06","0","23","1","0","3","1","1111","","","<img src = 'targets/mask.png' width = '100%;'>","68","neg","CS","CS","3","category3/CS1.png","","targets/43.png","indirect","0","22"
"","html-keyboard-response","231","665006","0.0-10.0-0.23","3s4ehdljbo","many_one","0","direct_first","1","is06nk06","0","23","1","0","3","1","null","","","<div style=""font-size:60px;"">+</div>","null","","","","","","","","","",""
"","html-keyboard-response","232","665106","0.0-10.0-1.23","3s4ehdljbo","many_one","0","direct_first","1","is06nk06","0","23","1","0","3","1","null","","","<img src = 'category4/CS10.png' width = '100%;'>","null","","","","","","","","","",""
"","html-keyboard-response","233","665386","0.0-10.0-2.23","3s4ehdljbo","many_one","0","direct_first","1","is06nk06","0","23","1","0","3","1","null","","","<img src = 'targets/45.png' width = '100%;'>","null","","","","","","","","","",""
"","html-keyboard-response","234","666391","0.0-10.0-3.23","3s4ehdljbo","many_one","0","direct_first","1","is06nk06","0","23","1","0","3","1","1004","","","<img src = 'targets/mask.png' width = '100%;'>","68","neg","CS","CS","4","category4/CS10.png","","targets/45.png","indirect","0","23"
"","survey-html-form","235","669543","0.0-11.0","3s4ehdljbo","many_one","0","direct_first","1","is06nk06","0","23","1","0","3","1","2636","","{}","","","","","","","","","","","",""
"","html-keyboard-response","236","672565","0.0-12.0-0.0","3s4ehdljbo","many_one","0","direct_first","1","is06nk06","0","23","1","0","3","1","null","","","<div style=""font-size:60px;"">+</div>","null","","","","","","","","","",""
"","html-keyboard-response","237","672667","0.0-12.0-1.0","3s4ehdljbo","many_one","0","direct_first","1","is06nk06","0","23","1","0","3","1","null","","","<img src = 'category3/GS2.png' width = '100%;'>","null","","","","","","","","","",""
"","html-keyboard-response","238","672946","0.0-12.0-2.0","3s4ehdljbo","many_one","0","direct_first","1","is06nk06","0","23","1","0","3","1","null","","","<img src = 'targets/24.png' width = '100%;'>","null","","","","","","","","","",""
"","html-keyboard-response","239","673623","0.0-12.0-3.0","3s4ehdljbo","many_one","0","direct_first","1","is06nk06","0","23","1","0","3","1","676","","","<img src = 'targets/mask.png' width = '100%;'>","68","neg","GS","GSnew","3","category3/GS2.png","","targets/24.png","indirect","0","24"
"","html-keyboard-response","240","675136","0.0-12.0-0.1","3s4ehdljbo","many_one","0","direct_first","1","is06nk06","0","23","1","0","3","1","null","","","<div style=""font-size:60px;"">+</div>","null","","","","","","","","","",""
"","html-keyboard-response","241","675235","0.0-12.0-1.1","3s4ehdljbo","many_one","0","direct_first","1","is06nk06","0","23","1","0","3","1","null","","","<img src = 'category1/CS8.png' width = '100%;'>","null","","","","","","","","","",""
"","html-keyboard-response","242","675516","0.0-12.0-2.1","3s4ehdljbo","many_one","0","direct_first","1","is06nk06","0","23","1","0","3","1","null","","","<img src = 'targets/12.png' width = '100%;'>","null","","","","","","","","","",""
"","html-keyboard-response","243","677023","0.0-12.0-3.1","3s4ehdljbo","many_one","0","direct_first","1","is06nk06","0","23","1","0","3","1","1504","","","<img src = 'targets/mask.png' width = '100%;'>","75","pos","GS","GSold","1","category1/CS8.png","","targets/12.png","indirect","1","25"
"","html-keyboard-response","244","678555","0.0-12.0-0.2","3s4ehdljbo","many_one","0","direct_first","1","is06nk06","0","23","1","0","3","1","null","","","<div style=""font-size:60px;"">+</div>","null","","","","","","","","","",""
"","html-keyboard-response","245","678656","0.0-12.0-1.2","3s4ehdljbo","many_one","0","direct_first","1","is06nk06","0","23","1","0","3","1","null","","","<img src = 'category4/CS4.png' width = '100%;'>","null","","","","","","","","","",""
"","html-keyboard-response","246","678936","0.0-12.0-2.2","3s4ehdljbo","many_one","0","direct_first","1","is06nk06","0","23","1","0","3","1","null","","","<img src = 'targets/46.png' width = '100%;'>","null","","","","","","","","","",""
"","html-keyboard-response","247","679487","0.0-12.0-3.2","3s4ehdljbo","many_one","0","direct_first","1","is06nk06","0","23","1","0","3","1","549","","","<img src = 'targets/mask.png' width = '100%;'>","75","neg","GS","GSold","4","category4/CS4.png","","targets/46.png","indirect","1","26"
"","html-keyboard-response","248","681012","0.0-12.0-0.3","3s4ehdljbo","many_one","0","direct_first","1","is06nk06","0","23","1","0","3","1","null","","","<div style=""font-size:60px;"">+</div>","null","","","","","","","","","",""
"","html-keyboard-response","249","681113","0.0-12.0-1.3","3s4ehdljbo","many_one","0","direct_first","1","is06nk06","0","23","1","0","3","1","null","","","<img src = 'category1/CS6.png' width = '100%;'>","null","","","","","","","","","",""
"","html-keyboard-response","250","681397","0.0-12.0-2.3","3s4ehdljbo","many_one","0","direct_first","1","is06nk06","0","23","1","0","3","1","null","","","<img src = 'targets/1.png' width = '100%;'>","null","","","","","","","","","",""
"","html-keyboard-response","251","682079","0.0-12.0-3.3","3s4ehdljbo","many_one","0","direct_first","1","is06nk06","0","23","1","0","3","1","681","","","<img src = 'targets/mask.png' width = '100%;'>","68","pos","GS","GSold","1","category1/CS6.png","","targets/1.png","indirect","0","27"
"","html-keyboard-response","252","683615","0.0-12.0-0.4","3s4ehdljbo","many_one","0","direct_first","1","is06nk06","0","23","1","0","3","1","null","","","<div style=""font-size:60px;"">+</div>","null","","","","","","","","","",""
"","html-keyboard-response","253","683716","0.0-12.0-1.4","3s4ehdljbo","many_one","0","direct_first","1","is06nk06","0","23","1","0","3","1","null","","","<img src = 'category4/lin.png' width = '100%;'>","null","","","","","","","","","",""
"","html-keyboard-response","254","683995","0.0-12.0-2.4","3s4ehdljbo","many_one","0","direct_first","1","is06nk06","0","23","1","0","3","1","null","","","<img src = 'targets/6.png' width = '100%;'>","null","","","","","","","","","",""
"","html-keyboard-response","255","684655","0.0-12.0-3.4","3s4ehdljbo","many_one","0","direct_first","1","is06nk06","0","23","1","0","3","1","659","","","<img src = 'targets/mask.png' width = '100%;'>","68","neg","GS","abstract","4","category4/lin.png","","targets/6.png","indirect","0","28"
"","html-keyboard-response","256","686176","0.0-12.0-0.5","3s4ehdljbo","many_one","0","direct_first","1","is06nk06","0","23","1","0","3","1","null","","","<div style=""font-size:60px;"">+</div>","null","","","","","","","","","",""
"","html-keyboard-response","257","686276","0.0-12.0-1.5","3s4ehdljbo","many_one","0","direct_first","1","is06nk06","0","23","1","0","3","1","null","","","<img src = 'category1/GS1.png' width = '100%;'>","null","","","","","","","","","",""
"","html-keyboard-response","258","686556","0.0-12.0-2.5","3s4ehdljbo","many_one","0","direct_first","1","is06nk06","0","23","1","0","3","1","null","","","<img src = 'targets/31.png' width = '100%;'>","null","","","","","","","","","",""
"","html-keyboard-response","259","687463","0.0-12.0-3.5","3s4ehdljbo","many_one","0","direct_first","1","is06nk06","0","23","1","0","3","1","905","","","<img src = 'targets/mask.png' width = '100%;'>","68","pos","GS","GSnew","1","category1/GS1.png","","targets/31.png","indirect","0","29"
"","html-keyboard-response","260","688996","0.0-12.0-0.6","3s4ehdljbo","many_one","0","direct_first","1","is06nk06","0","23","1","0","3","1","null","","","<div style=""font-size:60px;"">+</div>","null","","","","","","","","","",""
"","html-keyboard-response","261","689096","0.0-12.0-1.6","3s4ehdljbo","many_one","0","direct_first","1","is06nk06","0","23","1","0","3","1","null","","","<img src = 'category4/CS9.png' width = '100%;'>","null","","","","","","","","","",""
"","html-keyboard-response","262","689376","0.0-12.0-2.6","3s4ehdljbo","many_one","0","direct_first","1","is06nk06","0","23","1","0","3","1","null","","","<img src = 'targets/26.png' width = '100%;'>","null","","","","","","","","","",""
"","html-keyboard-response","263","689958","0.0-12.0-3.6","3s4ehdljbo","many_one","0","direct_first","1","is06nk06","0","23","1","0","3","1","582","","","<img src = 'targets/mask.png' width = '100%;'>","75","neg","GS","GSold","4","category4/CS9.png","","targets/26.png","indirect","1","30"
"","html-keyboard-response","264","691475","0.0-12.0-0.7","3s4ehdljbo","many_one","0","direct_first","1","is06nk06","0","23","1","0","3","1","null","","","<div style=""font-size:60px;"">+</div>","null","","","","","","","","","",""
"","html-keyboard-response","265","691576","0.0-12.0-1.7","3s4ehdljbo","many_one","0","direct_first","1","is06nk06","0","23","1","0","3","1","null","","","<img src = 'category1/CS2.png' width = '100%;'>","null","","","","","","","","","",""
"","html-keyboard-response","266","691855","0.0-12.0-2.7","3s4ehdljbo","many_one","0","direct_first","1","is06nk06","0","23","1","0","3","1","null","","","<img src = 'targets/16.png' width = '100%;'>","null","","","","","","","","","",""
"","html-keyboard-response","267","692663","0.0-12.0-3.7","3s4ehdljbo","many_one","0","direct_first","1","is06nk06","0","23","1","0","3","1","806","","","<img src = 'targets/mask.png' width = '100%;'>","75","pos","GS","GSold","1","category1/CS2.png","","targets/16.png","indirect","1","31"
"","html-keyboard-response","268","694175","0.0-12.0-0.8","3s4ehdljbo","many_one","0","direct_first","1","is06nk06","0","23","1","0","3","1","null","","","<div style=""font-size:60px;"">+</div>","null","","","","","","","","","",""
"","html-keyboard-response","269","694276","0.0-12.0-1.8","3s4ehdljbo","many_one","0","direct_first","1","is06nk06","0","23","1","0","3","1","null","","","<img src = 'category4/GS3.png' width = '100%;'>","null","","","","","","","","","",""
"","html-keyboard-response","270","694556","0.0-12.0-2.8","3s4ehdljbo","many_one","0","direct_first","1","is06nk06","0","23","1","0","3","1","null","","","<img src = 'targets/8.png' width = '100%;'>","null","","","","","","","","","",""
"","html-keyboard-response","271","695133","0.0-12.0-3.8","3s4ehdljbo","many_one","0","direct_first","1","is06nk06","0","23","1","0","3","1","577","","","<img src = 'targets/mask.png' width = '100%;'>","75","neg","GS","GSnew","4","category4/GS3.png","","targets/8.png","indirect","1","32"
"","html-keyboard-response","272","696652","0.0-12.0-0.9","3s4ehdljbo","many_one","0","direct_first","1","is06nk06","0","23","1","0","3","1","null","","","<div style=""font-size:60px;"">+</div>","null","","","","","","","","","",""
"","html-keyboard-response","273","696753","0.0-12.0-1.9","3s4ehdljbo","many_one","0","direct_first","1","is06nk06","0","23","1","0","3","1","null","","","<img src = 'category4/GS1.png' width = '100%;'>","null","","","","","","","","","",""
"","html-keyboard-response","274","697036","0.0-12.0-2.9","3s4ehdljbo","many_one","0","direct_first","1","is06nk06","0","23","1","0","3","1","null","","","<img src = 'targets/19.png' width = '100%;'>","null","","","","","","","","","",""
"","html-keyboard-response","275","698031","0.0-12.0-3.9","3s4ehdljbo","many_one","0","direct_first","1","is06nk06","0","23","1","0","3","1","994","","","<img src = 'targets/mask.png' width = '100%;'>","68","neg","GS","GSnew","4","category4/GS1.png","","targets/19.png","indirect","0","33"
"","html-keyboard-response","276","699555","0.0-12.0-0.10","3s4ehdljbo","many_one","0","direct_first","1","is06nk06","0","23","1","0","3","1","null","","","<div style=""font-size:60px;"">+</div>","null","","","","","","","","","",""
"","html-keyboard-response","277","699656","0.0-12.0-1.10","3s4ehdljbo","many_one","0","direct_first","1","is06nk06","0","23","1","0","3","1","null","","","<img src = 'category1/GS3.png' width = '100%;'>","null","","","","","","","","","",""
"","html-keyboard-response","278","699936","0.0-12.0-2.10","3s4ehdljbo","many_one","0","direct_first","1","is06nk06","0","23","1","0","3","1","null","","","<img src = 'targets/25.png' width = '100%;'>","null","","","","","","","","","",""
"","html-keyboard-response","279","700607","0.0-12.0-3.10","3s4ehdljbo","many_one","0","direct_first","1","is06nk06","0","23","1","0","3","1","669","","","<img src = 'targets/mask.png' width = '100%;'>","75","pos","GS","GSnew","1","category1/GS3.png","","targets/25.png","indirect","1","34"
"","html-keyboard-response","280","702135","0.0-12.0-0.11","3s4ehdljbo","many_one","0","direct_first","1","is06nk06","0","23","1","0","3","1","null","","","<div style=""font-size:60px;"">+</div>","null","","","","","","","","","",""
"","html-keyboard-response","281","702236","0.0-12.0-1.11","3s4ehdljbo","many_one","0","direct_first","1","is06nk06","0","23","1","0","3","1","null","","","<img src = 'category4/GS2.png' width = '100%;'>","null","","","","","","","","","",""
"","html-keyboard-response","282","702506","0.0-12.0-2.11","3s4ehdljbo","many_one","0","direct_first","1","is06nk06","0","23","1","0","3","1","null","","","<img src = 'targets/11.png' width = '100%;'>","null","","","","","","","","","",""
"","html-keyboard-response","283","703519","0.0-12.0-3.11","3s4ehdljbo","many_one","0","direct_first","1","is06nk06","0","23","1","0","3","1","1011","","","<img src = 'targets/mask.png' width = '100%;'>","75","neg","GS","GSnew","4","category4/GS2.png","","targets/11.png","indirect","1","35"
"","html-keyboard-response","284","705046","0.0-12.0-0.12","3s4ehdljbo","many_one","0","direct_first","1","is06nk06","0","23","1","0","3","1","null","","","<div style=""font-size:60px;"">+</div>","null","","","","","","","","","",""
"","html-keyboard-response","285","705145","0.0-12.0-1.12","3s4ehdljbo","many_one","0","direct_first","1","is06nk06","0","23","1","0","3","1","null","","","<img src = 'category1/GS2.png' width = '100%;'>","null","","","","","","","","","",""
"","html-keyboard-response","286","705425","0.0-12.0-2.12","3s4ehdljbo","many_one","0","direct_first","1","is06nk06","0","23","1","0","3","1","null","","","<img src = 'targets/47.png' width = '100%;'>","null","","","","","","","","","",""
"","html-keyboard-response","287","706311","0.0-12.0-3.12","3s4ehdljbo","many_one","0","direct_first","1","is06nk06","0","23","1","0","3","1","885","","","<img src = 'targets/mask.png' width = '100%;'>","68","pos","GS","GSnew","1","category1/GS2.png","","targets/47.png","indirect","0","36"
"","html-keyboard-response","288","707835","0.0-12.0-0.13","3s4ehdljbo","many_one","0","direct_first","1","is06nk06","0","23","1","0","3","1","null","","","<div style=""font-size:60px;"">+</div>","null","","","","","","","","","",""
"","html-keyboard-response","289","707936","0.0-12.0-1.13","3s4ehdljbo","many_one","0","direct_first","1","is06nk06","0","23","1","0","3","1","null","","","<img src = 'category1/ma.png' width = '100%;'>","null","","","","","","","","","",""
"","html-keyboard-response","290","708216","0.0-12.0-2.13","3s4ehdljbo","many_one","0","direct_first","1","is06nk06","0","23","1","0","3","1","null","","","<img src = 'targets/34.png' width = '100%;'>","null","","","","","","","","","",""
"","html-keyboard-response","291","709031","0.0-12.0-3.13","3s4ehdljbo","many_one","0","direct_first","1","is06nk06","0","23","1","0","3","1","814","","","<img src = 'targets/mask.png' width = '100%;'>","75","pos","GS","abstract","1","category1/ma.png","","targets/34.png","indirect","1","37"
"","html-keyboard-response","292","710555","0.0-12.0-0.14","3s4ehdljbo","many_one","0","direct_first","1","is06nk06","0","23","1","0","3","1","null","","","<div style=""font-size:60px;"">+</div>","null","","","","","","","","","",""
"","html-keyboard-response","293","710655","0.0-12.0-1.14","3s4ehdljbo","many_one","0","direct_first","1","is06nk06","0","23","1","0","3","1","null","","","<img src = 'category2/CS9.png' width = '100%;'>","null","","","","","","","","","",""
"","html-keyboard-response","294","710936","0.0-12.0-2.14","3s4ehdljbo","many_one","0","direct_first","1","is06nk06","0","23","1","0","3","1","null","","","<img src = 'targets/20.png' width = '100%;'>","null","","","","","","","","","",""
"","html-keyboard-response","295","711567","0.0-12.0-3.14","3s4ehdljbo","many_one","0","direct_first","1","is06nk06","0","23","1","0","3","1","629","","","<img src = 'targets/mask.png' width = '100%;'>","75","pos","GS","GSold","2","category2/CS9.png","","targets/20.png","indirect","1","38"
"","html-keyboard-response","296","713092","0.0-12.0-0.15","3s4ehdljbo","many_one","0","direct_first","1","is06nk06","0","23","1","0","3","1","null","","","<div style=""font-size:60px;"">+</div>","null","","","","","","","","","",""
"","html-keyboard-response","297","713192","0.0-12.0-1.15","3s4ehdljbo","many_one","0","direct_first","1","is06nk06","0","23","1","0","3","1","null","","","<img src = 'category4/CS1.png' width = '100%;'>","null","","","","","","","","","",""
"","html-keyboard-response","298","713476","0.0-12.0-2.15","3s4ehdljbo","many_one","0","direct_first","1","is06nk06","0","23","1","0","3","1","null","","","<img src = 'targets/5.png' width = '100%;'>","null","","","","","","","","","",""
"","html-keyboard-response","299","713982","0.0-12.0-3.15","3s4ehdljbo","many_one","0","direct_first","1","is06nk06","0","23","1","0","3","1","507","","","<img src = 'targets/mask.png' width = '100%;'>","68","neg","GS","GSold","4","category4/CS1.png","","targets/5.png","indirect","0","39"
"","html-keyboard-response","300","715495","0.0-12.0-0.16","3s4ehdljbo","many_one","0","direct_first","1","is06nk06","0","23","1","0","3","1","null","","","<div style=""font-size:60px;"">+</div>","null","","","","","","","","","",""
"","html-keyboard-response","301","715596","0.0-12.0-1.16","3s4ehdljbo","many_one","0","direct_first","1","is06nk06","0","23","1","0","3","1","null","","","<img src = 'category2/GS1.png' width = '100%;'>","null","","","","","","","","","",""
"","html-keyboard-response","302","715875","0.0-12.0-2.16","3s4ehdljbo","many_one","0","direct_first","1","is06nk06","0","23","1","0","3","1","null","","","<img src = 'targets/27.png' width = '100%;'>","null","","","","","","","","","",""
"","html-keyboard-response","303","716759","0.0-12.0-3.16","3s4ehdljbo","many_one","0","direct_first","1","is06nk06","0","23","1","0","3","1","882","","","<img src = 'targets/mask.png' width = '100%;'>","68","pos","GS","GSnew","2","category2/GS1.png","","targets/27.png","indirect","0","40"
"","html-keyboard-response","304","718296","0.0-12.0-0.17","3s4ehdljbo","many_one","0","direct_first","1","is06nk06","0","23","1","0","3","1","null","","","<div style=""font-size:60px;"">+</div>","null","","","","","","","","","",""
"","html-keyboard-response","305","718396","0.0-12.0-1.17","3s4ehdljbo","many_one","0","direct_first","1","is06nk06","0","23","1","0","3","1","null","","","<img src = 'category2/GS2.png' width = '100%;'>","null","","","","","","","","","",""
"","html-keyboard-response","306","718676","0.0-12.0-2.17","3s4ehdljbo","many_one","0","direct_first","1","is06nk06","0","23","1","0","3","1","null","","","<img src = 'targets/23.png' width = '100%;'>","null","","","","","","","","","",""
"","html-keyboard-response","307","719799","0.0-12.0-3.17","3s4ehdljbo","many_one","0","direct_first","1","is06nk06","0","23","1","0","3","1","1121","","","<img src = 'targets/mask.png' width = '100%;'>","75","pos","GS","GSnew","2","category2/GS2.png","","targets/23.png","indirect","1","41"
"","html-keyboard-response","308","721313","0.0-12.0-0.18","3s4ehdljbo","many_one","0","direct_first","1","is06nk06","0","23","1","0","3","1","null","","","<div style=""font-size:60px;"">+</div>","null","","","","","","","","","",""
"","html-keyboard-response","309","721414","0.0-12.0-1.18","3s4ehdljbo","many_one","0","direct_first","1","is06nk06","0","23","1","0","3","1","null","","","<img src = 'category3/GS1.png' width = '100%;'>","null","","","","","","","","","",""
"","html-keyboard-response","310","721696","0.0-12.0-2.18","3s4ehdljbo","many_one","0","direct_first","1","is06nk06","0","23","1","0","3","1","null","","","<img src = 'targets/14.png' width = '100%;'>","null","","","","","","","","","",""
"","html-keyboard-response","311","722751","0.0-12.0-3.18","3s4ehdljbo","many_one","0","direct_first","1","is06nk06","0","23","1","0","3","1","1053","","","<img src = 'targets/mask.png' width = '100%;'>","75","neg","GS","GSnew","3","category3/GS1.png","","targets/14.png","indirect","1","42"
"","html-keyboard-response","312","724275","0.0-12.0-0.19","3s4ehdljbo","many_one","0","direct_first","1","is06nk06","0","23","1","0","3","1","null","","","<div style=""font-size:60px;"">+</div>","null","","","","","","","","","",""
"","html-keyboard-response","313","724375","0.0-12.0-1.19","3s4ehdljbo","many_one","0","direct_first","1","is06nk06","0","23","1","0","3","1","null","","","<img src = 'category3/wang.png' width = '100%;'>","null","","","","","","","","","",""
"","html-keyboard-response","314","724656","0.0-12.0-2.19","3s4ehdljbo","many_one","0","direct_first","1","is06nk06","0","23","1","0","3","1","null","","","<img src = 'targets/41.png' width = '100%;'>","null","","","","","","","","","",""
"","html-keyboard-response","315","725191","0.0-12.0-3.19","3s4ehdljbo","many_one","0","direct_first","1","is06nk06","0","23","1","0","3","1","534","","","<img src = 'targets/mask.png' width = '100%;'>","68","neg","GS","abstract","3","category3/wang.png","","targets/41.png","indirect","0","43"
"","html-keyboard-response","316","726716","0.0-12.0-0.20","3s4ehdljbo","many_one","0","direct_first","1","is06nk06","0","23","1","0","3","1","null","","","<div style=""font-size:60px;"">+</div>","null","","","","","","","","","",""
"","html-keyboard-response","317","726816","0.0-12.0-1.20","3s4ehdljbo","many_one","0","direct_first","1","is06nk06","0","23","1","0","3","1","null","","","<img src = 'category3/GS3.png' width = '100%;'>","null","","","","","","","","","",""
"","html-keyboard-response","318","727095","0.0-12.0-2.20","3s4ehdljbo","many_one","0","direct_first","1","is06nk06","0","23","1","0","3","1","null","","","<img src = 'targets/48.png' width = '100%;'>","null","","","","","","","","","",""
"","html-keyboard-response","319","728023","0.0-12.0-3.20","3s4ehdljbo","many_one","0","direct_first","1","is06nk06","0","23","1","0","3","1","926","","","<img src = 'targets/mask.png' width = '100%;'>","68","neg","GS","GSnew","3","category3/GS3.png","","targets/48.png","indirect","0","44"
"","html-keyboard-response","320","729532","0.0-12.0-0.21","3s4ehdljbo","many_one","0","direct_first","1","is06nk06","0","23","1","0","3","1","null","","","<div style=""font-size:60px;"">+</div>","null","","","","","","","","","",""
"","html-keyboard-response","321","729626","0.0-12.0-1.21","3s4ehdljbo","many_one","0","direct_first","1","is06nk06","0","23","1","0","3","1","null","","","<img src = 'category2/GS3.png' width = '100%;'>","null","","","","","","","","","",""
"","html-keyboard-response","322","729906","0.0-12.0-2.21","3s4ehdljbo","many_one","0","direct_first","1","is06nk06","0","23","1","0","3","1","null","","","<img src = 'targets/15.png' width = '100%;'>","null","","","","","","","","","",""
"","html-keyboard-response","323","730782","0.0-12.0-3.21","3s4ehdljbo","many_one","0","direct_first","1","is06nk06","0","23","1","0","3","1","876","","","<img src = 'targets/mask.png' width = '100%;'>","68","pos","GS","GSnew","2","category2/GS3.png","","targets/15.png","indirect","0","45"
"","html-keyboard-response","324","732286","0.0-12.0-0.22","3s4ehdljbo","many_one","0","direct_first","1","is06nk06","0","23","1","0","3","1","null","","","<div style=""font-size:60px;"">+</div>","null","","","","","","","","","",""
"","html-keyboard-response","325","732385","0.0-12.0-1.22","3s4ehdljbo","many_one","0","direct_first","1","is06nk06","0","23","1","0","3","1","null","","","<img src = 'category2/CS3.png' width = '100%;'>","null","","","","","","","","","",""
"","html-keyboard-response","326","732665","0.0-12.0-2.22","3s4ehdljbo","many_one","0","direct_first","1","is06nk06","0","23","1","0","3","1","null","","","<img src = 'targets/7.png' width = '100%;'>","null","","","","","","","","","",""
"","html-keyboard-response","327","733031","0.0-12.0-3.22","3s4ehdljbo","many_one","0","direct_first","1","is06nk06","0","23","1","0","3","1","363","","","<img src = 'targets/mask.png' width = '100%;'>","75","pos","GS","GSold","2","category2/CS3.png","","targets/7.png","indirect","1","46"
"","html-keyboard-response","328","734564","0.0-12.0-0.23","3s4ehdljbo","many_one","0","direct_first","1","is06nk06","0","23","1","0","3","1","null","","","<div style=""font-size:60px;"">+</div>","null","","","","","","","","","",""
"","html-keyboard-response","329","734665","0.0-12.0-1.23","3s4ehdljbo","many_one","0","direct_first","1","is06nk06","0","23","1","0","3","1","null","","","<img src = 'category2/men.png' width = '100%;'>","null","","","","","","","","","",""
"","html-keyboard-response","330","734945","0.0-12.0-2.23","3s4ehdljbo","many_one","0","direct_first","1","is06nk06","0","23","1","0","3","1","null","","","<img src = 'targets/21.png' width = '100%;'>","null","","","","","","","","","",""
"","html-keyboard-response","331","735415","0.0-12.0-3.23","3s4ehdljbo","many_one","0","direct_first","1","is06nk06","0","23","1","0","3","1","469","","","<img src = 'targets/mask.png' width = '100%;'>","68","pos","GS","abstract","2","category2/men.png","","targets/21.png","indirect","0","47"
"","survey-html-form","332","740590","0.0-13.0","3s4ehdljbo","many_one","0","direct_first","1","is06nk06","0","23","1","0","3","1","4664","","{}","","","","","","","","","","","",""
"","image-slider-response","333","746317","0.0-14.0-0.0","3s4ehdljbo","many_one","0","direct_first","1","is06nk06","0","23","1","0","3","1","4708","","","","","neg","All","all","4","category4/lin_all.png","-66","","all","",""
"","image-slider-response","334","752485","0.0-14.0-0.1","3s4ehdljbo","many_one","0","direct_first","1","is06nk06","0","23","1","0","3","1","6167","","","","","pos","All","all","1","category1/ma_all.png","-74","","all","",""
"","image-slider-response","335","756013","0.0-14.0-0.2","3s4ehdljbo","many_one","0","direct_first","1","is06nk06","0","23","1","0","3","1","3527","","","","","neg","All","all","3","category3/wang_all.png","-100","","all","",""
"","image-slider-response","336","758509","0.0-14.0-0.3","3s4ehdljbo","many_one","0","direct_first","1","is06nk06","0","23","1","0","3","1","2494","","","","","pos","All","all","2","category2/men_all.png","-26","","all","",""
"","survey-text","337","760847","0.0-15.0","3s4ehdljbo","many_one","0","direct_first","1","is06nk06","0","23","1","0","3","1","2334","","{""Q0"":""""}","","","","","","","","","","","",""
