"success","trial_type","trial_index","time_elapsed","internal_node_id","subject","condition","condition_code","measure","measure_code","codeword","gender","age","education","chinese","fach","handedness","comment","hinschauen","ablenkung","gewissenhaft","rt","url","responses","stimulus","key_press","val","type","type_specific","category","cs_selected","response","target","task","indirect","nr_pres"
"true","fullscreen","0","5372","0.0-0.0","0ozp6vjey8","one_one","1","direct_first","1","OD05DI20","0","18","1","0","3","1","","0","1","0","","","","","","","","","","","","","","",""
"","external-html","1","28006","0.0-1.0","0ozp6vjey8","one_one","1","direct_first","1","OD05DI20","0","18","1","0","3","1","","0","1","0","22514.619999999923","text/information.html","","","","","","","","","","","","",""
"","external-html","2","34616","0.0-2.0","0ozp6vjey8","one_one","1","direct_first","1","OD05DI20","0","18","1","0","3","1","","0","1","0","6461.554999999862","text/consent.html","","","","","","","","","","","","",""
"","survey-html-form","3","66624","0.0-3.0","0ozp6vjey8","one_one","1","direct_first","1","OD05DI20","0","18","1","0","3","1","","0","1","0","32004.649999999863","","{""codeword_enter"":""OD05DI20""}","","","","","","","","","","","",""
"","survey-html-form","4","81113","0.0-4.0","0ozp6vjey8","one_one","1","direct_first","1","OD05DI20","0","18","1","0","3","1","","0","1","0","14482.489999999423","","{""age"":""18"",""education"":""1"",""subject"":""3"",""gender"":""0"",""handedness"":""1"",""chinese"":""0""}","","","","","","","","","","","",""
"","survey-html-form","5","83591","0.0-5.0","0ozp6vjey8","one_one","1","direct_first","1","OD05DI20","0","18","1","0","3","1","","0","1","0","2474.9099999999016","","{}","","","","","","","","","","","",""
"","html-keyboard-response","6","87596","0.0-6.0-0.0-0.0","0ozp6vjey8","one_one","1","direct_first","1","OD05DI20","0","18","1","0","3","1","","0","1","0","null","","","<div class = 'row'><div class = 'column'><img src = 'usneg/6212.bmp' width = '100%;'></div><div class = 'column'><img src = 'category4/CS9.png' width = '70%;'></div></div>","null","neg","CS","CS","4","category4/CS9.png","","","","",""
"","html-keyboard-response","7","90099","0.0-6.0-0.0-0.1","0ozp6vjey8","one_one","1","direct_first","1","OD05DI20","0","18","1","0","3","1","","0","1","0","null","","","<div class = 'row'><div class = 'column'><img src = 'category2/CS5.png' width = '70%;'></div><div class = 'column'><img src = 'uspos/1710.bmp' width = '100%;'></div></div>","null","pos","CS","CS","2","category2/CS5.png","","","","",""
"","html-keyboard-response","8","92602","0.0-6.0-0.0-0.2","0ozp6vjey8","one_one","1","direct_first","1","OD05DI20","0","18","1","0","3","1","","0","1","0","null","","","<div class = 'row'><div class = 'column'><img src = 'usneg/9180.bmp' width = '100%;'></div><div class = 'column'><img src = 'category3/CS8.png' width = '70%;'></div></div>","null","neg","CS","CS","3","category3/CS8.png","","","","",""
"","html-keyboard-response","9","95105","0.0-6.0-0.0-0.3","0ozp6vjey8","one_one","1","direct_first","1","OD05DI20","0","18","1","0","3","1","","0","1","0","null","","","<div class = 'row'><div class = 'column'><img src = 'uspos/8490.bmp' width = '100%;'></div><div class = 'column'><img src = 'category1/CS9.png' width = '70%;'></div></div>","null","pos","CS","CS","1","category1/CS9.png","","","","",""
"","html-keyboard-response","10","97607","0.0-6.0-0.0-0.4","0ozp6vjey8","one_one","1","direct_first","1","OD05DI20","0","18","1","0","3","1","","0","1","0","null","","","<div class = 'row'><div class = 'column'><img src = 'category2/CS5.png' width = '70%;'></div><div class = 'column'><img src = 'uspos/1710.bmp' width = '100%;'></div></div>","null","pos","CS","CS","2","category2/CS5.png","","","","",""
"","html-keyboard-response","11","100110","0.0-6.0-0.0-0.5","0ozp6vjey8","one_one","1","direct_first","1","OD05DI20","0","18","1","0","3","1","","0","1","0","null","","","<div class = 'row'><div class = 'column'><img src = 'usneg/6212.bmp' width = '100%;'></div><div class = 'column'><img src = 'category4/CS9.png' width = '70%;'></div></div>","null","neg","CS","CS","4","category4/CS9.png","","","","",""
"","html-keyboard-response","12","102613","0.0-6.0-0.0-0.6","0ozp6vjey8","one_one","1","direct_first","1","OD05DI20","0","18","1","0","3","1","","0","1","0","null","","","<div class = 'row'><div class = 'column'><img src = 'category2/CS5.png' width = '70%;'></div><div class = 'column'><img src = 'uspos/1710.bmp' width = '100%;'></div></div>","null","pos","CS","CS","2","category2/CS5.png","","","","",""
"","html-keyboard-response","13","105116","0.0-6.0-0.0-0.7","0ozp6vjey8","one_one","1","direct_first","1","OD05DI20","0","18","1","0","3","1","","0","1","0","null","","","<div class = 'row'><div class = 'column'><img src = 'category3/CS8.png' width = '70%;'></div><div class = 'column'><img src = 'usneg/9180.bmp' width = '100%;'></div></div>","null","neg","CS","CS","3","category3/CS8.png","","","","",""
"","html-keyboard-response","14","107619","0.0-6.0-0.0-0.8","0ozp6vjey8","one_one","1","direct_first","1","OD05DI20","0","18","1","0","3","1","","0","1","0","null","","","<div class = 'row'><div class = 'column'><img src = 'category4/CS9.png' width = '70%;'></div><div class = 'column'><img src = 'usneg/6212.bmp' width = '100%;'></div></div>","null","neg","CS","CS","4","category4/CS9.png","","","","",""
"","html-keyboard-response","15","110122","0.0-6.0-0.0-0.9","0ozp6vjey8","one_one","1","direct_first","1","OD05DI20","0","18","1","0","3","1","","0","1","0","null","","","<div class = 'row'><div class = 'column'><img src = 'uspos/8490.bmp' width = '100%;'></div><div class = 'column'><img src = 'category1/CS9.png' width = '70%;'></div></div>","null","pos","CS","CS","1","category1/CS9.png","","","","",""
"","html-keyboard-response","16","112625","0.0-6.0-0.0-0.10","0ozp6vjey8","one_one","1","direct_first","1","OD05DI20","0","18","1","0","3","1","","0","1","0","null","","","<div class = 'row'><div class = 'column'><img src = 'category3/CS8.png' width = '70%;'></div><div class = 'column'><img src = 'usneg/9180.bmp' width = '100%;'></div></div>","null","neg","CS","CS","3","category3/CS8.png","","","","",""
"","html-keyboard-response","17","115129","0.0-6.0-0.0-0.11","0ozp6vjey8","one_one","1","direct_first","1","OD05DI20","0","18","1","0","3","1","","0","1","0","null","","","<div class = 'row'><div class = 'column'><img src = 'uspos/1710.bmp' width = '100%;'></div><div class = 'column'><img src = 'category2/CS5.png' width = '70%;'></div></div>","null","pos","CS","CS","2","category2/CS5.png","","","","",""
"","html-keyboard-response","18","117631","0.0-6.0-0.0-0.12","0ozp6vjey8","one_one","1","direct_first","1","OD05DI20","0","18","1","0","3","1","","0","1","0","null","","","<div class = 'row'><div class = 'column'><img src = 'uspos/8490.bmp' width = '100%;'></div><div class = 'column'><img src = 'category1/CS9.png' width = '70%;'></div></div>","null","pos","CS","CS","1","category1/CS9.png","","","","",""
"","html-keyboard-response","19","120134","0.0-6.0-0.0-0.13","0ozp6vjey8","one_one","1","direct_first","1","OD05DI20","0","18","1","0","3","1","","0","1","0","null","","","<div class = 'row'><div class = 'column'><img src = 'category3/CS8.png' width = '70%;'></div><div class = 'column'><img src = 'usneg/9180.bmp' width = '100%;'></div></div>","null","neg","CS","CS","3","category3/CS8.png","","","","",""
"","html-keyboard-response","20","122637","0.0-6.0-0.0-0.14","0ozp6vjey8","one_one","1","direct_first","1","OD05DI20","0","18","1","0","3","1","","0","1","0","null","","","<div class = 'row'><div class = 'column'><img src = 'category4/CS9.png' width = '70%;'></div><div class = 'column'><img src = 'usneg/6212.bmp' width = '100%;'></div></div>","null","neg","CS","CS","4","category4/CS9.png","","","","",""
"","html-keyboard-response","21","125140","0.0-6.0-0.0-0.15","0ozp6vjey8","one_one","1","direct_first","1","OD05DI20","0","18","1","0","3","1","","0","1","0","null","","","<div class = 'row'><div class = 'column'><img src = 'category1/CS9.png' width = '70%;'></div><div class = 'column'><img src = 'uspos/8490.bmp' width = '100%;'></div></div>","null","pos","CS","CS","1","category1/CS9.png","","","","",""
"","html-keyboard-response","22","127642","0.0-6.0-0.0-0.16","0ozp6vjey8","one_one","1","direct_first","1","OD05DI20","0","18","1","0","3","1","","0","1","0","null","","","<div class = 'row'><div class = 'column'><img src = 'category3/CS8.png' width = '70%;'></div><div class = 'column'><img src = 'usneg/9180.bmp' width = '100%;'></div></div>","null","neg","CS","CS","3","category3/CS8.png","","","","",""
"","html-keyboard-response","23","130145","0.0-6.0-0.0-0.17","0ozp6vjey8","one_one","1","direct_first","1","OD05DI20","0","18","1","0","3","1","","0","1","0","null","","","<div class = 'row'><div class = 'column'><img src = 'category4/CS9.png' width = '70%;'></div><div class = 'column'><img src = 'usneg/6212.bmp' width = '100%;'></div></div>","null","neg","CS","CS","4","category4/CS9.png","","","","",""
"","html-keyboard-response","24","132648","0.0-6.0-0.0-0.18","0ozp6vjey8","one_one","1","direct_first","1","OD05DI20","0","18","1","0","3","1","","0","1","0","null","","","<div class = 'row'><div class = 'column'><img src = 'uspos/8490.bmp' width = '100%;'></div><div class = 'column'><img src = 'category1/CS9.png' width = '70%;'></div></div>","null","pos","CS","CS","1","category1/CS9.png","","","","",""
"","html-keyboard-response","25","135151","0.0-6.0-0.0-0.19","0ozp6vjey8","one_one","1","direct_first","1","OD05DI20","0","18","1","0","3","1","","0","1","0","null","","","<div class = 'row'><div class = 'column'><img src = 'uspos/1710.bmp' width = '100%;'></div><div class = 'column'><img src = 'category2/CS5.png' width = '70%;'></div></div>","null","pos","CS","CS","2","category2/CS5.png","","","","",""
"","survey-html-form","26","138953","0.0-6.0-1.0","0ozp6vjey8","one_one","1","direct_first","1","OD05DI20","0","18","1","0","3","1","","0","1","0","3300.3799999996845","","{}","","","","","","","","","","","",""
"","html-keyboard-response","27","142957","0.0-6.0-2.0-0.0","0ozp6vjey8","one_one","1","direct_first","1","OD05DI20","0","18","1","0","3","1","","0","1","0","null","","","<div class = 'row'><div class = 'column'><img src = 'usneg/6212.bmp' width = '100%;'></div><div class = 'column'><img src = 'category4/CS9.png' width = '70%;'></div></div>","null","neg","CS","CS","4","category4/CS9.png","","","","",""
"","html-keyboard-response","28","145459","0.0-6.0-2.0-0.1","0ozp6vjey8","one_one","1","direct_first","1","OD05DI20","0","18","1","0","3","1","","0","1","0","null","","","<div class = 'row'><div class = 'column'><img src = 'category3/CS8.png' width = '70%;'></div><div class = 'column'><img src = 'usneg/9180.bmp' width = '100%;'></div></div>","null","neg","CS","CS","3","category3/CS8.png","","","","",""
"","html-keyboard-response","29","147962","0.0-6.0-2.0-0.2","0ozp6vjey8","one_one","1","direct_first","1","OD05DI20","0","18","1","0","3","1","","0","1","0","null","","","<div class = 'row'><div class = 'column'><img src = 'usneg/6212.bmp' width = '100%;'></div><div class = 'column'><img src = 'category4/CS9.png' width = '70%;'></div></div>","null","neg","CS","CS","4","category4/CS9.png","","","","",""
"","html-keyboard-response","30","150465","0.0-6.0-2.0-0.3","0ozp6vjey8","one_one","1","direct_first","1","OD05DI20","0","18","1","0","3","1","","0","1","0","null","","","<div class = 'row'><div class = 'column'><img src = 'uspos/8490.bmp' width = '100%;'></div><div class = 'column'><img src = 'category1/CS9.png' width = '70%;'></div></div>","null","pos","CS","CS","1","category1/CS9.png","","","","",""
"","html-keyboard-response","31","152968","0.0-6.0-2.0-0.4","0ozp6vjey8","one_one","1","direct_first","1","OD05DI20","0","18","1","0","3","1","","0","1","0","null","","","<div class = 'row'><div class = 'column'><img src = 'usneg/9180.bmp' width = '100%;'></div><div class = 'column'><img src = 'category3/CS8.png' width = '70%;'></div></div>","null","neg","CS","CS","3","category3/CS8.png","","","","",""
"","html-keyboard-response","32","155472","0.0-6.0-2.0-0.5","0ozp6vjey8","one_one","1","direct_first","1","OD05DI20","0","18","1","0","3","1","","0","1","0","null","","","<div class = 'row'><div class = 'column'><img src = 'category2/CS5.png' width = '70%;'></div><div class = 'column'><img src = 'uspos/1710.bmp' width = '100%;'></div></div>","null","pos","CS","CS","2","category2/CS5.png","","","","",""
"","html-keyboard-response","33","157975","0.0-6.0-2.0-0.6","0ozp6vjey8","one_one","1","direct_first","1","OD05DI20","0","18","1","0","3","1","","0","1","0","null","","","<div class = 'row'><div class = 'column'><img src = 'usneg/6212.bmp' width = '100%;'></div><div class = 'column'><img src = 'category4/CS9.png' width = '70%;'></div></div>","null","neg","CS","CS","4","category4/CS9.png","","","","",""
"","html-keyboard-response","34","160478","0.0-6.0-2.0-0.7","0ozp6vjey8","one_one","1","direct_first","1","OD05DI20","0","18","1","0","3","1","","0","1","0","null","","","<div class = 'row'><div class = 'column'><img src = 'category3/CS8.png' width = '70%;'></div><div class = 'column'><img src = 'usneg/9180.bmp' width = '100%;'></div></div>","null","neg","CS","CS","3","category3/CS8.png","","","","",""
"","html-keyboard-response","35","162981","0.0-6.0-2.0-0.8","0ozp6vjey8","one_one","1","direct_first","1","OD05DI20","0","18","1","0","3","1","","0","1","0","null","","","<div class = 'row'><div class = 'column'><img src = 'category2/CS5.png' width = '70%;'></div><div class = 'column'><img src = 'uspos/1710.bmp' width = '100%;'></div></div>","null","pos","CS","CS","2","category2/CS5.png","","","","",""
"","html-keyboard-response","36","165484","0.0-6.0-2.0-0.9","0ozp6vjey8","one_one","1","direct_first","1","OD05DI20","0","18","1","0","3","1","","0","1","0","null","","","<div class = 'row'><div class = 'column'><img src = 'category1/CS9.png' width = '70%;'></div><div class = 'column'><img src = 'uspos/8490.bmp' width = '100%;'></div></div>","null","pos","CS","CS","1","category1/CS9.png","","","","",""
"","html-keyboard-response","37","167987","0.0-6.0-2.0-0.10","0ozp6vjey8","one_one","1","direct_first","1","OD05DI20","0","18","1","0","3","1","","0","1","0","null","","","<div class = 'row'><div class = 'column'><img src = 'category2/CS5.png' width = '70%;'></div><div class = 'column'><img src = 'uspos/1710.bmp' width = '100%;'></div></div>","null","pos","CS","CS","2","category2/CS5.png","","","","",""
"","html-keyboard-response","38","170490","0.0-6.0-2.0-0.11","0ozp6vjey8","one_one","1","direct_first","1","OD05DI20","0","18","1","0","3","1","","0","1","0","null","","","<div class = 'row'><div class = 'column'><img src = 'category4/CS9.png' width = '70%;'></div><div class = 'column'><img src = 'usneg/6212.bmp' width = '100%;'></div></div>","null","neg","CS","CS","4","category4/CS9.png","","","","",""
"","html-keyboard-response","39","172993","0.0-6.0-2.0-0.12","0ozp6vjey8","one_one","1","direct_first","1","OD05DI20","0","18","1","0","3","1","","0","1","0","null","","","<div class = 'row'><div class = 'column'><img src = 'category3/CS8.png' width = '70%;'></div><div class = 'column'><img src = 'usneg/9180.bmp' width = '100%;'></div></div>","null","neg","CS","CS","3","category3/CS8.png","","","","",""
"","html-keyboard-response","40","175496","0.0-6.0-2.0-0.13","0ozp6vjey8","one_one","1","direct_first","1","OD05DI20","0","18","1","0","3","1","","0","1","0","null","","","<div class = 'row'><div class = 'column'><img src = 'category1/CS9.png' width = '70%;'></div><div class = 'column'><img src = 'uspos/8490.bmp' width = '100%;'></div></div>","null","pos","CS","CS","1","category1/CS9.png","","","","",""
"","html-keyboard-response","41","177998","0.0-6.0-2.0-0.14","0ozp6vjey8","one_one","1","direct_first","1","OD05DI20","0","18","1","0","3","1","","0","1","0","null","","","<div class = 'row'><div class = 'column'><img src = 'category3/CS8.png' width = '70%;'></div><div class = 'column'><img src = 'usneg/9180.bmp' width = '100%;'></div></div>","null","neg","CS","CS","3","category3/CS8.png","","","","",""
"","html-keyboard-response","42","180501","0.0-6.0-2.0-0.15","0ozp6vjey8","one_one","1","direct_first","1","OD05DI20","0","18","1","0","3","1","","0","1","0","null","","","<div class = 'row'><div class = 'column'><img src = 'uspos/8490.bmp' width = '100%;'></div><div class = 'column'><img src = 'category1/CS9.png' width = '70%;'></div></div>","null","pos","CS","CS","1","category1/CS9.png","","","","",""
"","html-keyboard-response","43","183004","0.0-6.0-2.0-0.16","0ozp6vjey8","one_one","1","direct_first","1","OD05DI20","0","18","1","0","3","1","","0","1","0","null","","","<div class = 'row'><div class = 'column'><img src = 'category2/CS5.png' width = '70%;'></div><div class = 'column'><img src = 'uspos/1710.bmp' width = '100%;'></div></div>","null","pos","CS","CS","2","category2/CS5.png","","","","",""
"","html-keyboard-response","44","185506","0.0-6.0-2.0-0.17","0ozp6vjey8","one_one","1","direct_first","1","OD05DI20","0","18","1","0","3","1","","0","1","0","null","","","<div class = 'row'><div class = 'column'><img src = 'category4/CS9.png' width = '70%;'></div><div class = 'column'><img src = 'usneg/6212.bmp' width = '100%;'></div></div>","null","neg","CS","CS","4","category4/CS9.png","","","","",""
"","html-keyboard-response","45","188009","0.0-6.0-2.0-0.18","0ozp6vjey8","one_one","1","direct_first","1","OD05DI20","0","18","1","0","3","1","","0","1","0","null","","","<div class = 'row'><div class = 'column'><img src = 'category1/CS9.png' width = '70%;'></div><div class = 'column'><img src = 'uspos/8490.bmp' width = '100%;'></div></div>","null","pos","CS","CS","1","category1/CS9.png","","","","",""
"","html-keyboard-response","46","190511","0.0-6.0-2.0-0.19","0ozp6vjey8","one_one","1","direct_first","1","OD05DI20","0","18","1","0","3","1","","0","1","0","null","","","<div class = 'row'><div class = 'column'><img src = 'category2/CS5.png' width = '70%;'></div><div class = 'column'><img src = 'uspos/1710.bmp' width = '100%;'></div></div>","null","pos","CS","CS","2","category2/CS5.png","","","","",""
"","survey-html-form","47","192803","0.0-6.0-3.0","0ozp6vjey8","one_one","1","direct_first","1","OD05DI20","0","18","1","0","3","1","","0","1","0","1789.8250000007392","","{}","","","","","","","","","","","",""
"","html-keyboard-response","48","196807","0.0-6.0-4.0-0.0","0ozp6vjey8","one_one","1","direct_first","1","OD05DI20","0","18","1","0","3","1","","0","1","0","null","","","<div class = 'row'><div class = 'column'><img src = 'category3/CS8.png' width = '70%;'></div><div class = 'column'><img src = 'usneg/9180.bmp' width = '100%;'></div></div>","null","neg","CS","CS","3","category3/CS8.png","","","","",""
"","html-keyboard-response","49","199310","0.0-6.0-4.0-0.1","0ozp6vjey8","one_one","1","direct_first","1","OD05DI20","0","18","1","0","3","1","","0","1","0","null","","","<div class = 'row'><div class = 'column'><img src = 'uspos/8490.bmp' width = '100%;'></div><div class = 'column'><img src = 'category1/CS9.png' width = '70%;'></div></div>","null","pos","CS","CS","1","category1/CS9.png","","","","",""
"","html-keyboard-response","50","201813","0.0-6.0-4.0-0.2","0ozp6vjey8","one_one","1","direct_first","1","OD05DI20","0","18","1","0","3","1","","0","1","0","null","","","<div class = 'row'><div class = 'column'><img src = 'category2/CS5.png' width = '70%;'></div><div class = 'column'><img src = 'uspos/1710.bmp' width = '100%;'></div></div>","null","pos","CS","CS","2","category2/CS5.png","","","","",""
"","html-keyboard-response","51","204315","0.0-6.0-4.0-0.3","0ozp6vjey8","one_one","1","direct_first","1","OD05DI20","0","18","1","0","3","1","","0","1","0","null","","","<div class = 'row'><div class = 'column'><img src = 'usneg/6212.bmp' width = '100%;'></div><div class = 'column'><img src = 'category4/CS9.png' width = '70%;'></div></div>","null","neg","CS","CS","4","category4/CS9.png","","","","",""
"","html-keyboard-response","52","206818","0.0-6.0-4.0-0.4","0ozp6vjey8","one_one","1","direct_first","1","OD05DI20","0","18","1","0","3","1","","0","1","0","null","","","<div class = 'row'><div class = 'column'><img src = 'category1/CS9.png' width = '70%;'></div><div class = 'column'><img src = 'uspos/8490.bmp' width = '100%;'></div></div>","null","pos","CS","CS","1","category1/CS9.png","","","","",""
"","html-keyboard-response","53","209321","0.0-6.0-4.0-0.5","0ozp6vjey8","one_one","1","direct_first","1","OD05DI20","0","18","1","0","3","1","","0","1","0","null","","","<div class = 'row'><div class = 'column'><img src = 'usneg/6212.bmp' width = '100%;'></div><div class = 'column'><img src = 'category4/CS9.png' width = '70%;'></div></div>","null","neg","CS","CS","4","category4/CS9.png","","","","",""
"","html-keyboard-response","54","211824","0.0-6.0-4.0-0.6","0ozp6vjey8","one_one","1","direct_first","1","OD05DI20","0","18","1","0","3","1","","0","1","0","null","","","<div class = 'row'><div class = 'column'><img src = 'usneg/9180.bmp' width = '100%;'></div><div class = 'column'><img src = 'category3/CS8.png' width = '70%;'></div></div>","null","neg","CS","CS","3","category3/CS8.png","","","","",""
"","html-keyboard-response","55","214326","0.0-6.0-4.0-0.7","0ozp6vjey8","one_one","1","direct_first","1","OD05DI20","0","18","1","0","3","1","","0","1","0","null","","","<div class = 'row'><div class = 'column'><img src = 'category1/CS9.png' width = '70%;'></div><div class = 'column'><img src = 'uspos/8490.bmp' width = '100%;'></div></div>","null","pos","CS","CS","1","category1/CS9.png","","","","",""
"","html-keyboard-response","56","216829","0.0-6.0-4.0-0.8","0ozp6vjey8","one_one","1","direct_first","1","OD05DI20","0","18","1","0","3","1","","0","1","0","null","","","<div class = 'row'><div class = 'column'><img src = 'usneg/6212.bmp' width = '100%;'></div><div class = 'column'><img src = 'category4/CS9.png' width = '70%;'></div></div>","null","neg","CS","CS","4","category4/CS9.png","","","","",""
"","html-keyboard-response","57","219332","0.0-6.0-4.0-0.9","0ozp6vjey8","one_one","1","direct_first","1","OD05DI20","0","18","1","0","3","1","","0","1","0","null","","","<div class = 'row'><div class = 'column'><img src = 'usneg/9180.bmp' width = '100%;'></div><div class = 'column'><img src = 'category3/CS8.png' width = '70%;'></div></div>","null","neg","CS","CS","3","category3/CS8.png","","","","",""
"","html-keyboard-response","58","221835","0.0-6.0-4.0-0.10","0ozp6vjey8","one_one","1","direct_first","1","OD05DI20","0","18","1","0","3","1","","0","1","0","null","","","<div class = 'row'><div class = 'column'><img src = 'category4/CS9.png' width = '70%;'></div><div class = 'column'><img src = 'usneg/6212.bmp' width = '100%;'></div></div>","null","neg","CS","CS","4","category4/CS9.png","","","","",""
"","html-keyboard-response","59","224338","0.0-6.0-4.0-0.11","0ozp6vjey8","one_one","1","direct_first","1","OD05DI20","0","18","1","0","3","1","","0","1","0","null","","","<div class = 'row'><div class = 'column'><img src = 'category2/CS5.png' width = '70%;'></div><div class = 'column'><img src = 'uspos/1710.bmp' width = '100%;'></div></div>","null","pos","CS","CS","2","category2/CS5.png","","","","",""
"","html-keyboard-response","60","226840","0.0-6.0-4.0-0.12","0ozp6vjey8","one_one","1","direct_first","1","OD05DI20","0","18","1","0","3","1","","0","1","0","null","","","<div class = 'row'><div class = 'column'><img src = 'category1/CS9.png' width = '70%;'></div><div class = 'column'><img src = 'uspos/8490.bmp' width = '100%;'></div></div>","null","pos","CS","CS","1","category1/CS9.png","","","","",""
"","html-keyboard-response","61","229343","0.0-6.0-4.0-0.13","0ozp6vjey8","one_one","1","direct_first","1","OD05DI20","0","18","1","0","3","1","","0","1","0","null","","","<div class = 'row'><div class = 'column'><img src = 'category2/CS5.png' width = '70%;'></div><div class = 'column'><img src = 'uspos/1710.bmp' width = '100%;'></div></div>","null","pos","CS","CS","2","category2/CS5.png","","","","",""
"","html-keyboard-response","62","231847","0.0-6.0-4.0-0.14","0ozp6vjey8","one_one","1","direct_first","1","OD05DI20","0","18","1","0","3","1","","0","1","0","null","","","<div class = 'row'><div class = 'column'><img src = 'usneg/9180.bmp' width = '100%;'></div><div class = 'column'><img src = 'category3/CS8.png' width = '70%;'></div></div>","null","neg","CS","CS","3","category3/CS8.png","","","","",""
"","html-keyboard-response","63","234350","0.0-6.0-4.0-0.15","0ozp6vjey8","one_one","1","direct_first","1","OD05DI20","0","18","1","0","3","1","","0","1","0","null","","","<div class = 'row'><div class = 'column'><img src = 'uspos/1710.bmp' width = '100%;'></div><div class = 'column'><img src = 'category2/CS5.png' width = '70%;'></div></div>","null","pos","CS","CS","2","category2/CS5.png","","","","",""
"","html-keyboard-response","64","236853","0.0-6.0-4.0-0.16","0ozp6vjey8","one_one","1","direct_first","1","OD05DI20","0","18","1","0","3","1","","0","1","0","null","","","<div class = 'row'><div class = 'column'><img src = 'category1/CS9.png' width = '70%;'></div><div class = 'column'><img src = 'uspos/8490.bmp' width = '100%;'></div></div>","null","pos","CS","CS","1","category1/CS9.png","","","","",""
"","html-keyboard-response","65","239356","0.0-6.0-4.0-0.17","0ozp6vjey8","one_one","1","direct_first","1","OD05DI20","0","18","1","0","3","1","","0","1","0","null","","","<div class = 'row'><div class = 'column'><img src = 'usneg/6212.bmp' width = '100%;'></div><div class = 'column'><img src = 'category4/CS9.png' width = '70%;'></div></div>","null","neg","CS","CS","4","category4/CS9.png","","","","",""
"","html-keyboard-response","66","241859","0.0-6.0-4.0-0.18","0ozp6vjey8","one_one","1","direct_first","1","OD05DI20","0","18","1","0","3","1","","0","1","0","null","","","<div class = 'row'><div class = 'column'><img src = 'category2/CS5.png' width = '70%;'></div><div class = 'column'><img src = 'uspos/1710.bmp' width = '100%;'></div></div>","null","pos","CS","CS","2","category2/CS5.png","","","","",""
"","html-keyboard-response","67","244362","0.0-6.0-4.0-0.19","0ozp6vjey8","one_one","1","direct_first","1","OD05DI20","0","18","1","0","3","1","","0","1","0","null","","","<div class = 'row'><div class = 'column'><img src = 'category3/CS8.png' width = '70%;'></div><div class = 'column'><img src = 'usneg/9180.bmp' width = '100%;'></div></div>","null","neg","CS","CS","3","category3/CS8.png","","","","",""
"","survey-html-form","68","247232","0.0-6.0-5.0","0ozp6vjey8","one_one","1","direct_first","1","OD05DI20","0","18","1","0","3","1","","0","1","0","2369.4599999999045","","{}","","","","","","","","","","","",""
"","html-keyboard-response","69","251238","0.0-6.0-6.0-0.0","0ozp6vjey8","one_one","1","direct_first","1","OD05DI20","0","18","1","0","3","1","","0","1","0","null","","","<div class = 'row'><div class = 'column'><img src = 'category1/CS9.png' width = '70%;'></div><div class = 'column'><img src = 'uspos/8490.bmp' width = '100%;'></div></div>","null","pos","CS","CS","1","category1/CS9.png","","","","",""
"","html-keyboard-response","70","253741","0.0-6.0-6.0-0.1","0ozp6vjey8","one_one","1","direct_first","1","OD05DI20","0","18","1","0","3","1","","0","1","0","null","","","<div class = 'row'><div class = 'column'><img src = 'category3/CS8.png' width = '70%;'></div><div class = 'column'><img src = 'usneg/9180.bmp' width = '100%;'></div></div>","null","neg","CS","CS","3","category3/CS8.png","","","","",""
"","html-keyboard-response","71","256244","0.0-6.0-6.0-0.2","0ozp6vjey8","one_one","1","direct_first","1","OD05DI20","0","18","1","0","3","1","","0","1","0","null","","","<div class = 'row'><div class = 'column'><img src = 'category2/CS5.png' width = '70%;'></div><div class = 'column'><img src = 'uspos/1710.bmp' width = '100%;'></div></div>","null","pos","CS","CS","2","category2/CS5.png","","","","",""
"","html-keyboard-response","72","258747","0.0-6.0-6.0-0.3","0ozp6vjey8","one_one","1","direct_first","1","OD05DI20","0","18","1","0","3","1","","0","1","0","null","","","<div class = 'row'><div class = 'column'><img src = 'category3/CS8.png' width = '70%;'></div><div class = 'column'><img src = 'usneg/9180.bmp' width = '100%;'></div></div>","null","neg","CS","CS","3","category3/CS8.png","","","","",""
"","html-keyboard-response","73","261249","0.0-6.0-6.0-0.4","0ozp6vjey8","one_one","1","direct_first","1","OD05DI20","0","18","1","0","3","1","","0","1","0","null","","","<div class = 'row'><div class = 'column'><img src = 'uspos/1710.bmp' width = '100%;'></div><div class = 'column'><img src = 'category2/CS5.png' width = '70%;'></div></div>","null","pos","CS","CS","2","category2/CS5.png","","","","",""
"","html-keyboard-response","74","263752","0.0-6.0-6.0-0.5","0ozp6vjey8","one_one","1","direct_first","1","OD05DI20","0","18","1","0","3","1","","0","1","0","null","","","<div class = 'row'><div class = 'column'><img src = 'uspos/8490.bmp' width = '100%;'></div><div class = 'column'><img src = 'category1/CS9.png' width = '70%;'></div></div>","null","pos","CS","CS","1","category1/CS9.png","","","","",""
"","html-keyboard-response","75","266255","0.0-6.0-6.0-0.6","0ozp6vjey8","one_one","1","direct_first","1","OD05DI20","0","18","1","0","3","1","","0","1","0","null","","","<div class = 'row'><div class = 'column'><img src = 'usneg/9180.bmp' width = '100%;'></div><div class = 'column'><img src = 'category3/CS8.png' width = '70%;'></div></div>","null","neg","CS","CS","3","category3/CS8.png","","","","",""
"","html-keyboard-response","76","268757","0.0-6.0-6.0-0.7","0ozp6vjey8","one_one","1","direct_first","1","OD05DI20","0","18","1","0","3","1","","0","1","0","null","","","<div class = 'row'><div class = 'column'><img src = 'category4/CS9.png' width = '70%;'></div><div class = 'column'><img src = 'usneg/6212.bmp' width = '100%;'></div></div>","null","neg","CS","CS","4","category4/CS9.png","","","","",""
"","html-keyboard-response","77","271261","0.0-6.0-6.0-0.8","0ozp6vjey8","one_one","1","direct_first","1","OD05DI20","0","18","1","0","3","1","","0","1","0","null","","","<div class = 'row'><div class = 'column'><img src = 'usneg/9180.bmp' width = '100%;'></div><div class = 'column'><img src = 'category3/CS8.png' width = '70%;'></div></div>","null","neg","CS","CS","3","category3/CS8.png","","","","",""
"","html-keyboard-response","78","273763","0.0-6.0-6.0-0.9","0ozp6vjey8","one_one","1","direct_first","1","OD05DI20","0","18","1","0","3","1","","0","1","0","null","","","<div class = 'row'><div class = 'column'><img src = 'category4/CS9.png' width = '70%;'></div><div class = 'column'><img src = 'usneg/6212.bmp' width = '100%;'></div></div>","null","neg","CS","CS","4","category4/CS9.png","","","","",""
"","html-keyboard-response","79","276266","0.0-6.0-6.0-0.10","0ozp6vjey8","one_one","1","direct_first","1","OD05DI20","0","18","1","0","3","1","","0","1","0","null","","","<div class = 'row'><div class = 'column'><img src = 'uspos/1710.bmp' width = '100%;'></div><div class = 'column'><img src = 'category2/CS5.png' width = '70%;'></div></div>","null","pos","CS","CS","2","category2/CS5.png","","","","",""
"","html-keyboard-response","80","278769","0.0-6.0-6.0-0.11","0ozp6vjey8","one_one","1","direct_first","1","OD05DI20","0","18","1","0","3","1","","0","1","0","null","","","<div class = 'row'><div class = 'column'><img src = 'category1/CS9.png' width = '70%;'></div><div class = 'column'><img src = 'uspos/8490.bmp' width = '100%;'></div></div>","null","pos","CS","CS","1","category1/CS9.png","","","","",""
"","html-keyboard-response","81","281272","0.0-6.0-6.0-0.12","0ozp6vjey8","one_one","1","direct_first","1","OD05DI20","0","18","1","0","3","1","","0","1","0","null","","","<div class = 'row'><div class = 'column'><img src = 'usneg/6212.bmp' width = '100%;'></div><div class = 'column'><img src = 'category4/CS9.png' width = '70%;'></div></div>","null","neg","CS","CS","4","category4/CS9.png","","","","",""
"","html-keyboard-response","82","283775","0.0-6.0-6.0-0.13","0ozp6vjey8","one_one","1","direct_first","1","OD05DI20","0","18","1","0","3","1","","0","1","0","null","","","<div class = 'row'><div class = 'column'><img src = 'category2/CS5.png' width = '70%;'></div><div class = 'column'><img src = 'uspos/1710.bmp' width = '100%;'></div></div>","null","pos","CS","CS","2","category2/CS5.png","","","","",""
"","html-keyboard-response","83","286278","0.0-6.0-6.0-0.14","0ozp6vjey8","one_one","1","direct_first","1","OD05DI20","0","18","1","0","3","1","","0","1","0","null","","","<div class = 'row'><div class = 'column'><img src = 'category3/CS8.png' width = '70%;'></div><div class = 'column'><img src = 'usneg/9180.bmp' width = '100%;'></div></div>","null","neg","CS","CS","3","category3/CS8.png","","","","",""
"","html-keyboard-response","84","288781","0.0-6.0-6.0-0.15","0ozp6vjey8","one_one","1","direct_first","1","OD05DI20","0","18","1","0","3","1","","0","1","0","null","","","<div class = 'row'><div class = 'column'><img src = 'category1/CS9.png' width = '70%;'></div><div class = 'column'><img src = 'uspos/8490.bmp' width = '100%;'></div></div>","null","pos","CS","CS","1","category1/CS9.png","","","","",""
"","html-keyboard-response","85","291284","0.0-6.0-6.0-0.16","0ozp6vjey8","one_one","1","direct_first","1","OD05DI20","0","18","1","0","3","1","","0","1","0","null","","","<div class = 'row'><div class = 'column'><img src = 'usneg/6212.bmp' width = '100%;'></div><div class = 'column'><img src = 'category4/CS9.png' width = '70%;'></div></div>","null","neg","CS","CS","4","category4/CS9.png","","","","",""
"","html-keyboard-response","86","293786","0.0-6.0-6.0-0.17","0ozp6vjey8","one_one","1","direct_first","1","OD05DI20","0","18","1","0","3","1","","0","1","0","null","","","<div class = 'row'><div class = 'column'><img src = 'category1/CS9.png' width = '70%;'></div><div class = 'column'><img src = 'uspos/8490.bmp' width = '100%;'></div></div>","null","pos","CS","CS","1","category1/CS9.png","","","","",""
"","html-keyboard-response","87","296289","0.0-6.0-6.0-0.18","0ozp6vjey8","one_one","1","direct_first","1","OD05DI20","0","18","1","0","3","1","","0","1","0","null","","","<div class = 'row'><div class = 'column'><img src = 'category4/CS9.png' width = '70%;'></div><div class = 'column'><img src = 'usneg/6212.bmp' width = '100%;'></div></div>","null","neg","CS","CS","4","category4/CS9.png","","","","",""
"","html-keyboard-response","88","298792","0.0-6.0-6.0-0.19","0ozp6vjey8","one_one","1","direct_first","1","OD05DI20","0","18","1","0","3","1","","0","1","0","null","","","<div class = 'row'><div class = 'column'><img src = 'category2/CS5.png' width = '70%;'></div><div class = 'column'><img src = 'uspos/1710.bmp' width = '100%;'></div></div>","null","pos","CS","CS","2","category2/CS5.png","","","","",""
"","survey-html-form","89","308882","0.0-7.0","0ozp6vjey8","one_one","1","direct_first","1","OD05DI20","0","18","1","0","3","1","","0","1","0","9588.740000000107","","{}","","","","","","","","","","","",""
"","image-slider-response","90","321815","0.0-8.0-0.0","0ozp6vjey8","one_one","1","direct_first","1","OD05DI20","0","18","1","0","3","1","","0","1","0","10927.840000000317","","","","","neg","GS","abstract","4","category4/lin.png","3","targets/38.png","direct","",""
"","image-slider-response","91","329111","0.0-8.0-0.1","0ozp6vjey8","one_one","1","direct_first","1","OD05DI20","0","18","1","0","3","1","","0","1","0","7292.999999999709","","","","","pos","GS","GSnew","1","category1/GS1.png","76","targets/16.png","direct","",""
"","image-slider-response","92","335011","0.0-8.0-0.2","0ozp6vjey8","one_one","1","direct_first","1","OD05DI20","0","18","1","0","3","1","","0","1","0","5897.820000000182","","","","","neg","GS","GSold","4","category4/CS4.png","-2","targets/24.png","direct","",""
"","image-slider-response","93","341285","0.0-8.0-0.3","0ozp6vjey8","one_one","1","direct_first","1","OD05DI20","0","18","1","0","3","1","","0","1","0","6269.565000000526","","","","","neg","GS","GSnew","4","category4/GS1.png","-11","targets/41.png","direct","",""
"","image-slider-response","94","345726","0.0-8.0-0.4","0ozp6vjey8","one_one","1","direct_first","1","OD05DI20","0","18","1","0","3","1","","0","1","0","4438.210000000254","","","","","pos","GS","GSold","1","category1/CS5.png","100","targets/39.png","direct","",""
"","image-slider-response","95","350975","0.0-8.0-0.5","0ozp6vjey8","one_one","1","direct_first","1","OD05DI20","0","18","1","0","3","1","","0","1","0","5246.070000000182","","","","","neg","CS","CS","4","category4/CS9.png","-14","targets/40.png","direct","",""
"","image-slider-response","96","354532","0.0-8.0-0.6","0ozp6vjey8","one_one","1","direct_first","1","OD05DI20","0","18","1","0","3","1","","0","1","0","3552.8850000009406","","","","","pos","GS","GSold","2","category2/CS3.png","14","targets/28.png","direct","",""
"","image-slider-response","97","358885","0.0-8.0-0.7","0ozp6vjey8","one_one","1","direct_first","1","OD05DI20","0","18","1","0","3","1","","0","1","0","4349.540000001027","","","","","neg","GS","GSnew","4","category4/GS3.png","12","targets/4.png","direct","",""
"","image-slider-response","98","362351","0.0-8.0-0.8","0ozp6vjey8","one_one","1","direct_first","1","OD05DI20","0","18","1","0","3","1","","0","1","0","3462.819999998843","","","","","pos","GS","GSnew","1","category1/GS2.png","39","targets/21.png","direct","",""
"","image-slider-response","99","365702","0.0-8.0-0.9","0ozp6vjey8","one_one","1","direct_first","1","OD05DI20","0","18","1","0","3","1","","0","1","0","3347.7599999987287","","","","","pos","GS","GSold","1","category1/CS10.png","55","targets/23.png","direct","",""
"","image-slider-response","100","368813","0.0-8.0-0.10","0ozp6vjey8","one_one","1","direct_first","1","OD05DI20","0","18","1","0","3","1","","0","1","0","3108.9150000007357","","","","","pos","GS","GSold","2","category2/CS8.png","38","targets/30.png","direct","",""
"","image-slider-response","101","371905","0.0-8.0-0.11","0ozp6vjey8","one_one","1","direct_first","1","OD05DI20","0","18","1","0","3","1","","0","1","0","3088.890000000887","","","","","neg","GS","GSold","4","category4/CS10.png","-20","targets/17.png","direct","",""
"","image-slider-response","102","374762","0.0-8.0-0.12","0ozp6vjey8","one_one","1","direct_first","1","OD05DI20","0","18","1","0","3","1","","0","1","0","2854.4799999999814","","","","","pos","GS","GSold","2","category2/CS10.png","65","targets/2.png","direct","",""
"","image-slider-response","103","382335","0.0-8.0-0.13","0ozp6vjey8","one_one","1","direct_first","1","OD05DI20","0","18","1","0","3","1","","0","1","0","7570.630000000179","","","","","pos","CS","CS","2","category2/CS5.png","100","targets/15.png","direct","",""
"","image-slider-response","104","385379","0.0-8.0-0.14","0ozp6vjey8","one_one","1","direct_first","1","OD05DI20","0","18","1","0","3","1","","0","1","0","3041.189999999886","","","","","neg","GS","abstract","3","category3/wang.png","74","targets/37.png","direct","",""
"","image-slider-response","105","388376","0.0-8.0-0.15","0ozp6vjey8","one_one","1","direct_first","1","OD05DI20","0","18","1","0","3","1","","0","1","0","2994.2150000006077","","","","","neg","CS","CS","3","category3/CS8.png","77","targets/33.png","direct","",""
"","image-slider-response","106","391288","0.0-8.0-0.16","0ozp6vjey8","one_one","1","direct_first","1","OD05DI20","0","18","1","0","3","1","","0","1","0","2909.6649999992223","","","","","neg","GS","GSold","3","category3/CS2.png","30","targets/20.png","direct","",""
"","image-slider-response","107","395535","0.0-8.0-0.17","0ozp6vjey8","one_one","1","direct_first","1","OD05DI20","0","18","1","0","3","1","","0","1","0","4243.260000001115","","","","","neg","GS","GSold","3","category3/CS4.png","-15","targets/32.png","direct","",""
"","image-slider-response","108","398364","0.0-8.0-0.18","0ozp6vjey8","one_one","1","direct_first","1","OD05DI20","0","18","1","0","3","1","","0","1","0","2826.069999999134","","","","","pos","GS","abstract","1","category1/ma.png","16","targets/29.png","direct","",""
"","image-slider-response","109","401239","0.0-8.0-0.19","0ozp6vjey8","one_one","1","direct_first","1","OD05DI20","0","18","1","0","3","1","","0","1","0","2872.654999999213","","","","","pos","GS","GSnew","1","category1/GS3.png","100","targets/27.png","direct","",""
"","image-slider-response","110","404310","0.0-8.0-0.20","0ozp6vjey8","one_one","1","direct_first","1","OD05DI20","0","18","1","0","3","1","","0","1","0","3067.629999999539","","","","","pos","GS","abstract","2","category2/men.png","27","targets/34.png","direct","",""
"","image-slider-response","111","407660","0.0-8.0-0.21","0ozp6vjey8","one_one","1","direct_first","1","OD05DI20","0","18","1","0","3","1","","0","1","0","3347.0999999990454","","","","","neg","GS","GSold","4","category4/CS7.png","-6","targets/46.png","direct","",""
"","image-slider-response","112","409937","0.0-8.0-0.22","0ozp6vjey8","one_one","1","direct_first","1","OD05DI20","0","18","1","0","3","1","","0","1","0","2274.395000000368","","","","","pos","CS","CS","1","category1/CS9.png","25","targets/10.png","direct","",""
"","image-slider-response","113","413620","0.0-8.0-0.23","0ozp6vjey8","one_one","1","direct_first","1","OD05DI20","0","18","1","0","3","1","","0","1","0","3680.290000000212","","","","","pos","GS","GSnew","2","category2/GS2.png","22","targets/12.png","direct","",""
"","image-slider-response","114","416960","0.0-8.0-0.24","0ozp6vjey8","one_one","1","direct_first","1","OD05DI20","0","18","1","0","3","1","","0","1","0","3336.3449999997392","","","","","neg","GS","GSnew","3","category3/GS1.png","16","targets/42.png","direct","",""
"","image-slider-response","115","421088","0.0-8.0-0.25","0ozp6vjey8","one_one","1","direct_first","1","OD05DI20","0","18","1","0","3","1","","0","1","0","4125.264999998792","","","","","neg","GS","GSold","3","category3/CS5.png","100","targets/45.png","direct","",""
"","image-slider-response","116","424112","0.0-8.0-0.26","0ozp6vjey8","one_one","1","direct_first","1","OD05DI20","0","18","1","0","3","1","","0","1","0","3019.9150000007357","","","","","neg","GS","GSnew","3","category3/GS3.png","28","targets/11.png","direct","",""
"","image-slider-response","117","427007","0.0-8.0-0.27","0ozp6vjey8","one_one","1","direct_first","1","OD05DI20","0","18","1","0","3","1","","0","1","0","2890.8549999996903","","","","","pos","GS","GSold","1","category1/CS2.png","55","targets/22.png","direct","",""
"","image-slider-response","118","430749","0.0-8.0-0.28","0ozp6vjey8","one_one","1","direct_first","1","OD05DI20","0","18","1","0","3","1","","0","1","0","3738.890000000538","","","","","neg","GS","GSnew","3","category3/GS2.png","24","targets/48.png","direct","",""
"","image-slider-response","119","434257","0.0-8.0-0.29","0ozp6vjey8","one_one","1","direct_first","1","OD05DI20","0","18","1","0","3","1","","0","1","0","3505.3649999991176","","","","","pos","GS","GSnew","2","category2/GS1.png","48","targets/44.png","direct","",""
"","image-slider-response","120","437528","0.0-8.0-0.30","0ozp6vjey8","one_one","1","direct_first","1","OD05DI20","0","18","1","0","3","1","","0","1","0","3267.3549999999814","","","","","neg","GS","GSnew","4","category4/GS2.png","-11","targets/8.png","direct","",""
"","image-slider-response","121","440100","0.0-8.0-0.31","0ozp6vjey8","one_one","1","direct_first","1","OD05DI20","0","18","1","0","3","1","","0","1","0","2569.480000000098","","","","","pos","GS","GSnew","2","category2/GS3.png","51","targets/18.png","direct","",""
"","html-keyboard-response","122","483104","0.0-9.0","0ozp6vjey8","one_one","1","direct_first","1","OD05DI20","0","18","1","0","3","1","","0","1","0","43000.87499999971","","","<p>Sie sehen nun die chinesischen Zeichen nur ganz kurz. Danach sehen Sie die jeweilige Aussprache der Zeichen als Silbe auf dem Bildschrim. Ihre Aufgabe ist es, für jede Silbe anzugeben, ob diese etwas angenehmes, oder unangenehmes bedeuten könnte. Verlassen Sie sich hier vor allem auf Ihre Intuition.<br><br>Die Zeichen werden nur zur Orientierung dargestellt, beachten Sie sie deshalb nicht. Konzentrieren Sie sich vor allem auf die Silben. <br>Reagieren Sie mit folgenden zwei Tasten: <br><br><b>'D' </b> wenn die Silbe etwas <b>unangenehmes</b> bedeuten könnte. <br><b>'K'</b> wenn die Silbe etwas <b>angenehmes</b> bedeuten könnte. <br><br>Bitte legen Sie nun den Zeigefinger der linken Hand auf die Taste 'D' und den Zeigefinger der rechten Hand auf die Taste 'K'. <br>Reagieren Sie auf jede Silbe so schnell wie möglich. Uns interessiert Ihre spontane Reaktion. <br> <br> <br>Drücken Sie 'D' oder 'K', um die nächste Aufgabe zu starten. </p>","75","","","","","","","","","",""
"","html-keyboard-response","123","486105","0.0-10.0-0.0","0ozp6vjey8","one_one","1","direct_first","1","OD05DI20","0","18","1","0","3","1","","0","1","0","null","","","<div style=""font-size:60px;"">+</div>","null","","","","","","","","","",""
"","html-keyboard-response","124","486196","0.0-10.0-1.0","0ozp6vjey8","one_one","1","direct_first","1","OD05DI20","0","18","1","0","3","1","","0","1","0","null","","","<img src = 'category4/CS7.png' width = '100%;'>","null","","","","","","","","","",""
"","html-keyboard-response","125","486448","0.0-10.0-2.0","0ozp6vjey8","one_one","1","direct_first","1","OD05DI20","0","18","1","0","3","1","","0","1","0","null","","","<img src = 'targets/46.png' width = '100%;'>","null","","","","","","","","","",""
"","html-keyboard-response","126","490754","0.0-10.0-3.0","0ozp6vjey8","one_one","1","direct_first","1","OD05DI20","0","18","1","0","3","1","","0","1","0","4303.524999999325","","","<img src = 'targets/mask.png' width = '100%;'>","68","neg","GS","GSold","4","category4/CS7.png","","targets/46.png","indirect","0","0"
"","html-keyboard-response","127","492256","0.0-10.0-0.1","0ozp6vjey8","one_one","1","direct_first","1","OD05DI20","0","18","1","0","3","1","","0","1","0","null","","","<div style=""font-size:60px;"">+</div>","null","","","","","","","","","",""
"","html-keyboard-response","128","492348","0.0-10.0-1.1","0ozp6vjey8","one_one","1","direct_first","1","OD05DI20","0","18","1","0","3","1","","0","1","0","null","","","<img src = 'category2/CS5.png' width = '100%;'>","null","","","","","","","","","",""
"","html-keyboard-response","129","492599","0.0-10.0-2.1","0ozp6vjey8","one_one","1","direct_first","1","OD05DI20","0","18","1","0","3","1","","0","1","0","null","","","<img src = 'targets/15.png' width = '100%;'>","null","","","","","","","","","",""
"","html-keyboard-response","130","496302","0.0-10.0-3.1","0ozp6vjey8","one_one","1","direct_first","1","OD05DI20","0","18","1","0","3","1","","0","1","0","3701.404999999795","","","<img src = 'targets/mask.png' width = '100%;'>","75","pos","CS","CS","2","category2/CS5.png","","targets/15.png","indirect","1","1"
"","html-keyboard-response","131","497804","0.0-10.0-0.2","0ozp6vjey8","one_one","1","direct_first","1","OD05DI20","0","18","1","0","3","1","","0","1","0","null","","","<div style=""font-size:60px;"">+</div>","null","","","","","","","","","",""
"","html-keyboard-response","132","497896","0.0-10.0-1.2","0ozp6vjey8","one_one","1","direct_first","1","OD05DI20","0","18","1","0","3","1","","0","1","0","null","","","<img src = 'category3/CS2.png' width = '100%;'>","null","","","","","","","","","",""
"","html-keyboard-response","133","498148","0.0-10.0-2.2","0ozp6vjey8","one_one","1","direct_first","1","OD05DI20","0","18","1","0","3","1","","0","1","0","null","","","<img src = 'targets/20.png' width = '100%;'>","null","","","","","","","","","",""
"","html-keyboard-response","134","498745","0.0-10.0-3.2","0ozp6vjey8","one_one","1","direct_first","1","OD05DI20","0","18","1","0","3","1","","0","1","0","595.5549999998766","","","<img src = 'targets/mask.png' width = '100%;'>","75","neg","GS","GSold","3","category3/CS2.png","","targets/20.png","indirect","1","2"
"","html-keyboard-response","135","500246","0.0-10.0-0.3","0ozp6vjey8","one_one","1","direct_first","1","OD05DI20","0","18","1","0","3","1","","0","1","0","null","","","<div style=""font-size:60px;"">+</div>","null","","","","","","","","","",""
"","html-keyboard-response","136","500338","0.0-10.0-1.3","0ozp6vjey8","one_one","1","direct_first","1","OD05DI20","0","18","1","0","3","1","","0","1","0","null","","","<img src = 'category2/CS10.png' width = '100%;'>","null","","","","","","","","","",""
"","html-keyboard-response","137","500589","0.0-10.0-2.3","0ozp6vjey8","one_one","1","direct_first","1","OD05DI20","0","18","1","0","3","1","","0","1","0","null","","","<img src = 'targets/2.png' width = '100%;'>","null","","","","","","","","","",""
"","html-keyboard-response","138","501891","0.0-10.0-3.3","0ozp6vjey8","one_one","1","direct_first","1","OD05DI20","0","18","1","0","3","1","","0","1","0","1300.5150000008289","","","<img src = 'targets/mask.png' width = '100%;'>","68","pos","GS","GSold","2","category2/CS10.png","","targets/2.png","indirect","0","3"
"","html-keyboard-response","139","503393","0.0-10.0-0.4","0ozp6vjey8","one_one","1","direct_first","1","OD05DI20","0","18","1","0","3","1","","0","1","0","null","","","<div style=""font-size:60px;"">+</div>","null","","","","","","","","","",""
"","html-keyboard-response","140","503484","0.0-10.0-1.4","0ozp6vjey8","one_one","1","direct_first","1","OD05DI20","0","18","1","0","3","1","","0","1","0","null","","","<img src = 'category3/CS8.png' width = '100%;'>","null","","","","","","","","","",""
"","html-keyboard-response","141","503735","0.0-10.0-2.4","0ozp6vjey8","one_one","1","direct_first","1","OD05DI20","0","18","1","0","3","1","","0","1","0","null","","","<img src = 'targets/33.png' width = '100%;'>","null","","","","","","","","","",""
"","html-keyboard-response","142","504272","0.0-10.0-3.4","0ozp6vjey8","one_one","1","direct_first","1","OD05DI20","0","18","1","0","3","1","","0","1","0","535.2800000000279","","","<img src = 'targets/mask.png' width = '100%;'>","75","neg","CS","CS","3","category3/CS8.png","","targets/33.png","indirect","1","4"
"","html-keyboard-response","143","505774","0.0-10.0-0.5","0ozp6vjey8","one_one","1","direct_first","1","OD05DI20","0","18","1","0","3","1","","0","1","0","null","","","<div style=""font-size:60px;"">+</div>","null","","","","","","","","","",""
"","html-keyboard-response","144","505865","0.0-10.0-1.5","0ozp6vjey8","one_one","1","direct_first","1","OD05DI20","0","18","1","0","3","1","","0","1","0","null","","","<img src = 'category1/CS9.png' width = '100%;'>","null","","","","","","","","","",""
"","html-keyboard-response","145","506118","0.0-10.0-2.5","0ozp6vjey8","one_one","1","direct_first","1","OD05DI20","0","18","1","0","3","1","","0","1","0","null","","","<img src = 'targets/10.png' width = '100%;'>","null","","","","","","","","","",""
"","html-keyboard-response","146","506595","0.0-10.0-3.5","0ozp6vjey8","one_one","1","direct_first","1","OD05DI20","0","18","1","0","3","1","","0","1","0","476.3900000016438","","","<img src = 'targets/mask.png' width = '100%;'>","75","pos","CS","CS","1","category1/CS9.png","","targets/10.png","indirect","1","5"
"","html-keyboard-response","147","508096","0.0-10.0-0.6","0ozp6vjey8","one_one","1","direct_first","1","OD05DI20","0","18","1","0","3","1","","0","1","0","null","","","<div style=""font-size:60px;"">+</div>","null","","","","","","","","","",""
"","html-keyboard-response","148","508188","0.0-10.0-1.6","0ozp6vjey8","one_one","1","direct_first","1","OD05DI20","0","18","1","0","3","1","","0","1","0","null","","","<img src = 'category4/CS9.png' width = '100%;'>","null","","","","","","","","","",""
"","html-keyboard-response","149","508439","0.0-10.0-2.6","0ozp6vjey8","one_one","1","direct_first","1","OD05DI20","0","18","1","0","3","1","","0","1","0","null","","","<img src = 'targets/40.png' width = '100%;'>","null","","","","","","","","","",""
"","html-keyboard-response","150","509179","0.0-10.0-3.6","0ozp6vjey8","one_one","1","direct_first","1","OD05DI20","0","18","1","0","3","1","","0","1","0","738.1199999999953","","","<img src = 'targets/mask.png' width = '100%;'>","68","neg","CS","CS","4","category4/CS9.png","","targets/40.png","indirect","0","6"
"","html-keyboard-response","151","510680","0.0-10.0-0.7","0ozp6vjey8","one_one","1","direct_first","1","OD05DI20","0","18","1","0","3","1","","0","1","0","null","","","<div style=""font-size:60px;"">+</div>","null","","","","","","","","","",""
"","html-keyboard-response","152","510771","0.0-10.0-1.7","0ozp6vjey8","one_one","1","direct_first","1","OD05DI20","0","18","1","0","3","1","","0","1","0","null","","","<img src = 'category3/CS4.png' width = '100%;'>","null","","","","","","","","","",""
"","html-keyboard-response","153","511024","0.0-10.0-2.7","0ozp6vjey8","one_one","1","direct_first","1","OD05DI20","0","18","1","0","3","1","","0","1","0","null","","","<img src = 'targets/32.png' width = '100%;'>","null","","","","","","","","","",""
"","html-keyboard-response","154","511552","0.0-10.0-3.7","0ozp6vjey8","one_one","1","direct_first","1","OD05DI20","0","18","1","0","3","1","","0","1","0","526.8249999990221","","","<img src = 'targets/mask.png' width = '100%;'>","75","neg","GS","GSold","3","category3/CS4.png","","targets/32.png","indirect","1","7"
"","html-keyboard-response","155","513053","0.0-10.0-0.8","0ozp6vjey8","one_one","1","direct_first","1","OD05DI20","0","18","1","0","3","1","","0","1","0","null","","","<div style=""font-size:60px;"">+</div>","null","","","","","","","","","",""
"","html-keyboard-response","156","513144","0.0-10.0-1.8","0ozp6vjey8","one_one","1","direct_first","1","OD05DI20","0","18","1","0","3","1","","0","1","0","null","","","<img src = 'category2/CS8.png' width = '100%;'>","null","","","","","","","","","",""
"","html-keyboard-response","157","513396","0.0-10.0-2.8","0ozp6vjey8","one_one","1","direct_first","1","OD05DI20","0","18","1","0","3","1","","0","1","0","null","","","<img src = 'targets/30.png' width = '100%;'>","null","","","","","","","","","",""
"","html-keyboard-response","158","513812","0.0-10.0-3.8","0ozp6vjey8","one_one","1","direct_first","1","OD05DI20","0","18","1","0","3","1","","0","1","0","413.5999999998603","","","<img src = 'targets/mask.png' width = '100%;'>","75","pos","GS","GSold","2","category2/CS8.png","","targets/30.png","indirect","1","8"
"","html-keyboard-response","159","515313","0.0-10.0-0.9","0ozp6vjey8","one_one","1","direct_first","1","OD05DI20","0","18","1","0","3","1","","0","1","0","null","","","<div style=""font-size:60px;"">+</div>","null","","","","","","","","","",""
"","html-keyboard-response","160","515404","0.0-10.0-1.9","0ozp6vjey8","one_one","1","direct_first","1","OD05DI20","0","18","1","0","3","1","","0","1","0","null","","","<img src = 'category1/CS2.png' width = '100%;'>","null","","","","","","","","","",""
"","html-keyboard-response","161","515656","0.0-10.0-2.9","0ozp6vjey8","one_one","1","direct_first","1","OD05DI20","0","18","1","0","3","1","","0","1","0","null","","","<img src = 'targets/22.png' width = '100%;'>","null","","","","","","","","","",""
"","html-keyboard-response","162","516058","0.0-10.0-3.9","0ozp6vjey8","one_one","1","direct_first","1","OD05DI20","0","18","1","0","3","1","","0","1","0","400.53000000084285","","","<img src = 'targets/mask.png' width = '100%;'>","75","pos","GS","GSold","1","category1/CS2.png","","targets/22.png","indirect","1","9"
"","html-keyboard-response","163","517560","0.0-10.0-0.10","0ozp6vjey8","one_one","1","direct_first","1","OD05DI20","0","18","1","0","3","1","","0","1","0","null","","","<div style=""font-size:60px;"">+</div>","null","","","","","","","","","",""
"","html-keyboard-response","164","517652","0.0-10.0-1.10","0ozp6vjey8","one_one","1","direct_first","1","OD05DI20","0","18","1","0","3","1","","0","1","0","null","","","<img src = 'category4/CS4.png' width = '100%;'>","null","","","","","","","","","",""
"","html-keyboard-response","165","517904","0.0-10.0-2.10","0ozp6vjey8","one_one","1","direct_first","1","OD05DI20","0","18","1","0","3","1","","0","1","0","null","","","<img src = 'targets/24.png' width = '100%;'>","null","","","","","","","","","",""
"","html-keyboard-response","166","518439","0.0-10.0-3.10","0ozp6vjey8","one_one","1","direct_first","1","OD05DI20","0","18","1","0","3","1","","0","1","0","533.6999999999534","","","<img src = 'targets/mask.png' width = '100%;'>","75","neg","GS","GSold","4","category4/CS4.png","","targets/24.png","indirect","1","10"
"","html-keyboard-response","167","519940","0.0-10.0-0.11","0ozp6vjey8","one_one","1","direct_first","1","OD05DI20","0","18","1","0","3","1","","0","1","0","null","","","<div style=""font-size:60px;"">+</div>","null","","","","","","","","","",""
"","html-keyboard-response","168","520031","0.0-10.0-1.11","0ozp6vjey8","one_one","1","direct_first","1","OD05DI20","0","18","1","0","3","1","","0","1","0","null","","","<img src = 'category2/CS3.png' width = '100%;'>","null","","","","","","","","","",""
"","html-keyboard-response","169","520283","0.0-10.0-2.11","0ozp6vjey8","one_one","1","direct_first","1","OD05DI20","0","18","1","0","3","1","","0","1","0","null","","","<img src = 'targets/28.png' width = '100%;'>","null","","","","","","","","","",""
"","html-keyboard-response","170","520679","0.0-10.0-3.11","0ozp6vjey8","one_one","1","direct_first","1","OD05DI20","0","18","1","0","3","1","","0","1","0","395.14000000047963","","","<img src = 'targets/mask.png' width = '100%;'>","75","pos","GS","GSold","2","category2/CS3.png","","targets/28.png","indirect","1","11"
"","html-keyboard-response","171","522180","0.0-10.0-0.12","0ozp6vjey8","one_one","1","direct_first","1","OD05DI20","0","18","1","0","3","1","","0","1","0","null","","","<div style=""font-size:60px;"">+</div>","null","","","","","","","","","",""
"","html-keyboard-response","172","522272","0.0-10.0-1.12","0ozp6vjey8","one_one","1","direct_first","1","OD05DI20","0","18","1","0","3","1","","0","1","0","null","","","<img src = 'category3/CS5.png' width = '100%;'>","null","","","","","","","","","",""
"","html-keyboard-response","173","522524","0.0-10.0-2.12","0ozp6vjey8","one_one","1","direct_first","1","OD05DI20","0","18","1","0","3","1","","0","1","0","null","","","<img src = 'targets/45.png' width = '100%;'>","null","","","","","","","","","",""
"","html-keyboard-response","174","523127","0.0-10.0-3.12","0ozp6vjey8","one_one","1","direct_first","1","OD05DI20","0","18","1","0","3","1","","0","1","0","602.059999999241","","","<img src = 'targets/mask.png' width = '100%;'>","75","neg","GS","GSold","3","category3/CS5.png","","targets/45.png","indirect","1","12"
"","html-keyboard-response","175","524629","0.0-10.0-0.13","0ozp6vjey8","one_one","1","direct_first","1","OD05DI20","0","18","1","0","3","1","","0","1","0","null","","","<div style=""font-size:60px;"">+</div>","null","","","","","","","","","",""
"","html-keyboard-response","176","524720","0.0-10.0-1.13","0ozp6vjey8","one_one","1","direct_first","1","OD05DI20","0","18","1","0","3","1","","0","1","0","null","","","<img src = 'category4/CS10.png' width = '100%;'>","null","","","","","","","","","",""
"","html-keyboard-response","177","524972","0.0-10.0-2.13","0ozp6vjey8","one_one","1","direct_first","1","OD05DI20","0","18","1","0","3","1","","0","1","0","null","","","<img src = 'targets/17.png' width = '100%;'>","null","","","","","","","","","",""
"","html-keyboard-response","178","525691","0.0-10.0-3.13","0ozp6vjey8","one_one","1","direct_first","1","OD05DI20","0","18","1","0","3","1","","0","1","0","717.0800000003073","","","<img src = 'targets/mask.png' width = '100%;'>","75","neg","GS","GSold","4","category4/CS10.png","","targets/17.png","indirect","1","13"
"","html-keyboard-response","179","527192","0.0-10.0-0.14","0ozp6vjey8","one_one","1","direct_first","1","OD05DI20","0","18","1","0","3","1","","0","1","0","null","","","<div style=""font-size:60px;"">+</div>","null","","","","","","","","","",""
"","html-keyboard-response","180","527284","0.0-10.0-1.14","0ozp6vjey8","one_one","1","direct_first","1","OD05DI20","0","18","1","0","3","1","","0","1","0","null","","","<img src = 'category1/CS10.png' width = '100%;'>","null","","","","","","","","","",""
"","html-keyboard-response","181","527536","0.0-10.0-2.14","0ozp6vjey8","one_one","1","direct_first","1","OD05DI20","0","18","1","0","3","1","","0","1","0","null","","","<img src = 'targets/23.png' width = '100%;'>","null","","","","","","","","","",""
"","html-keyboard-response","182","528025","0.0-10.0-3.14","0ozp6vjey8","one_one","1","direct_first","1","OD05DI20","0","18","1","0","3","1","","0","1","0","487.9949999995297","","","<img src = 'targets/mask.png' width = '100%;'>","75","pos","GS","GSold","1","category1/CS10.png","","targets/23.png","indirect","1","14"
"","html-keyboard-response","183","529527","0.0-10.0-0.15","0ozp6vjey8","one_one","1","direct_first","1","OD05DI20","0","18","1","0","3","1","","0","1","0","null","","","<div style=""font-size:60px;"">+</div>","null","","","","","","","","","",""
"","html-keyboard-response","184","529618","0.0-10.0-1.15","0ozp6vjey8","one_one","1","direct_first","1","OD05DI20","0","18","1","0","3","1","","0","1","0","null","","","<img src = 'category1/CS5.png' width = '100%;'>","null","","","","","","","","","",""
"","html-keyboard-response","185","529870","0.0-10.0-2.15","0ozp6vjey8","one_one","1","direct_first","1","OD05DI20","0","18","1","0","3","1","","0","1","0","null","","","<img src = 'targets/39.png' width = '100%;'>","null","","","","","","","","","",""
"","html-keyboard-response","186","530428","0.0-10.0-3.15","0ozp6vjey8","one_one","1","direct_first","1","OD05DI20","0","18","1","0","3","1","","0","1","0","556.2699999992037","","","<img src = 'targets/mask.png' width = '100%;'>","75","pos","GS","GSold","1","category1/CS5.png","","targets/39.png","indirect","1","15"
"","survey-html-form","187","533469","0.0-11.0","0ozp6vjey8","one_one","1","direct_first","1","OD05DI20","0","18","1","0","3","1","","0","1","0","2540.085000000545","","{}","","","","","","","","","","","",""
"","html-keyboard-response","188","536471","0.0-12.0-0.0","0ozp6vjey8","one_one","1","direct_first","1","OD05DI20","0","18","1","0","3","1","","0","1","0","null","","","<div style=""font-size:60px;"">+</div>","null","","","","","","","","","",""
"","html-keyboard-response","189","536563","0.0-12.0-1.0","0ozp6vjey8","one_one","1","direct_first","1","OD05DI20","0","18","1","0","3","1","","0","1","0","null","","","<img src = 'category3/GS2.png' width = '100%;'>","null","","","","","","","","","",""
"","html-keyboard-response","190","536815","0.0-12.0-2.0","0ozp6vjey8","one_one","1","direct_first","1","OD05DI20","0","18","1","0","3","1","","0","1","0","null","","","<img src = 'targets/48.png' width = '100%;'>","null","","","","","","","","","",""
"","html-keyboard-response","191","537756","0.0-12.0-3.0","0ozp6vjey8","one_one","1","direct_first","1","OD05DI20","0","18","1","0","3","1","","0","1","0","938.9900000005728","","","<img src = 'targets/mask.png' width = '100%;'>","68","neg","GS","GSnew","3","category3/GS2.png","","targets/48.png","indirect","0","16"
"","html-keyboard-response","192","539258","0.0-12.0-0.1","0ozp6vjey8","one_one","1","direct_first","1","OD05DI20","0","18","1","0","3","1","","0","1","0","null","","","<div style=""font-size:60px;"">+</div>","null","","","","","","","","","",""
"","html-keyboard-response","193","539349","0.0-12.0-1.1","0ozp6vjey8","one_one","1","direct_first","1","OD05DI20","0","18","1","0","3","1","","0","1","0","null","","","<img src = 'category2/GS1.png' width = '100%;'>","null","","","","","","","","","",""
"","html-keyboard-response","194","539601","0.0-12.0-2.1","0ozp6vjey8","one_one","1","direct_first","1","OD05DI20","0","18","1","0","3","1","","0","1","0","null","","","<img src = 'targets/44.png' width = '100%;'>","null","","","","","","","","","",""
"","html-keyboard-response","195","540099","0.0-12.0-3.1","0ozp6vjey8","one_one","1","direct_first","1","OD05DI20","0","18","1","0","3","1","","0","1","0","496.10000000032596","","","<img src = 'targets/mask.png' width = '100%;'>","75","pos","GS","GSnew","2","category2/GS1.png","","targets/44.png","indirect","1","17"
"","html-keyboard-response","196","541600","0.0-12.0-0.2","0ozp6vjey8","one_one","1","direct_first","1","OD05DI20","0","18","1","0","3","1","","0","1","0","null","","","<div style=""font-size:60px;"">+</div>","null","","","","","","","","","",""
"","html-keyboard-response","197","541692","0.0-12.0-1.2","0ozp6vjey8","one_one","1","direct_first","1","OD05DI20","0","18","1","0","3","1","","0","1","0","null","","","<img src = 'category1/GS2.png' width = '100%;'>","null","","","","","","","","","",""
"","html-keyboard-response","198","541943","0.0-12.0-2.2","0ozp6vjey8","one_one","1","direct_first","1","OD05DI20","0","18","1","0","3","1","","0","1","0","null","","","<img src = 'targets/21.png' width = '100%;'>","null","","","","","","","","","",""
"","html-keyboard-response","199","542420","0.0-12.0-3.2","0ozp6vjey8","one_one","1","direct_first","1","OD05DI20","0","18","1","0","3","1","","0","1","0","475.37999999988824","","","<img src = 'targets/mask.png' width = '100%;'>","75","pos","GS","GSnew","1","category1/GS2.png","","targets/21.png","indirect","1","18"
"","html-keyboard-response","200","543921","0.0-12.0-0.3","0ozp6vjey8","one_one","1","direct_first","1","OD05DI20","0","18","1","0","3","1","","0","1","0","null","","","<div style=""font-size:60px;"">+</div>","null","","","","","","","","","",""
"","html-keyboard-response","201","544013","0.0-12.0-1.3","0ozp6vjey8","one_one","1","direct_first","1","OD05DI20","0","18","1","0","3","1","","0","1","0","null","","","<img src = 'category4/GS3.png' width = '100%;'>","null","","","","","","","","","",""
"","html-keyboard-response","202","544265","0.0-12.0-2.3","0ozp6vjey8","one_one","1","direct_first","1","OD05DI20","0","18","1","0","3","1","","0","1","0","null","","","<img src = 'targets/4.png' width = '100%;'>","null","","","","","","","","","",""
"","html-keyboard-response","203","544832","0.0-12.0-3.3","0ozp6vjey8","one_one","1","direct_first","1","OD05DI20","0","18","1","0","3","1","","0","1","0","565.5550000009825","","","<img src = 'targets/mask.png' width = '100%;'>","75","neg","GS","GSnew","4","category4/GS3.png","","targets/4.png","indirect","1","19"
"","html-keyboard-response","204","546333","0.0-12.0-0.4","0ozp6vjey8","one_one","1","direct_first","1","OD05DI20","0","18","1","0","3","1","","0","1","0","null","","","<div style=""font-size:60px;"">+</div>","null","","","","","","","","","",""
"","html-keyboard-response","205","546425","0.0-12.0-1.4","0ozp6vjey8","one_one","1","direct_first","1","OD05DI20","0","18","1","0","3","1","","0","1","0","null","","","<img src = 'category2/GS2.png' width = '100%;'>","null","","","","","","","","","",""
"","html-keyboard-response","206","546677","0.0-12.0-2.4","0ozp6vjey8","one_one","1","direct_first","1","OD05DI20","0","18","1","0","3","1","","0","1","0","null","","","<img src = 'targets/12.png' width = '100%;'>","null","","","","","","","","","",""
"","html-keyboard-response","207","547149","0.0-12.0-3.4","0ozp6vjey8","one_one","1","direct_first","1","OD05DI20","0","18","1","0","3","1","","0","1","0","470.7300000009127","","","<img src = 'targets/mask.png' width = '100%;'>","75","pos","GS","GSnew","2","category2/GS2.png","","targets/12.png","indirect","1","20"
"","html-keyboard-response","208","548650","0.0-12.0-0.5","0ozp6vjey8","one_one","1","direct_first","1","OD05DI20","0","18","1","0","3","1","","0","1","0","null","","","<div style=""font-size:60px;"">+</div>","null","","","","","","","","","",""
"","html-keyboard-response","209","548741","0.0-12.0-1.5","0ozp6vjey8","one_one","1","direct_first","1","OD05DI20","0","18","1","0","3","1","","0","1","0","null","","","<img src = 'category1/ma.png' width = '100%;'>","null","","","","","","","","","",""
"","html-keyboard-response","210","548993","0.0-12.0-2.5","0ozp6vjey8","one_one","1","direct_first","1","OD05DI20","0","18","1","0","3","1","","0","1","0","null","","","<img src = 'targets/29.png' width = '100%;'>","null","","","","","","","","","",""
"","html-keyboard-response","211","549374","0.0-12.0-3.5","0ozp6vjey8","one_one","1","direct_first","1","OD05DI20","0","18","1","0","3","1","","0","1","0","379.374999998603","","","<img src = 'targets/mask.png' width = '100%;'>","75","pos","GS","abstract","1","category1/ma.png","","targets/29.png","indirect","1","21"
"","html-keyboard-response","212","550875","0.0-12.0-0.6","0ozp6vjey8","one_one","1","direct_first","1","OD05DI20","0","18","1","0","3","1","","0","1","0","null","","","<div style=""font-size:60px;"">+</div>","null","","","","","","","","","",""
"","html-keyboard-response","213","550967","0.0-12.0-1.6","0ozp6vjey8","one_one","1","direct_first","1","OD05DI20","0","18","1","0","3","1","","0","1","0","null","","","<img src = 'category3/GS3.png' width = '100%;'>","null","","","","","","","","","",""
"","html-keyboard-response","214","551219","0.0-12.0-2.6","0ozp6vjey8","one_one","1","direct_first","1","OD05DI20","0","18","1","0","3","1","","0","1","0","null","","","<img src = 'targets/11.png' width = '100%;'>","null","","","","","","","","","",""
"","html-keyboard-response","215","551421","0.0-12.0-3.6","0ozp6vjey8","one_one","1","direct_first","1","OD05DI20","0","18","1","0","3","1","","0","1","0","201.06999999913387","","","<img src = 'targets/mask.png' width = '100%;'>","75","neg","GS","GSnew","3","category3/GS3.png","","targets/11.png","indirect","1","22"
"","html-keyboard-response","216","552923","0.0-12.0-0.7","0ozp6vjey8","one_one","1","direct_first","1","OD05DI20","0","18","1","0","3","1","","0","1","0","null","","","<div style=""font-size:60px;"">+</div>","null","","","","","","","","","",""
"","html-keyboard-response","217","553014","0.0-12.0-1.7","0ozp6vjey8","one_one","1","direct_first","1","OD05DI20","0","18","1","0","3","1","","0","1","0","null","","","<img src = 'category4/GS1.png' width = '100%;'>","null","","","","","","","","","",""
"","html-keyboard-response","218","553267","0.0-12.0-2.7","0ozp6vjey8","one_one","1","direct_first","1","OD05DI20","0","18","1","0","3","1","","0","1","0","null","","","<img src = 'targets/41.png' width = '100%;'>","null","","","","","","","","","",""
"","html-keyboard-response","219","553619","0.0-12.0-3.7","0ozp6vjey8","one_one","1","direct_first","1","OD05DI20","0","18","1","0","3","1","","0","1","0","351.29500000039116","","","<img src = 'targets/mask.png' width = '100%;'>","68","neg","GS","GSnew","4","category4/GS1.png","","targets/41.png","indirect","0","23"
"","html-keyboard-response","220","555121","0.0-12.0-0.8","0ozp6vjey8","one_one","1","direct_first","1","OD05DI20","0","18","1","0","3","1","","0","1","0","null","","","<div style=""font-size:60px;"">+</div>","null","","","","","","","","","",""
"","html-keyboard-response","221","555212","0.0-12.0-1.8","0ozp6vjey8","one_one","1","direct_first","1","OD05DI20","0","18","1","0","3","1","","0","1","0","null","","","<img src = 'category4/lin.png' width = '100%;'>","null","","","","","","","","","",""
"","html-keyboard-response","222","555464","0.0-12.0-2.8","0ozp6vjey8","one_one","1","direct_first","1","OD05DI20","0","18","1","0","3","1","","0","1","0","null","","","<img src = 'targets/38.png' width = '100%;'>","null","","","","","","","","","",""
"","html-keyboard-response","223","555814","0.0-12.0-3.8","0ozp6vjey8","one_one","1","direct_first","1","OD05DI20","0","18","1","0","3","1","","0","1","0","348.6900000006426","","","<img src = 'targets/mask.png' width = '100%;'>","68","neg","GS","abstract","4","category4/lin.png","","targets/38.png","indirect","0","24"
"","html-keyboard-response","224","557316","0.0-12.0-0.9","0ozp6vjey8","one_one","1","direct_first","1","OD05DI20","0","18","1","0","3","1","","0","1","0","null","","","<div style=""font-size:60px;"">+</div>","null","","","","","","","","","",""
"","html-keyboard-response","225","557408","0.0-12.0-1.9","0ozp6vjey8","one_one","1","direct_first","1","OD05DI20","0","18","1","0","3","1","","0","1","0","null","","","<img src = 'category3/GS1.png' width = '100%;'>","null","","","","","","","","","",""
"","html-keyboard-response","226","557660","0.0-12.0-2.9","0ozp6vjey8","one_one","1","direct_first","1","OD05DI20","0","18","1","0","3","1","","0","1","0","null","","","<img src = 'targets/42.png' width = '100%;'>","null","","","","","","","","","",""
"","html-keyboard-response","227","557861","0.0-12.0-3.9","0ozp6vjey8","one_one","1","direct_first","1","OD05DI20","0","18","1","0","3","1","","0","1","0","199.68999999947846","","","<img src = 'targets/mask.png' width = '100%;'>","75","neg","GS","GSnew","3","category3/GS1.png","","targets/42.png","indirect","1","25"
"","html-keyboard-response","228","559363","0.0-12.0-0.10","0ozp6vjey8","one_one","1","direct_first","1","OD05DI20","0","18","1","0","3","1","","0","1","0","null","","","<div style=""font-size:60px;"">+</div>","null","","","","","","","","","",""
"","html-keyboard-response","229","559454","0.0-12.0-1.10","0ozp6vjey8","one_one","1","direct_first","1","OD05DI20","0","18","1","0","3","1","","0","1","0","null","","","<img src = 'category1/GS3.png' width = '100%;'>","null","","","","","","","","","",""
"","html-keyboard-response","230","559706","0.0-12.0-2.10","0ozp6vjey8","one_one","1","direct_first","1","OD05DI20","0","18","1","0","3","1","","0","1","0","null","","","<img src = 'targets/27.png' width = '100%;'>","null","","","","","","","","","",""
"","html-keyboard-response","231","559842","0.0-12.0-3.10","0ozp6vjey8","one_one","1","direct_first","1","OD05DI20","0","18","1","0","3","1","","0","1","0","135.1899999990128","","","<img src = 'targets/mask.png' width = '100%;'>","75","pos","GS","GSnew","1","category1/GS3.png","","targets/27.png","indirect","1","26"
"","html-keyboard-response","232","561344","0.0-12.0-0.11","0ozp6vjey8","one_one","1","direct_first","1","OD05DI20","0","18","1","0","3","1","","0","1","0","null","","","<div style=""font-size:60px;"">+</div>","null","","","","","","","","","",""
"","html-keyboard-response","233","561436","0.0-12.0-1.11","0ozp6vjey8","one_one","1","direct_first","1","OD05DI20","0","18","1","0","3","1","","0","1","0","null","","","<img src = 'category2/GS3.png' width = '100%;'>","null","","","","","","","","","",""
"","html-keyboard-response","234","561688","0.0-12.0-2.11","0ozp6vjey8","one_one","1","direct_first","1","OD05DI20","0","18","1","0","3","1","","0","1","0","null","","","<img src = 'targets/18.png' width = '100%;'>","null","","","","","","","","","",""
"","html-keyboard-response","235","563475","0.0-12.0-3.11","0ozp6vjey8","one_one","1","direct_first","1","OD05DI20","0","18","1","0","3","1","","0","1","0","1785.8849999993108","","","<img src = 'targets/mask.png' width = '100%;'>","75","pos","GS","GSnew","2","category2/GS3.png","","targets/18.png","indirect","1","27"
"","html-keyboard-response","236","564976","0.0-12.0-0.12","0ozp6vjey8","one_one","1","direct_first","1","OD05DI20","0","18","1","0","3","1","","0","1","0","null","","","<div style=""font-size:60px;"">+</div>","null","","","","","","","","","",""
"","html-keyboard-response","237","565068","0.0-12.0-1.12","0ozp6vjey8","one_one","1","direct_first","1","OD05DI20","0","18","1","0","3","1","","0","1","0","null","","","<img src = 'category4/GS2.png' width = '100%;'>","null","","","","","","","","","",""
"","html-keyboard-response","238","565319","0.0-12.0-2.12","0ozp6vjey8","one_one","1","direct_first","1","OD05DI20","0","18","1","0","3","1","","0","1","0","null","","","<img src = 'targets/8.png' width = '100%;'>","null","","","","","","","","","",""
"","html-keyboard-response","239","565622","0.0-12.0-3.12","0ozp6vjey8","one_one","1","direct_first","1","OD05DI20","0","18","1","0","3","1","","0","1","0","300.8799999988405","","","<img src = 'targets/mask.png' width = '100%;'>","75","neg","GS","GSnew","4","category4/GS2.png","","targets/8.png","indirect","1","28"
"","html-keyboard-response","240","567124","0.0-12.0-0.13","0ozp6vjey8","one_one","1","direct_first","1","OD05DI20","0","18","1","0","3","1","","0","1","0","null","","","<div style=""font-size:60px;"">+</div>","null","","","","","","","","","",""
"","html-keyboard-response","241","567215","0.0-12.0-1.13","0ozp6vjey8","one_one","1","direct_first","1","OD05DI20","0","18","1","0","3","1","","0","1","0","null","","","<img src = 'category2/men.png' width = '100%;'>","null","","","","","","","","","",""
"","html-keyboard-response","242","567467","0.0-12.0-2.13","0ozp6vjey8","one_one","1","direct_first","1","OD05DI20","0","18","1","0","3","1","","0","1","0","null","","","<img src = 'targets/34.png' width = '100%;'>","null","","","","","","","","","",""
"","html-keyboard-response","243","567614","0.0-12.0-3.13","0ozp6vjey8","one_one","1","direct_first","1","OD05DI20","0","18","1","0","3","1","","0","1","0","145.78000000072643","","","<img src = 'targets/mask.png' width = '100%;'>","75","pos","GS","abstract","2","category2/men.png","","targets/34.png","indirect","1","29"
"","html-keyboard-response","244","569115","0.0-12.0-0.14","0ozp6vjey8","one_one","1","direct_first","1","OD05DI20","0","18","1","0","3","1","","0","1","0","null","","","<div style=""font-size:60px;"">+</div>","null","","","","","","","","","",""
"","html-keyboard-response","245","569207","0.0-12.0-1.14","0ozp6vjey8","one_one","1","direct_first","1","OD05DI20","0","18","1","0","3","1","","0","1","0","null","","","<img src = 'category3/wang.png' width = '100%;'>","null","","","","","","","","","",""
"","html-keyboard-response","246","569459","0.0-12.0-2.14","0ozp6vjey8","one_one","1","direct_first","1","OD05DI20","0","18","1","0","3","1","","0","1","0","null","","","<img src = 'targets/37.png' width = '100%;'>","null","","","","","","","","","",""
"","html-keyboard-response","247","569637","0.0-12.0-3.14","0ozp6vjey8","one_one","1","direct_first","1","OD05DI20","0","18","1","0","3","1","","0","1","0","177.02499999909196","","","<img src = 'targets/mask.png' width = '100%;'>","75","neg","GS","abstract","3","category3/wang.png","","targets/37.png","indirect","1","30"
"","html-keyboard-response","248","571139","0.0-12.0-0.15","0ozp6vjey8","one_one","1","direct_first","1","OD05DI20","0","18","1","0","3","1","","0","1","0","null","","","<div style=""font-size:60px;"">+</div>","null","","","","","","","","","",""
"","html-keyboard-response","249","571230","0.0-12.0-1.15","0ozp6vjey8","one_one","1","direct_first","1","OD05DI20","0","18","1","0","3","1","","0","1","0","null","","","<img src = 'category1/GS1.png' width = '100%;'>","null","","","","","","","","","",""
"","html-keyboard-response","250","571482","0.0-12.0-2.15","0ozp6vjey8","one_one","1","direct_first","1","OD05DI20","0","18","1","0","3","1","","0","1","0","null","","","<img src = 'targets/16.png' width = '100%;'>","null","","","","","","","","","",""
"","html-keyboard-response","251","571832","0.0-12.0-3.15","0ozp6vjey8","one_one","1","direct_first","1","OD05DI20","0","18","1","0","3","1","","0","1","0","348.51500000152737","","","<img src = 'targets/mask.png' width = '100%;'>","75","pos","GS","GSnew","1","category1/GS1.png","","targets/16.png","indirect","1","31"
"","survey-html-form","252","576378","0.0-13.0","0ozp6vjey8","one_one","1","direct_first","1","OD05DI20","0","18","1","0","3","1","","0","1","0","4044.2499999990687","","{}","","","","","","","","","","","",""
"","image-slider-response","253","582655","0.0-14.0-0.0","0ozp6vjey8","one_one","1","direct_first","1","OD05DI20","0","18","1","0","3","1","","0","1","0","5274.414999999804","","","","","pos","All","all","2","category2/men_all.png","63","","all","",""
"","image-slider-response","254","586591","0.0-14.0-0.1","0ozp6vjey8","one_one","1","direct_first","1","OD05DI20","0","18","1","0","3","1","","0","1","0","3931.6749999998137","","","","","neg","All","all","3","category3/wang_all.png","51","","all","",""
"","image-slider-response","255","590067","0.0-14.0-0.2","0ozp6vjey8","one_one","1","direct_first","1","OD05DI20","0","18","1","0","3","1","","0","1","0","3473.074999999837","","","","","pos","All","all","1","category1/ma_all.png","74","","all","",""
"","image-slider-response","256","593430","0.0-14.0-0.3","0ozp6vjey8","one_one","1","direct_first","1","OD05DI20","0","18","1","0","3","1","","0","1","0","3359.7049999989104","","","","","neg","All","all","4","category4/lin_all.png","7","","all","",""
"","survey-text","257","595130","0.0-15.0","0ozp6vjey8","one_one","1","direct_first","1","OD05DI20","0","18","1","0","3","1","","0","1","0","1688.0050000000047","","{""comment"":""""}","","","","","","","","","","","",""
"","survey-html-form","258","604764","0.0-16.0","0ozp6vjey8","one_one","1","direct_first","1","OD05DI20","0","18","1","0","3","1","","0","1","0","9630.040000000037","","{""hinschauen"":""0"",""ablenkung"":""1"",""gewissenhaft"":""0""}","","","","","","","","","","","",""
