"success","trial_type","trial_index","time_elapsed","internal_node_id","subject","condition","condition_code","measure","measure_code","codeword","gender","age","education","chinese","fach","handedness","comment","hinschauen","ablenkung","gewissenhaft","rt","url","responses","stimulus","key_press","val","type","type_specific","category","cs_selected","response","target","task","indirect","nr_pres"
"true","fullscreen","0","8124","0.0-0.0","f01atolwpw","one_one","1","direct_first","1","ch06er25","0","20","1","1","3","1","","0","1","0","","","","","","","","","","","","","","",""
"","external-html","1","62753","0.0-1.0","f01atolwpw","one_one","1","direct_first","1","ch06er25","0","20","1","1","3","1","","0","1","0","54558.07000026107","text/information.html","","","","","","","","","","","","",""
"","external-html","2","81320","0.0-2.0","f01atolwpw","one_one","1","direct_first","1","ch06er25","0","20","1","1","3","1","","0","1","0","18408.38999999687","text/consent.html","","","","","","","","","","","","",""
"","survey-html-form","3","135859","0.0-3.0","f01atolwpw","one_one","1","direct_first","1","ch06er25","0","20","1","1","3","1","","0","1","0","54531.34000021964","","{""codeword_enter"":""ch06er25""}","","","","","","","","","","","",""
"","survey-html-form","4","157050","0.0-4.0","f01atolwpw","one_one","1","direct_first","1","ch06er25","0","20","1","1","3","1","","0","1","0","21183.590000029653","","{""age"":""20"",""education"":""1"",""subject"":""3"",""gender"":""0"",""handedness"":""1"",""chinese"":""1""}","","","","","","","","","","","",""
"","survey-html-form","5","170587","0.0-5.0","f01atolwpw","one_one","1","direct_first","1","ch06er25","0","20","1","1","3","1","","0","1","0","13532.494999933988","","{}","","","","","","","","","","","",""
"","html-keyboard-response","6","174613","0.0-6.0-0.0-0.0","f01atolwpw","one_one","1","direct_first","1","ch06er25","0","20","1","1","3","1","","0","1","0","null","","","<div class = 'row'><div class = 'column'><img src = 'uspos/8080.bmp' width = '100%;'></div><div class = 'column'><img src = 'category2/CS6.png' width = '70%;'></div></div>","null","pos","CS","CS","2","category2/CS6.png","","","","",""
"","html-keyboard-response","7","177128","0.0-6.0-0.0-0.1","f01atolwpw","one_one","1","direct_first","1","ch06er25","0","20","1","1","3","1","","0","1","0","null","","","<div class = 'row'><div class = 'column'><img src = 'usneg/9050.bmp' width = '100%;'></div><div class = 'column'><img src = 'category4/CS2.png' width = '70%;'></div></div>","null","neg","CS","CS","4","category4/CS2.png","","","","",""
"","html-keyboard-response","8","179652","0.0-6.0-0.0-0.2","f01atolwpw","one_one","1","direct_first","1","ch06er25","0","20","1","1","3","1","","0","1","0","null","","","<div class = 'row'><div class = 'column'><img src = 'category3/CS8.png' width = '70%;'></div><div class = 'column'><img src = 'usneg/9415.bmp' width = '100%;'></div></div>","null","neg","CS","CS","3","category3/CS8.png","","","","",""
"","html-keyboard-response","9","182173","0.0-6.0-0.0-0.3","f01atolwpw","one_one","1","direct_first","1","ch06er25","0","20","1","1","3","1","","0","1","0","null","","","<div class = 'row'><div class = 'column'><img src = 'category2/CS6.png' width = '70%;'></div><div class = 'column'><img src = 'uspos/8080.bmp' width = '100%;'></div></div>","null","pos","CS","CS","2","category2/CS6.png","","","","",""
"","html-keyboard-response","10","184693","0.0-6.0-0.0-0.4","f01atolwpw","one_one","1","direct_first","1","ch06er25","0","20","1","1","3","1","","0","1","0","null","","","<div class = 'row'><div class = 'column'><img src = 'usneg/9415.bmp' width = '100%;'></div><div class = 'column'><img src = 'category3/CS8.png' width = '70%;'></div></div>","null","neg","CS","CS","3","category3/CS8.png","","","","",""
"","html-keyboard-response","11","187219","0.0-6.0-0.0-0.5","f01atolwpw","one_one","1","direct_first","1","ch06er25","0","20","1","1","3","1","","0","1","0","null","","","<div class = 'row'><div class = 'column'><img src = 'category4/CS2.png' width = '70%;'></div><div class = 'column'><img src = 'usneg/9050.bmp' width = '100%;'></div></div>","null","neg","CS","CS","4","category4/CS2.png","","","","",""
"","html-keyboard-response","12","189744","0.0-6.0-0.0-0.6","f01atolwpw","one_one","1","direct_first","1","ch06er25","0","20","1","1","3","1","","0","1","0","null","","","<div class = 'row'><div class = 'column'><img src = 'category1/CS8.png' width = '70%;'></div><div class = 'column'><img src = 'uspos/8490.bmp' width = '100%;'></div></div>","null","pos","CS","CS","1","category1/CS8.png","","","","",""
"","html-keyboard-response","13","192277","0.0-6.0-0.0-0.7","f01atolwpw","one_one","1","direct_first","1","ch06er25","0","20","1","1","3","1","","0","1","0","null","","","<div class = 'row'><div class = 'column'><img src = 'usneg/9050.bmp' width = '100%;'></div><div class = 'column'><img src = 'category4/CS2.png' width = '70%;'></div></div>","null","neg","CS","CS","4","category4/CS2.png","","","","",""
"","html-keyboard-response","14","194798","0.0-6.0-0.0-0.8","f01atolwpw","one_one","1","direct_first","1","ch06er25","0","20","1","1","3","1","","0","1","0","null","","","<div class = 'row'><div class = 'column'><img src = 'usneg/9415.bmp' width = '100%;'></div><div class = 'column'><img src = 'category3/CS8.png' width = '70%;'></div></div>","null","neg","CS","CS","3","category3/CS8.png","","","","",""
"","html-keyboard-response","15","197317","0.0-6.0-0.0-0.9","f01atolwpw","one_one","1","direct_first","1","ch06er25","0","20","1","1","3","1","","0","1","0","null","","","<div class = 'row'><div class = 'column'><img src = 'uspos/8080.bmp' width = '100%;'></div><div class = 'column'><img src = 'category2/CS6.png' width = '70%;'></div></div>","null","pos","CS","CS","2","category2/CS6.png","","","","",""
"","html-keyboard-response","16","199842","0.0-6.0-0.0-0.10","f01atolwpw","one_one","1","direct_first","1","ch06er25","0","20","1","1","3","1","","0","1","0","null","","","<div class = 'row'><div class = 'column'><img src = 'category1/CS8.png' width = '70%;'></div><div class = 'column'><img src = 'uspos/8490.bmp' width = '100%;'></div></div>","null","pos","CS","CS","1","category1/CS8.png","","","","",""
"","html-keyboard-response","17","202371","0.0-6.0-0.0-0.11","f01atolwpw","one_one","1","direct_first","1","ch06er25","0","20","1","1","3","1","","0","1","0","null","","","<div class = 'row'><div class = 'column'><img src = 'usneg/9050.bmp' width = '100%;'></div><div class = 'column'><img src = 'category4/CS2.png' width = '70%;'></div></div>","null","neg","CS","CS","4","category4/CS2.png","","","","",""
"","html-keyboard-response","18","204889","0.0-6.0-0.0-0.12","f01atolwpw","one_one","1","direct_first","1","ch06er25","0","20","1","1","3","1","","0","1","0","null","","","<div class = 'row'><div class = 'column'><img src = 'usneg/9415.bmp' width = '100%;'></div><div class = 'column'><img src = 'category3/CS8.png' width = '70%;'></div></div>","null","neg","CS","CS","3","category3/CS8.png","","","","",""
"","html-keyboard-response","19","207419","0.0-6.0-0.0-0.13","f01atolwpw","one_one","1","direct_first","1","ch06er25","0","20","1","1","3","1","","0","1","0","null","","","<div class = 'row'><div class = 'column'><img src = 'category1/CS8.png' width = '70%;'></div><div class = 'column'><img src = 'uspos/8490.bmp' width = '100%;'></div></div>","null","pos","CS","CS","1","category1/CS8.png","","","","",""
"","html-keyboard-response","20","209935","0.0-6.0-0.0-0.14","f01atolwpw","one_one","1","direct_first","1","ch06er25","0","20","1","1","3","1","","0","1","0","null","","","<div class = 'row'><div class = 'column'><img src = 'category2/CS6.png' width = '70%;'></div><div class = 'column'><img src = 'uspos/8080.bmp' width = '100%;'></div></div>","null","pos","CS","CS","2","category2/CS6.png","","","","",""
"","html-keyboard-response","21","212456","0.0-6.0-0.0-0.15","f01atolwpw","one_one","1","direct_first","1","ch06er25","0","20","1","1","3","1","","0","1","0","null","","","<div class = 'row'><div class = 'column'><img src = 'uspos/8490.bmp' width = '100%;'></div><div class = 'column'><img src = 'category1/CS8.png' width = '70%;'></div></div>","null","pos","CS","CS","1","category1/CS8.png","","","","",""
"","html-keyboard-response","22","214977","0.0-6.0-0.0-0.16","f01atolwpw","one_one","1","direct_first","1","ch06er25","0","20","1","1","3","1","","0","1","0","null","","","<div class = 'row'><div class = 'column'><img src = 'category3/CS8.png' width = '70%;'></div><div class = 'column'><img src = 'usneg/9415.bmp' width = '100%;'></div></div>","null","neg","CS","CS","3","category3/CS8.png","","","","",""
"","html-keyboard-response","23","217502","0.0-6.0-0.0-0.17","f01atolwpw","one_one","1","direct_first","1","ch06er25","0","20","1","1","3","1","","0","1","0","null","","","<div class = 'row'><div class = 'column'><img src = 'uspos/8080.bmp' width = '100%;'></div><div class = 'column'><img src = 'category2/CS6.png' width = '70%;'></div></div>","null","pos","CS","CS","2","category2/CS6.png","","","","",""
"","html-keyboard-response","24","220022","0.0-6.0-0.0-0.18","f01atolwpw","one_one","1","direct_first","1","ch06er25","0","20","1","1","3","1","","0","1","0","null","","","<div class = 'row'><div class = 'column'><img src = 'category1/CS8.png' width = '70%;'></div><div class = 'column'><img src = 'uspos/8490.bmp' width = '100%;'></div></div>","null","pos","CS","CS","1","category1/CS8.png","","","","",""
"","html-keyboard-response","25","222550","0.0-6.0-0.0-0.19","f01atolwpw","one_one","1","direct_first","1","ch06er25","0","20","1","1","3","1","","0","1","0","null","","","<div class = 'row'><div class = 'column'><img src = 'category4/CS2.png' width = '70%;'></div><div class = 'column'><img src = 'usneg/9050.bmp' width = '100%;'></div></div>","null","neg","CS","CS","4","category4/CS2.png","","","","",""
"","survey-html-form","26","231039","0.0-6.0-1.0","f01atolwpw","one_one","1","direct_first","1","ch06er25","0","20","1","1","3","1","","0","1","0","7973.844999913126","","{}","","","","","","","","","","","",""
"","html-keyboard-response","27","235066","0.0-6.0-2.0-0.0","f01atolwpw","one_one","1","direct_first","1","ch06er25","0","20","1","1","3","1","","0","1","0","null","","","<div class = 'row'><div class = 'column'><img src = 'usneg/9415.bmp' width = '100%;'></div><div class = 'column'><img src = 'category3/CS8.png' width = '70%;'></div></div>","null","neg","CS","CS","3","category3/CS8.png","","","","",""
"","html-keyboard-response","28","237573","0.0-6.0-2.0-0.1","f01atolwpw","one_one","1","direct_first","1","ch06er25","0","20","1","1","3","1","","0","1","0","null","","","<div class = 'row'><div class = 'column'><img src = 'category4/CS2.png' width = '70%;'></div><div class = 'column'><img src = 'usneg/9050.bmp' width = '100%;'></div></div>","null","neg","CS","CS","4","category4/CS2.png","","","","",""
"","html-keyboard-response","29","240099","0.0-6.0-2.0-0.2","f01atolwpw","one_one","1","direct_first","1","ch06er25","0","20","1","1","3","1","","0","1","0","null","","","<div class = 'row'><div class = 'column'><img src = 'category1/CS8.png' width = '70%;'></div><div class = 'column'><img src = 'uspos/8490.bmp' width = '100%;'></div></div>","null","pos","CS","CS","1","category1/CS8.png","","","","",""
"","html-keyboard-response","30","242622","0.0-6.0-2.0-0.3","f01atolwpw","one_one","1","direct_first","1","ch06er25","0","20","1","1","3","1","","0","1","0","null","","","<div class = 'row'><div class = 'column'><img src = 'uspos/8080.bmp' width = '100%;'></div><div class = 'column'><img src = 'category2/CS6.png' width = '70%;'></div></div>","null","pos","CS","CS","2","category2/CS6.png","","","","",""
"","html-keyboard-response","31","245149","0.0-6.0-2.0-0.4","f01atolwpw","one_one","1","direct_first","1","ch06er25","0","20","1","1","3","1","","0","1","0","null","","","<div class = 'row'><div class = 'column'><img src = 'category1/CS8.png' width = '70%;'></div><div class = 'column'><img src = 'uspos/8490.bmp' width = '100%;'></div></div>","null","pos","CS","CS","1","category1/CS8.png","","","","",""
"","html-keyboard-response","32","247683","0.0-6.0-2.0-0.5","f01atolwpw","one_one","1","direct_first","1","ch06er25","0","20","1","1","3","1","","0","1","0","null","","","<div class = 'row'><div class = 'column'><img src = 'category2/CS6.png' width = '70%;'></div><div class = 'column'><img src = 'uspos/8080.bmp' width = '100%;'></div></div>","null","pos","CS","CS","2","category2/CS6.png","","","","",""
"","html-keyboard-response","33","250210","0.0-6.0-2.0-0.6","f01atolwpw","one_one","1","direct_first","1","ch06er25","0","20","1","1","3","1","","0","1","0","null","","","<div class = 'row'><div class = 'column'><img src = 'usneg/9050.bmp' width = '100%;'></div><div class = 'column'><img src = 'category4/CS2.png' width = '70%;'></div></div>","null","neg","CS","CS","4","category4/CS2.png","","","","",""
"","html-keyboard-response","34","252734","0.0-6.0-2.0-0.7","f01atolwpw","one_one","1","direct_first","1","ch06er25","0","20","1","1","3","1","","0","1","0","null","","","<div class = 'row'><div class = 'column'><img src = 'usneg/9415.bmp' width = '100%;'></div><div class = 'column'><img src = 'category3/CS8.png' width = '70%;'></div></div>","null","neg","CS","CS","3","category3/CS8.png","","","","",""
"","html-keyboard-response","35","255260","0.0-6.0-2.0-0.8","f01atolwpw","one_one","1","direct_first","1","ch06er25","0","20","1","1","3","1","","0","1","0","null","","","<div class = 'row'><div class = 'column'><img src = 'category4/CS2.png' width = '70%;'></div><div class = 'column'><img src = 'usneg/9050.bmp' width = '100%;'></div></div>","null","neg","CS","CS","4","category4/CS2.png","","","","",""
"","html-keyboard-response","36","257785","0.0-6.0-2.0-0.9","f01atolwpw","one_one","1","direct_first","1","ch06er25","0","20","1","1","3","1","","0","1","0","null","","","<div class = 'row'><div class = 'column'><img src = 'usneg/9415.bmp' width = '100%;'></div><div class = 'column'><img src = 'category3/CS8.png' width = '70%;'></div></div>","null","neg","CS","CS","3","category3/CS8.png","","","","",""
"","html-keyboard-response","37","260307","0.0-6.0-2.0-0.10","f01atolwpw","one_one","1","direct_first","1","ch06er25","0","20","1","1","3","1","","0","1","0","null","","","<div class = 'row'><div class = 'column'><img src = 'usneg/9050.bmp' width = '100%;'></div><div class = 'column'><img src = 'category4/CS2.png' width = '70%;'></div></div>","null","neg","CS","CS","4","category4/CS2.png","","","","",""
"","html-keyboard-response","38","262839","0.0-6.0-2.0-0.11","f01atolwpw","one_one","1","direct_first","1","ch06er25","0","20","1","1","3","1","","0","1","0","null","","","<div class = 'row'><div class = 'column'><img src = 'usneg/9415.bmp' width = '100%;'></div><div class = 'column'><img src = 'category3/CS8.png' width = '70%;'></div></div>","null","neg","CS","CS","3","category3/CS8.png","","","","",""
"","html-keyboard-response","39","265360","0.0-6.0-2.0-0.12","f01atolwpw","one_one","1","direct_first","1","ch06er25","0","20","1","1","3","1","","0","1","0","null","","","<div class = 'row'><div class = 'column'><img src = 'uspos/8490.bmp' width = '100%;'></div><div class = 'column'><img src = 'category1/CS8.png' width = '70%;'></div></div>","null","pos","CS","CS","1","category1/CS8.png","","","","",""
"","html-keyboard-response","40","267880","0.0-6.0-2.0-0.13","f01atolwpw","one_one","1","direct_first","1","ch06er25","0","20","1","1","3","1","","0","1","0","null","","","<div class = 'row'><div class = 'column'><img src = 'category2/CS6.png' width = '70%;'></div><div class = 'column'><img src = 'uspos/8080.bmp' width = '100%;'></div></div>","null","pos","CS","CS","2","category2/CS6.png","","","","",""
"","html-keyboard-response","41","270393","0.0-6.0-2.0-0.14","f01atolwpw","one_one","1","direct_first","1","ch06er25","0","20","1","1","3","1","","0","1","0","null","","","<div class = 'row'><div class = 'column'><img src = 'category1/CS8.png' width = '70%;'></div><div class = 'column'><img src = 'uspos/8490.bmp' width = '100%;'></div></div>","null","pos","CS","CS","1","category1/CS8.png","","","","",""
"","html-keyboard-response","42","272916","0.0-6.0-2.0-0.15","f01atolwpw","one_one","1","direct_first","1","ch06er25","0","20","1","1","3","1","","0","1","0","null","","","<div class = 'row'><div class = 'column'><img src = 'uspos/8080.bmp' width = '100%;'></div><div class = 'column'><img src = 'category2/CS6.png' width = '70%;'></div></div>","null","pos","CS","CS","2","category2/CS6.png","","","","",""
"","html-keyboard-response","43","275444","0.0-6.0-2.0-0.16","f01atolwpw","one_one","1","direct_first","1","ch06er25","0","20","1","1","3","1","","0","1","0","null","","","<div class = 'row'><div class = 'column'><img src = 'category3/CS8.png' width = '70%;'></div><div class = 'column'><img src = 'usneg/9415.bmp' width = '100%;'></div></div>","null","neg","CS","CS","3","category3/CS8.png","","","","",""
"","html-keyboard-response","44","277954","0.0-6.0-2.0-0.17","f01atolwpw","one_one","1","direct_first","1","ch06er25","0","20","1","1","3","1","","0","1","0","null","","","<div class = 'row'><div class = 'column'><img src = 'uspos/8080.bmp' width = '100%;'></div><div class = 'column'><img src = 'category2/CS6.png' width = '70%;'></div></div>","null","pos","CS","CS","2","category2/CS6.png","","","","",""
"","html-keyboard-response","45","280480","0.0-6.0-2.0-0.18","f01atolwpw","one_one","1","direct_first","1","ch06er25","0","20","1","1","3","1","","0","1","0","null","","","<div class = 'row'><div class = 'column'><img src = 'uspos/8490.bmp' width = '100%;'></div><div class = 'column'><img src = 'category1/CS8.png' width = '70%;'></div></div>","null","pos","CS","CS","1","category1/CS8.png","","","","",""
"","html-keyboard-response","46","283010","0.0-6.0-2.0-0.19","f01atolwpw","one_one","1","direct_first","1","ch06er25","0","20","1","1","3","1","","0","1","0","null","","","<div class = 'row'><div class = 'column'><img src = 'category4/CS2.png' width = '70%;'></div><div class = 'column'><img src = 'usneg/9050.bmp' width = '100%;'></div></div>","null","neg","CS","CS","4","category4/CS2.png","","","","",""
"","survey-html-form","47","286964","0.0-6.0-3.0","f01atolwpw","one_one","1","direct_first","1","ch06er25","0","20","1","1","3","1","","0","1","0","3440.3900001198053","","{}","","","","","","","","","","","",""
"","html-keyboard-response","48","290985","0.0-6.0-4.0-0.0","f01atolwpw","one_one","1","direct_first","1","ch06er25","0","20","1","1","3","1","","0","1","0","null","","","<div class = 'row'><div class = 'column'><img src = 'uspos/8080.bmp' width = '100%;'></div><div class = 'column'><img src = 'category2/CS6.png' width = '70%;'></div></div>","null","pos","CS","CS","2","category2/CS6.png","","","","",""
"","html-keyboard-response","49","293514","0.0-6.0-4.0-0.1","f01atolwpw","one_one","1","direct_first","1","ch06er25","0","20","1","1","3","1","","0","1","0","null","","","<div class = 'row'><div class = 'column'><img src = 'uspos/8490.bmp' width = '100%;'></div><div class = 'column'><img src = 'category1/CS8.png' width = '70%;'></div></div>","null","pos","CS","CS","1","category1/CS8.png","","","","",""
"","html-keyboard-response","50","296039","0.0-6.0-4.0-0.2","f01atolwpw","one_one","1","direct_first","1","ch06er25","0","20","1","1","3","1","","0","1","0","null","","","<div class = 'row'><div class = 'column'><img src = 'category3/CS8.png' width = '70%;'></div><div class = 'column'><img src = 'usneg/9415.bmp' width = '100%;'></div></div>","null","neg","CS","CS","3","category3/CS8.png","","","","",""
"","html-keyboard-response","51","298568","0.0-6.0-4.0-0.3","f01atolwpw","one_one","1","direct_first","1","ch06er25","0","20","1","1","3","1","","0","1","0","null","","","<div class = 'row'><div class = 'column'><img src = 'category1/CS8.png' width = '70%;'></div><div class = 'column'><img src = 'uspos/8490.bmp' width = '100%;'></div></div>","null","pos","CS","CS","1","category1/CS8.png","","","","",""
"","html-keyboard-response","52","301092","0.0-6.0-4.0-0.4","f01atolwpw","one_one","1","direct_first","1","ch06er25","0","20","1","1","3","1","","0","1","0","null","","","<div class = 'row'><div class = 'column'><img src = 'usneg/9050.bmp' width = '100%;'></div><div class = 'column'><img src = 'category4/CS2.png' width = '70%;'></div></div>","null","neg","CS","CS","4","category4/CS2.png","","","","",""
"","html-keyboard-response","53","303606","0.0-6.0-4.0-0.5","f01atolwpw","one_one","1","direct_first","1","ch06er25","0","20","1","1","3","1","","0","1","0","null","","","<div class = 'row'><div class = 'column'><img src = 'category3/CS8.png' width = '70%;'></div><div class = 'column'><img src = 'usneg/9415.bmp' width = '100%;'></div></div>","null","neg","CS","CS","3","category3/CS8.png","","","","",""
"","html-keyboard-response","54","306134","0.0-6.0-4.0-0.6","f01atolwpw","one_one","1","direct_first","1","ch06er25","0","20","1","1","3","1","","0","1","0","null","","","<div class = 'row'><div class = 'column'><img src = 'category4/CS2.png' width = '70%;'></div><div class = 'column'><img src = 'usneg/9050.bmp' width = '100%;'></div></div>","null","neg","CS","CS","4","category4/CS2.png","","","","",""
"","html-keyboard-response","55","308665","0.0-6.0-4.0-0.7","f01atolwpw","one_one","1","direct_first","1","ch06er25","0","20","1","1","3","1","","0","1","0","null","","","<div class = 'row'><div class = 'column'><img src = 'category2/CS6.png' width = '70%;'></div><div class = 'column'><img src = 'uspos/8080.bmp' width = '100%;'></div></div>","null","pos","CS","CS","2","category2/CS6.png","","","","",""
"","html-keyboard-response","56","311189","0.0-6.0-4.0-0.8","f01atolwpw","one_one","1","direct_first","1","ch06er25","0","20","1","1","3","1","","0","1","0","null","","","<div class = 'row'><div class = 'column'><img src = 'uspos/8490.bmp' width = '100%;'></div><div class = 'column'><img src = 'category1/CS8.png' width = '70%;'></div></div>","null","pos","CS","CS","1","category1/CS8.png","","","","",""
"","html-keyboard-response","57","313714","0.0-6.0-4.0-0.9","f01atolwpw","one_one","1","direct_first","1","ch06er25","0","20","1","1","3","1","","0","1","0","null","","","<div class = 'row'><div class = 'column'><img src = 'category2/CS6.png' width = '70%;'></div><div class = 'column'><img src = 'uspos/8080.bmp' width = '100%;'></div></div>","null","pos","CS","CS","2","category2/CS6.png","","","","",""
"","html-keyboard-response","58","316247","0.0-6.0-4.0-0.10","f01atolwpw","one_one","1","direct_first","1","ch06er25","0","20","1","1","3","1","","0","1","0","null","","","<div class = 'row'><div class = 'column'><img src = 'category4/CS2.png' width = '70%;'></div><div class = 'column'><img src = 'usneg/9050.bmp' width = '100%;'></div></div>","null","neg","CS","CS","4","category4/CS2.png","","","","",""
"","html-keyboard-response","59","318774","0.0-6.0-4.0-0.11","f01atolwpw","one_one","1","direct_first","1","ch06er25","0","20","1","1","3","1","","0","1","0","null","","","<div class = 'row'><div class = 'column'><img src = 'uspos/8490.bmp' width = '100%;'></div><div class = 'column'><img src = 'category1/CS8.png' width = '70%;'></div></div>","null","pos","CS","CS","1","category1/CS8.png","","","","",""
"","html-keyboard-response","60","321297","0.0-6.0-4.0-0.12","f01atolwpw","one_one","1","direct_first","1","ch06er25","0","20","1","1","3","1","","0","1","0","null","","","<div class = 'row'><div class = 'column'><img src = 'category2/CS6.png' width = '70%;'></div><div class = 'column'><img src = 'uspos/8080.bmp' width = '100%;'></div></div>","null","pos","CS","CS","2","category2/CS6.png","","","","",""
"","html-keyboard-response","61","323827","0.0-6.0-4.0-0.13","f01atolwpw","one_one","1","direct_first","1","ch06er25","0","20","1","1","3","1","","0","1","0","null","","","<div class = 'row'><div class = 'column'><img src = 'usneg/9050.bmp' width = '100%;'></div><div class = 'column'><img src = 'category4/CS2.png' width = '70%;'></div></div>","null","neg","CS","CS","4","category4/CS2.png","","","","",""
"","html-keyboard-response","62","326350","0.0-6.0-4.0-0.14","f01atolwpw","one_one","1","direct_first","1","ch06er25","0","20","1","1","3","1","","0","1","0","null","","","<div class = 'row'><div class = 'column'><img src = 'category3/CS8.png' width = '70%;'></div><div class = 'column'><img src = 'usneg/9415.bmp' width = '100%;'></div></div>","null","neg","CS","CS","3","category3/CS8.png","","","","",""
"","html-keyboard-response","63","328876","0.0-6.0-4.0-0.15","f01atolwpw","one_one","1","direct_first","1","ch06er25","0","20","1","1","3","1","","0","1","0","null","","","<div class = 'row'><div class = 'column'><img src = 'uspos/8080.bmp' width = '100%;'></div><div class = 'column'><img src = 'category2/CS6.png' width = '70%;'></div></div>","null","pos","CS","CS","2","category2/CS6.png","","","","",""
"","html-keyboard-response","64","331399","0.0-6.0-4.0-0.16","f01atolwpw","one_one","1","direct_first","1","ch06er25","0","20","1","1","3","1","","0","1","0","null","","","<div class = 'row'><div class = 'column'><img src = 'category4/CS2.png' width = '70%;'></div><div class = 'column'><img src = 'usneg/9050.bmp' width = '100%;'></div></div>","null","neg","CS","CS","4","category4/CS2.png","","","","",""
"","html-keyboard-response","65","333928","0.0-6.0-4.0-0.17","f01atolwpw","one_one","1","direct_first","1","ch06er25","0","20","1","1","3","1","","0","1","0","null","","","<div class = 'row'><div class = 'column'><img src = 'category3/CS8.png' width = '70%;'></div><div class = 'column'><img src = 'usneg/9415.bmp' width = '100%;'></div></div>","null","neg","CS","CS","3","category3/CS8.png","","","","",""
"","html-keyboard-response","66","336449","0.0-6.0-4.0-0.18","f01atolwpw","one_one","1","direct_first","1","ch06er25","0","20","1","1","3","1","","0","1","0","null","","","<div class = 'row'><div class = 'column'><img src = 'uspos/8490.bmp' width = '100%;'></div><div class = 'column'><img src = 'category1/CS8.png' width = '70%;'></div></div>","null","pos","CS","CS","1","category1/CS8.png","","","","",""
"","html-keyboard-response","67","338975","0.0-6.0-4.0-0.19","f01atolwpw","one_one","1","direct_first","1","ch06er25","0","20","1","1","3","1","","0","1","0","null","","","<div class = 'row'><div class = 'column'><img src = 'category3/CS8.png' width = '70%;'></div><div class = 'column'><img src = 'usneg/9415.bmp' width = '100%;'></div></div>","null","neg","CS","CS","3","category3/CS8.png","","","","",""
"","survey-html-form","68","342160","0.0-6.0-5.0","f01atolwpw","one_one","1","direct_first","1","ch06er25","0","20","1","1","3","1","","0","1","0","2667.4999999813735","","{}","","","","","","","","","","","",""
"","html-keyboard-response","69","346194","0.0-6.0-6.0-0.0","f01atolwpw","one_one","1","direct_first","1","ch06er25","0","20","1","1","3","1","","0","1","0","null","","","<div class = 'row'><div class = 'column'><img src = 'uspos/8490.bmp' width = '100%;'></div><div class = 'column'><img src = 'category1/CS8.png' width = '70%;'></div></div>","null","pos","CS","CS","1","category1/CS8.png","","","","",""
"","html-keyboard-response","70","348727","0.0-6.0-6.0-0.1","f01atolwpw","one_one","1","direct_first","1","ch06er25","0","20","1","1","3","1","","0","1","0","null","","","<div class = 'row'><div class = 'column'><img src = 'usneg/9415.bmp' width = '100%;'></div><div class = 'column'><img src = 'category3/CS8.png' width = '70%;'></div></div>","null","neg","CS","CS","3","category3/CS8.png","","","","",""
"","html-keyboard-response","71","351255","0.0-6.0-6.0-0.2","f01atolwpw","one_one","1","direct_first","1","ch06er25","0","20","1","1","3","1","","0","1","0","null","","","<div class = 'row'><div class = 'column'><img src = 'uspos/8080.bmp' width = '100%;'></div><div class = 'column'><img src = 'category2/CS6.png' width = '70%;'></div></div>","null","pos","CS","CS","2","category2/CS6.png","","","","",""
"","html-keyboard-response","72","353776","0.0-6.0-6.0-0.3","f01atolwpw","one_one","1","direct_first","1","ch06er25","0","20","1","1","3","1","","0","1","0","null","","","<div class = 'row'><div class = 'column'><img src = 'category1/CS8.png' width = '70%;'></div><div class = 'column'><img src = 'uspos/8490.bmp' width = '100%;'></div></div>","null","pos","CS","CS","1","category1/CS8.png","","","","",""
"","html-keyboard-response","73","356303","0.0-6.0-6.0-0.4","f01atolwpw","one_one","1","direct_first","1","ch06er25","0","20","1","1","3","1","","0","1","0","null","","","<div class = 'row'><div class = 'column'><img src = 'uspos/8080.bmp' width = '100%;'></div><div class = 'column'><img src = 'category2/CS6.png' width = '70%;'></div></div>","null","pos","CS","CS","2","category2/CS6.png","","","","",""
"","html-keyboard-response","74","358822","0.0-6.0-6.0-0.5","f01atolwpw","one_one","1","direct_first","1","ch06er25","0","20","1","1","3","1","","0","1","0","null","","","<div class = 'row'><div class = 'column'><img src = 'category4/CS2.png' width = '70%;'></div><div class = 'column'><img src = 'usneg/9050.bmp' width = '100%;'></div></div>","null","neg","CS","CS","4","category4/CS2.png","","","","",""
"","html-keyboard-response","75","361348","0.0-6.0-6.0-0.6","f01atolwpw","one_one","1","direct_first","1","ch06er25","0","20","1","1","3","1","","0","1","0","null","","","<div class = 'row'><div class = 'column'><img src = 'category1/CS8.png' width = '70%;'></div><div class = 'column'><img src = 'uspos/8490.bmp' width = '100%;'></div></div>","null","pos","CS","CS","1","category1/CS8.png","","","","",""
"","html-keyboard-response","76","363871","0.0-6.0-6.0-0.7","f01atolwpw","one_one","1","direct_first","1","ch06er25","0","20","1","1","3","1","","0","1","0","null","","","<div class = 'row'><div class = 'column'><img src = 'category3/CS8.png' width = '70%;'></div><div class = 'column'><img src = 'usneg/9415.bmp' width = '100%;'></div></div>","null","neg","CS","CS","3","category3/CS8.png","","","","",""
"","html-keyboard-response","77","366386","0.0-6.0-6.0-0.8","f01atolwpw","one_one","1","direct_first","1","ch06er25","0","20","1","1","3","1","","0","1","0","null","","","<div class = 'row'><div class = 'column'><img src = 'category2/CS6.png' width = '70%;'></div><div class = 'column'><img src = 'uspos/8080.bmp' width = '100%;'></div></div>","null","pos","CS","CS","2","category2/CS6.png","","","","",""
"","html-keyboard-response","78","368921","0.0-6.0-6.0-0.9","f01atolwpw","one_one","1","direct_first","1","ch06er25","0","20","1","1","3","1","","0","1","0","null","","","<div class = 'row'><div class = 'column'><img src = 'usneg/9050.bmp' width = '100%;'></div><div class = 'column'><img src = 'category4/CS2.png' width = '70%;'></div></div>","null","neg","CS","CS","4","category4/CS2.png","","","","",""
"","html-keyboard-response","79","371446","0.0-6.0-6.0-0.10","f01atolwpw","one_one","1","direct_first","1","ch06er25","0","20","1","1","3","1","","0","1","0","null","","","<div class = 'row'><div class = 'column'><img src = 'usneg/9415.bmp' width = '100%;'></div><div class = 'column'><img src = 'category3/CS8.png' width = '70%;'></div></div>","null","neg","CS","CS","3","category3/CS8.png","","","","",""
"","html-keyboard-response","80","373975","0.0-6.0-6.0-0.11","f01atolwpw","one_one","1","direct_first","1","ch06er25","0","20","1","1","3","1","","0","1","0","null","","","<div class = 'row'><div class = 'column'><img src = 'category2/CS6.png' width = '70%;'></div><div class = 'column'><img src = 'uspos/8080.bmp' width = '100%;'></div></div>","null","pos","CS","CS","2","category2/CS6.png","","","","",""
"","html-keyboard-response","81","376501","0.0-6.0-6.0-0.12","f01atolwpw","one_one","1","direct_first","1","ch06er25","0","20","1","1","3","1","","0","1","0","null","","","<div class = 'row'><div class = 'column'><img src = 'usneg/9050.bmp' width = '100%;'></div><div class = 'column'><img src = 'category4/CS2.png' width = '70%;'></div></div>","null","neg","CS","CS","4","category4/CS2.png","","","","",""
"","html-keyboard-response","82","379016","0.0-6.0-6.0-0.13","f01atolwpw","one_one","1","direct_first","1","ch06er25","0","20","1","1","3","1","","0","1","0","null","","","<div class = 'row'><div class = 'column'><img src = 'usneg/9415.bmp' width = '100%;'></div><div class = 'column'><img src = 'category3/CS8.png' width = '70%;'></div></div>","null","neg","CS","CS","3","category3/CS8.png","","","","",""
"","html-keyboard-response","83","381532","0.0-6.0-6.0-0.14","f01atolwpw","one_one","1","direct_first","1","ch06er25","0","20","1","1","3","1","","0","1","0","null","","","<div class = 'row'><div class = 'column'><img src = 'category2/CS6.png' width = '70%;'></div><div class = 'column'><img src = 'uspos/8080.bmp' width = '100%;'></div></div>","null","pos","CS","CS","2","category2/CS6.png","","","","",""
"","html-keyboard-response","84","384056","0.0-6.0-6.0-0.15","f01atolwpw","one_one","1","direct_first","1","ch06er25","0","20","1","1","3","1","","0","1","0","null","","","<div class = 'row'><div class = 'column'><img src = 'usneg/9050.bmp' width = '100%;'></div><div class = 'column'><img src = 'category4/CS2.png' width = '70%;'></div></div>","null","neg","CS","CS","4","category4/CS2.png","","","","",""
"","html-keyboard-response","85","386582","0.0-6.0-6.0-0.16","f01atolwpw","one_one","1","direct_first","1","ch06er25","0","20","1","1","3","1","","0","1","0","null","","","<div class = 'row'><div class = 'column'><img src = 'category1/CS8.png' width = '70%;'></div><div class = 'column'><img src = 'uspos/8490.bmp' width = '100%;'></div></div>","null","pos","CS","CS","1","category1/CS8.png","","","","",""
"","html-keyboard-response","86","389096","0.0-6.0-6.0-0.17","f01atolwpw","one_one","1","direct_first","1","ch06er25","0","20","1","1","3","1","","0","1","0","null","","","<div class = 'row'><div class = 'column'><img src = 'usneg/9415.bmp' width = '100%;'></div><div class = 'column'><img src = 'category3/CS8.png' width = '70%;'></div></div>","null","neg","CS","CS","3","category3/CS8.png","","","","",""
"","html-keyboard-response","87","391619","0.0-6.0-6.0-0.18","f01atolwpw","one_one","1","direct_first","1","ch06er25","0","20","1","1","3","1","","0","1","0","null","","","<div class = 'row'><div class = 'column'><img src = 'category4/CS2.png' width = '70%;'></div><div class = 'column'><img src = 'usneg/9050.bmp' width = '100%;'></div></div>","null","neg","CS","CS","4","category4/CS2.png","","","","",""
"","html-keyboard-response","88","394146","0.0-6.0-6.0-0.19","f01atolwpw","one_one","1","direct_first","1","ch06er25","0","20","1","1","3","1","","0","1","0","null","","","<div class = 'row'><div class = 'column'><img src = 'uspos/8490.bmp' width = '100%;'></div><div class = 'column'><img src = 'category1/CS8.png' width = '70%;'></div></div>","null","pos","CS","CS","1","category1/CS8.png","","","","",""
"","survey-html-form","89","404951","0.0-7.0","f01atolwpw","one_one","1","direct_first","1","ch06er25","0","20","1","1","3","1","","0","1","0","10290.80000007525","","{}","","","","","","","","","","","",""
"","image-slider-response","90","419538","0.0-8.0-0.0","f01atolwpw","one_one","1","direct_first","1","ch06er25","0","20","1","1","3","1","","0","1","0","12575.274999719113","","","","","pos","GS","GSnew","2","category2/GS3.png","-38","targets/36.png","direct","",""
"","image-slider-response","91","426404","0.0-8.0-0.1","f01atolwpw","one_one","1","direct_first","1","ch06er25","0","20","1","1","3","1","","0","1","0","6861.874999944121","","","","","pos","GS","GSnew","2","category2/GS1.png","44","targets/29.png","direct","",""
"","image-slider-response","92","430113","0.0-8.0-0.2","f01atolwpw","one_one","1","direct_first","1","ch06er25","0","20","1","1","3","1","","0","1","0","3701.539999805391","","","","","pos","GS","GSnew","1","category1/GS1.png","-76","targets/44.png","direct","",""
"","image-slider-response","93","438469","0.0-8.0-0.3","f01atolwpw","one_one","1","direct_first","1","ch06er25","0","20","1","1","3","1","","0","1","0","8351.404999848455","","","","","pos","CS","CS","1","category1/CS8.png","-58","targets/32.png","direct","",""
"","image-slider-response","94","442235","0.0-8.0-0.4","f01atolwpw","one_one","1","direct_first","1","ch06er25","0","20","1","1","3","1","","0","1","0","3761.459999717772","","","","","pos","GS","GSold","1","category1/CS4.png","27","targets/1.png","direct","",""
"","image-slider-response","95","446427","0.0-8.0-0.5","f01atolwpw","one_one","1","direct_first","1","ch06er25","0","20","1","1","3","1","","0","1","0","4187.60500010103","","","","","neg","CS","CS","3","category3/CS8.png","-98","targets/46.png","direct","",""
"","image-slider-response","96","453181","0.0-8.0-0.6","f01atolwpw","one_one","1","direct_first","1","ch06er25","0","20","1","1","3","1","","0","1","0","6750.684999860823","","","","","neg","GS","GSold","3","category3/CS1.png","67","targets/12.png","direct","",""
"","image-slider-response","97","459622","0.0-8.0-0.7","f01atolwpw","one_one","1","direct_first","1","ch06er25","0","20","1","1","3","1","","0","1","0","6435.545000247657","","","","","neg","GS","GSnew","3","category3/GS2.png","-83","targets/5.png","direct","",""
"","image-slider-response","98","463366","0.0-8.0-0.8","f01atolwpw","one_one","1","direct_first","1","ch06er25","0","20","1","1","3","1","","0","1","0","3740.0449998676777","","","","","neg","GS","GSnew","4","category4/GS1.png","56","targets/40.png","direct","",""
"","image-slider-response","99","471186","0.0-8.0-0.9","f01atolwpw","one_one","1","direct_first","1","ch06er25","0","20","1","1","3","1","","0","1","0","7814.574999734759","","","","","neg","GS","GSold","3","category3/CS5.png","-57","targets/37.png","direct","",""
"","image-slider-response","100","475174","0.0-8.0-0.10","f01atolwpw","one_one","1","direct_first","1","ch06er25","0","20","1","1","3","1","","0","1","0","3984.4300001859665","","","","","pos","GS","GSnew","1","category1/GS3.png","36","targets/7.png","direct","",""
"","image-slider-response","101","480592","0.0-8.0-0.11","f01atolwpw","one_one","1","direct_first","1","ch06er25","0","20","1","1","3","1","","0","1","0","5413.124999962747","","","","","pos","GS","GSold","2","category2/CS9.png","66","targets/42.png","direct","",""
"","image-slider-response","102","484218","0.0-8.0-0.12","f01atolwpw","one_one","1","direct_first","1","ch06er25","0","20","1","1","3","1","","0","1","0","3621.6000001877546","","","","","pos","GS","GSold","1","category1/CS10.png","-41","targets/34.png","direct","",""
"","image-slider-response","103","488474","0.0-8.0-0.13","f01atolwpw","one_one","1","direct_first","1","ch06er25","0","20","1","1","3","1","","0","1","0","4250.879999715835","","","","","neg","CS","CS","4","category4/CS2.png","82","targets/25.png","direct","",""
"","image-slider-response","104","491650","0.0-8.0-0.14","f01atolwpw","one_one","1","direct_first","1","ch06er25","0","20","1","1","3","1","","0","1","0","3173.6750002019107","","","","","pos","GS","GSnew","2","category2/GS2.png","-52","targets/26.png","direct","",""
"","image-slider-response","105","497348","0.0-8.0-0.15","f01atolwpw","one_one","1","direct_first","1","ch06er25","0","20","1","1","3","1","","0","1","0","5693.914999719709","","","","","pos","GS","abstract","2","category2/men.png","-8","targets/27.png","direct","",""
"","image-slider-response","106","501216","0.0-8.0-0.16","f01atolwpw","one_one","1","direct_first","1","ch06er25","0","20","1","1","3","1","","0","1","0","3863.9200003817677","","","","","neg","GS","GSold","4","category4/CS1.png","84","targets/47.png","direct","",""
"","image-slider-response","107","506016","0.0-8.0-0.17","f01atolwpw","one_one","1","direct_first","1","ch06er25","0","20","1","1","3","1","","0","1","0","4797.879999969155","","","","","pos","GS","abstract","1","category1/ma.png","49","targets/8.png","direct","",""
"","image-slider-response","108","510042","0.0-8.0-0.18","f01atolwpw","one_one","1","direct_first","1","ch06er25","0","20","1","1","3","1","","0","1","0","4022.7049998939037","","","","","pos","GS","GSold","1","category1/CS3.png","-31","targets/43.png","direct","",""
"","image-slider-response","109","514206","0.0-8.0-0.19","f01atolwpw","one_one","1","direct_first","1","ch06er25","0","20","1","1","3","1","","0","1","0","4160.509999841452","","","","","neg","GS","GSnew","3","category3/GS3.png","-68","targets/41.png","direct","",""
"","image-slider-response","110","523086","0.0-8.0-0.20","f01atolwpw","one_one","1","direct_first","1","ch06er25","0","20","1","1","3","1","","0","1","0","8875.370000023395","","","","","neg","GS","GSnew","4","category4/GS3.png","-24","targets/20.png","direct","",""
"","image-slider-response","111","526653","0.0-8.0-0.21","f01atolwpw","one_one","1","direct_first","1","ch06er25","0","20","1","1","3","1","","0","1","0","3562.679999973625","","","","","neg","GS","abstract","4","category4/lin.png","64","targets/21.png","direct","",""
"","image-slider-response","112","529864","0.0-8.0-0.22","f01atolwpw","one_one","1","direct_first","1","ch06er25","0","20","1","1","3","1","","0","1","0","3208.000000100583","","","","","neg","GS","GSold","3","category3/CS2.png","-74","targets/19.png","direct","",""
"","image-slider-response","113","533162","0.0-8.0-0.23","f01atolwpw","one_one","1","direct_first","1","ch06er25","0","20","1","1","3","1","","0","1","0","3292.8900001570582","","","","","pos","CS","CS","2","category2/CS6.png","-25","targets/2.png","direct","",""
"","image-slider-response","114","536857","0.0-8.0-0.24","f01atolwpw","one_one","1","direct_first","1","ch06er25","0","20","1","1","3","1","","0","1","0","3691.20500003919","","","","","neg","GS","GSnew","4","category4/GS2.png","-82","targets/10.png","direct","",""
"","image-slider-response","115","542210","0.0-8.0-0.25","f01atolwpw","one_one","1","direct_first","1","ch06er25","0","20","1","1","3","1","","0","1","0","5350.099999923259","","","","","pos","GS","GSold","2","category2/CS1.png","60","targets/14.png","direct","",""
"","image-slider-response","116","547474","0.0-8.0-0.26","f01atolwpw","one_one","1","direct_first","1","ch06er25","0","20","1","1","3","1","","0","1","0","5259.999999776483","","","","","neg","GS","GSnew","3","category3/GS1.png","-80","targets/22.png","direct","",""
"","image-slider-response","117","553509","0.0-8.0-0.27","f01atolwpw","one_one","1","direct_first","1","ch06er25","0","20","1","1","3","1","","0","1","0","6030.050000175834","","","","","pos","GS","GSold","2","category2/CS2.png","80","targets/6.png","direct","",""
"","image-slider-response","118","558714","0.0-8.0-0.28","f01atolwpw","one_one","1","direct_first","1","ch06er25","0","20","1","1","3","1","","0","1","0","5202.864999882877","","","","","neg","GS","abstract","3","category3/wang.png","-31","targets/48.png","direct","",""
"","image-slider-response","119","565009","0.0-8.0-0.29","f01atolwpw","one_one","1","direct_first","1","ch06er25","0","20","1","1","3","1","","0","1","0","6289.90999981761","","","","","neg","GS","GSold","4","category4/CS4.png","96","targets/17.png","direct","",""
"","image-slider-response","120","569930","0.0-8.0-0.30","f01atolwpw","one_one","1","direct_first","1","ch06er25","0","20","1","1","3","1","","0","1","0","4917.164999991655","","","","","pos","GS","GSnew","1","category1/GS2.png","-21","targets/13.png","direct","",""
"","image-slider-response","121","576514","0.0-8.0-0.31","f01atolwpw","one_one","1","direct_first","1","ch06er25","0","20","1","1","3","1","","0","1","0","6580.275000073016","","","","","neg","GS","GSold","4","category4/CS10.png","73","targets/24.png","direct","",""
"","html-keyboard-response","122","610757","0.0-9.0","f01atolwpw","one_one","1","direct_first","1","ch06er25","0","20","1","1","3","1","","0","1","0","34237.65500029549","","","<p>Sie sehen nun die chinesischen Zeichen nur ganz kurz. Danach sehen Sie die jeweilige Aussprache der Zeichen als Silbe auf dem Bildschrim. Ihre Aufgabe ist es, für jede Silbe anzugeben, ob diese etwas angenehmes, oder unangenehmes bedeuten könnte. Verlassen Sie sich hier vor allem auf Ihre Intuition.<br><br>Die Zeichen werden nur zur Orientierung dargestellt, beachten Sie sie deshalb nicht. Konzentrieren Sie sich vor allem auf die Silben. <br>Reagieren Sie mit folgenden zwei Tasten: <br><br><b>'D' </b> wenn die Silbe etwas <b>unangenehmes</b> bedeuten könnte. <br><b>'K'</b> wenn die Silbe etwas <b>angenehmes</b> bedeuten könnte. <br><br>Bitte legen Sie nun den Zeigefinger der linken Hand auf die Taste 'D' und den Zeigefinger der rechten Hand auf die Taste 'K'. <br>Reagieren Sie auf jede Silbe so schnell wie möglich. Uns interessiert Ihre spontane Reaktion. <br> <br> <br>Drücken Sie 'D' oder 'K', um die nächste Aufgabe zu starten. </p>","75","","","","","","","","","",""
"","html-keyboard-response","123","613787","0.0-10.0-0.0","f01atolwpw","one_one","1","direct_first","1","ch06er25","0","20","1","1","3","1","","0","1","0","null","","","<div style=""font-size:60px;"">+</div>","null","","","","","","","","","",""
"","html-keyboard-response","124","613880","0.0-10.0-1.0","f01atolwpw","one_one","1","direct_first","1","ch06er25","0","20","1","1","3","1","","0","1","0","null","","","<img src = 'category2/CS2.png' width = '100%;'>","null","","","","","","","","","",""
"","html-keyboard-response","125","614149","0.0-10.0-2.0","f01atolwpw","one_one","1","direct_first","1","ch06er25","0","20","1","1","3","1","","0","1","0","null","","","<img src = 'targets/6.png' width = '100%;'>","null","","","","","","","","","",""
"","html-keyboard-response","126","617245","0.0-10.0-3.0","f01atolwpw","one_one","1","direct_first","1","ch06er25","0","20","1","1","3","1","","0","1","0","3091.874999925494","","","<img src = 'targets/mask.png' width = '100%;'>","68","pos","GS","GSold","2","category2/CS2.png","","targets/6.png","indirect","0","0"
"","html-keyboard-response","127","618766","0.0-10.0-0.1","f01atolwpw","one_one","1","direct_first","1","ch06er25","0","20","1","1","3","1","","0","1","0","null","","","<div style=""font-size:60px;"">+</div>","null","","","","","","","","","",""
"","html-keyboard-response","128","618860","0.0-10.0-1.1","f01atolwpw","one_one","1","direct_first","1","ch06er25","0","20","1","1","3","1","","0","1","0","null","","","<img src = 'category2/CS6.png' width = '100%;'>","null","","","","","","","","","",""
"","html-keyboard-response","129","619127","0.0-10.0-2.1","f01atolwpw","one_one","1","direct_first","1","ch06er25","0","20","1","1","3","1","","0","1","0","null","","","<img src = 'targets/2.png' width = '100%;'>","null","","","","","","","","","",""
"","html-keyboard-response","130","619884","0.0-10.0-3.1","f01atolwpw","one_one","1","direct_first","1","ch06er25","0","20","1","1","3","1","","0","1","0","754.9199997447431","","","<img src = 'targets/mask.png' width = '100%;'>","75","pos","CS","CS","2","category2/CS6.png","","targets/2.png","indirect","1","1"
"","html-keyboard-response","131","621408","0.0-10.0-0.2","f01atolwpw","one_one","1","direct_first","1","ch06er25","0","20","1","1","3","1","","0","1","0","null","","","<div style=""font-size:60px;"">+</div>","null","","","","","","","","","",""
"","html-keyboard-response","132","621503","0.0-10.0-1.2","f01atolwpw","one_one","1","direct_first","1","ch06er25","0","20","1","1","3","1","","0","1","0","null","","","<img src = 'category3/CS8.png' width = '100%;'>","null","","","","","","","","","",""
"","html-keyboard-response","133","621783","0.0-10.0-2.2","f01atolwpw","one_one","1","direct_first","1","ch06er25","0","20","1","1","3","1","","0","1","0","null","","","<img src = 'targets/46.png' width = '100%;'>","null","","","","","","","","","",""
"","html-keyboard-response","134","622343","0.0-10.0-3.2","f01atolwpw","one_one","1","direct_first","1","ch06er25","0","20","1","1","3","1","","0","1","0","557.3949995450675","","","<img src = 'targets/mask.png' width = '100%;'>","68","neg","CS","CS","3","category3/CS8.png","","targets/46.png","indirect","0","2"
"","html-keyboard-response","135","623870","0.0-10.0-0.3","f01atolwpw","one_one","1","direct_first","1","ch06er25","0","20","1","1","3","1","","0","1","0","null","","","<div style=""font-size:60px;"">+</div>","null","","","","","","","","","",""
"","html-keyboard-response","136","623963","0.0-10.0-1.3","f01atolwpw","one_one","1","direct_first","1","ch06er25","0","20","1","1","3","1","","0","1","0","null","","","<img src = 'category1/CS3.png' width = '100%;'>","null","","","","","","","","","",""
"","html-keyboard-response","137","624231","0.0-10.0-2.3","f01atolwpw","one_one","1","direct_first","1","ch06er25","0","20","1","1","3","1","","0","1","0","null","","","<img src = 'targets/43.png' width = '100%;'>","null","","","","","","","","","",""
"","html-keyboard-response","138","625015","0.0-10.0-3.3","f01atolwpw","one_one","1","direct_first","1","ch06er25","0","20","1","1","3","1","","0","1","0","780.2349999547005","","","<img src = 'targets/mask.png' width = '100%;'>","75","pos","GS","GSold","1","category1/CS3.png","","targets/43.png","indirect","1","3"
"","html-keyboard-response","139","626539","0.0-10.0-0.4","f01atolwpw","one_one","1","direct_first","1","ch06er25","0","20","1","1","3","1","","0","1","0","null","","","<div style=""font-size:60px;"">+</div>","null","","","","","","","","","",""
"","html-keyboard-response","140","626632","0.0-10.0-1.4","f01atolwpw","one_one","1","direct_first","1","ch06er25","0","20","1","1","3","1","","0","1","0","null","","","<img src = 'category3/CS2.png' width = '100%;'>","null","","","","","","","","","",""
"","html-keyboard-response","141","626913","0.0-10.0-2.4","f01atolwpw","one_one","1","direct_first","1","ch06er25","0","20","1","1","3","1","","0","1","0","null","","","<img src = 'targets/19.png' width = '100%;'>","null","","","","","","","","","",""
"","html-keyboard-response","142","627814","0.0-10.0-3.4","f01atolwpw","one_one","1","direct_first","1","ch06er25","0","20","1","1","3","1","","0","1","0","899.0850001573563","","","<img src = 'targets/mask.png' width = '100%;'>","68","neg","GS","GSold","3","category3/CS2.png","","targets/19.png","indirect","0","4"
"","html-keyboard-response","143","629336","0.0-10.0-0.5","f01atolwpw","one_one","1","direct_first","1","ch06er25","0","20","1","1","3","1","","0","1","0","null","","","<div style=""font-size:60px;"">+</div>","null","","","","","","","","","",""
"","html-keyboard-response","144","629429","0.0-10.0-1.5","f01atolwpw","one_one","1","direct_first","1","ch06er25","0","20","1","1","3","1","","0","1","0","null","","","<img src = 'category4/CS10.png' width = '100%;'>","null","","","","","","","","","",""
"","html-keyboard-response","145","629693","0.0-10.0-2.5","f01atolwpw","one_one","1","direct_first","1","ch06er25","0","20","1","1","3","1","","0","1","0","null","","","<img src = 'targets/24.png' width = '100%;'>","null","","","","","","","","","",""
"","html-keyboard-response","146","630625","0.0-10.0-3.5","f01atolwpw","one_one","1","direct_first","1","ch06er25","0","20","1","1","3","1","","0","1","0","929.024999961257","","","<img src = 'targets/mask.png' width = '100%;'>","75","neg","GS","GSold","4","category4/CS10.png","","targets/24.png","indirect","1","5"
"","html-keyboard-response","147","632143","0.0-10.0-0.6","f01atolwpw","one_one","1","direct_first","1","ch06er25","0","20","1","1","3","1","","0","1","0","null","","","<div style=""font-size:60px;"">+</div>","null","","","","","","","","","",""
"","html-keyboard-response","148","632236","0.0-10.0-1.6","f01atolwpw","one_one","1","direct_first","1","ch06er25","0","20","1","1","3","1","","0","1","0","null","","","<img src = 'category1/CS4.png' width = '100%;'>","null","","","","","","","","","",""
"","html-keyboard-response","149","632489","0.0-10.0-2.6","f01atolwpw","one_one","1","direct_first","1","ch06er25","0","20","1","1","3","1","","0","1","0","null","","","<img src = 'targets/1.png' width = '100%;'>","null","","","","","","","","","",""
"","html-keyboard-response","150","634210","0.0-10.0-3.6","f01atolwpw","one_one","1","direct_first","1","ch06er25","0","20","1","1","3","1","","0","1","0","1716.8749999254942","","","<img src = 'targets/mask.png' width = '100%;'>","68","pos","GS","GSold","1","category1/CS4.png","","targets/1.png","indirect","0","6"
"","html-keyboard-response","151","635727","0.0-10.0-0.7","f01atolwpw","one_one","1","direct_first","1","ch06er25","0","20","1","1","3","1","","0","1","0","null","","","<div style=""font-size:60px;"">+</div>","null","","","","","","","","","",""
"","html-keyboard-response","152","635823","0.0-10.0-1.7","f01atolwpw","one_one","1","direct_first","1","ch06er25","0","20","1","1","3","1","","0","1","0","null","","","<img src = 'category4/CS2.png' width = '100%;'>","null","","","","","","","","","",""
"","html-keyboard-response","153","636084","0.0-10.0-2.7","f01atolwpw","one_one","1","direct_first","1","ch06er25","0","20","1","1","3","1","","0","1","0","null","","","<img src = 'targets/25.png' width = '100%;'>","null","","","","","","","","","",""
"","html-keyboard-response","154","636706","0.0-10.0-3.7","f01atolwpw","one_one","1","direct_first","1","ch06er25","0","20","1","1","3","1","","0","1","0","618.7100000679493","","","<img src = 'targets/mask.png' width = '100%;'>","75","neg","CS","CS","4","category4/CS2.png","","targets/25.png","indirect","1","7"
"","html-keyboard-response","155","638224","0.0-10.0-0.8","f01atolwpw","one_one","1","direct_first","1","ch06er25","0","20","1","1","3","1","","0","1","0","null","","","<div style=""font-size:60px;"">+</div>","null","","","","","","","","","",""
"","html-keyboard-response","156","638317","0.0-10.0-1.8","f01atolwpw","one_one","1","direct_first","1","ch06er25","0","20","1","1","3","1","","0","1","0","null","","","<img src = 'category1/CS10.png' width = '100%;'>","null","","","","","","","","","",""
"","html-keyboard-response","157","638584","0.0-10.0-2.8","f01atolwpw","one_one","1","direct_first","1","ch06er25","0","20","1","1","3","1","","0","1","0","null","","","<img src = 'targets/34.png' width = '100%;'>","null","","","","","","","","","",""
"","html-keyboard-response","158","639231","0.0-10.0-3.8","f01atolwpw","one_one","1","direct_first","1","ch06er25","0","20","1","1","3","1","","0","1","0","644.4699997082353","","","<img src = 'targets/mask.png' width = '100%;'>","75","pos","GS","GSold","1","category1/CS10.png","","targets/34.png","indirect","1","8"
"","html-keyboard-response","159","640737","0.0-10.0-0.9","f01atolwpw","one_one","1","direct_first","1","ch06er25","0","20","1","1","3","1","","0","1","0","null","","","<div style=""font-size:60px;"">+</div>","null","","","","","","","","","",""
"","html-keyboard-response","160","640831","0.0-10.0-1.9","f01atolwpw","one_one","1","direct_first","1","ch06er25","0","20","1","1","3","1","","0","1","0","null","","","<img src = 'category1/CS8.png' width = '100%;'>","null","","","","","","","","","",""
"","html-keyboard-response","161","641109","0.0-10.0-2.9","f01atolwpw","one_one","1","direct_first","1","ch06er25","0","20","1","1","3","1","","0","1","0","null","","","<img src = 'targets/32.png' width = '100%;'>","null","","","","","","","","","",""
"","html-keyboard-response","162","641709","0.0-10.0-3.9","f01atolwpw","one_one","1","direct_first","1","ch06er25","0","20","1","1","3","1","","0","1","0","597.7599998004735","","","<img src = 'targets/mask.png' width = '100%;'>","68","pos","CS","CS","1","category1/CS8.png","","targets/32.png","indirect","0","9"
"","html-keyboard-response","163","643224","0.0-10.0-0.10","f01atolwpw","one_one","1","direct_first","1","ch06er25","0","20","1","1","3","1","","0","1","0","null","","","<div style=""font-size:60px;"">+</div>","null","","","","","","","","","",""
"","html-keyboard-response","164","643317","0.0-10.0-1.10","f01atolwpw","one_one","1","direct_first","1","ch06er25","0","20","1","1","3","1","","0","1","0","null","","","<img src = 'category3/CS1.png' width = '100%;'>","null","","","","","","","","","",""
"","html-keyboard-response","165","643571","0.0-10.0-2.10","f01atolwpw","one_one","1","direct_first","1","ch06er25","0","20","1","1","3","1","","0","1","0","null","","","<img src = 'targets/12.png' width = '100%;'>","null","","","","","","","","","",""
"","html-keyboard-response","166","644383","0.0-10.0-3.10","f01atolwpw","one_one","1","direct_first","1","ch06er25","0","20","1","1","3","1","","0","1","0","809.600000269711","","","<img src = 'targets/mask.png' width = '100%;'>","75","neg","GS","GSold","3","category3/CS1.png","","targets/12.png","indirect","1","10"
"","html-keyboard-response","167","645897","0.0-10.0-0.11","f01atolwpw","one_one","1","direct_first","1","ch06er25","0","20","1","1","3","1","","0","1","0","null","","","<div style=""font-size:60px;"">+</div>","null","","","","","","","","","",""
"","html-keyboard-response","168","645990","0.0-10.0-1.11","f01atolwpw","one_one","1","direct_first","1","ch06er25","0","20","1","1","3","1","","0","1","0","null","","","<img src = 'category2/CS1.png' width = '100%;'>","null","","","","","","","","","",""
"","html-keyboard-response","169","646272","0.0-10.0-2.11","f01atolwpw","one_one","1","direct_first","1","ch06er25","0","20","1","1","3","1","","0","1","0","null","","","<img src = 'targets/14.png' width = '100%;'>","null","","","","","","","","","",""
"","html-keyboard-response","170","647306","0.0-10.0-3.11","f01atolwpw","one_one","1","direct_first","1","ch06er25","0","20","1","1","3","1","","0","1","0","1029.8950001597404","","","<img src = 'targets/mask.png' width = '100%;'>","75","pos","GS","GSold","2","category2/CS1.png","","targets/14.png","indirect","1","11"
"","html-keyboard-response","171","648832","0.0-10.0-0.12","f01atolwpw","one_one","1","direct_first","1","ch06er25","0","20","1","1","3","1","","0","1","0","null","","","<div style=""font-size:60px;"">+</div>","null","","","","","","","","","",""
"","html-keyboard-response","172","648926","0.0-10.0-1.12","f01atolwpw","one_one","1","direct_first","1","ch06er25","0","20","1","1","3","1","","0","1","0","null","","","<img src = 'category4/CS4.png' width = '100%;'>","null","","","","","","","","","",""
"","html-keyboard-response","173","649192","0.0-10.0-2.12","f01atolwpw","one_one","1","direct_first","1","ch06er25","0","20","1","1","3","1","","0","1","0","null","","","<img src = 'targets/17.png' width = '100%;'>","null","","","","","","","","","",""
"","html-keyboard-response","174","649940","0.0-10.0-3.12","f01atolwpw","one_one","1","direct_first","1","ch06er25","0","20","1","1","3","1","","0","1","0","744.2899998277426","","","<img src = 'targets/mask.png' width = '100%;'>","68","neg","GS","GSold","4","category4/CS4.png","","targets/17.png","indirect","0","12"
"","html-keyboard-response","175","651459","0.0-10.0-0.13","f01atolwpw","one_one","1","direct_first","1","ch06er25","0","20","1","1","3","1","","0","1","0","null","","","<div style=""font-size:60px;"">+</div>","null","","","","","","","","","",""
"","html-keyboard-response","176","651553","0.0-10.0-1.13","f01atolwpw","one_one","1","direct_first","1","ch06er25","0","20","1","1","3","1","","0","1","0","null","","","<img src = 'category2/CS9.png' width = '100%;'>","null","","","","","","","","","",""
"","html-keyboard-response","177","651822","0.0-10.0-2.13","f01atolwpw","one_one","1","direct_first","1","ch06er25","0","20","1","1","3","1","","0","1","0","null","","","<img src = 'targets/42.png' width = '100%;'>","null","","","","","","","","","",""
"","html-keyboard-response","178","652513","0.0-10.0-3.13","f01atolwpw","one_one","1","direct_first","1","ch06er25","0","20","1","1","3","1","","0","1","0","688.0950001068413","","","<img src = 'targets/mask.png' width = '100%;'>","68","pos","GS","GSold","2","category2/CS9.png","","targets/42.png","indirect","0","13"
"","html-keyboard-response","179","654037","0.0-10.0-0.14","f01atolwpw","one_one","1","direct_first","1","ch06er25","0","20","1","1","3","1","","0","1","0","null","","","<div style=""font-size:60px;"">+</div>","null","","","","","","","","","",""
"","html-keyboard-response","180","654129","0.0-10.0-1.14","f01atolwpw","one_one","1","direct_first","1","ch06er25","0","20","1","1","3","1","","0","1","0","null","","","<img src = 'category3/CS5.png' width = '100%;'>","null","","","","","","","","","",""
"","html-keyboard-response","181","654398","0.0-10.0-2.14","f01atolwpw","one_one","1","direct_first","1","ch06er25","0","20","1","1","3","1","","0","1","0","null","","","<img src = 'targets/37.png' width = '100%;'>","null","","","","","","","","","",""
"","html-keyboard-response","182","655259","0.0-10.0-3.14","f01atolwpw","one_one","1","direct_first","1","ch06er25","0","20","1","1","3","1","","0","1","0","858.6399997584522","","","<img src = 'targets/mask.png' width = '100%;'>","68","neg","GS","GSold","3","category3/CS5.png","","targets/37.png","indirect","0","14"
"","html-keyboard-response","183","656775","0.0-10.0-0.15","f01atolwpw","one_one","1","direct_first","1","ch06er25","0","20","1","1","3","1","","0","1","0","null","","","<div style=""font-size:60px;"">+</div>","null","","","","","","","","","",""
"","html-keyboard-response","184","656869","0.0-10.0-1.15","f01atolwpw","one_one","1","direct_first","1","ch06er25","0","20","1","1","3","1","","0","1","0","null","","","<img src = 'category4/CS1.png' width = '100%;'>","null","","","","","","","","","",""
"","html-keyboard-response","185","657148","0.0-10.0-2.15","f01atolwpw","one_one","1","direct_first","1","ch06er25","0","20","1","1","3","1","","0","1","0","null","","","<img src = 'targets/47.png' width = '100%;'>","null","","","","","","","","","",""
"","html-keyboard-response","186","657559","0.0-10.0-3.15","f01atolwpw","one_one","1","direct_first","1","ch06er25","0","20","1","1","3","1","","0","1","0","408.1149999983609","","","<img src = 'targets/mask.png' width = '100%;'>","75","neg","GS","GSold","4","category4/CS1.png","","targets/47.png","indirect","1","15"
"","survey-html-form","187","663878","0.0-11.0","f01atolwpw","one_one","1","direct_first","1","ch06er25","0","20","1","1","3","1","","0","1","0","5806.774999946356","","{}","","","","","","","","","","","",""
"","html-keyboard-response","188","666901","0.0-12.0-0.0","f01atolwpw","one_one","1","direct_first","1","ch06er25","0","20","1","1","3","1","","0","1","0","null","","","<div style=""font-size:60px;"">+</div>","null","","","","","","","","","",""
"","html-keyboard-response","189","666995","0.0-12.0-1.0","f01atolwpw","one_one","1","direct_first","1","ch06er25","0","20","1","1","3","1","","0","1","0","null","","","<img src = 'category1/GS1.png' width = '100%;'>","null","","","","","","","","","",""
"","html-keyboard-response","190","667276","0.0-12.0-2.0","f01atolwpw","one_one","1","direct_first","1","ch06er25","0","20","1","1","3","1","","0","1","0","null","","","<img src = 'targets/44.png' width = '100%;'>","null","","","","","","","","","",""
"","html-keyboard-response","191","667945","0.0-12.0-3.0","f01atolwpw","one_one","1","direct_first","1","ch06er25","0","20","1","1","3","1","","0","1","0","665.0450001470745","","","<img src = 'targets/mask.png' width = '100%;'>","68","pos","GS","GSnew","1","category1/GS1.png","","targets/44.png","indirect","0","16"
"","html-keyboard-response","192","669470","0.0-12.0-0.1","f01atolwpw","one_one","1","direct_first","1","ch06er25","0","20","1","1","3","1","","0","1","0","null","","","<div style=""font-size:60px;"">+</div>","null","","","","","","","","","",""
"","html-keyboard-response","193","669564","0.0-12.0-1.1","f01atolwpw","one_one","1","direct_first","1","ch06er25","0","20","1","1","3","1","","0","1","0","null","","","<img src = 'category3/GS2.png' width = '100%;'>","null","","","","","","","","","",""
"","html-keyboard-response","194","669845","0.0-12.0-2.1","f01atolwpw","one_one","1","direct_first","1","ch06er25","0","20","1","1","3","1","","0","1","0","null","","","<img src = 'targets/5.png' width = '100%;'>","null","","","","","","","","","",""
"","html-keyboard-response","195","670276","0.0-12.0-3.1","f01atolwpw","one_one","1","direct_first","1","ch06er25","0","20","1","1","3","1","","0","1","0","429.7250001691282","","","<img src = 'targets/mask.png' width = '100%;'>","68","neg","GS","GSnew","3","category3/GS2.png","","targets/5.png","indirect","0","17"
"","html-keyboard-response","196","671797","0.0-12.0-0.2","f01atolwpw","one_one","1","direct_first","1","ch06er25","0","20","1","1","3","1","","0","1","0","null","","","<div style=""font-size:60px;"">+</div>","null","","","","","","","","","",""
"","html-keyboard-response","197","671890","0.0-12.0-1.2","f01atolwpw","one_one","1","direct_first","1","ch06er25","0","20","1","1","3","1","","0","1","0","null","","","<img src = 'category3/GS1.png' width = '100%;'>","null","","","","","","","","","",""
"","html-keyboard-response","198","672172","0.0-12.0-2.2","f01atolwpw","one_one","1","direct_first","1","ch06er25","0","20","1","1","3","1","","0","1","0","null","","","<img src = 'targets/22.png' width = '100%;'>","null","","","","","","","","","",""
"","html-keyboard-response","199","672798","0.0-12.0-3.2","f01atolwpw","one_one","1","direct_first","1","ch06er25","0","20","1","1","3","1","","0","1","0","624.3650000542402","","","<img src = 'targets/mask.png' width = '100%;'>","68","neg","GS","GSnew","3","category3/GS1.png","","targets/22.png","indirect","0","18"
"","html-keyboard-response","200","674313","0.0-12.0-0.3","f01atolwpw","one_one","1","direct_first","1","ch06er25","0","20","1","1","3","1","","0","1","0","null","","","<div style=""font-size:60px;"">+</div>","null","","","","","","","","","",""
"","html-keyboard-response","201","674406","0.0-12.0-1.3","f01atolwpw","one_one","1","direct_first","1","ch06er25","0","20","1","1","3","1","","0","1","0","null","","","<img src = 'category2/GS3.png' width = '100%;'>","null","","","","","","","","","",""
"","html-keyboard-response","202","674675","0.0-12.0-2.3","f01atolwpw","one_one","1","direct_first","1","ch06er25","0","20","1","1","3","1","","0","1","0","null","","","<img src = 'targets/36.png' width = '100%;'>","null","","","","","","","","","",""
"","html-keyboard-response","203","675004","0.0-12.0-3.3","f01atolwpw","one_one","1","direct_first","1","ch06er25","0","20","1","1","3","1","","0","1","0","327.24000001326203","","","<img src = 'targets/mask.png' width = '100%;'>","75","pos","GS","GSnew","2","category2/GS3.png","","targets/36.png","indirect","1","19"
"","html-keyboard-response","204","676527","0.0-12.0-0.4","f01atolwpw","one_one","1","direct_first","1","ch06er25","0","20","1","1","3","1","","0","1","0","null","","","<div style=""font-size:60px;"">+</div>","null","","","","","","","","","",""
"","html-keyboard-response","205","676621","0.0-12.0-1.4","f01atolwpw","one_one","1","direct_first","1","ch06er25","0","20","1","1","3","1","","0","1","0","null","","","<img src = 'category4/GS3.png' width = '100%;'>","null","","","","","","","","","",""
"","html-keyboard-response","206","676887","0.0-12.0-2.4","f01atolwpw","one_one","1","direct_first","1","ch06er25","0","20","1","1","3","1","","0","1","0","null","","","<img src = 'targets/20.png' width = '100%;'>","null","","","","","","","","","",""
"","html-keyboard-response","207","677318","0.0-12.0-3.4","f01atolwpw","one_one","1","direct_first","1","ch06er25","0","20","1","1","3","1","","0","1","0","427.7099999599159","","","<img src = 'targets/mask.png' width = '100%;'>","75","neg","GS","GSnew","4","category4/GS3.png","","targets/20.png","indirect","1","20"
"","html-keyboard-response","208","678837","0.0-12.0-0.5","f01atolwpw","one_one","1","direct_first","1","ch06er25","0","20","1","1","3","1","","0","1","0","null","","","<div style=""font-size:60px;"">+</div>","null","","","","","","","","","",""
"","html-keyboard-response","209","678930","0.0-12.0-1.5","f01atolwpw","one_one","1","direct_first","1","ch06er25","0","20","1","1","3","1","","0","1","0","null","","","<img src = 'category4/GS1.png' width = '100%;'>","null","","","","","","","","","",""
"","html-keyboard-response","210","679184","0.0-12.0-2.5","f01atolwpw","one_one","1","direct_first","1","ch06er25","0","20","1","1","3","1","","0","1","0","null","","","<img src = 'targets/40.png' width = '100%;'>","null","","","","","","","","","",""
"","html-keyboard-response","211","680126","0.0-12.0-3.5","f01atolwpw","one_one","1","direct_first","1","ch06er25","0","20","1","1","3","1","","0","1","0","939.2200000584126","","","<img src = 'targets/mask.png' width = '100%;'>","75","neg","GS","GSnew","4","category4/GS1.png","","targets/40.png","indirect","1","21"
"","html-keyboard-response","212","681650","0.0-12.0-0.6","f01atolwpw","one_one","1","direct_first","1","ch06er25","0","20","1","1","3","1","","0","1","0","null","","","<div style=""font-size:60px;"">+</div>","null","","","","","","","","","",""
"","html-keyboard-response","213","681742","0.0-12.0-1.6","f01atolwpw","one_one","1","direct_first","1","ch06er25","0","20","1","1","3","1","","0","1","0","null","","","<img src = 'category4/lin.png' width = '100%;'>","null","","","","","","","","","",""
"","html-keyboard-response","214","682022","0.0-12.0-2.6","f01atolwpw","one_one","1","direct_first","1","ch06er25","0","20","1","1","3","1","","0","1","0","null","","","<img src = 'targets/21.png' width = '100%;'>","null","","","","","","","","","",""
"","html-keyboard-response","215","682442","0.0-12.0-3.6","f01atolwpw","one_one","1","direct_first","1","ch06er25","0","20","1","1","3","1","","0","1","0","415.6400002539158","","","<img src = 'targets/mask.png' width = '100%;'>","75","neg","GS","abstract","4","category4/lin.png","","targets/21.png","indirect","1","22"
"","html-keyboard-response","216","683971","0.0-12.0-0.7","f01atolwpw","one_one","1","direct_first","1","ch06er25","0","20","1","1","3","1","","0","1","0","null","","","<div style=""font-size:60px;"">+</div>","null","","","","","","","","","",""
"","html-keyboard-response","217","684064","0.0-12.0-1.7","f01atolwpw","one_one","1","direct_first","1","ch06er25","0","20","1","1","3","1","","0","1","0","null","","","<img src = 'category2/GS1.png' width = '100%;'>","null","","","","","","","","","",""
"","html-keyboard-response","218","684332","0.0-12.0-2.7","f01atolwpw","one_one","1","direct_first","1","ch06er25","0","20","1","1","3","1","","0","1","0","null","","","<img src = 'targets/29.png' width = '100%;'>","null","","","","","","","","","",""
"","html-keyboard-response","219","685237","0.0-12.0-3.7","f01atolwpw","one_one","1","direct_first","1","ch06er25","0","20","1","1","3","1","","0","1","0","901.7099998891354","","","<img src = 'targets/mask.png' width = '100%;'>","75","pos","GS","GSnew","2","category2/GS1.png","","targets/29.png","indirect","1","23"
"","html-keyboard-response","220","686766","0.0-12.0-0.8","f01atolwpw","one_one","1","direct_first","1","ch06er25","0","20","1","1","3","1","","0","1","0","null","","","<div style=""font-size:60px;"">+</div>","null","","","","","","","","","",""
"","html-keyboard-response","221","686859","0.0-12.0-1.8","f01atolwpw","one_one","1","direct_first","1","ch06er25","0","20","1","1","3","1","","0","1","0","null","","","<img src = 'category2/men.png' width = '100%;'>","null","","","","","","","","","",""
"","html-keyboard-response","222","687140","0.0-12.0-2.8","f01atolwpw","one_one","1","direct_first","1","ch06er25","0","20","1","1","3","1","","0","1","0","null","","","<img src = 'targets/27.png' width = '100%;'>","null","","","","","","","","","",""
"","html-keyboard-response","223","687637","0.0-12.0-3.8","f01atolwpw","one_one","1","direct_first","1","ch06er25","0","20","1","1","3","1","","0","1","0","494.81000006198883","","","<img src = 'targets/mask.png' width = '100%;'>","68","pos","GS","abstract","2","category2/men.png","","targets/27.png","indirect","0","24"
"","html-keyboard-response","224","689140","0.0-12.0-0.9","f01atolwpw","one_one","1","direct_first","1","ch06er25","0","20","1","1","3","1","","0","1","0","null","","","<div style=""font-size:60px;"">+</div>","null","","","","","","","","","",""
"","html-keyboard-response","225","689232","0.0-12.0-1.9","f01atolwpw","one_one","1","direct_first","1","ch06er25","0","20","1","1","3","1","","0","1","0","null","","","<img src = 'category3/GS3.png' width = '100%;'>","null","","","","","","","","","",""
"","html-keyboard-response","226","689487","0.0-12.0-2.9","f01atolwpw","one_one","1","direct_first","1","ch06er25","0","20","1","1","3","1","","0","1","0","null","","","<img src = 'targets/41.png' width = '100%;'>","null","","","","","","","","","",""
"","html-keyboard-response","227","690078","0.0-12.0-3.9","f01atolwpw","one_one","1","direct_first","1","ch06er25","0","20","1","1","3","1","","0","1","0","587.8550000488758","","","<img src = 'targets/mask.png' width = '100%;'>","68","neg","GS","GSnew","3","category3/GS3.png","","targets/41.png","indirect","0","25"
"","html-keyboard-response","228","691590","0.0-12.0-0.10","f01atolwpw","one_one","1","direct_first","1","ch06er25","0","20","1","1","3","1","","0","1","0","null","","","<div style=""font-size:60px;"">+</div>","null","","","","","","","","","",""
"","html-keyboard-response","229","691683","0.0-12.0-1.10","f01atolwpw","one_one","1","direct_first","1","ch06er25","0","20","1","1","3","1","","0","1","0","null","","","<img src = 'category4/GS2.png' width = '100%;'>","null","","","","","","","","","",""
"","html-keyboard-response","230","691949","0.0-12.0-2.10","f01atolwpw","one_one","1","direct_first","1","ch06er25","0","20","1","1","3","1","","0","1","0","null","","","<img src = 'targets/10.png' width = '100%;'>","null","","","","","","","","","",""
"","html-keyboard-response","231","692625","0.0-12.0-3.10","f01atolwpw","one_one","1","direct_first","1","ch06er25","0","20","1","1","3","1","","0","1","0","673.1450003571808","","","<img src = 'targets/mask.png' width = '100%;'>","75","neg","GS","GSnew","4","category4/GS2.png","","targets/10.png","indirect","1","26"
"","html-keyboard-response","232","694151","0.0-12.0-0.11","f01atolwpw","one_one","1","direct_first","1","ch06er25","0","20","1","1","3","1","","0","1","0","null","","","<div style=""font-size:60px;"">+</div>","null","","","","","","","","","",""
"","html-keyboard-response","233","694244","0.0-12.0-1.11","f01atolwpw","one_one","1","direct_first","1","ch06er25","0","20","1","1","3","1","","0","1","0","null","","","<img src = 'category1/GS2.png' width = '100%;'>","null","","","","","","","","","",""
"","html-keyboard-response","234","694496","0.0-12.0-2.11","f01atolwpw","one_one","1","direct_first","1","ch06er25","0","20","1","1","3","1","","0","1","0","null","","","<img src = 'targets/13.png' width = '100%;'>","null","","","","","","","","","",""
"","html-keyboard-response","235","695049","0.0-12.0-3.11","f01atolwpw","one_one","1","direct_first","1","ch06er25","0","20","1","1","3","1","","0","1","0","550.1999999396503","","","<img src = 'targets/mask.png' width = '100%;'>","75","pos","GS","GSnew","1","category1/GS2.png","","targets/13.png","indirect","1","27"
"","html-keyboard-response","236","696567","0.0-12.0-0.12","f01atolwpw","one_one","1","direct_first","1","ch06er25","0","20","1","1","3","1","","0","1","0","null","","","<div style=""font-size:60px;"">+</div>","null","","","","","","","","","",""
"","html-keyboard-response","237","696662","0.0-12.0-1.12","f01atolwpw","one_one","1","direct_first","1","ch06er25","0","20","1","1","3","1","","0","1","0","null","","","<img src = 'category1/GS3.png' width = '100%;'>","null","","","","","","","","","",""
"","html-keyboard-response","238","696944","0.0-12.0-2.12","f01atolwpw","one_one","1","direct_first","1","ch06er25","0","20","1","1","3","1","","0","1","0","null","","","<img src = 'targets/7.png' width = '100%;'>","null","","","","","","","","","",""
"","html-keyboard-response","239","697817","0.0-12.0-3.12","f01atolwpw","one_one","1","direct_first","1","ch06er25","0","20","1","1","3","1","","0","1","0","869.3900001235306","","","<img src = 'targets/mask.png' width = '100%;'>","68","pos","GS","GSnew","1","category1/GS3.png","","targets/7.png","indirect","0","28"
"","html-keyboard-response","240","699338","0.0-12.0-0.13","f01atolwpw","one_one","1","direct_first","1","ch06er25","0","20","1","1","3","1","","0","1","0","null","","","<div style=""font-size:60px;"">+</div>","null","","","","","","","","","",""
"","html-keyboard-response","241","699433","0.0-12.0-1.13","f01atolwpw","one_one","1","direct_first","1","ch06er25","0","20","1","1","3","1","","0","1","0","null","","","<img src = 'category1/ma.png' width = '100%;'>","null","","","","","","","","","",""
"","html-keyboard-response","242","699713","0.0-12.0-2.13","f01atolwpw","one_one","1","direct_first","1","ch06er25","0","20","1","1","3","1","","0","1","0","null","","","<img src = 'targets/8.png' width = '100%;'>","null","","","","","","","","","",""
"","html-keyboard-response","243","700316","0.0-12.0-3.13","f01atolwpw","one_one","1","direct_first","1","ch06er25","0","20","1","1","3","1","","0","1","0","600.1800000667572","","","<img src = 'targets/mask.png' width = '100%;'>","75","pos","GS","abstract","1","category1/ma.png","","targets/8.png","indirect","1","29"
"","html-keyboard-response","244","701822","0.0-12.0-0.14","f01atolwpw","one_one","1","direct_first","1","ch06er25","0","20","1","1","3","1","","0","1","0","null","","","<div style=""font-size:60px;"">+</div>","null","","","","","","","","","",""
"","html-keyboard-response","245","701915","0.0-12.0-1.14","f01atolwpw","one_one","1","direct_first","1","ch06er25","0","20","1","1","3","1","","0","1","0","null","","","<img src = 'category2/GS2.png' width = '100%;'>","null","","","","","","","","","",""
"","html-keyboard-response","246","702184","0.0-12.0-2.14","f01atolwpw","one_one","1","direct_first","1","ch06er25","0","20","1","1","3","1","","0","1","0","null","","","<img src = 'targets/26.png' width = '100%;'>","null","","","","","","","","","",""
"","html-keyboard-response","247","702562","0.0-12.0-3.14","f01atolwpw","one_one","1","direct_first","1","ch06er25","0","20","1","1","3","1","","0","1","0","375.4750001244247","","","<img src = 'targets/mask.png' width = '100%;'>","75","pos","GS","GSnew","2","category2/GS2.png","","targets/26.png","indirect","1","30"
"","html-keyboard-response","248","704087","0.0-12.0-0.15","f01atolwpw","one_one","1","direct_first","1","ch06er25","0","20","1","1","3","1","","0","1","0","null","","","<div style=""font-size:60px;"">+</div>","null","","","","","","","","","",""
"","html-keyboard-response","249","704181","0.0-12.0-1.15","f01atolwpw","one_one","1","direct_first","1","ch06er25","0","20","1","1","3","1","","0","1","0","null","","","<img src = 'category3/wang.png' width = '100%;'>","null","","","","","","","","","",""
"","html-keyboard-response","250","704460","0.0-12.0-2.15","f01atolwpw","one_one","1","direct_first","1","ch06er25","0","20","1","1","3","1","","0","1","0","null","","","<img src = 'targets/48.png' width = '100%;'>","null","","","","","","","","","",""
"","html-keyboard-response","251","704845","0.0-12.0-3.15","f01atolwpw","one_one","1","direct_first","1","ch06er25","0","20","1","1","3","1","","0","1","0","381.7400000989437","","","<img src = 'targets/mask.png' width = '100%;'>","68","neg","GS","abstract","3","category3/wang.png","","targets/48.png","indirect","0","31"
"","survey-html-form","252","710564","0.0-13.0","f01atolwpw","one_one","1","direct_first","1","ch06er25","0","20","1","1","3","1","","0","1","0","5202.7300000190735","","{}","","","","","","","","","","","",""
"","image-slider-response","253","719812","0.0-14.0-0.0","f01atolwpw","one_one","1","direct_first","1","ch06er25","0","20","1","1","3","1","","0","1","0","8233.999999705702","","","","","pos","All","all","2","category2/men_all.png","67","","all","",""
"","image-slider-response","254","725498","0.0-14.0-0.1","f01atolwpw","one_one","1","direct_first","1","ch06er25","0","20","1","1","3","1","","0","1","0","5681.259999983013","","","","","pos","All","all","1","category1/ma_all.png","-33","","all","",""
"","image-slider-response","255","729348","0.0-14.0-0.2","f01atolwpw","one_one","1","direct_first","1","ch06er25","0","20","1","1","3","1","","0","1","0","3844.645000062883","","","","","neg","All","all","4","category4/lin_all.png","58","","all","",""
"","image-slider-response","256","737936","0.0-14.0-0.3","f01atolwpw","one_one","1","direct_first","1","ch06er25","0","20","1","1","3","1","","0","1","0","8583.030000329018","","","","","neg","All","all","3","category3/wang_all.png","-94","","all","",""
"","survey-text","257","740836","0.0-15.0","f01atolwpw","one_one","1","direct_first","1","ch06er25","0","20","1","1","3","1","","0","1","0","2882.9850000329316","","{""comment"":""""}","","","","","","","","","","","",""
"","survey-html-form","258","764097","0.0-16.0","f01atolwpw","one_one","1","direct_first","1","ch06er25","0","20","1","1","3","1","","0","1","0","23252.77499994263","","{""hinschauen"":""0"",""ablenkung"":""1"",""gewissenhaft"":""0""}","","","","","","","","","","","",""
