"success","trial_type","trial_index","time_elapsed","internal_node_id","subject","condition","condition_code","measure","measure_code","codeword","gender","age","education","chinese","fach","handedness","comment","hinschauen","ablenkung","gewissenhaft","rt","url","responses","stimulus","key_press","val","type","type_specific","category","cs_selected","response","target","task","indirect","nr_pres"
"true","fullscreen","0","2669","0.0-0.0","2utcay5yvz","many_one","0","direct_first","1","ux04nd03","0","22","1","1","3","1","","0","1","0","","","","","","","","","","","","","","",""
"","external-html","1","5909","0.0-1.0","2utcay5yvz","many_one","0","direct_first","1","ux04nd03","0","22","1","1","3","1","","0","1","0","3232.4899998493493","text/information.html","","","","","","","","","","","","",""
"","external-html","2","27248","0.0-2.0","2utcay5yvz","many_one","0","direct_first","1","ux04nd03","0","22","1","1","3","1","","0","1","0","21329.73500015214","text/consent.html","","","","","","","","","","","","",""
"","survey-html-form","3","101665","0.0-3.0","2utcay5yvz","many_one","0","direct_first","1","ux04nd03","0","22","1","1","3","1","","0","1","0","74414.58999994211","","{""codeword_enter"":""ux04nd03""}","","","","","","","","","","","",""
"","survey-html-form","4","128100","0.0-4.0","2utcay5yvz","many_one","0","direct_first","1","ux04nd03","0","22","1","1","3","1","","0","1","0","26433.56500007212","","{""age"":""22"",""education"":""1"",""subject"":""3"",""gender"":""0"",""handedness"":""1"",""chinese"":""1""}","","","","","","","","","","","",""
"","survey-html-form","5","149243","0.0-5.0","2utcay5yvz","many_one","0","direct_first","1","ux04nd03","0","22","1","1","3","1","","0","1","0","21141.234999988228","","{}","","","","","","","","","","","",""
"","html-keyboard-response","6","153262","0.0-6.0-0.0-0.0","2utcay5yvz","many_one","0","direct_first","1","ux04nd03","0","22","1","1","3","1","","0","1","0","null","","","<div class = 'row'><div class = 'column'><img src = 'usneg/9290.bmp' width = '100%;'></div><div class = 'column'><img src = 'category2/CS10.png' width = '70%;'></div></div>","null","neg","CS","CS","2","category2/CS10.png","","","","",""
"","html-keyboard-response","7","155783","0.0-6.0-0.0-0.1","2utcay5yvz","many_one","0","direct_first","1","ux04nd03","0","22","1","1","3","1","","0","1","0","null","","","<div class = 'row'><div class = 'column'><img src = 'uspos/1460.bmp' width = '100%;'></div><div class = 'column'><img src = 'category3/CS9.png' width = '70%;'></div></div>","null","pos","CS","CS","3","category3/CS9.png","","","","",""
"","html-keyboard-response","8","158301","0.0-6.0-0.0-0.2","2utcay5yvz","many_one","0","direct_first","1","ux04nd03","0","22","1","1","3","1","","0","1","0","null","","","<div class = 'row'><div class = 'column'><img src = 'category1/CS9.png' width = '70%;'></div><div class = 'column'><img src = 'uspos/4599.bmp' width = '100%;'></div></div>","null","pos","CS","CS","1","category1/CS9.png","","","","",""
"","html-keyboard-response","9","160816","0.0-6.0-0.0-0.3","2utcay5yvz","many_one","0","direct_first","1","ux04nd03","0","22","1","1","3","1","","0","1","0","null","","","<div class = 'row'><div class = 'column'><img src = 'category2/CS9.png' width = '70%;'></div><div class = 'column'><img src = 'usneg/9920.bmp' width = '100%;'></div></div>","null","neg","CS","CS","2","category2/CS9.png","","","","",""
"","html-keyboard-response","10","163328","0.0-6.0-0.0-0.4","2utcay5yvz","many_one","0","direct_first","1","ux04nd03","0","22","1","1","3","1","","0","1","0","null","","","<div class = 'row'><div class = 'column'><img src = 'category2/CS1.png' width = '70%;'></div><div class = 'column'><img src = 'usneg/8485.bmp' width = '100%;'></div></div>","null","neg","CS","CS","2","category2/CS1.png","","","","",""
"","html-keyboard-response","11","165858","0.0-6.0-0.0-0.5","2utcay5yvz","many_one","0","direct_first","1","ux04nd03","0","22","1","1","3","1","","0","1","0","null","","","<div class = 'row'><div class = 'column'><img src = 'uspos/4625.bmp' width = '100%;'></div><div class = 'column'><img src = 'category1/CS7.png' width = '70%;'></div></div>","null","pos","CS","CS","1","category1/CS7.png","","","","",""
"","html-keyboard-response","12","168370","0.0-6.0-0.0-0.6","2utcay5yvz","many_one","0","direct_first","1","ux04nd03","0","22","1","1","3","1","","0","1","0","null","","","<div class = 'row'><div class = 'column'><img src = 'category3/CS10.png' width = '70%;'></div><div class = 'column'><img src = 'uspos/5470.bmp' width = '100%;'></div></div>","null","pos","CS","CS","3","category3/CS10.png","","","","",""
"","html-keyboard-response","13","170892","0.0-6.0-0.0-0.7","2utcay5yvz","many_one","0","direct_first","1","ux04nd03","0","22","1","1","3","1","","0","1","0","null","","","<div class = 'row'><div class = 'column'><img src = 'usneg/9181.bmp' width = '100%;'></div><div class = 'column'><img src = 'category4/CS3.png' width = '70%;'></div></div>","null","neg","CS","CS","4","category4/CS3.png","","","","",""
"","html-keyboard-response","14","173411","0.0-6.0-0.0-0.8","2utcay5yvz","many_one","0","direct_first","1","ux04nd03","0","22","1","1","3","1","","0","1","0","null","","","<div class = 'row'><div class = 'column'><img src = 'category2/CS8.png' width = '70%;'></div><div class = 'column'><img src = 'usneg/9342.bmp' width = '100%;'></div></div>","null","neg","CS","CS","2","category2/CS8.png","","","","",""
"","html-keyboard-response","15","175931","0.0-6.0-0.0-0.9","2utcay5yvz","many_one","0","direct_first","1","ux04nd03","0","22","1","1","3","1","","0","1","0","null","","","<div class = 'row'><div class = 'column'><img src = 'usneg/9041.bmp' width = '100%;'></div><div class = 'column'><img src = 'category2/CS2.png' width = '70%;'></div></div>","null","neg","CS","CS","2","category2/CS2.png","","","","",""
"","html-keyboard-response","16","178444","0.0-6.0-0.0-0.10","2utcay5yvz","many_one","0","direct_first","1","ux04nd03","0","22","1","1","3","1","","0","1","0","null","","","<div class = 'row'><div class = 'column'><img src = 'category4/CS1.png' width = '70%;'></div><div class = 'column'><img src = 'usneg/9280.bmp' width = '100%;'></div></div>","null","neg","CS","CS","4","category4/CS1.png","","","","",""
"","html-keyboard-response","17","180957","0.0-6.0-0.0-0.11","2utcay5yvz","many_one","0","direct_first","1","ux04nd03","0","22","1","1","3","1","","0","1","0","null","","","<div class = 'row'><div class = 'column'><img src = 'category1/CS2.png' width = '70%;'></div><div class = 'column'><img src = 'uspos/8461.bmp' width = '100%;'></div></div>","null","pos","CS","CS","1","category1/CS2.png","","","","",""
"","html-keyboard-response","18","183469","0.0-6.0-0.0-0.12","2utcay5yvz","many_one","0","direct_first","1","ux04nd03","0","22","1","1","3","1","","0","1","0","null","","","<div class = 'row'><div class = 'column'><img src = 'category3/CS2.png' width = '70%;'></div><div class = 'column'><img src = 'uspos/2900.2.bmp' width = '100%;'></div></div>","null","pos","CS","CS","3","category3/CS2.png","","","","",""
"","html-keyboard-response","19","185980","0.0-6.0-0.0-0.13","2utcay5yvz","many_one","0","direct_first","1","ux04nd03","0","22","1","1","3","1","","0","1","0","null","","","<div class = 'row'><div class = 'column'><img src = 'category4/CS7.png' width = '70%;'></div><div class = 'column'><img src = 'usneg/9830.bmp' width = '100%;'></div></div>","null","neg","CS","CS","4","category4/CS7.png","","","","",""
"","html-keyboard-response","20","188498","0.0-6.0-0.0-0.14","2utcay5yvz","many_one","0","direct_first","1","ux04nd03","0","22","1","1","3","1","","0","1","0","null","","","<div class = 'row'><div class = 'column'><img src = 'uspos/2341.bmp' width = '100%;'></div><div class = 'column'><img src = 'category1/CS5.png' width = '70%;'></div></div>","null","pos","CS","CS","1","category1/CS5.png","","","","",""
"","html-keyboard-response","21","191022","0.0-6.0-0.0-0.15","2utcay5yvz","many_one","0","direct_first","1","ux04nd03","0","22","1","1","3","1","","0","1","0","null","","","<div class = 'row'><div class = 'column'><img src = 'usneg/3181.bmp' width = '100%;'></div><div class = 'column'><img src = 'category4/CS8.png' width = '70%;'></div></div>","null","neg","CS","CS","4","category4/CS8.png","","","","",""
"","html-keyboard-response","22","193538","0.0-6.0-0.0-0.16","2utcay5yvz","many_one","0","direct_first","1","ux04nd03","0","22","1","1","3","1","","0","1","0","null","","","<div class = 'row'><div class = 'column'><img src = 'uspos/2160.bmp' width = '100%;'></div><div class = 'column'><img src = 'category1/CS3.png' width = '70%;'></div></div>","null","pos","CS","CS","1","category1/CS3.png","","","","",""
"","html-keyboard-response","23","196065","0.0-6.0-0.0-0.17","2utcay5yvz","many_one","0","direct_first","1","ux04nd03","0","22","1","1","3","1","","0","1","0","null","","","<div class = 'row'><div class = 'column'><img src = 'uspos/2040.bmp' width = '100%;'></div><div class = 'column'><img src = 'category3/CS4.png' width = '70%;'></div></div>","null","pos","CS","CS","3","category3/CS4.png","","","","",""
"","html-keyboard-response","24","198585","0.0-6.0-0.0-0.18","2utcay5yvz","many_one","0","direct_first","1","ux04nd03","0","22","1","1","3","1","","0","1","0","null","","","<div class = 'row'><div class = 'column'><img src = 'uspos/1463.bmp' width = '100%;'></div><div class = 'column'><img src = 'category3/CS3.png' width = '70%;'></div></div>","null","pos","CS","CS","3","category3/CS3.png","","","","",""
"","html-keyboard-response","25","201093","0.0-6.0-0.0-0.19","2utcay5yvz","many_one","0","direct_first","1","ux04nd03","0","22","1","1","3","1","","0","1","0","null","","","<div class = 'row'><div class = 'column'><img src = 'category4/CS10.png' width = '70%;'></div><div class = 'column'><img src = 'usneg/2141.bmp' width = '100%;'></div></div>","null","neg","CS","CS","4","category4/CS10.png","","","","",""
"","survey-html-form","26","208255","0.0-6.0-1.0","2utcay5yvz","many_one","0","direct_first","1","ux04nd03","0","22","1","1","3","1","","0","1","0","6653.124999953434","","{}","","","","","","","","","","","",""
"","html-keyboard-response","27","212274","0.0-6.0-2.0-0.0","2utcay5yvz","many_one","0","direct_first","1","ux04nd03","0","22","1","1","3","1","","0","1","0","null","","","<div class = 'row'><div class = 'column'><img src = 'uspos/4599.bmp' width = '100%;'></div><div class = 'column'><img src = 'category1/CS9.png' width = '70%;'></div></div>","null","pos","CS","CS","1","category1/CS9.png","","","","",""
"","html-keyboard-response","28","214785","0.0-6.0-2.0-0.1","2utcay5yvz","many_one","0","direct_first","1","ux04nd03","0","22","1","1","3","1","","0","1","0","null","","","<div class = 'row'><div class = 'column'><img src = 'category4/CS1.png' width = '70%;'></div><div class = 'column'><img src = 'usneg/9280.bmp' width = '100%;'></div></div>","null","neg","CS","CS","4","category4/CS1.png","","","","",""
"","html-keyboard-response","29","217301","0.0-6.0-2.0-0.2","2utcay5yvz","many_one","0","direct_first","1","ux04nd03","0","22","1","1","3","1","","0","1","0","null","","","<div class = 'row'><div class = 'column'><img src = 'uspos/2341.bmp' width = '100%;'></div><div class = 'column'><img src = 'category1/CS5.png' width = '70%;'></div></div>","null","pos","CS","CS","1","category1/CS5.png","","","","",""
"","html-keyboard-response","30","219813","0.0-6.0-2.0-0.3","2utcay5yvz","many_one","0","direct_first","1","ux04nd03","0","22","1","1","3","1","","0","1","0","null","","","<div class = 'row'><div class = 'column'><img src = 'usneg/9342.bmp' width = '100%;'></div><div class = 'column'><img src = 'category2/CS8.png' width = '70%;'></div></div>","null","neg","CS","CS","2","category2/CS8.png","","","","",""
"","html-keyboard-response","31","222327","0.0-6.0-2.0-0.4","2utcay5yvz","many_one","0","direct_first","1","ux04nd03","0","22","1","1","3","1","","0","1","0","null","","","<div class = 'row'><div class = 'column'><img src = 'usneg/9920.bmp' width = '100%;'></div><div class = 'column'><img src = 'category2/CS9.png' width = '70%;'></div></div>","null","neg","CS","CS","2","category2/CS9.png","","","","",""
"","html-keyboard-response","32","224845","0.0-6.0-2.0-0.5","2utcay5yvz","many_one","0","direct_first","1","ux04nd03","0","22","1","1","3","1","","0","1","0","null","","","<div class = 'row'><div class = 'column'><img src = 'uspos/2040.bmp' width = '100%;'></div><div class = 'column'><img src = 'category3/CS4.png' width = '70%;'></div></div>","null","pos","CS","CS","3","category3/CS4.png","","","","",""
"","html-keyboard-response","33","227363","0.0-6.0-2.0-0.6","2utcay5yvz","many_one","0","direct_first","1","ux04nd03","0","22","1","1","3","1","","0","1","0","null","","","<div class = 'row'><div class = 'column'><img src = 'category2/CS10.png' width = '70%;'></div><div class = 'column'><img src = 'usneg/9290.bmp' width = '100%;'></div></div>","null","neg","CS","CS","2","category2/CS10.png","","","","",""
"","html-keyboard-response","34","229880","0.0-6.0-2.0-0.7","2utcay5yvz","many_one","0","direct_first","1","ux04nd03","0","22","1","1","3","1","","0","1","0","null","","","<div class = 'row'><div class = 'column'><img src = 'uspos/1460.bmp' width = '100%;'></div><div class = 'column'><img src = 'category3/CS9.png' width = '70%;'></div></div>","null","pos","CS","CS","3","category3/CS9.png","","","","",""
"","html-keyboard-response","35","232403","0.0-6.0-2.0-0.8","2utcay5yvz","many_one","0","direct_first","1","ux04nd03","0","22","1","1","3","1","","0","1","0","null","","","<div class = 'row'><div class = 'column'><img src = 'category3/CS10.png' width = '70%;'></div><div class = 'column'><img src = 'uspos/5470.bmp' width = '100%;'></div></div>","null","pos","CS","CS","3","category3/CS10.png","","","","",""
"","html-keyboard-response","36","234919","0.0-6.0-2.0-0.9","2utcay5yvz","many_one","0","direct_first","1","ux04nd03","0","22","1","1","3","1","","0","1","0","null","","","<div class = 'row'><div class = 'column'><img src = 'usneg/3181.bmp' width = '100%;'></div><div class = 'column'><img src = 'category4/CS8.png' width = '70%;'></div></div>","null","neg","CS","CS","4","category4/CS8.png","","","","",""
"","html-keyboard-response","37","237429","0.0-6.0-2.0-0.10","2utcay5yvz","many_one","0","direct_first","1","ux04nd03","0","22","1","1","3","1","","0","1","0","null","","","<div class = 'row'><div class = 'column'><img src = 'category4/CS3.png' width = '70%;'></div><div class = 'column'><img src = 'usneg/9181.bmp' width = '100%;'></div></div>","null","neg","CS","CS","4","category4/CS3.png","","","","",""
"","html-keyboard-response","38","239950","0.0-6.0-2.0-0.11","2utcay5yvz","many_one","0","direct_first","1","ux04nd03","0","22","1","1","3","1","","0","1","0","null","","","<div class = 'row'><div class = 'column'><img src = 'category4/CS10.png' width = '70%;'></div><div class = 'column'><img src = 'usneg/2141.bmp' width = '100%;'></div></div>","null","neg","CS","CS","4","category4/CS10.png","","","","",""
"","html-keyboard-response","39","242470","0.0-6.0-2.0-0.12","2utcay5yvz","many_one","0","direct_first","1","ux04nd03","0","22","1","1","3","1","","0","1","0","null","","","<div class = 'row'><div class = 'column'><img src = 'uspos/1463.bmp' width = '100%;'></div><div class = 'column'><img src = 'category3/CS3.png' width = '70%;'></div></div>","null","pos","CS","CS","3","category3/CS3.png","","","","",""
"","html-keyboard-response","40","244984","0.0-6.0-2.0-0.13","2utcay5yvz","many_one","0","direct_first","1","ux04nd03","0","22","1","1","3","1","","0","1","0","null","","","<div class = 'row'><div class = 'column'><img src = 'category1/CS3.png' width = '70%;'></div><div class = 'column'><img src = 'uspos/2160.bmp' width = '100%;'></div></div>","null","pos","CS","CS","1","category1/CS3.png","","","","",""
"","html-keyboard-response","41","247502","0.0-6.0-2.0-0.14","2utcay5yvz","many_one","0","direct_first","1","ux04nd03","0","22","1","1","3","1","","0","1","0","null","","","<div class = 'row'><div class = 'column'><img src = 'category2/CS2.png' width = '70%;'></div><div class = 'column'><img src = 'usneg/9041.bmp' width = '100%;'></div></div>","null","neg","CS","CS","2","category2/CS2.png","","","","",""
"","html-keyboard-response","42","250010","0.0-6.0-2.0-0.15","2utcay5yvz","many_one","0","direct_first","1","ux04nd03","0","22","1","1","3","1","","0","1","0","null","","","<div class = 'row'><div class = 'column'><img src = 'category2/CS1.png' width = '70%;'></div><div class = 'column'><img src = 'usneg/8485.bmp' width = '100%;'></div></div>","null","neg","CS","CS","2","category2/CS1.png","","","","",""
"","html-keyboard-response","43","252523","0.0-6.0-2.0-0.16","2utcay5yvz","many_one","0","direct_first","1","ux04nd03","0","22","1","1","3","1","","0","1","0","null","","","<div class = 'row'><div class = 'column'><img src = 'uspos/4625.bmp' width = '100%;'></div><div class = 'column'><img src = 'category1/CS7.png' width = '70%;'></div></div>","null","pos","CS","CS","1","category1/CS7.png","","","","",""
"","html-keyboard-response","44","255034","0.0-6.0-2.0-0.17","2utcay5yvz","many_one","0","direct_first","1","ux04nd03","0","22","1","1","3","1","","0","1","0","null","","","<div class = 'row'><div class = 'column'><img src = 'uspos/2900.2.bmp' width = '100%;'></div><div class = 'column'><img src = 'category3/CS2.png' width = '70%;'></div></div>","null","pos","CS","CS","3","category3/CS2.png","","","","",""
"","html-keyboard-response","45","257544","0.0-6.0-2.0-0.18","2utcay5yvz","many_one","0","direct_first","1","ux04nd03","0","22","1","1","3","1","","0","1","0","null","","","<div class = 'row'><div class = 'column'><img src = 'usneg/9830.bmp' width = '100%;'></div><div class = 'column'><img src = 'category4/CS7.png' width = '70%;'></div></div>","null","neg","CS","CS","4","category4/CS7.png","","","","",""
"","html-keyboard-response","46","260060","0.0-6.0-2.0-0.19","2utcay5yvz","many_one","0","direct_first","1","ux04nd03","0","22","1","1","3","1","","0","1","0","null","","","<div class = 'row'><div class = 'column'><img src = 'category1/CS2.png' width = '70%;'></div><div class = 'column'><img src = 'uspos/8461.bmp' width = '100%;'></div></div>","null","pos","CS","CS","1","category1/CS2.png","","","","",""
"","survey-html-form","47","265326","0.0-6.0-3.0","2utcay5yvz","many_one","0","direct_first","1","ux04nd03","0","22","1","1","3","1","","0","1","0","4761.524999979883","","{}","","","","","","","","","","","",""
"","html-keyboard-response","48","269345","0.0-6.0-4.0-0.0","2utcay5yvz","many_one","0","direct_first","1","ux04nd03","0","22","1","1","3","1","","0","1","0","null","","","<div class = 'row'><div class = 'column'><img src = 'category2/CS9.png' width = '70%;'></div><div class = 'column'><img src = 'usneg/9920.bmp' width = '100%;'></div></div>","null","neg","CS","CS","2","category2/CS9.png","","","","",""
"","html-keyboard-response","49","271851","0.0-6.0-4.0-0.1","2utcay5yvz","many_one","0","direct_first","1","ux04nd03","0","22","1","1","3","1","","0","1","0","null","","","<div class = 'row'><div class = 'column'><img src = 'category2/CS1.png' width = '70%;'></div><div class = 'column'><img src = 'usneg/8485.bmp' width = '100%;'></div></div>","null","neg","CS","CS","2","category2/CS1.png","","","","",""
"","html-keyboard-response","50","274361","0.0-6.0-4.0-0.2","2utcay5yvz","many_one","0","direct_first","1","ux04nd03","0","22","1","1","3","1","","0","1","0","null","","","<div class = 'row'><div class = 'column'><img src = 'usneg/2141.bmp' width = '100%;'></div><div class = 'column'><img src = 'category4/CS10.png' width = '70%;'></div></div>","null","neg","CS","CS","4","category4/CS10.png","","","","",""
"","html-keyboard-response","51","276878","0.0-6.0-4.0-0.3","2utcay5yvz","many_one","0","direct_first","1","ux04nd03","0","22","1","1","3","1","","0","1","0","null","","","<div class = 'row'><div class = 'column'><img src = 'category1/CS3.png' width = '70%;'></div><div class = 'column'><img src = 'uspos/2160.bmp' width = '100%;'></div></div>","null","pos","CS","CS","1","category1/CS3.png","","","","",""
"","html-keyboard-response","52","279390","0.0-6.0-4.0-0.4","2utcay5yvz","many_one","0","direct_first","1","ux04nd03","0","22","1","1","3","1","","0","1","0","null","","","<div class = 'row'><div class = 'column'><img src = 'uspos/2040.bmp' width = '100%;'></div><div class = 'column'><img src = 'category3/CS4.png' width = '70%;'></div></div>","null","pos","CS","CS","3","category3/CS4.png","","","","",""
"","html-keyboard-response","53","281908","0.0-6.0-4.0-0.5","2utcay5yvz","many_one","0","direct_first","1","ux04nd03","0","22","1","1","3","1","","0","1","0","null","","","<div class = 'row'><div class = 'column'><img src = 'category4/CS1.png' width = '70%;'></div><div class = 'column'><img src = 'usneg/9280.bmp' width = '100%;'></div></div>","null","neg","CS","CS","4","category4/CS1.png","","","","",""
"","html-keyboard-response","54","284437","0.0-6.0-4.0-0.6","2utcay5yvz","many_one","0","direct_first","1","ux04nd03","0","22","1","1","3","1","","0","1","0","null","","","<div class = 'row'><div class = 'column'><img src = 'category1/CS9.png' width = '70%;'></div><div class = 'column'><img src = 'uspos/4599.bmp' width = '100%;'></div></div>","null","pos","CS","CS","1","category1/CS9.png","","","","",""
"","html-keyboard-response","55","286959","0.0-6.0-4.0-0.7","2utcay5yvz","many_one","0","direct_first","1","ux04nd03","0","22","1","1","3","1","","0","1","0","null","","","<div class = 'row'><div class = 'column'><img src = 'category3/CS10.png' width = '70%;'></div><div class = 'column'><img src = 'uspos/5470.bmp' width = '100%;'></div></div>","null","pos","CS","CS","3","category3/CS10.png","","","","",""
"","html-keyboard-response","56","289468","0.0-6.0-4.0-0.8","2utcay5yvz","many_one","0","direct_first","1","ux04nd03","0","22","1","1","3","1","","0","1","0","null","","","<div class = 'row'><div class = 'column'><img src = 'category4/CS7.png' width = '70%;'></div><div class = 'column'><img src = 'usneg/9830.bmp' width = '100%;'></div></div>","null","neg","CS","CS","4","category4/CS7.png","","","","",""
"","html-keyboard-response","57","291985","0.0-6.0-4.0-0.9","2utcay5yvz","many_one","0","direct_first","1","ux04nd03","0","22","1","1","3","1","","0","1","0","null","","","<div class = 'row'><div class = 'column'><img src = 'category2/CS10.png' width = '70%;'></div><div class = 'column'><img src = 'usneg/9290.bmp' width = '100%;'></div></div>","null","neg","CS","CS","2","category2/CS10.png","","","","",""
"","html-keyboard-response","58","294498","0.0-6.0-4.0-0.10","2utcay5yvz","many_one","0","direct_first","1","ux04nd03","0","22","1","1","3","1","","0","1","0","null","","","<div class = 'row'><div class = 'column'><img src = 'uspos/8461.bmp' width = '100%;'></div><div class = 'column'><img src = 'category1/CS2.png' width = '70%;'></div></div>","null","pos","CS","CS","1","category1/CS2.png","","","","",""
"","html-keyboard-response","59","297021","0.0-6.0-4.0-0.11","2utcay5yvz","many_one","0","direct_first","1","ux04nd03","0","22","1","1","3","1","","0","1","0","null","","","<div class = 'row'><div class = 'column'><img src = 'uspos/2900.2.bmp' width = '100%;'></div><div class = 'column'><img src = 'category3/CS2.png' width = '70%;'></div></div>","null","pos","CS","CS","3","category3/CS2.png","","","","",""
"","html-keyboard-response","60","299535","0.0-6.0-4.0-0.12","2utcay5yvz","many_one","0","direct_first","1","ux04nd03","0","22","1","1","3","1","","0","1","0","null","","","<div class = 'row'><div class = 'column'><img src = 'category1/CS7.png' width = '70%;'></div><div class = 'column'><img src = 'uspos/4625.bmp' width = '100%;'></div></div>","null","pos","CS","CS","1","category1/CS7.png","","","","",""
"","html-keyboard-response","61","302048","0.0-6.0-4.0-0.13","2utcay5yvz","many_one","0","direct_first","1","ux04nd03","0","22","1","1","3","1","","0","1","0","null","","","<div class = 'row'><div class = 'column'><img src = 'usneg/3181.bmp' width = '100%;'></div><div class = 'column'><img src = 'category4/CS8.png' width = '70%;'></div></div>","null","neg","CS","CS","4","category4/CS8.png","","","","",""
"","html-keyboard-response","62","304567","0.0-6.0-4.0-0.14","2utcay5yvz","many_one","0","direct_first","1","ux04nd03","0","22","1","1","3","1","","0","1","0","null","","","<div class = 'row'><div class = 'column'><img src = 'category3/CS3.png' width = '70%;'></div><div class = 'column'><img src = 'uspos/1463.bmp' width = '100%;'></div></div>","null","pos","CS","CS","3","category3/CS3.png","","","","",""
"","html-keyboard-response","63","307081","0.0-6.0-4.0-0.15","2utcay5yvz","many_one","0","direct_first","1","ux04nd03","0","22","1","1","3","1","","0","1","0","null","","","<div class = 'row'><div class = 'column'><img src = 'usneg/9041.bmp' width = '100%;'></div><div class = 'column'><img src = 'category2/CS2.png' width = '70%;'></div></div>","null","neg","CS","CS","2","category2/CS2.png","","","","",""
"","html-keyboard-response","64","309596","0.0-6.0-4.0-0.16","2utcay5yvz","many_one","0","direct_first","1","ux04nd03","0","22","1","1","3","1","","0","1","0","null","","","<div class = 'row'><div class = 'column'><img src = 'usneg/9181.bmp' width = '100%;'></div><div class = 'column'><img src = 'category4/CS3.png' width = '70%;'></div></div>","null","neg","CS","CS","4","category4/CS3.png","","","","",""
"","html-keyboard-response","65","312121","0.0-6.0-4.0-0.17","2utcay5yvz","many_one","0","direct_first","1","ux04nd03","0","22","1","1","3","1","","0","1","0","null","","","<div class = 'row'><div class = 'column'><img src = 'category2/CS8.png' width = '70%;'></div><div class = 'column'><img src = 'usneg/9342.bmp' width = '100%;'></div></div>","null","neg","CS","CS","2","category2/CS8.png","","","","",""
"","html-keyboard-response","66","314632","0.0-6.0-4.0-0.18","2utcay5yvz","many_one","0","direct_first","1","ux04nd03","0","22","1","1","3","1","","0","1","0","null","","","<div class = 'row'><div class = 'column'><img src = 'category1/CS5.png' width = '70%;'></div><div class = 'column'><img src = 'uspos/2341.bmp' width = '100%;'></div></div>","null","pos","CS","CS","1","category1/CS5.png","","","","",""
"","html-keyboard-response","67","317158","0.0-6.0-4.0-0.19","2utcay5yvz","many_one","0","direct_first","1","ux04nd03","0","22","1","1","3","1","","0","1","0","null","","","<div class = 'row'><div class = 'column'><img src = 'category3/CS9.png' width = '70%;'></div><div class = 'column'><img src = 'uspos/1460.bmp' width = '100%;'></div></div>","null","pos","CS","CS","3","category3/CS9.png","","","","",""
"","survey-html-form","68","320391","0.0-6.0-5.0","2utcay5yvz","many_one","0","direct_first","1","ux04nd03","0","22","1","1","3","1","","0","1","0","2731.0649999417365","","{}","","","","","","","","","","","",""
"","html-keyboard-response","69","324423","0.0-6.0-6.0-0.0","2utcay5yvz","many_one","0","direct_first","1","ux04nd03","0","22","1","1","3","1","","0","1","0","null","","","<div class = 'row'><div class = 'column'><img src = 'category2/CS10.png' width = '70%;'></div><div class = 'column'><img src = 'usneg/9290.bmp' width = '100%;'></div></div>","null","neg","CS","CS","2","category2/CS10.png","","","","",""
"","html-keyboard-response","70","326945","0.0-6.0-6.0-0.1","2utcay5yvz","many_one","0","direct_first","1","ux04nd03","0","22","1","1","3","1","","0","1","0","null","","","<div class = 'row'><div class = 'column'><img src = 'category3/CS9.png' width = '70%;'></div><div class = 'column'><img src = 'uspos/1460.bmp' width = '100%;'></div></div>","null","pos","CS","CS","3","category3/CS9.png","","","","",""
"","html-keyboard-response","71","329453","0.0-6.0-6.0-0.2","2utcay5yvz","many_one","0","direct_first","1","ux04nd03","0","22","1","1","3","1","","0","1","0","null","","","<div class = 'row'><div class = 'column'><img src = 'category1/CS3.png' width = '70%;'></div><div class = 'column'><img src = 'uspos/2160.bmp' width = '100%;'></div></div>","null","pos","CS","CS","1","category1/CS3.png","","","","",""
"","html-keyboard-response","72","331973","0.0-6.0-6.0-0.3","2utcay5yvz","many_one","0","direct_first","1","ux04nd03","0","22","1","1","3","1","","0","1","0","null","","","<div class = 'row'><div class = 'column'><img src = 'category1/CS5.png' width = '70%;'></div><div class = 'column'><img src = 'uspos/2341.bmp' width = '100%;'></div></div>","null","pos","CS","CS","1","category1/CS5.png","","","","",""
"","html-keyboard-response","73","334487","0.0-6.0-6.0-0.4","2utcay5yvz","many_one","0","direct_first","1","ux04nd03","0","22","1","1","3","1","","0","1","0","null","","","<div class = 'row'><div class = 'column'><img src = 'uspos/5470.bmp' width = '100%;'></div><div class = 'column'><img src = 'category3/CS10.png' width = '70%;'></div></div>","null","pos","CS","CS","3","category3/CS10.png","","","","",""
"","html-keyboard-response","74","336996","0.0-6.0-6.0-0.5","2utcay5yvz","many_one","0","direct_first","1","ux04nd03","0","22","1","1","3","1","","0","1","0","null","","","<div class = 'row'><div class = 'column'><img src = 'uspos/2040.bmp' width = '100%;'></div><div class = 'column'><img src = 'category3/CS4.png' width = '70%;'></div></div>","null","pos","CS","CS","3","category3/CS4.png","","","","",""
"","html-keyboard-response","75","339517","0.0-6.0-6.0-0.6","2utcay5yvz","many_one","0","direct_first","1","ux04nd03","0","22","1","1","3","1","","0","1","0","null","","","<div class = 'row'><div class = 'column'><img src = 'category4/CS7.png' width = '70%;'></div><div class = 'column'><img src = 'usneg/9830.bmp' width = '100%;'></div></div>","null","neg","CS","CS","4","category4/CS7.png","","","","",""
"","html-keyboard-response","76","342046","0.0-6.0-6.0-0.7","2utcay5yvz","many_one","0","direct_first","1","ux04nd03","0","22","1","1","3","1","","0","1","0","null","","","<div class = 'row'><div class = 'column'><img src = 'category4/CS8.png' width = '70%;'></div><div class = 'column'><img src = 'usneg/3181.bmp' width = '100%;'></div></div>","null","neg","CS","CS","4","category4/CS8.png","","","","",""
"","html-keyboard-response","77","344567","0.0-6.0-6.0-0.8","2utcay5yvz","many_one","0","direct_first","1","ux04nd03","0","22","1","1","3","1","","0","1","0","null","","","<div class = 'row'><div class = 'column'><img src = 'category3/CS2.png' width = '70%;'></div><div class = 'column'><img src = 'uspos/2900.2.bmp' width = '100%;'></div></div>","null","pos","CS","CS","3","category3/CS2.png","","","","",""
"","html-keyboard-response","78","347087","0.0-6.0-6.0-0.9","2utcay5yvz","many_one","0","direct_first","1","ux04nd03","0","22","1","1","3","1","","0","1","0","null","","","<div class = 'row'><div class = 'column'><img src = 'category1/CS7.png' width = '70%;'></div><div class = 'column'><img src = 'uspos/4625.bmp' width = '100%;'></div></div>","null","pos","CS","CS","1","category1/CS7.png","","","","",""
"","html-keyboard-response","79","349611","0.0-6.0-6.0-0.10","2utcay5yvz","many_one","0","direct_first","1","ux04nd03","0","22","1","1","3","1","","0","1","0","null","","","<div class = 'row'><div class = 'column'><img src = 'category4/CS10.png' width = '70%;'></div><div class = 'column'><img src = 'usneg/2141.bmp' width = '100%;'></div></div>","null","neg","CS","CS","4","category4/CS10.png","","","","",""
"","html-keyboard-response","80","352117","0.0-6.0-6.0-0.11","2utcay5yvz","many_one","0","direct_first","1","ux04nd03","0","22","1","1","3","1","","0","1","0","null","","","<div class = 'row'><div class = 'column'><img src = 'usneg/9041.bmp' width = '100%;'></div><div class = 'column'><img src = 'category2/CS2.png' width = '70%;'></div></div>","null","neg","CS","CS","2","category2/CS2.png","","","","",""
"","html-keyboard-response","81","354645","0.0-6.0-6.0-0.12","2utcay5yvz","many_one","0","direct_first","1","ux04nd03","0","22","1","1","3","1","","0","1","0","null","","","<div class = 'row'><div class = 'column'><img src = 'usneg/8485.bmp' width = '100%;'></div><div class = 'column'><img src = 'category2/CS1.png' width = '70%;'></div></div>","null","neg","CS","CS","2","category2/CS1.png","","","","",""
"","html-keyboard-response","82","357168","0.0-6.0-6.0-0.13","2utcay5yvz","many_one","0","direct_first","1","ux04nd03","0","22","1","1","3","1","","0","1","0","null","","","<div class = 'row'><div class = 'column'><img src = 'usneg/9342.bmp' width = '100%;'></div><div class = 'column'><img src = 'category2/CS8.png' width = '70%;'></div></div>","null","neg","CS","CS","2","category2/CS8.png","","","","",""
"","html-keyboard-response","83","359677","0.0-6.0-6.0-0.14","2utcay5yvz","many_one","0","direct_first","1","ux04nd03","0","22","1","1","3","1","","0","1","0","null","","","<div class = 'row'><div class = 'column'><img src = 'category4/CS1.png' width = '70%;'></div><div class = 'column'><img src = 'usneg/9280.bmp' width = '100%;'></div></div>","null","neg","CS","CS","4","category4/CS1.png","","","","",""
"","html-keyboard-response","84","362199","0.0-6.0-6.0-0.15","2utcay5yvz","many_one","0","direct_first","1","ux04nd03","0","22","1","1","3","1","","0","1","0","null","","","<div class = 'row'><div class = 'column'><img src = 'uspos/4599.bmp' width = '100%;'></div><div class = 'column'><img src = 'category1/CS9.png' width = '70%;'></div></div>","null","pos","CS","CS","1","category1/CS9.png","","","","",""
"","html-keyboard-response","85","364711","0.0-6.0-6.0-0.16","2utcay5yvz","many_one","0","direct_first","1","ux04nd03","0","22","1","1","3","1","","0","1","0","null","","","<div class = 'row'><div class = 'column'><img src = 'category3/CS3.png' width = '70%;'></div><div class = 'column'><img src = 'uspos/1463.bmp' width = '100%;'></div></div>","null","pos","CS","CS","3","category3/CS3.png","","","","",""
"","html-keyboard-response","86","367223","0.0-6.0-6.0-0.17","2utcay5yvz","many_one","0","direct_first","1","ux04nd03","0","22","1","1","3","1","","0","1","0","null","","","<div class = 'row'><div class = 'column'><img src = 'category2/CS9.png' width = '70%;'></div><div class = 'column'><img src = 'usneg/9920.bmp' width = '100%;'></div></div>","null","neg","CS","CS","2","category2/CS9.png","","","","",""
"","html-keyboard-response","87","369732","0.0-6.0-6.0-0.18","2utcay5yvz","many_one","0","direct_first","1","ux04nd03","0","22","1","1","3","1","","0","1","0","null","","","<div class = 'row'><div class = 'column'><img src = 'category4/CS3.png' width = '70%;'></div><div class = 'column'><img src = 'usneg/9181.bmp' width = '100%;'></div></div>","null","neg","CS","CS","4","category4/CS3.png","","","","",""
"","html-keyboard-response","88","372241","0.0-6.0-6.0-0.19","2utcay5yvz","many_one","0","direct_first","1","ux04nd03","0","22","1","1","3","1","","0","1","0","null","","","<div class = 'row'><div class = 'column'><img src = 'uspos/8461.bmp' width = '100%;'></div><div class = 'column'><img src = 'category1/CS2.png' width = '70%;'></div></div>","null","pos","CS","CS","1","category1/CS2.png","","","","",""
"","survey-html-form","89","387488","0.0-7.0","2utcay5yvz","many_one","0","direct_first","1","ux04nd03","0","22","1","1","3","1","","0","1","0","14735.744999954477","","{}","","","","","","","","","","","",""
"","image-slider-response","90","401250","0.0-8.0-0.0","2utcay5yvz","many_one","0","direct_first","1","ux04nd03","0","22","1","1","3","1","","0","1","0","11753.9800000377","","","","","pos","CS","CS","1","category1/CS2.png","33","targets/45.png","direct","",""
"","image-slider-response","91","418517","0.0-8.0-0.1","2utcay5yvz","many_one","0","direct_first","1","ux04nd03","0","22","1","1","3","1","","0","1","0","17263.84500018321","","","","","neg","GS","GSnew","4","category4/GS3.png","9","targets/4.png","direct","",""
"","image-slider-response","92","430282","0.0-8.0-0.2","2utcay5yvz","many_one","0","direct_first","1","ux04nd03","0","22","1","1","3","1","","0","1","0","11759.814999997616","","","","","neg","CS","CS","2","category2/CS9.png","-32","targets/26.png","direct","",""
"","image-slider-response","93","438884","0.0-8.0-0.3","2utcay5yvz","many_one","0","direct_first","1","ux04nd03","0","22","1","1","3","1","","0","1","0","8599.65500002727","","","","","pos","GS","GSold","3","category3/CS7.png","22","targets/41.png","direct","",""
"","image-slider-response","94","443987","0.0-8.0-0.4","2utcay5yvz","many_one","0","direct_first","1","ux04nd03","0","22","1","1","3","1","","0","1","0","5100.654999958351","","","","","pos","GS","GSold","3","category3/CS1.png","54","targets/7.png","direct","",""
"","image-slider-response","95","449413","0.0-8.0-0.5","2utcay5yvz","many_one","0","direct_first","1","ux04nd03","0","22","1","1","3","1","","0","1","0","5423.600000096485","","","","","pos","GS","abstract","1","category1/ma.png","-30","targets/38.png","direct","",""
"","image-slider-response","96","458102","0.0-8.0-0.6","2utcay5yvz","many_one","0","direct_first","1","ux04nd03","0","22","1","1","3","1","","0","1","0","8685.714999912307","","","","","neg","GS","GSold","4","category4/CS2.png","78","targets/27.png","direct","",""
"","image-slider-response","97","462849","0.0-8.0-0.7","2utcay5yvz","many_one","0","direct_first","1","ux04nd03","0","22","1","1","3","1","","0","1","0","4744.269999908283","","","","","pos","GS","GSold","1","category1/CS8.png","-49","targets/11.png","direct","",""
"","image-slider-response","98","472061","0.0-8.0-0.8","2utcay5yvz","many_one","0","direct_first","1","ux04nd03","0","22","1","1","3","1","","0","1","0","9209.595000138506","","","","","pos","CS","CS","1","category1/CS3.png","4","targets/44.png","direct","",""
"","image-slider-response","99","478212","0.0-8.0-0.9","2utcay5yvz","many_one","0","direct_first","1","ux04nd03","0","22","1","1","3","1","","0","1","0","6148.20499997586","","","","","neg","CS","CS","4","category4/CS8.png","-24","targets/48.png","direct","",""
"","image-slider-response","100","484637","0.0-8.0-0.10","2utcay5yvz","many_one","0","direct_first","1","ux04nd03","0","22","1","1","3","1","","0","1","0","6423.5449999105185","","","","","neg","GS","GSnew","4","category4/GS2.png","-26","targets/25.png","direct","",""
"","image-slider-response","101","488584","0.0-8.0-0.11","2utcay5yvz","many_one","0","direct_first","1","ux04nd03","0","22","1","1","3","1","","0","1","0","3944.2349998280406","","","","","neg","GS","GSnew","4","category4/GS1.png","58","targets/14.png","direct","",""
"","image-slider-response","102","492744","0.0-8.0-0.12","2utcay5yvz","many_one","0","direct_first","1","ux04nd03","0","22","1","1","3","1","","0","1","0","4157.279999926686","","","","","pos","CS","CS","3","category3/CS4.png","-25","targets/42.png","direct","",""
"","image-slider-response","103","500249","0.0-8.0-0.13","2utcay5yvz","many_one","0","direct_first","1","ux04nd03","0","22","1","1","3","1","","0","1","0","7502.390000037849","","","","","pos","GS","GSnew","3","category3/GS1.png","27","targets/34.png","direct","",""
"","image-slider-response","104","505633","0.0-8.0-0.14","2utcay5yvz","many_one","0","direct_first","1","ux04nd03","0","22","1","1","3","1","","0","1","0","5380.839999997988","","","","","pos","CS","CS","1","category1/CS9.png","37","targets/1.png","direct","",""
"","image-slider-response","105","510753","0.0-8.0-0.15","2utcay5yvz","many_one","0","direct_first","1","ux04nd03","0","22","1","1","3","1","","0","1","0","5117.279999889433","","","","","neg","GS","abstract","4","category4/lin.png","31","targets/33.png","direct","",""
"","image-slider-response","106","516737","0.0-8.0-0.16","2utcay5yvz","many_one","0","direct_first","1","ux04nd03","0","22","1","1","3","1","","0","1","0","5981.830000178888","","","","","neg","CS","CS","4","category4/CS1.png","30","targets/17.png","direct","",""
"","image-slider-response","107","522168","0.0-8.0-0.17","2utcay5yvz","many_one","0","direct_first","1","ux04nd03","0","22","1","1","3","1","","0","1","0","5428.739999886602","","","","","neg","GS","GSold","4","category4/CS9.png","32","targets/3.png","direct","",""
"","image-slider-response","108","525493","0.0-8.0-0.18","2utcay5yvz","many_one","0","direct_first","1","ux04nd03","0","22","1","1","3","1","","0","1","0","3321.6649999376386","","","","","pos","GS","GSnew","1","category1/GS2.png","-29","targets/19.png","direct","",""
"","image-slider-response","109","530855","0.0-8.0-0.19","2utcay5yvz","many_one","0","direct_first","1","ux04nd03","0","22","1","1","3","1","","0","1","0","5359.984999988228","","","","","pos","CS","CS","3","category3/CS10.png","-23","targets/21.png","direct","",""
"","image-slider-response","110","534352","0.0-8.0-0.20","2utcay5yvz","many_one","0","direct_first","1","ux04nd03","0","22","1","1","3","1","","0","1","0","3493.955000070855","","","","","neg","CS","CS","4","category4/CS3.png","39","targets/2.png","direct","",""
"","image-slider-response","111","539045","0.0-8.0-0.21","2utcay5yvz","many_one","0","direct_first","1","ux04nd03","0","22","1","1","3","1","","0","1","0","4690.915000159293","","","","","neg","CS","CS","2","category2/CS8.png","-26","targets/28.png","direct","",""
"","image-slider-response","112","543631","0.0-8.0-0.22","2utcay5yvz","many_one","0","direct_first","1","ux04nd03","0","22","1","1","3","1","","0","1","0","4585.054999915883","","","","","neg","GS","GSold","2","category2/CS6.png","-38","targets/22.png","direct","",""
"","image-slider-response","113","551459","0.0-8.0-0.23","2utcay5yvz","many_one","0","direct_first","1","ux04nd03","0","22","1","1","3","1","","0","1","0","7825.870000058785","","","","","pos","GS","GSnew","3","category3/GS2.png","-85","targets/10.png","direct","",""
"","image-slider-response","114","558288","0.0-8.0-0.24","2utcay5yvz","many_one","0","direct_first","1","ux04nd03","0","22","1","1","3","1","","0","1","0","6825.5199999548495","","","","","pos","GS","GSnew","1","category1/GS1.png","-35","targets/20.png","direct","",""
"","image-slider-response","115","570138","0.0-8.0-0.25","2utcay5yvz","many_one","0","direct_first","1","ux04nd03","0","22","1","1","3","1","","0","1","0","11847.335000056773","","","","","pos","GS","GSnew","1","category1/GS3.png","9","targets/36.png","direct","",""
"","image-slider-response","116","573670","0.0-8.0-0.26","2utcay5yvz","many_one","0","direct_first","1","ux04nd03","0","22","1","1","3","1","","0","1","0","3529.439999954775","","","","","neg","CS","CS","4","category4/CS10.png","44","targets/29.png","direct","",""
"","image-slider-response","117","576834","0.0-8.0-0.27","2utcay5yvz","many_one","0","direct_first","1","ux04nd03","0","22","1","1","3","1","","0","1","0","3162.1900000609457","","","","","pos","GS","GSold","1","category1/CS4.png","-13","targets/23.png","direct","",""
"","image-slider-response","118","582459","0.0-8.0-0.28","2utcay5yvz","many_one","0","direct_first","1","ux04nd03","0","22","1","1","3","1","","0","1","0","5622.579999966547","","","","","neg","GS","GSnew","2","category2/GS1.png","-28","targets/31.png","direct","",""
"","image-slider-response","119","590992","0.0-8.0-0.29","2utcay5yvz","many_one","0","direct_first","1","ux04nd03","0","22","1","1","3","1","","0","1","0","8530.005000066012","","","","","pos","CS","CS","1","category1/CS7.png","-25","targets/5.png","direct","",""
"","image-slider-response","120","596872","0.0-8.0-0.30","2utcay5yvz","many_one","0","direct_first","1","ux04nd03","0","22","1","1","3","1","","0","1","0","5877.284999936819","","","","","neg","GS","GSnew","2","category2/GS2.png","32","targets/8.png","direct","",""
"","image-slider-response","121","603105","0.0-8.0-0.31","2utcay5yvz","many_one","0","direct_first","1","ux04nd03","0","22","1","1","3","1","","0","1","0","6230.03500001505","","","","","pos","CS","CS","1","category1/CS5.png","39","targets/35.png","direct","",""
"","image-slider-response","122","608497","0.0-8.0-0.32","2utcay5yvz","many_one","0","direct_first","1","ux04nd03","0","22","1","1","3","1","","0","1","0","5387.834999943152","","","","","pos","GS","GSnew","3","category3/GS3.png","36","targets/46.png","direct","",""
"","image-slider-response","123","616983","0.0-8.0-0.33","2utcay5yvz","many_one","0","direct_first","1","ux04nd03","0","22","1","1","3","1","","0","1","0","8483.424999983981","","","","","pos","GS","abstract","3","category3/wang.png","66","targets/13.png","direct","",""
"","image-slider-response","124","621239","0.0-8.0-0.34","2utcay5yvz","many_one","0","direct_first","1","ux04nd03","0","22","1","1","3","1","","0","1","0","4252.9549999162555","","","","","neg","CS","CS","2","category2/CS2.png","-40","targets/16.png","direct","",""
"","image-slider-response","125","627928","0.0-8.0-0.35","2utcay5yvz","many_one","0","direct_first","1","ux04nd03","0","22","1","1","3","1","","0","1","0","6686.77999987267","","","","","pos","CS","CS","3","category3/CS9.png","49","targets/15.png","direct","",""
"","image-slider-response","126","631335","0.0-8.0-0.36","2utcay5yvz","many_one","0","direct_first","1","ux04nd03","0","22","1","1","3","1","","0","1","0","3403.870000038296","","","","","neg","CS","CS","4","category4/CS7.png","34","targets/43.png","direct","",""
"","image-slider-response","127","636226","0.0-8.0-0.37","2utcay5yvz","many_one","0","direct_first","1","ux04nd03","0","22","1","1","3","1","","0","1","0","4888.989999890327","","","","","neg","GS","GSnew","2","category2/GS3.png","-23","targets/32.png","direct","",""
"","image-slider-response","128","640662","0.0-8.0-0.38","2utcay5yvz","many_one","0","direct_first","1","ux04nd03","0","22","1","1","3","1","","0","1","0","4433.090000180528","","","","","neg","GS","GSold","2","category2/CS5.png","-30","targets/47.png","direct","",""
"","image-slider-response","129","647309","0.0-8.0-0.39","2utcay5yvz","many_one","0","direct_first","1","ux04nd03","0","22","1","1","3","1","","0","1","0","6643.530000001192","","","","","neg","CS","CS","2","category2/CS1.png","-75","targets/18.png","direct","",""
"","image-slider-response","130","652278","0.0-8.0-0.40","2utcay5yvz","many_one","0","direct_first","1","ux04nd03","0","22","1","1","3","1","","0","1","0","4966.335000004619","","","","","neg","GS","GSold","4","category4/CS4.png","78","targets/12.png","direct","",""
"","image-slider-response","131","658130","0.0-8.0-0.41","2utcay5yvz","many_one","0","direct_first","1","ux04nd03","0","22","1","1","3","1","","0","1","0","5849.53000000678","","","","","pos","CS","CS","3","category3/CS3.png","100","targets/24.png","direct","",""
"","image-slider-response","132","661938","0.0-8.0-0.42","2utcay5yvz","many_one","0","direct_first","1","ux04nd03","0","22","1","1","3","1","","0","1","0","3804.7300002072006","","","","","neg","GS","GSold","2","category2/CS7.png","-66","targets/40.png","direct","",""
"","image-slider-response","133","665697","0.0-8.0-0.43","2utcay5yvz","many_one","0","direct_first","1","ux04nd03","0","22","1","1","3","1","","0","1","0","3756.39499980025","","","","","pos","CS","CS","3","category3/CS2.png","64","targets/37.png","direct","",""
"","image-slider-response","134","671569","0.0-8.0-0.44","2utcay5yvz","many_one","0","direct_first","1","ux04nd03","0","22","1","1","3","1","","0","1","0","5869.789999909699","","","","","pos","GS","GSold","1","category1/CS1.png","-45","targets/9.png","direct","",""
"","image-slider-response","135","676524","0.0-8.0-0.45","2utcay5yvz","many_one","0","direct_first","1","ux04nd03","0","22","1","1","3","1","","0","1","0","4952.7300000190735","","","","","pos","GS","GSold","3","category3/CS8.png","-100","targets/6.png","direct","",""
"","image-slider-response","136","686060","0.0-8.0-0.46","2utcay5yvz","many_one","0","direct_first","1","ux04nd03","0","22","1","1","3","1","","0","1","0","9532.94500010088","","","","","neg","CS","CS","2","category2/CS10.png","-54","targets/39.png","direct","",""
"","image-slider-response","137","689335","0.0-8.0-0.47","2utcay5yvz","many_one","0","direct_first","1","ux04nd03","0","22","1","1","3","1","","0","1","0","3272.7799999993294","","","","","neg","GS","abstract","2","category2/men.png","-100","targets/30.png","direct","",""
"","html-keyboard-response","138","720048","0.0-9.0","2utcay5yvz","many_one","0","direct_first","1","ux04nd03","0","22","1","1","3","1","","0","1","0","30711.19499998167","","","<p>Sie sehen nun die chinesischen Zeichen nur ganz kurz. Danach sehen Sie die jeweilige Aussprache der Zeichen als Silbe auf dem Bildschrim. Ihre Aufgabe ist es, für jede Silbe anzugeben, ob diese etwas angenehmes, oder unangenehmes bedeuten könnte. Verlassen Sie sich hier vor allem auf Ihre Intuition.<br><br>Die Zeichen werden nur zur Orientierung dargestellt, beachten Sie sie deshalb nicht. Konzentrieren Sie sich vor allem auf die Silben. <br>Reagieren Sie mit folgenden zwei Tasten: <br><br><b>'D' </b> wenn die Silbe etwas <b>unangenehmes</b> bedeuten könnte. <br><b>'K'</b> wenn die Silbe etwas <b>angenehmes</b> bedeuten könnte. <br><br>Bitte legen Sie nun den Zeigefinger der linken Hand auf die Taste 'D' und den Zeigefinger der rechten Hand auf die Taste 'K'. <br>Reagieren Sie auf jede Silbe so schnell wie möglich. Uns interessiert Ihre spontane Reaktion. <br> <br> <br>Drücken Sie 'D' oder 'K', um die nächste Aufgabe zu starten. </p>","75","","","","","","","","","",""
"","html-keyboard-response","139","723058","0.0-10.0-0.0","2utcay5yvz","many_one","0","direct_first","1","ux04nd03","0","22","1","1","3","1","","0","1","0","null","","","<div style=""font-size:60px;"">+</div>","null","","","","","","","","","",""
"","html-keyboard-response","140","723153","0.0-10.0-1.0","2utcay5yvz","many_one","0","direct_first","1","ux04nd03","0","22","1","1","3","1","","0","1","0","null","","","<img src = 'category2/CS10.png' width = '100%;'>","null","","","","","","","","","",""
"","html-keyboard-response","141","723418","0.0-10.0-2.0","2utcay5yvz","many_one","0","direct_first","1","ux04nd03","0","22","1","1","3","1","","0","1","0","null","","","<img src = 'targets/39.png' width = '100%;'>","null","","","","","","","","","",""
"","html-keyboard-response","142","730727","0.0-10.0-3.0","2utcay5yvz","many_one","0","direct_first","1","ux04nd03","0","22","1","1","3","1","","0","1","0","7308.209999930114","","","<img src = 'targets/mask.png' width = '100%;'>","75","neg","CS","CS","2","category2/CS10.png","","targets/39.png","indirect","1","0"
"","html-keyboard-response","143","732239","0.0-10.0-0.1","2utcay5yvz","many_one","0","direct_first","1","ux04nd03","0","22","1","1","3","1","","0","1","0","null","","","<div style=""font-size:60px;"">+</div>","null","","","","","","","","","",""
"","html-keyboard-response","144","732336","0.0-10.0-1.1","2utcay5yvz","many_one","0","direct_first","1","ux04nd03","0","22","1","1","3","1","","0","1","0","null","","","<img src = 'category1/CS9.png' width = '100%;'>","null","","","","","","","","","",""
"","html-keyboard-response","145","732604","0.0-10.0-2.1","2utcay5yvz","many_one","0","direct_first","1","ux04nd03","0","22","1","1","3","1","","0","1","0","null","","","<img src = 'targets/1.png' width = '100%;'>","null","","","","","","","","","",""
"","html-keyboard-response","146","737527","0.0-10.0-3.1","2utcay5yvz","many_one","0","direct_first","1","ux04nd03","0","22","1","1","3","1","","0","1","0","4921.585000120103","","","<img src = 'targets/mask.png' width = '100%;'>","75","pos","CS","CS","1","category1/CS9.png","","targets/1.png","indirect","1","1"
"","html-keyboard-response","147","739046","0.0-10.0-0.2","2utcay5yvz","many_one","0","direct_first","1","ux04nd03","0","22","1","1","3","1","","0","1","0","null","","","<div style=""font-size:60px;"">+</div>","null","","","","","","","","","",""
"","html-keyboard-response","148","739145","0.0-10.0-1.2","2utcay5yvz","many_one","0","direct_first","1","ux04nd03","0","22","1","1","3","1","","0","1","0","null","","","<img src = 'category1/CS2.png' width = '100%;'>","null","","","","","","","","","",""
"","html-keyboard-response","149","739408","0.0-10.0-2.2","2utcay5yvz","many_one","0","direct_first","1","ux04nd03","0","22","1","1","3","1","","0","1","0","null","","","<img src = 'targets/45.png' width = '100%;'>","null","","","","","","","","","",""
"","html-keyboard-response","150","740717","0.0-10.0-3.2","2utcay5yvz","many_one","0","direct_first","1","ux04nd03","0","22","1","1","3","1","","0","1","0","1306.6899999976158","","","<img src = 'targets/mask.png' width = '100%;'>","68","pos","CS","CS","1","category1/CS2.png","","targets/45.png","indirect","0","2"
"","html-keyboard-response","151","742225","0.0-10.0-0.3","2utcay5yvz","many_one","0","direct_first","1","ux04nd03","0","22","1","1","3","1","","0","1","0","null","","","<div style=""font-size:60px;"">+</div>","null","","","","","","","","","",""
"","html-keyboard-response","152","742331","0.0-10.0-1.3","2utcay5yvz","many_one","0","direct_first","1","ux04nd03","0","22","1","1","3","1","","0","1","0","null","","","<img src = 'category2/CS9.png' width = '100%;'>","null","","","","","","","","","",""
"","html-keyboard-response","153","742598","0.0-10.0-2.3","2utcay5yvz","many_one","0","direct_first","1","ux04nd03","0","22","1","1","3","1","","0","1","0","null","","","<img src = 'targets/26.png' width = '100%;'>","null","","","","","","","","","",""
"","html-keyboard-response","154","744457","0.0-10.0-3.3","2utcay5yvz","many_one","0","direct_first","1","ux04nd03","0","22","1","1","3","1","","0","1","0","1857.7199999708682","","","<img src = 'targets/mask.png' width = '100%;'>","75","neg","CS","CS","2","category2/CS9.png","","targets/26.png","indirect","1","3"
"","html-keyboard-response","155","745981","0.0-10.0-0.4","2utcay5yvz","many_one","0","direct_first","1","ux04nd03","0","22","1","1","3","1","","0","1","0","null","","","<div style=""font-size:60px;"">+</div>","null","","","","","","","","","",""
"","html-keyboard-response","156","746077","0.0-10.0-1.4","2utcay5yvz","many_one","0","direct_first","1","ux04nd03","0","22","1","1","3","1","","0","1","0","null","","","<img src = 'category3/CS2.png' width = '100%;'>","null","","","","","","","","","",""
"","html-keyboard-response","157","746335","0.0-10.0-2.4","2utcay5yvz","many_one","0","direct_first","1","ux04nd03","0","22","1","1","3","1","","0","1","0","null","","","<img src = 'targets/37.png' width = '100%;'>","null","","","","","","","","","",""
"","html-keyboard-response","158","749958","0.0-10.0-3.4","2utcay5yvz","many_one","0","direct_first","1","ux04nd03","0","22","1","1","3","1","","0","1","0","3620.450000045821","","","<img src = 'targets/mask.png' width = '100%;'>","68","pos","CS","CS","3","category3/CS2.png","","targets/37.png","indirect","0","4"
"","html-keyboard-response","159","751467","0.0-10.0-0.5","2utcay5yvz","many_one","0","direct_first","1","ux04nd03","0","22","1","1","3","1","","0","1","0","null","","","<div style=""font-size:60px;"">+</div>","null","","","","","","","","","",""
"","html-keyboard-response","160","751564","0.0-10.0-1.5","2utcay5yvz","many_one","0","direct_first","1","ux04nd03","0","22","1","1","3","1","","0","1","0","null","","","<img src = 'category1/CS5.png' width = '100%;'>","null","","","","","","","","","",""
"","html-keyboard-response","161","751835","0.0-10.0-2.5","2utcay5yvz","many_one","0","direct_first","1","ux04nd03","0","22","1","1","3","1","","0","1","0","null","","","<img src = 'targets/35.png' width = '100%;'>","null","","","","","","","","","",""
"","html-keyboard-response","162","753218","0.0-10.0-3.5","2utcay5yvz","many_one","0","direct_first","1","ux04nd03","0","22","1","1","3","1","","0","1","0","1380.8250001166016","","","<img src = 'targets/mask.png' width = '100%;'>","75","pos","CS","CS","1","category1/CS5.png","","targets/35.png","indirect","1","5"
"","html-keyboard-response","163","754746","0.0-10.0-0.6","2utcay5yvz","many_one","0","direct_first","1","ux04nd03","0","22","1","1","3","1","","0","1","0","null","","","<div style=""font-size:60px;"">+</div>","null","","","","","","","","","",""
"","html-keyboard-response","164","754844","0.0-10.0-1.6","2utcay5yvz","many_one","0","direct_first","1","ux04nd03","0","22","1","1","3","1","","0","1","0","null","","","<img src = 'category3/CS3.png' width = '100%;'>","null","","","","","","","","","",""
"","html-keyboard-response","165","755103","0.0-10.0-2.6","2utcay5yvz","many_one","0","direct_first","1","ux04nd03","0","22","1","1","3","1","","0","1","0","null","","","<img src = 'targets/24.png' width = '100%;'>","null","","","","","","","","","",""
"","html-keyboard-response","166","758058","0.0-10.0-3.6","2utcay5yvz","many_one","0","direct_first","1","ux04nd03","0","22","1","1","3","1","","0","1","0","2953.7500001024455","","","<img src = 'targets/mask.png' width = '100%;'>","68","pos","CS","CS","3","category3/CS3.png","","targets/24.png","indirect","0","6"
"","html-keyboard-response","167","759584","0.0-10.0-0.7","2utcay5yvz","many_one","0","direct_first","1","ux04nd03","0","22","1","1","3","1","","0","1","0","null","","","<div style=""font-size:60px;"">+</div>","null","","","","","","","","","",""
"","html-keyboard-response","168","759689","0.0-10.0-1.7","2utcay5yvz","many_one","0","direct_first","1","ux04nd03","0","22","1","1","3","1","","0","1","0","null","","","<img src = 'category2/CS2.png' width = '100%;'>","null","","","","","","","","","",""
"","html-keyboard-response","169","759947","0.0-10.0-2.7","2utcay5yvz","many_one","0","direct_first","1","ux04nd03","0","22","1","1","3","1","","0","1","0","null","","","<img src = 'targets/16.png' width = '100%;'>","null","","","","","","","","","",""
"","html-keyboard-response","170","772308","0.0-10.0-3.7","2utcay5yvz","many_one","0","direct_first","1","ux04nd03","0","22","1","1","3","1","","0","1","0","12359.664999879897","","","<img src = 'targets/mask.png' width = '100%;'>","68","neg","CS","CS","2","category2/CS2.png","","targets/16.png","indirect","0","7"
"","html-keyboard-response","171","773818","0.0-10.0-0.8","2utcay5yvz","many_one","0","direct_first","1","ux04nd03","0","22","1","1","3","1","","0","1","0","null","","","<div style=""font-size:60px;"">+</div>","null","","","","","","","","","",""
"","html-keyboard-response","172","773933","0.0-10.0-1.8","2utcay5yvz","many_one","0","direct_first","1","ux04nd03","0","22","1","1","3","1","","0","1","0","null","","","<img src = 'category1/CS3.png' width = '100%;'>","null","","","","","","","","","",""
"","html-keyboard-response","173","774200","0.0-10.0-2.8","2utcay5yvz","many_one","0","direct_first","1","ux04nd03","0","22","1","1","3","1","","0","1","0","null","","","<img src = 'targets/44.png' width = '100%;'>","null","","","","","","","","","",""
"","html-keyboard-response","174","775838","0.0-10.0-3.8","2utcay5yvz","many_one","0","direct_first","1","ux04nd03","0","22","1","1","3","1","","0","1","0","1636.6449999623","","","<img src = 'targets/mask.png' width = '100%;'>","75","pos","CS","CS","1","category1/CS3.png","","targets/44.png","indirect","1","8"
"","html-keyboard-response","175","777351","0.0-10.0-0.9","2utcay5yvz","many_one","0","direct_first","1","ux04nd03","0","22","1","1","3","1","","0","1","0","null","","","<div style=""font-size:60px;"">+</div>","null","","","","","","","","","",""
"","html-keyboard-response","176","777443","0.0-10.0-1.9","2utcay5yvz","many_one","0","direct_first","1","ux04nd03","0","22","1","1","3","1","","0","1","0","null","","","<img src = 'category3/CS8.png' width = '100%;'>","null","","","","","","","","","",""
"","html-keyboard-response","177","777709","0.0-10.0-2.9","2utcay5yvz","many_one","0","direct_first","1","ux04nd03","0","22","1","1","3","1","","0","1","0","null","","","<img src = 'targets/6.png' width = '100%;'>","null","","","","","","","","","",""
"","html-keyboard-response","178","779048","0.0-10.0-3.9","2utcay5yvz","many_one","0","direct_first","1","ux04nd03","0","22","1","1","3","1","","0","1","0","1337.1549998410046","","","<img src = 'targets/mask.png' width = '100%;'>","68","pos","GS","GSold","3","category3/CS8.png","","targets/6.png","indirect","0","9"
"","html-keyboard-response","179","780578","0.0-10.0-0.10","2utcay5yvz","many_one","0","direct_first","1","ux04nd03","0","22","1","1","3","1","","0","1","0","null","","","<div style=""font-size:60px;"">+</div>","null","","","","","","","","","",""
"","html-keyboard-response","180","780675","0.0-10.0-1.10","2utcay5yvz","many_one","0","direct_first","1","ux04nd03","0","22","1","1","3","1","","0","1","0","null","","","<img src = 'category4/CS3.png' width = '100%;'>","null","","","","","","","","","",""
"","html-keyboard-response","181","780948","0.0-10.0-2.10","2utcay5yvz","many_one","0","direct_first","1","ux04nd03","0","22","1","1","3","1","","0","1","0","null","","","<img src = 'targets/2.png' width = '100%;'>","null","","","","","","","","","",""
"","html-keyboard-response","182","783018","0.0-10.0-3.10","2utcay5yvz","many_one","0","direct_first","1","ux04nd03","0","22","1","1","3","1","","0","1","0","2068.6999999452382","","","<img src = 'targets/mask.png' width = '100%;'>","68","neg","CS","CS","4","category4/CS3.png","","targets/2.png","indirect","0","10"
"","html-keyboard-response","183","784535","0.0-10.0-0.11","2utcay5yvz","many_one","0","direct_first","1","ux04nd03","0","22","1","1","3","1","","0","1","0","null","","","<div style=""font-size:60px;"">+</div>","null","","","","","","","","","",""
"","html-keyboard-response","184","784631","0.0-10.0-1.11","2utcay5yvz","many_one","0","direct_first","1","ux04nd03","0","22","1","1","3","1","","0","1","0","null","","","<img src = 'category4/CS9.png' width = '100%;'>","null","","","","","","","","","",""
"","html-keyboard-response","185","784894","0.0-10.0-2.11","2utcay5yvz","many_one","0","direct_first","1","ux04nd03","0","22","1","1","3","1","","0","1","0","null","","","<img src = 'targets/3.png' width = '100%;'>","null","","","","","","","","","",""
"","html-keyboard-response","186","786978","0.0-10.0-3.11","2utcay5yvz","many_one","0","direct_first","1","ux04nd03","0","22","1","1","3","1","","0","1","0","2082.6050001196563","","","<img src = 'targets/mask.png' width = '100%;'>","75","neg","GS","GSold","4","category4/CS9.png","","targets/3.png","indirect","1","11"
"","html-keyboard-response","187","788507","0.0-10.0-0.12","2utcay5yvz","many_one","0","direct_first","1","ux04nd03","0","22","1","1","3","1","","0","1","0","null","","","<div style=""font-size:60px;"">+</div>","null","","","","","","","","","",""
"","html-keyboard-response","188","788604","0.0-10.0-1.12","2utcay5yvz","many_one","0","direct_first","1","ux04nd03","0","22","1","1","3","1","","0","1","0","null","","","<img src = 'category3/CS9.png' width = '100%;'>","null","","","","","","","","","",""
"","html-keyboard-response","189","788867","0.0-10.0-2.12","2utcay5yvz","many_one","0","direct_first","1","ux04nd03","0","22","1","1","3","1","","0","1","0","null","","","<img src = 'targets/15.png' width = '100%;'>","null","","","","","","","","","",""
"","html-keyboard-response","190","791619","0.0-10.0-3.12","2utcay5yvz","many_one","0","direct_first","1","ux04nd03","0","22","1","1","3","1","","0","1","0","2749.264999991283","","","<img src = 'targets/mask.png' width = '100%;'>","75","pos","CS","CS","3","category3/CS9.png","","targets/15.png","indirect","1","12"
"","html-keyboard-response","191","793144","0.0-10.0-0.13","2utcay5yvz","many_one","0","direct_first","1","ux04nd03","0","22","1","1","3","1","","0","1","0","null","","","<div style=""font-size:60px;"">+</div>","null","","","","","","","","","",""
"","html-keyboard-response","192","793236","0.0-10.0-1.13","2utcay5yvz","many_one","0","direct_first","1","ux04nd03","0","22","1","1","3","1","","0","1","0","null","","","<img src = 'category4/CS4.png' width = '100%;'>","null","","","","","","","","","",""
"","html-keyboard-response","193","793515","0.0-10.0-2.13","2utcay5yvz","many_one","0","direct_first","1","ux04nd03","0","22","1","1","3","1","","0","1","0","null","","","<img src = 'targets/12.png' width = '100%;'>","null","","","","","","","","","",""
"","html-keyboard-response","194","795660","0.0-10.0-3.13","2utcay5yvz","many_one","0","direct_first","1","ux04nd03","0","22","1","1","3","1","","0","1","0","2143.510000081733","","","<img src = 'targets/mask.png' width = '100%;'>","75","neg","GS","GSold","4","category4/CS4.png","","targets/12.png","indirect","1","13"
"","html-keyboard-response","195","797175","0.0-10.0-0.14","2utcay5yvz","many_one","0","direct_first","1","ux04nd03","0","22","1","1","3","1","","0","1","0","null","","","<div style=""font-size:60px;"">+</div>","null","","","","","","","","","",""
"","html-keyboard-response","196","797268","0.0-10.0-1.14","2utcay5yvz","many_one","0","direct_first","1","ux04nd03","0","22","1","1","3","1","","0","1","0","null","","","<img src = 'category3/CS10.png' width = '100%;'>","null","","","","","","","","","",""
"","html-keyboard-response","197","797534","0.0-10.0-2.14","2utcay5yvz","many_one","0","direct_first","1","ux04nd03","0","22","1","1","3","1","","0","1","0","null","","","<img src = 'targets/21.png' width = '100%;'>","null","","","","","","","","","",""
"","html-keyboard-response","198","799839","0.0-10.0-3.14","2utcay5yvz","many_one","0","direct_first","1","ux04nd03","0","22","1","1","3","1","","0","1","0","2303.474999964237","","","<img src = 'targets/mask.png' width = '100%;'>","68","pos","CS","CS","3","category3/CS10.png","","targets/21.png","indirect","0","14"
"","html-keyboard-response","199","801365","0.0-10.0-0.15","2utcay5yvz","many_one","0","direct_first","1","ux04nd03","0","22","1","1","3","1","","0","1","0","null","","","<div style=""font-size:60px;"">+</div>","null","","","","","","","","","",""
"","html-keyboard-response","200","801471","0.0-10.0-1.15","2utcay5yvz","many_one","0","direct_first","1","ux04nd03","0","22","1","1","3","1","","0","1","0","null","","","<img src = 'category4/CS7.png' width = '100%;'>","null","","","","","","","","","",""
"","html-keyboard-response","201","801732","0.0-10.0-2.15","2utcay5yvz","many_one","0","direct_first","1","ux04nd03","0","22","1","1","3","1","","0","1","0","null","","","<img src = 'targets/43.png' width = '100%;'>","null","","","","","","","","","",""
"","html-keyboard-response","202","804190","0.0-10.0-3.15","2utcay5yvz","many_one","0","direct_first","1","ux04nd03","0","22","1","1","3","1","","0","1","0","2456.3800001051277","","","<img src = 'targets/mask.png' width = '100%;'>","75","neg","CS","CS","4","category4/CS7.png","","targets/43.png","indirect","1","15"
"","html-keyboard-response","203","805714","0.0-10.0-0.16","2utcay5yvz","many_one","0","direct_first","1","ux04nd03","0","22","1","1","3","1","","0","1","0","null","","","<div style=""font-size:60px;"">+</div>","null","","","","","","","","","",""
"","html-keyboard-response","204","805807","0.0-10.0-1.16","2utcay5yvz","many_one","0","direct_first","1","ux04nd03","0","22","1","1","3","1","","0","1","0","null","","","<img src = 'category4/CS2.png' width = '100%;'>","null","","","","","","","","","",""
"","html-keyboard-response","205","806088","0.0-10.0-2.16","2utcay5yvz","many_one","0","direct_first","1","ux04nd03","0","22","1","1","3","1","","0","1","0","null","","","<img src = 'targets/27.png' width = '100%;'>","null","","","","","","","","","",""
"","html-keyboard-response","206","809041","0.0-10.0-3.16","2utcay5yvz","many_one","0","direct_first","1","ux04nd03","0","22","1","1","3","1","","0","1","0","2951.0699999518692","","","<img src = 'targets/mask.png' width = '100%;'>","75","neg","GS","GSold","4","category4/CS2.png","","targets/27.png","indirect","1","16"
"","html-keyboard-response","207","810552","0.0-10.0-0.17","2utcay5yvz","many_one","0","direct_first","1","ux04nd03","0","22","1","1","3","1","","0","1","0","null","","","<div style=""font-size:60px;"">+</div>","null","","","","","","","","","",""
"","html-keyboard-response","208","810651","0.0-10.0-1.17","2utcay5yvz","many_one","0","direct_first","1","ux04nd03","0","22","1","1","3","1","","0","1","0","null","","","<img src = 'category3/CS4.png' width = '100%;'>","null","","","","","","","","","",""
"","html-keyboard-response","209","810909","0.0-10.0-2.17","2utcay5yvz","many_one","0","direct_first","1","ux04nd03","0","22","1","1","3","1","","0","1","0","null","","","<img src = 'targets/42.png' width = '100%;'>","null","","","","","","","","","",""
"","html-keyboard-response","210","812841","0.0-10.0-3.17","2utcay5yvz","many_one","0","direct_first","1","ux04nd03","0","22","1","1","3","1","","0","1","0","1929.1150001809","","","<img src = 'targets/mask.png' width = '100%;'>","68","pos","CS","CS","3","category3/CS4.png","","targets/42.png","indirect","0","17"
"","html-keyboard-response","211","814362","0.0-10.0-0.18","2utcay5yvz","many_one","0","direct_first","1","ux04nd03","0","22","1","1","3","1","","0","1","0","null","","","<div style=""font-size:60px;"">+</div>","null","","","","","","","","","",""
"","html-keyboard-response","212","814460","0.0-10.0-1.18","2utcay5yvz","many_one","0","direct_first","1","ux04nd03","0","22","1","1","3","1","","0","1","0","null","","","<img src = 'category2/CS1.png' width = '100%;'>","null","","","","","","","","","",""
"","html-keyboard-response","213","814736","0.0-10.0-2.18","2utcay5yvz","many_one","0","direct_first","1","ux04nd03","0","22","1","1","3","1","","0","1","0","null","","","<img src = 'targets/18.png' width = '100%;'>","null","","","","","","","","","",""
"","html-keyboard-response","214","817461","0.0-10.0-3.18","2utcay5yvz","many_one","0","direct_first","1","ux04nd03","0","22","1","1","3","1","","0","1","0","2723.299999954179","","","<img src = 'targets/mask.png' width = '100%;'>","68","neg","CS","CS","2","category2/CS1.png","","targets/18.png","indirect","0","18"
"","html-keyboard-response","215","818991","0.0-10.0-0.19","2utcay5yvz","many_one","0","direct_first","1","ux04nd03","0","22","1","1","3","1","","0","1","0","null","","","<div style=""font-size:60px;"">+</div>","null","","","","","","","","","",""
"","html-keyboard-response","216","819097","0.0-10.0-1.19","2utcay5yvz","many_one","0","direct_first","1","ux04nd03","0","22","1","1","3","1","","0","1","0","null","","","<img src = 'category4/CS10.png' width = '100%;'>","null","","","","","","","","","",""
"","html-keyboard-response","217","819357","0.0-10.0-2.19","2utcay5yvz","many_one","0","direct_first","1","ux04nd03","0","22","1","1","3","1","","0","1","0","null","","","<img src = 'targets/29.png' width = '100%;'>","null","","","","","","","","","",""
"","html-keyboard-response","218","821511","0.0-10.0-3.19","2utcay5yvz","many_one","0","direct_first","1","ux04nd03","0","22","1","1","3","1","","0","1","0","2151.7600000370294","","","<img src = 'targets/mask.png' width = '100%;'>","75","neg","CS","CS","4","category4/CS10.png","","targets/29.png","indirect","1","19"
"","html-keyboard-response","219","823023","0.0-10.0-0.20","2utcay5yvz","many_one","0","direct_first","1","ux04nd03","0","22","1","1","3","1","","0","1","0","null","","","<div style=""font-size:60px;"">+</div>","null","","","","","","","","","",""
"","html-keyboard-response","220","823123","0.0-10.0-1.20","2utcay5yvz","many_one","0","direct_first","1","ux04nd03","0","22","1","1","3","1","","0","1","0","null","","","<img src = 'category1/CS7.png' width = '100%;'>","null","","","","","","","","","",""
"","html-keyboard-response","221","823383","0.0-10.0-2.20","2utcay5yvz","many_one","0","direct_first","1","ux04nd03","0","22","1","1","3","1","","0","1","0","null","","","<img src = 'targets/5.png' width = '100%;'>","null","","","","","","","","","",""
"","html-keyboard-response","222","826251","0.0-10.0-3.20","2utcay5yvz","many_one","0","direct_first","1","ux04nd03","0","22","1","1","3","1","","0","1","0","2865.7700000330806","","","<img src = 'targets/mask.png' width = '100%;'>","75","pos","CS","CS","1","category1/CS7.png","","targets/5.png","indirect","1","20"
"","html-keyboard-response","223","827766","0.0-10.0-0.21","2utcay5yvz","many_one","0","direct_first","1","ux04nd03","0","22","1","1","3","1","","0","1","0","null","","","<div style=""font-size:60px;"">+</div>","null","","","","","","","","","",""
"","html-keyboard-response","224","827863","0.0-10.0-1.21","2utcay5yvz","many_one","0","direct_first","1","ux04nd03","0","22","1","1","3","1","","0","1","0","null","","","<img src = 'category4/CS8.png' width = '100%;'>","null","","","","","","","","","",""
"","html-keyboard-response","225","828132","0.0-10.0-2.21","2utcay5yvz","many_one","0","direct_first","1","ux04nd03","0","22","1","1","3","1","","0","1","0","null","","","<img src = 'targets/48.png' width = '100%;'>","null","","","","","","","","","",""
"","html-keyboard-response","226","830041","0.0-10.0-3.21","2utcay5yvz","many_one","0","direct_first","1","ux04nd03","0","22","1","1","3","1","","0","1","0","1906.6250000614673","","","<img src = 'targets/mask.png' width = '100%;'>","75","neg","CS","CS","4","category4/CS8.png","","targets/48.png","indirect","1","21"
"","html-keyboard-response","227","831558","0.0-10.0-0.22","2utcay5yvz","many_one","0","direct_first","1","ux04nd03","0","22","1","1","3","1","","0","1","0","null","","","<div style=""font-size:60px;"">+</div>","null","","","","","","","","","",""
"","html-keyboard-response","228","831656","0.0-10.0-1.22","2utcay5yvz","many_one","0","direct_first","1","ux04nd03","0","22","1","1","3","1","","0","1","0","null","","","<img src = 'category4/CS1.png' width = '100%;'>","null","","","","","","","","","",""
"","html-keyboard-response","229","831917","0.0-10.0-2.22","2utcay5yvz","many_one","0","direct_first","1","ux04nd03","0","22","1","1","3","1","","0","1","0","null","","","<img src = 'targets/17.png' width = '100%;'>","null","","","","","","","","","",""
"","html-keyboard-response","230","834171","0.0-10.0-3.22","2utcay5yvz","many_one","0","direct_first","1","ux04nd03","0","22","1","1","3","1","","0","1","0","2252.145000034943","","","<img src = 'targets/mask.png' width = '100%;'>","68","neg","CS","CS","4","category4/CS1.png","","targets/17.png","indirect","0","22"
"","html-keyboard-response","231","835685","0.0-10.0-0.23","2utcay5yvz","many_one","0","direct_first","1","ux04nd03","0","22","1","1","3","1","","0","1","0","null","","","<div style=""font-size:60px;"">+</div>","null","","","","","","","","","",""
"","html-keyboard-response","232","835792","0.0-10.0-1.23","2utcay5yvz","many_one","0","direct_first","1","ux04nd03","0","22","1","1","3","1","","0","1","0","null","","","<img src = 'category2/CS8.png' width = '100%;'>","null","","","","","","","","","",""
"","html-keyboard-response","233","836051","0.0-10.0-2.23","2utcay5yvz","many_one","0","direct_first","1","ux04nd03","0","22","1","1","3","1","","0","1","0","null","","","<img src = 'targets/28.png' width = '100%;'>","null","","","","","","","","","",""
"","html-keyboard-response","234","838621","0.0-10.0-3.23","2utcay5yvz","many_one","0","direct_first","1","ux04nd03","0","22","1","1","3","1","","0","1","0","2567.1999999321997","","","<img src = 'targets/mask.png' width = '100%;'>","68","neg","CS","CS","2","category2/CS8.png","","targets/28.png","indirect","0","23"
"","survey-html-form","235","841704","0.0-11.0","2utcay5yvz","many_one","0","direct_first","1","ux04nd03","0","22","1","1","3","1","","0","1","0","2568.2449999731034","","{}","","","","","","","","","","","",""
"","html-keyboard-response","236","844729","0.0-12.0-0.0","2utcay5yvz","many_one","0","direct_first","1","ux04nd03","0","22","1","1","3","1","","0","1","0","null","","","<div style=""font-size:60px;"">+</div>","null","","","","","","","","","",""
"","html-keyboard-response","237","844825","0.0-12.0-1.0","2utcay5yvz","many_one","0","direct_first","1","ux04nd03","0","22","1","1","3","1","","0","1","0","null","","","<img src = 'category3/CS7.png' width = '100%;'>","null","","","","","","","","","",""
"","html-keyboard-response","238","845092","0.0-12.0-2.0","2utcay5yvz","many_one","0","direct_first","1","ux04nd03","0","22","1","1","3","1","","0","1","0","null","","","<img src = 'targets/41.png' width = '100%;'>","null","","","","","","","","","",""
"","html-keyboard-response","239","848171","0.0-12.0-3.0","2utcay5yvz","many_one","0","direct_first","1","ux04nd03","0","22","1","1","3","1","","0","1","0","3077.084999997169","","","<img src = 'targets/mask.png' width = '100%;'>","68","pos","GS","GSold","3","category3/CS7.png","","targets/41.png","indirect","0","24"
"","html-keyboard-response","240","849692","0.0-12.0-0.1","2utcay5yvz","many_one","0","direct_first","1","ux04nd03","0","22","1","1","3","1","","0","1","0","null","","","<div style=""font-size:60px;"">+</div>","null","","","","","","","","","",""
"","html-keyboard-response","241","849797","0.0-12.0-1.1","2utcay5yvz","many_one","0","direct_first","1","ux04nd03","0","22","1","1","3","1","","0","1","0","null","","","<img src = 'category1/GS1.png' width = '100%;'>","null","","","","","","","","","",""
"","html-keyboard-response","242","850069","0.0-12.0-2.1","2utcay5yvz","many_one","0","direct_first","1","ux04nd03","0","22","1","1","3","1","","0","1","0","null","","","<img src = 'targets/20.png' width = '100%;'>","null","","","","","","","","","",""
"","html-keyboard-response","243","851750","0.0-12.0-3.1","2utcay5yvz","many_one","0","direct_first","1","ux04nd03","0","22","1","1","3","1","","0","1","0","1680.4599999450147","","","<img src = 'targets/mask.png' width = '100%;'>","68","pos","GS","GSnew","1","category1/GS1.png","","targets/20.png","indirect","0","25"
"","html-keyboard-response","244","853274","0.0-12.0-0.2","2utcay5yvz","many_one","0","direct_first","1","ux04nd03","0","22","1","1","3","1","","0","1","0","null","","","<div style=""font-size:60px;"">+</div>","null","","","","","","","","","",""
"","html-keyboard-response","245","853370","0.0-12.0-1.2","2utcay5yvz","many_one","0","direct_first","1","ux04nd03","0","22","1","1","3","1","","0","1","0","null","","","<img src = 'category1/GS2.png' width = '100%;'>","null","","","","","","","","","",""
"","html-keyboard-response","246","853628","0.0-12.0-2.2","2utcay5yvz","many_one","0","direct_first","1","ux04nd03","0","22","1","1","3","1","","0","1","0","null","","","<img src = 'targets/19.png' width = '100%;'>","null","","","","","","","","","",""
"","html-keyboard-response","247","855210","0.0-12.0-3.2","2utcay5yvz","many_one","0","direct_first","1","ux04nd03","0","22","1","1","3","1","","0","1","0","1580.2299999631941","","","<img src = 'targets/mask.png' width = '100%;'>","75","pos","GS","GSnew","1","category1/GS2.png","","targets/19.png","indirect","1","26"
"","html-keyboard-response","248","856722","0.0-12.0-0.3","2utcay5yvz","many_one","0","direct_first","1","ux04nd03","0","22","1","1","3","1","","0","1","0","null","","","<div style=""font-size:60px;"">+</div>","null","","","","","","","","","",""
"","html-keyboard-response","249","856820","0.0-12.0-1.3","2utcay5yvz","many_one","0","direct_first","1","ux04nd03","0","22","1","1","3","1","","0","1","0","null","","","<img src = 'category3/CS1.png' width = '100%;'>","null","","","","","","","","","",""
"","html-keyboard-response","250","857077","0.0-12.0-2.3","2utcay5yvz","many_one","0","direct_first","1","ux04nd03","0","22","1","1","3","1","","0","1","0","null","","","<img src = 'targets/7.png' width = '100%;'>","null","","","","","","","","","",""
"","html-keyboard-response","251","858900","0.0-12.0-3.3","2utcay5yvz","many_one","0","direct_first","1","ux04nd03","0","22","1","1","3","1","","0","1","0","1821.3599999435246","","","<img src = 'targets/mask.png' width = '100%;'>","68","pos","GS","GSold","3","category3/CS1.png","","targets/7.png","indirect","0","27"
"","html-keyboard-response","252","860411","0.0-12.0-0.4","2utcay5yvz","many_one","0","direct_first","1","ux04nd03","0","22","1","1","3","1","","0","1","0","null","","","<div style=""font-size:60px;"">+</div>","null","","","","","","","","","",""
"","html-keyboard-response","253","860508","0.0-12.0-1.4","2utcay5yvz","many_one","0","direct_first","1","ux04nd03","0","22","1","1","3","1","","0","1","0","null","","","<img src = 'category3/GS1.png' width = '100%;'>","null","","","","","","","","","",""
"","html-keyboard-response","254","860791","0.0-12.0-2.4","2utcay5yvz","many_one","0","direct_first","1","ux04nd03","0","22","1","1","3","1","","0","1","0","null","","","<img src = 'targets/34.png' width = '100%;'>","null","","","","","","","","","",""
"","html-keyboard-response","255","862980","0.0-12.0-3.4","2utcay5yvz","many_one","0","direct_first","1","ux04nd03","0","22","1","1","3","1","","0","1","0","2187.4600001610816","","","<img src = 'targets/mask.png' width = '100%;'>","68","pos","GS","GSnew","3","category3/GS1.png","","targets/34.png","indirect","0","28"
"","html-keyboard-response","256","864494","0.0-12.0-0.5","2utcay5yvz","many_one","0","direct_first","1","ux04nd03","0","22","1","1","3","1","","0","1","0","null","","","<div style=""font-size:60px;"">+</div>","null","","","","","","","","","",""
"","html-keyboard-response","257","864599","0.0-12.0-1.5","2utcay5yvz","many_one","0","direct_first","1","ux04nd03","0","22","1","1","3","1","","0","1","0","null","","","<img src = 'category2/CS7.png' width = '100%;'>","null","","","","","","","","","",""
"","html-keyboard-response","258","864867","0.0-12.0-2.5","2utcay5yvz","many_one","0","direct_first","1","ux04nd03","0","22","1","1","3","1","","0","1","0","null","","","<img src = 'targets/40.png' width = '100%;'>","null","","","","","","","","","",""
"","html-keyboard-response","259","867041","0.0-12.0-3.5","2utcay5yvz","many_one","0","direct_first","1","ux04nd03","0","22","1","1","3","1","","0","1","0","2171.8500000424683","","","<img src = 'targets/mask.png' width = '100%;'>","68","neg","GS","GSold","2","category2/CS7.png","","targets/40.png","indirect","0","29"
"","html-keyboard-response","260","868569","0.0-12.0-0.6","2utcay5yvz","many_one","0","direct_first","1","ux04nd03","0","22","1","1","3","1","","0","1","0","null","","","<div style=""font-size:60px;"">+</div>","null","","","","","","","","","",""
"","html-keyboard-response","261","868667","0.0-12.0-1.6","2utcay5yvz","many_one","0","direct_first","1","ux04nd03","0","22","1","1","3","1","","0","1","0","null","","","<img src = 'category1/CS1.png' width = '100%;'>","null","","","","","","","","","",""
"","html-keyboard-response","262","868924","0.0-12.0-2.6","2utcay5yvz","many_one","0","direct_first","1","ux04nd03","0","22","1","1","3","1","","0","1","0","null","","","<img src = 'targets/9.png' width = '100%;'>","null","","","","","","","","","",""
"","html-keyboard-response","263","872041","0.0-12.0-3.6","2utcay5yvz","many_one","0","direct_first","1","ux04nd03","0","22","1","1","3","1","","0","1","0","3115.8549999818206","","","<img src = 'targets/mask.png' width = '100%;'>","75","pos","GS","GSold","1","category1/CS1.png","","targets/9.png","indirect","1","30"
"","html-keyboard-response","264","873557","0.0-12.0-0.7","2utcay5yvz","many_one","0","direct_first","1","ux04nd03","0","22","1","1","3","1","","0","1","0","null","","","<div style=""font-size:60px;"">+</div>","null","","","","","","","","","",""
"","html-keyboard-response","265","873656","0.0-12.0-1.7","2utcay5yvz","many_one","0","direct_first","1","ux04nd03","0","22","1","1","3","1","","0","1","0","null","","","<img src = 'category1/ma.png' width = '100%;'>","null","","","","","","","","","",""
"","html-keyboard-response","266","873919","0.0-12.0-2.7","2utcay5yvz","many_one","0","direct_first","1","ux04nd03","0","22","1","1","3","1","","0","1","0","null","","","<img src = 'targets/38.png' width = '100%;'>","null","","","","","","","","","",""
"","html-keyboard-response","267","879752","0.0-12.0-3.7","2utcay5yvz","many_one","0","direct_first","1","ux04nd03","0","22","1","1","3","1","","0","1","0","5830.545000033453","","","<img src = 'targets/mask.png' width = '100%;'>","68","pos","GS","abstract","1","category1/ma.png","","targets/38.png","indirect","0","31"
"","html-keyboard-response","268","881279","0.0-12.0-0.8","2utcay5yvz","many_one","0","direct_first","1","ux04nd03","0","22","1","1","3","1","","0","1","0","null","","","<div style=""font-size:60px;"">+</div>","null","","","","","","","","","",""
"","html-keyboard-response","269","881376","0.0-12.0-1.8","2utcay5yvz","many_one","0","direct_first","1","ux04nd03","0","22","1","1","3","1","","0","1","0","null","","","<img src = 'category1/CS8.png' width = '100%;'>","null","","","","","","","","","",""
"","html-keyboard-response","270","881642","0.0-12.0-2.8","2utcay5yvz","many_one","0","direct_first","1","ux04nd03","0","22","1","1","3","1","","0","1","0","null","","","<img src = 'targets/11.png' width = '100%;'>","null","","","","","","","","","",""
"","html-keyboard-response","271","883531","0.0-12.0-3.8","2utcay5yvz","many_one","0","direct_first","1","ux04nd03","0","22","1","1","3","1","","0","1","0","1887.2050000354648","","","<img src = 'targets/mask.png' width = '100%;'>","68","pos","GS","GSold","1","category1/CS8.png","","targets/11.png","indirect","0","32"
"","html-keyboard-response","272","885044","0.0-12.0-0.9","2utcay5yvz","many_one","0","direct_first","1","ux04nd03","0","22","1","1","3","1","","0","1","0","null","","","<div style=""font-size:60px;"">+</div>","null","","","","","","","","","",""
"","html-keyboard-response","273","885141","0.0-12.0-1.9","2utcay5yvz","many_one","0","direct_first","1","ux04nd03","0","22","1","1","3","1","","0","1","0","null","","","<img src = 'category4/GS2.png' width = '100%;'>","null","","","","","","","","","",""
"","html-keyboard-response","274","885398","0.0-12.0-2.9","2utcay5yvz","many_one","0","direct_first","1","ux04nd03","0","22","1","1","3","1","","0","1","0","null","","","<img src = 'targets/25.png' width = '100%;'>","null","","","","","","","","","",""
"","html-keyboard-response","275","886681","0.0-12.0-3.9","2utcay5yvz","many_one","0","direct_first","1","ux04nd03","0","22","1","1","3","1","","0","1","0","1281.734999967739","","","<img src = 'targets/mask.png' width = '100%;'>","75","neg","GS","GSnew","4","category4/GS2.png","","targets/25.png","indirect","1","33"
"","html-keyboard-response","276","888193","0.0-12.0-0.10","2utcay5yvz","many_one","0","direct_first","1","ux04nd03","0","22","1","1","3","1","","0","1","0","null","","","<div style=""font-size:60px;"">+</div>","null","","","","","","","","","",""
"","html-keyboard-response","277","888291","0.0-12.0-1.10","2utcay5yvz","many_one","0","direct_first","1","ux04nd03","0","22","1","1","3","1","","0","1","0","null","","","<img src = 'category2/GS2.png' width = '100%;'>","null","","","","","","","","","",""
"","html-keyboard-response","278","888556","0.0-12.0-2.10","2utcay5yvz","many_one","0","direct_first","1","ux04nd03","0","22","1","1","3","1","","0","1","0","null","","","<img src = 'targets/8.png' width = '100%;'>","null","","","","","","","","","",""
"","html-keyboard-response","279","889791","0.0-12.0-3.10","2utcay5yvz","many_one","0","direct_first","1","ux04nd03","0","22","1","1","3","1","","0","1","0","1232.9949999693781","","","<img src = 'targets/mask.png' width = '100%;'>","75","neg","GS","GSnew","2","category2/GS2.png","","targets/8.png","indirect","1","34"
"","html-keyboard-response","280","891307","0.0-12.0-0.11","2utcay5yvz","many_one","0","direct_first","1","ux04nd03","0","22","1","1","3","1","","0","1","0","null","","","<div style=""font-size:60px;"">+</div>","null","","","","","","","","","",""
"","html-keyboard-response","281","891405","0.0-12.0-1.11","2utcay5yvz","many_one","0","direct_first","1","ux04nd03","0","22","1","1","3","1","","0","1","0","null","","","<img src = 'category2/GS1.png' width = '100%;'>","null","","","","","","","","","",""
"","html-keyboard-response","282","891670","0.0-12.0-2.11","2utcay5yvz","many_one","0","direct_first","1","ux04nd03","0","22","1","1","3","1","","0","1","0","null","","","<img src = 'targets/31.png' width = '100%;'>","null","","","","","","","","","",""
"","html-keyboard-response","283","893121","0.0-12.0-3.11","2utcay5yvz","many_one","0","direct_first","1","ux04nd03","0","22","1","1","3","1","","0","1","0","1450.1649998128414","","","<img src = 'targets/mask.png' width = '100%;'>","75","neg","GS","GSnew","2","category2/GS1.png","","targets/31.png","indirect","1","35"
"","html-keyboard-response","284","894633","0.0-12.0-0.12","2utcay5yvz","many_one","0","direct_first","1","ux04nd03","0","22","1","1","3","1","","0","1","0","null","","","<div style=""font-size:60px;"">+</div>","null","","","","","","","","","",""
"","html-keyboard-response","285","894730","0.0-12.0-1.12","2utcay5yvz","many_one","0","direct_first","1","ux04nd03","0","22","1","1","3","1","","0","1","0","null","","","<img src = 'category2/GS3.png' width = '100%;'>","null","","","","","","","","","",""
"","html-keyboard-response","286","894998","0.0-12.0-2.12","2utcay5yvz","many_one","0","direct_first","1","ux04nd03","0","22","1","1","3","1","","0","1","0","null","","","<img src = 'targets/32.png' width = '100%;'>","null","","","","","","","","","",""
"","html-keyboard-response","287","896921","0.0-12.0-3.12","2utcay5yvz","many_one","0","direct_first","1","ux04nd03","0","22","1","1","3","1","","0","1","0","1921.715000178665","","","<img src = 'targets/mask.png' width = '100%;'>","68","neg","GS","GSnew","2","category2/GS3.png","","targets/32.png","indirect","0","36"
"","html-keyboard-response","288","898451","0.0-12.0-0.13","2utcay5yvz","many_one","0","direct_first","1","ux04nd03","0","22","1","1","3","1","","0","1","0","null","","","<div style=""font-size:60px;"">+</div>","null","","","","","","","","","",""
"","html-keyboard-response","289","898548","0.0-12.0-1.13","2utcay5yvz","many_one","0","direct_first","1","ux04nd03","0","22","1","1","3","1","","0","1","0","null","","","<img src = 'category3/wang.png' width = '100%;'>","null","","","","","","","","","",""
"","html-keyboard-response","290","898811","0.0-12.0-2.13","2utcay5yvz","many_one","0","direct_first","1","ux04nd03","0","22","1","1","3","1","","0","1","0","null","","","<img src = 'targets/13.png' width = '100%;'>","null","","","","","","","","","",""
"","html-keyboard-response","291","899791","0.0-12.0-3.13","2utcay5yvz","many_one","0","direct_first","1","ux04nd03","0","22","1","1","3","1","","0","1","0","978.0349999200553","","","<img src = 'targets/mask.png' width = '100%;'>","75","pos","GS","abstract","3","category3/wang.png","","targets/13.png","indirect","1","37"
"","html-keyboard-response","292","901313","0.0-12.0-0.14","2utcay5yvz","many_one","0","direct_first","1","ux04nd03","0","22","1","1","3","1","","0","1","0","null","","","<div style=""font-size:60px;"">+</div>","null","","","","","","","","","",""
"","html-keyboard-response","293","901409","0.0-12.0-1.14","2utcay5yvz","many_one","0","direct_first","1","ux04nd03","0","22","1","1","3","1","","0","1","0","null","","","<img src = 'category1/CS4.png' width = '100%;'>","null","","","","","","","","","",""
"","html-keyboard-response","294","901678","0.0-12.0-2.14","2utcay5yvz","many_one","0","direct_first","1","ux04nd03","0","22","1","1","3","1","","0","1","0","null","","","<img src = 'targets/23.png' width = '100%;'>","null","","","","","","","","","",""
"","html-keyboard-response","295","903691","0.0-12.0-3.14","2utcay5yvz","many_one","0","direct_first","1","ux04nd03","0","22","1","1","3","1","","0","1","0","2011.6850000340492","","","<img src = 'targets/mask.png' width = '100%;'>","75","pos","GS","GSold","1","category1/CS4.png","","targets/23.png","indirect","1","38"
"","html-keyboard-response","296","905202","0.0-12.0-0.15","2utcay5yvz","many_one","0","direct_first","1","ux04nd03","0","22","1","1","3","1","","0","1","0","null","","","<div style=""font-size:60px;"">+</div>","null","","","","","","","","","",""
"","html-keyboard-response","297","905299","0.0-12.0-1.15","2utcay5yvz","many_one","0","direct_first","1","ux04nd03","0","22","1","1","3","1","","0","1","0","null","","","<img src = 'category2/CS5.png' width = '100%;'>","null","","","","","","","","","",""
"","html-keyboard-response","298","905568","0.0-12.0-2.15","2utcay5yvz","many_one","0","direct_first","1","ux04nd03","0","22","1","1","3","1","","0","1","0","null","","","<img src = 'targets/47.png' width = '100%;'>","null","","","","","","","","","",""
"","html-keyboard-response","299","906702","0.0-12.0-3.15","2utcay5yvz","many_one","0","direct_first","1","ux04nd03","0","22","1","1","3","1","","0","1","0","1131.8500000052154","","","<img src = 'targets/mask.png' width = '100%;'>","68","neg","GS","GSold","2","category2/CS5.png","","targets/47.png","indirect","0","39"
"","html-keyboard-response","300","908207","0.0-12.0-0.16","2utcay5yvz","many_one","0","direct_first","1","ux04nd03","0","22","1","1","3","1","","0","1","0","null","","","<div style=""font-size:60px;"">+</div>","null","","","","","","","","","",""
"","html-keyboard-response","301","908313","0.0-12.0-1.16","2utcay5yvz","many_one","0","direct_first","1","ux04nd03","0","22","1","1","3","1","","0","1","0","null","","","<img src = 'category4/lin.png' width = '100%;'>","null","","","","","","","","","",""
"","html-keyboard-response","302","908581","0.0-12.0-2.16","2utcay5yvz","many_one","0","direct_first","1","ux04nd03","0","22","1","1","3","1","","0","1","0","null","","","<img src = 'targets/33.png' width = '100%;'>","null","","","","","","","","","",""
"","html-keyboard-response","303","910142","0.0-12.0-3.16","2utcay5yvz","many_one","0","direct_first","1","ux04nd03","0","22","1","1","3","1","","0","1","0","1559.235000051558","","","<img src = 'targets/mask.png' width = '100%;'>","68","neg","GS","abstract","4","category4/lin.png","","targets/33.png","indirect","0","40"
"","html-keyboard-response","304","911646","0.0-12.0-0.17","2utcay5yvz","many_one","0","direct_first","1","ux04nd03","0","22","1","1","3","1","","0","1","0","null","","","<div style=""font-size:60px;"">+</div>","null","","","","","","","","","",""
"","html-keyboard-response","305","911754","0.0-12.0-1.17","2utcay5yvz","many_one","0","direct_first","1","ux04nd03","0","22","1","1","3","1","","0","1","0","null","","","<img src = 'category4/GS3.png' width = '100%;'>","null","","","","","","","","","",""
"","html-keyboard-response","306","912017","0.0-12.0-2.17","2utcay5yvz","many_one","0","direct_first","1","ux04nd03","0","22","1","1","3","1","","0","1","0","null","","","<img src = 'targets/4.png' width = '100%;'>","null","","","","","","","","","",""
"","html-keyboard-response","307","913653","0.0-12.0-3.17","2utcay5yvz","many_one","0","direct_first","1","ux04nd03","0","22","1","1","3","1","","0","1","0","1633.5350000299513","","","<img src = 'targets/mask.png' width = '100%;'>","75","neg","GS","GSnew","4","category4/GS3.png","","targets/4.png","indirect","1","41"
"","html-keyboard-response","308","915163","0.0-12.0-0.18","2utcay5yvz","many_one","0","direct_first","1","ux04nd03","0","22","1","1","3","1","","0","1","0","null","","","<div style=""font-size:60px;"">+</div>","null","","","","","","","","","",""
"","html-keyboard-response","309","915268","0.0-12.0-1.18","2utcay5yvz","many_one","0","direct_first","1","ux04nd03","0","22","1","1","3","1","","0","1","0","null","","","<img src = 'category2/men.png' width = '100%;'>","null","","","","","","","","","",""
"","html-keyboard-response","310","915534","0.0-12.0-2.18","2utcay5yvz","many_one","0","direct_first","1","ux04nd03","0","22","1","1","3","1","","0","1","0","null","","","<img src = 'targets/30.png' width = '100%;'>","null","","","","","","","","","",""
"","html-keyboard-response","311","917103","0.0-12.0-3.18","2utcay5yvz","many_one","0","direct_first","1","ux04nd03","0","22","1","1","3","1","","0","1","0","1567.8250000346452","","","<img src = 'targets/mask.png' width = '100%;'>","68","neg","GS","abstract","2","category2/men.png","","targets/30.png","indirect","0","42"
"","html-keyboard-response","312","918614","0.0-12.0-0.19","2utcay5yvz","many_one","0","direct_first","1","ux04nd03","0","22","1","1","3","1","","0","1","0","null","","","<div style=""font-size:60px;"">+</div>","null","","","","","","","","","",""
"","html-keyboard-response","313","918711","0.0-12.0-1.19","2utcay5yvz","many_one","0","direct_first","1","ux04nd03","0","22","1","1","3","1","","0","1","0","null","","","<img src = 'category4/GS1.png' width = '100%;'>","null","","","","","","","","","",""
"","html-keyboard-response","314","918980","0.0-12.0-2.19","2utcay5yvz","many_one","0","direct_first","1","ux04nd03","0","22","1","1","3","1","","0","1","0","null","","","<img src = 'targets/14.png' width = '100%;'>","null","","","","","","","","","",""
"","html-keyboard-response","315","920413","0.0-12.0-3.19","2utcay5yvz","many_one","0","direct_first","1","ux04nd03","0","22","1","1","3","1","","0","1","0","1431.6099998541176","","","<img src = 'targets/mask.png' width = '100%;'>","68","neg","GS","GSnew","4","category4/GS1.png","","targets/14.png","indirect","0","43"
"","html-keyboard-response","316","921931","0.0-12.0-0.20","2utcay5yvz","many_one","0","direct_first","1","ux04nd03","0","22","1","1","3","1","","0","1","0","null","","","<div style=""font-size:60px;"">+</div>","null","","","","","","","","","",""
"","html-keyboard-response","317","922036","0.0-12.0-1.20","2utcay5yvz","many_one","0","direct_first","1","ux04nd03","0","22","1","1","3","1","","0","1","0","null","","","<img src = 'category3/GS3.png' width = '100%;'>","null","","","","","","","","","",""
"","html-keyboard-response","318","922298","0.0-12.0-2.20","2utcay5yvz","many_one","0","direct_first","1","ux04nd03","0","22","1","1","3","1","","0","1","0","null","","","<img src = 'targets/46.png' width = '100%;'>","null","","","","","","","","","",""
"","html-keyboard-response","319","924003","0.0-12.0-3.20","2utcay5yvz","many_one","0","direct_first","1","ux04nd03","0","22","1","1","3","1","","0","1","0","1703.6749999970198","","","<img src = 'targets/mask.png' width = '100%;'>","68","pos","GS","GSnew","3","category3/GS3.png","","targets/46.png","indirect","0","44"
"","html-keyboard-response","320","925526","0.0-12.0-0.21","2utcay5yvz","many_one","0","direct_first","1","ux04nd03","0","22","1","1","3","1","","0","1","0","null","","","<div style=""font-size:60px;"">+</div>","null","","","","","","","","","",""
"","html-keyboard-response","321","925632","0.0-12.0-1.21","2utcay5yvz","many_one","0","direct_first","1","ux04nd03","0","22","1","1","3","1","","0","1","0","null","","","<img src = 'category2/CS6.png' width = '100%;'>","null","","","","","","","","","",""
"","html-keyboard-response","322","925898","0.0-12.0-2.21","2utcay5yvz","many_one","0","direct_first","1","ux04nd03","0","22","1","1","3","1","","0","1","0","null","","","<img src = 'targets/22.png' width = '100%;'>","null","","","","","","","","","",""
"","html-keyboard-response","323","931174","0.0-12.0-3.21","2utcay5yvz","many_one","0","direct_first","1","ux04nd03","0","22","1","1","3","1","","0","1","0","5274.154999991879","","","<img src = 'targets/mask.png' width = '100%;'>","75","neg","GS","GSold","2","category2/CS6.png","","targets/22.png","indirect","1","45"
"","html-keyboard-response","324","932685","0.0-12.0-0.22","2utcay5yvz","many_one","0","direct_first","1","ux04nd03","0","22","1","1","3","1","","0","1","0","null","","","<div style=""font-size:60px;"">+</div>","null","","","","","","","","","",""
"","html-keyboard-response","325","932792","0.0-12.0-1.22","2utcay5yvz","many_one","0","direct_first","1","ux04nd03","0","22","1","1","3","1","","0","1","0","null","","","<img src = 'category1/GS3.png' width = '100%;'>","null","","","","","","","","","",""
"","html-keyboard-response","326","933055","0.0-12.0-2.22","2utcay5yvz","many_one","0","direct_first","1","ux04nd03","0","22","1","1","3","1","","0","1","0","null","","","<img src = 'targets/36.png' width = '100%;'>","null","","","","","","","","","",""
"","html-keyboard-response","327","936064","0.0-12.0-3.22","2utcay5yvz","many_one","0","direct_first","1","ux04nd03","0","22","1","1","3","1","","0","1","0","3007.895000046119","","","<img src = 'targets/mask.png' width = '100%;'>","68","pos","GS","GSnew","1","category1/GS3.png","","targets/36.png","indirect","0","46"
