"success","trial_type","trial_index","time_elapsed","internal_node_id","subject","condition","condition_code","measure","measure_code","codeword","gender","age","education","chinese","fach","handedness","comment","hinschauen","ablenkung","gewissenhaft","rt","url","responses","stimulus","key_press","val","type","type_specific","category","cs_selected","response","target","task","indirect","nr_pres"
"true","fullscreen","0","17282","0.0-0.0","s05vde9xst","one_one","1","direct_first","1","CK07IN27","0","22","1","1","1","1","","0","1","0","","","","","","","","","","","","","","",""
"","external-html","1","32740","0.0-1.0","s05vde9xst","one_one","1","direct_first","1","CK07IN27","0","22","1","1","1","1","","0","1","0","15388.615000003483","text/information.html","","","","","","","","","","","","",""
"","external-html","2","39751","0.0-2.0","s05vde9xst","one_one","1","direct_first","1","CK07IN27","0","22","1","1","1","1","","0","1","0","6934.069999988424","text/consent.html","","","","","","","","","","","","",""
"","survey-html-form","3","67145","0.0-3.0","s05vde9xst","one_one","1","direct_first","1","CK07IN27","0","22","1","1","1","1","","0","1","0","27377.030000003288","","{""codeword_enter"":""CK07IN27""}","","","","","","","","","","","",""
"","survey-html-form","4","82367","0.0-4.0","s05vde9xst","one_one","1","direct_first","1","CK07IN27","0","22","1","1","1","1","","0","1","0","15201.494999986608","","{""age"":""22"",""education"":""1"",""subject"":""1"",""gender"":""0"",""handedness"":""1"",""chinese"":""1""}","","","","","","","","","","","",""
"","survey-html-form","5","86199","0.0-5.0","s05vde9xst","one_one","1","direct_first","1","CK07IN27","0","22","1","1","1","1","","0","1","0","3814.054999995278","","{}","","","","","","","","","","","",""
"","html-keyboard-response","6","90209","0.0-6.0-0.0-0.0","s05vde9xst","one_one","1","direct_first","1","CK07IN27","0","22","1","1","1","1","","0","1","0","null","","","<div class = 'row'><div class = 'column'><img src = 'category1/CS10.png' width = '70%;'></div><div class = 'column'><img src = 'usneg/9421.bmp' width = '100%;'></div></div>","null","neg","CS","CS","1","category1/CS10.png","","","","",""
"","html-keyboard-response","7","92717","0.0-6.0-0.0-0.1","s05vde9xst","one_one","1","direct_first","1","CK07IN27","0","22","1","1","1","1","","0","1","0","null","","","<div class = 'row'><div class = 'column'><img src = 'category3/CS9.png' width = '70%;'></div><div class = 'column'><img src = 'uspos/2550.bmp' width = '100%;'></div></div>","null","pos","CS","CS","3","category3/CS9.png","","","","",""
"","html-keyboard-response","8","95226","0.0-6.0-0.0-0.2","s05vde9xst","one_one","1","direct_first","1","CK07IN27","0","22","1","1","1","1","","0","1","0","null","","","<div class = 'row'><div class = 'column'><img src = 'uspos/8540.bmp' width = '100%;'></div><div class = 'column'><img src = 'category4/CS2.png' width = '70%;'></div></div>","null","pos","CS","CS","4","category4/CS2.png","","","","",""
"","html-keyboard-response","9","97735","0.0-6.0-0.0-0.3","s05vde9xst","one_one","1","direct_first","1","CK07IN27","0","22","1","1","1","1","","0","1","0","null","","","<div class = 'row'><div class = 'column'><img src = 'category2/CS9.png' width = '70%;'></div><div class = 'column'><img src = 'usneg/9000.bmp' width = '100%;'></div></div>","null","neg","CS","CS","2","category2/CS9.png","","","","",""
"","html-keyboard-response","10","100243","0.0-6.0-0.0-0.4","s05vde9xst","one_one","1","direct_first","1","CK07IN27","0","22","1","1","1","1","","0","1","0","null","","","<div class = 'row'><div class = 'column'><img src = 'category4/CS2.png' width = '70%;'></div><div class = 'column'><img src = 'uspos/8540.bmp' width = '100%;'></div></div>","null","pos","CS","CS","4","category4/CS2.png","","","","",""
"","html-keyboard-response","11","102755","0.0-6.0-0.0-0.5","s05vde9xst","one_one","1","direct_first","1","CK07IN27","0","22","1","1","1","1","","0","1","0","null","","","<div class = 'row'><div class = 'column'><img src = 'category1/CS10.png' width = '70%;'></div><div class = 'column'><img src = 'usneg/9421.bmp' width = '100%;'></div></div>","null","neg","CS","CS","1","category1/CS10.png","","","","",""
"","html-keyboard-response","12","105263","0.0-6.0-0.0-0.6","s05vde9xst","one_one","1","direct_first","1","CK07IN27","0","22","1","1","1","1","","0","1","0","null","","","<div class = 'row'><div class = 'column'><img src = 'usneg/9000.bmp' width = '100%;'></div><div class = 'column'><img src = 'category2/CS9.png' width = '70%;'></div></div>","null","neg","CS","CS","2","category2/CS9.png","","","","",""
"","html-keyboard-response","13","107770","0.0-6.0-0.0-0.7","s05vde9xst","one_one","1","direct_first","1","CK07IN27","0","22","1","1","1","1","","0","1","0","null","","","<div class = 'row'><div class = 'column'><img src = 'category4/CS2.png' width = '70%;'></div><div class = 'column'><img src = 'uspos/8540.bmp' width = '100%;'></div></div>","null","pos","CS","CS","4","category4/CS2.png","","","","",""
"","html-keyboard-response","14","110280","0.0-6.0-0.0-0.8","s05vde9xst","one_one","1","direct_first","1","CK07IN27","0","22","1","1","1","1","","0","1","0","null","","","<div class = 'row'><div class = 'column'><img src = 'category3/CS9.png' width = '70%;'></div><div class = 'column'><img src = 'uspos/2550.bmp' width = '100%;'></div></div>","null","pos","CS","CS","3","category3/CS9.png","","","","",""
"","html-keyboard-response","15","112784","0.0-6.0-0.0-0.9","s05vde9xst","one_one","1","direct_first","1","CK07IN27","0","22","1","1","1","1","","0","1","0","null","","","<div class = 'row'><div class = 'column'><img src = 'category2/CS9.png' width = '70%;'></div><div class = 'column'><img src = 'usneg/9000.bmp' width = '100%;'></div></div>","null","neg","CS","CS","2","category2/CS9.png","","","","",""
"","html-keyboard-response","16","115291","0.0-6.0-0.0-0.10","s05vde9xst","one_one","1","direct_first","1","CK07IN27","0","22","1","1","1","1","","0","1","0","null","","","<div class = 'row'><div class = 'column'><img src = 'uspos/2550.bmp' width = '100%;'></div><div class = 'column'><img src = 'category3/CS9.png' width = '70%;'></div></div>","null","pos","CS","CS","3","category3/CS9.png","","","","",""
"","html-keyboard-response","17","117799","0.0-6.0-0.0-0.11","s05vde9xst","one_one","1","direct_first","1","CK07IN27","0","22","1","1","1","1","","0","1","0","null","","","<div class = 'row'><div class = 'column'><img src = 'category4/CS2.png' width = '70%;'></div><div class = 'column'><img src = 'uspos/8540.bmp' width = '100%;'></div></div>","null","pos","CS","CS","4","category4/CS2.png","","","","",""
"","html-keyboard-response","18","120311","0.0-6.0-0.0-0.12","s05vde9xst","one_one","1","direct_first","1","CK07IN27","0","22","1","1","1","1","","0","1","0","null","","","<div class = 'row'><div class = 'column'><img src = 'category2/CS9.png' width = '70%;'></div><div class = 'column'><img src = 'usneg/9000.bmp' width = '100%;'></div></div>","null","neg","CS","CS","2","category2/CS9.png","","","","",""
"","html-keyboard-response","19","122820","0.0-6.0-0.0-0.13","s05vde9xst","one_one","1","direct_first","1","CK07IN27","0","22","1","1","1","1","","0","1","0","null","","","<div class = 'row'><div class = 'column'><img src = 'uspos/2550.bmp' width = '100%;'></div><div class = 'column'><img src = 'category3/CS9.png' width = '70%;'></div></div>","null","pos","CS","CS","3","category3/CS9.png","","","","",""
"","html-keyboard-response","20","125328","0.0-6.0-0.0-0.14","s05vde9xst","one_one","1","direct_first","1","CK07IN27","0","22","1","1","1","1","","0","1","0","null","","","<div class = 'row'><div class = 'column'><img src = 'usneg/9421.bmp' width = '100%;'></div><div class = 'column'><img src = 'category1/CS10.png' width = '70%;'></div></div>","null","neg","CS","CS","1","category1/CS10.png","","","","",""
"","html-keyboard-response","21","127836","0.0-6.0-0.0-0.15","s05vde9xst","one_one","1","direct_first","1","CK07IN27","0","22","1","1","1","1","","0","1","0","null","","","<div class = 'row'><div class = 'column'><img src = 'usneg/9000.bmp' width = '100%;'></div><div class = 'column'><img src = 'category2/CS9.png' width = '70%;'></div></div>","null","neg","CS","CS","2","category2/CS9.png","","","","",""
"","html-keyboard-response","22","130344","0.0-6.0-0.0-0.16","s05vde9xst","one_one","1","direct_first","1","CK07IN27","0","22","1","1","1","1","","0","1","0","null","","","<div class = 'row'><div class = 'column'><img src = 'usneg/9421.bmp' width = '100%;'></div><div class = 'column'><img src = 'category1/CS10.png' width = '70%;'></div></div>","null","neg","CS","CS","1","category1/CS10.png","","","","",""
"","html-keyboard-response","23","132853","0.0-6.0-0.0-0.17","s05vde9xst","one_one","1","direct_first","1","CK07IN27","0","22","1","1","1","1","","0","1","0","null","","","<div class = 'row'><div class = 'column'><img src = 'category3/CS9.png' width = '70%;'></div><div class = 'column'><img src = 'uspos/2550.bmp' width = '100%;'></div></div>","null","pos","CS","CS","3","category3/CS9.png","","","","",""
"","html-keyboard-response","24","135360","0.0-6.0-0.0-0.18","s05vde9xst","one_one","1","direct_first","1","CK07IN27","0","22","1","1","1","1","","0","1","0","null","","","<div class = 'row'><div class = 'column'><img src = 'usneg/9421.bmp' width = '100%;'></div><div class = 'column'><img src = 'category1/CS10.png' width = '70%;'></div></div>","null","neg","CS","CS","1","category1/CS10.png","","","","",""
"","html-keyboard-response","25","137869","0.0-6.0-0.0-0.19","s05vde9xst","one_one","1","direct_first","1","CK07IN27","0","22","1","1","1","1","","0","1","0","null","","","<div class = 'row'><div class = 'column'><img src = 'category4/CS2.png' width = '70%;'></div><div class = 'column'><img src = 'uspos/8540.bmp' width = '100%;'></div></div>","null","pos","CS","CS","4","category4/CS2.png","","","","",""
"","survey-html-form","26","141000","0.0-6.0-1.0","s05vde9xst","one_one","1","direct_first","1","CK07IN27","0","22","1","1","1","1","","0","1","0","2627.9100000101607","","{}","","","","","","","","","","","",""
"","html-keyboard-response","27","145006","0.0-6.0-2.0-0.0","s05vde9xst","one_one","1","direct_first","1","CK07IN27","0","22","1","1","1","1","","0","1","0","null","","","<div class = 'row'><div class = 'column'><img src = 'category2/CS9.png' width = '70%;'></div><div class = 'column'><img src = 'usneg/9000.bmp' width = '100%;'></div></div>","null","neg","CS","CS","2","category2/CS9.png","","","","",""
"","html-keyboard-response","28","147512","0.0-6.0-2.0-0.1","s05vde9xst","one_one","1","direct_first","1","CK07IN27","0","22","1","1","1","1","","0","1","0","null","","","<div class = 'row'><div class = 'column'><img src = 'category1/CS10.png' width = '70%;'></div><div class = 'column'><img src = 'usneg/9421.bmp' width = '100%;'></div></div>","null","neg","CS","CS","1","category1/CS10.png","","","","",""
"","html-keyboard-response","29","150024","0.0-6.0-2.0-0.2","s05vde9xst","one_one","1","direct_first","1","CK07IN27","0","22","1","1","1","1","","0","1","0","null","","","<div class = 'row'><div class = 'column'><img src = 'uspos/8540.bmp' width = '100%;'></div><div class = 'column'><img src = 'category4/CS2.png' width = '70%;'></div></div>","null","pos","CS","CS","4","category4/CS2.png","","","","",""
"","html-keyboard-response","30","152536","0.0-6.0-2.0-0.3","s05vde9xst","one_one","1","direct_first","1","CK07IN27","0","22","1","1","1","1","","0","1","0","null","","","<div class = 'row'><div class = 'column'><img src = 'uspos/2550.bmp' width = '100%;'></div><div class = 'column'><img src = 'category3/CS9.png' width = '70%;'></div></div>","null","pos","CS","CS","3","category3/CS9.png","","","","",""
"","html-keyboard-response","31","155044","0.0-6.0-2.0-0.4","s05vde9xst","one_one","1","direct_first","1","CK07IN27","0","22","1","1","1","1","","0","1","0","null","","","<div class = 'row'><div class = 'column'><img src = 'usneg/9421.bmp' width = '100%;'></div><div class = 'column'><img src = 'category1/CS10.png' width = '70%;'></div></div>","null","neg","CS","CS","1","category1/CS10.png","","","","",""
"","html-keyboard-response","32","157551","0.0-6.0-2.0-0.5","s05vde9xst","one_one","1","direct_first","1","CK07IN27","0","22","1","1","1","1","","0","1","0","null","","","<div class = 'row'><div class = 'column'><img src = 'uspos/8540.bmp' width = '100%;'></div><div class = 'column'><img src = 'category4/CS2.png' width = '70%;'></div></div>","null","pos","CS","CS","4","category4/CS2.png","","","","",""
"","html-keyboard-response","33","160059","0.0-6.0-2.0-0.6","s05vde9xst","one_one","1","direct_first","1","CK07IN27","0","22","1","1","1","1","","0","1","0","null","","","<div class = 'row'><div class = 'column'><img src = 'usneg/9000.bmp' width = '100%;'></div><div class = 'column'><img src = 'category2/CS9.png' width = '70%;'></div></div>","null","neg","CS","CS","2","category2/CS9.png","","","","",""
"","html-keyboard-response","34","162568","0.0-6.0-2.0-0.7","s05vde9xst","one_one","1","direct_first","1","CK07IN27","0","22","1","1","1","1","","0","1","0","null","","","<div class = 'row'><div class = 'column'><img src = 'category1/CS10.png' width = '70%;'></div><div class = 'column'><img src = 'usneg/9421.bmp' width = '100%;'></div></div>","null","neg","CS","CS","1","category1/CS10.png","","","","",""
"","html-keyboard-response","35","165076","0.0-6.0-2.0-0.8","s05vde9xst","one_one","1","direct_first","1","CK07IN27","0","22","1","1","1","1","","0","1","0","null","","","<div class = 'row'><div class = 'column'><img src = 'category3/CS9.png' width = '70%;'></div><div class = 'column'><img src = 'uspos/2550.bmp' width = '100%;'></div></div>","null","pos","CS","CS","3","category3/CS9.png","","","","",""
"","html-keyboard-response","36","167581","0.0-6.0-2.0-0.9","s05vde9xst","one_one","1","direct_first","1","CK07IN27","0","22","1","1","1","1","","0","1","0","null","","","<div class = 'row'><div class = 'column'><img src = 'category2/CS9.png' width = '70%;'></div><div class = 'column'><img src = 'usneg/9000.bmp' width = '100%;'></div></div>","null","neg","CS","CS","2","category2/CS9.png","","","","",""
"","html-keyboard-response","37","170088","0.0-6.0-2.0-0.10","s05vde9xst","one_one","1","direct_first","1","CK07IN27","0","22","1","1","1","1","","0","1","0","null","","","<div class = 'row'><div class = 'column'><img src = 'uspos/8540.bmp' width = '100%;'></div><div class = 'column'><img src = 'category4/CS2.png' width = '70%;'></div></div>","null","pos","CS","CS","4","category4/CS2.png","","","","",""
"","html-keyboard-response","38","172594","0.0-6.0-2.0-0.11","s05vde9xst","one_one","1","direct_first","1","CK07IN27","0","22","1","1","1","1","","0","1","0","null","","","<div class = 'row'><div class = 'column'><img src = 'usneg/9000.bmp' width = '100%;'></div><div class = 'column'><img src = 'category2/CS9.png' width = '70%;'></div></div>","null","neg","CS","CS","2","category2/CS9.png","","","","",""
"","html-keyboard-response","39","175098","0.0-6.0-2.0-0.12","s05vde9xst","one_one","1","direct_first","1","CK07IN27","0","22","1","1","1","1","","0","1","0","null","","","<div class = 'row'><div class = 'column'><img src = 'usneg/9421.bmp' width = '100%;'></div><div class = 'column'><img src = 'category1/CS10.png' width = '70%;'></div></div>","null","neg","CS","CS","1","category1/CS10.png","","","","",""
"","html-keyboard-response","40","177604","0.0-6.0-2.0-0.13","s05vde9xst","one_one","1","direct_first","1","CK07IN27","0","22","1","1","1","1","","0","1","0","null","","","<div class = 'row'><div class = 'column'><img src = 'usneg/9000.bmp' width = '100%;'></div><div class = 'column'><img src = 'category2/CS9.png' width = '70%;'></div></div>","null","neg","CS","CS","2","category2/CS9.png","","","","",""
"","html-keyboard-response","41","180108","0.0-6.0-2.0-0.14","s05vde9xst","one_one","1","direct_first","1","CK07IN27","0","22","1","1","1","1","","0","1","0","null","","","<div class = 'row'><div class = 'column'><img src = 'category4/CS2.png' width = '70%;'></div><div class = 'column'><img src = 'uspos/8540.bmp' width = '100%;'></div></div>","null","pos","CS","CS","4","category4/CS2.png","","","","",""
"","html-keyboard-response","42","182618","0.0-6.0-2.0-0.15","s05vde9xst","one_one","1","direct_first","1","CK07IN27","0","22","1","1","1","1","","0","1","0","null","","","<div class = 'row'><div class = 'column'><img src = 'uspos/2550.bmp' width = '100%;'></div><div class = 'column'><img src = 'category3/CS9.png' width = '70%;'></div></div>","null","pos","CS","CS","3","category3/CS9.png","","","","",""
"","html-keyboard-response","43","185124","0.0-6.0-2.0-0.16","s05vde9xst","one_one","1","direct_first","1","CK07IN27","0","22","1","1","1","1","","0","1","0","null","","","<div class = 'row'><div class = 'column'><img src = 'uspos/8540.bmp' width = '100%;'></div><div class = 'column'><img src = 'category4/CS2.png' width = '70%;'></div></div>","null","pos","CS","CS","4","category4/CS2.png","","","","",""
"","html-keyboard-response","44","187630","0.0-6.0-2.0-0.17","s05vde9xst","one_one","1","direct_first","1","CK07IN27","0","22","1","1","1","1","","0","1","0","null","","","<div class = 'row'><div class = 'column'><img src = 'category3/CS9.png' width = '70%;'></div><div class = 'column'><img src = 'uspos/2550.bmp' width = '100%;'></div></div>","null","pos","CS","CS","3","category3/CS9.png","","","","",""
"","html-keyboard-response","45","190134","0.0-6.0-2.0-0.18","s05vde9xst","one_one","1","direct_first","1","CK07IN27","0","22","1","1","1","1","","0","1","0","null","","","<div class = 'row'><div class = 'column'><img src = 'usneg/9421.bmp' width = '100%;'></div><div class = 'column'><img src = 'category1/CS10.png' width = '70%;'></div></div>","null","neg","CS","CS","1","category1/CS10.png","","","","",""
"","html-keyboard-response","46","192643","0.0-6.0-2.0-0.19","s05vde9xst","one_one","1","direct_first","1","CK07IN27","0","22","1","1","1","1","","0","1","0","null","","","<div class = 'row'><div class = 'column'><img src = 'category3/CS9.png' width = '70%;'></div><div class = 'column'><img src = 'uspos/2550.bmp' width = '100%;'></div></div>","null","pos","CS","CS","3","category3/CS9.png","","","","",""
"","survey-html-form","47","195798","0.0-6.0-3.0","s05vde9xst","one_one","1","direct_first","1","CK07IN27","0","22","1","1","1","1","","0","1","0","2650.0799999921583","","{}","","","","","","","","","","","",""
"","html-keyboard-response","48","199808","0.0-6.0-4.0-0.0","s05vde9xst","one_one","1","direct_first","1","CK07IN27","0","22","1","1","1","1","","0","1","0","null","","","<div class = 'row'><div class = 'column'><img src = 'category4/CS2.png' width = '70%;'></div><div class = 'column'><img src = 'uspos/8540.bmp' width = '100%;'></div></div>","null","pos","CS","CS","4","category4/CS2.png","","","","",""
"","html-keyboard-response","49","202315","0.0-6.0-4.0-0.1","s05vde9xst","one_one","1","direct_first","1","CK07IN27","0","22","1","1","1","1","","0","1","0","null","","","<div class = 'row'><div class = 'column'><img src = 'uspos/2550.bmp' width = '100%;'></div><div class = 'column'><img src = 'category3/CS9.png' width = '70%;'></div></div>","null","pos","CS","CS","3","category3/CS9.png","","","","",""
"","html-keyboard-response","50","204824","0.0-6.0-4.0-0.2","s05vde9xst","one_one","1","direct_first","1","CK07IN27","0","22","1","1","1","1","","0","1","0","null","","","<div class = 'row'><div class = 'column'><img src = 'usneg/9421.bmp' width = '100%;'></div><div class = 'column'><img src = 'category1/CS10.png' width = '70%;'></div></div>","null","neg","CS","CS","1","category1/CS10.png","","","","",""
"","html-keyboard-response","51","207331","0.0-6.0-4.0-0.3","s05vde9xst","one_one","1","direct_first","1","CK07IN27","0","22","1","1","1","1","","0","1","0","null","","","<div class = 'row'><div class = 'column'><img src = 'uspos/2550.bmp' width = '100%;'></div><div class = 'column'><img src = 'category3/CS9.png' width = '70%;'></div></div>","null","pos","CS","CS","3","category3/CS9.png","","","","",""
"","html-keyboard-response","52","209841","0.0-6.0-4.0-0.4","s05vde9xst","one_one","1","direct_first","1","CK07IN27","0","22","1","1","1","1","","0","1","0","null","","","<div class = 'row'><div class = 'column'><img src = 'usneg/9000.bmp' width = '100%;'></div><div class = 'column'><img src = 'category2/CS9.png' width = '70%;'></div></div>","null","neg","CS","CS","2","category2/CS9.png","","","","",""
"","html-keyboard-response","53","212355","0.0-6.0-4.0-0.5","s05vde9xst","one_one","1","direct_first","1","CK07IN27","0","22","1","1","1","1","","0","1","0","null","","","<div class = 'row'><div class = 'column'><img src = 'category3/CS9.png' width = '70%;'></div><div class = 'column'><img src = 'uspos/2550.bmp' width = '100%;'></div></div>","null","pos","CS","CS","3","category3/CS9.png","","","","",""
"","html-keyboard-response","54","214867","0.0-6.0-4.0-0.6","s05vde9xst","one_one","1","direct_first","1","CK07IN27","0","22","1","1","1","1","","0","1","0","null","","","<div class = 'row'><div class = 'column'><img src = 'usneg/9421.bmp' width = '100%;'></div><div class = 'column'><img src = 'category1/CS10.png' width = '70%;'></div></div>","null","neg","CS","CS","1","category1/CS10.png","","","","",""
"","html-keyboard-response","55","217375","0.0-6.0-4.0-0.7","s05vde9xst","one_one","1","direct_first","1","CK07IN27","0","22","1","1","1","1","","0","1","0","null","","","<div class = 'row'><div class = 'column'><img src = 'uspos/8540.bmp' width = '100%;'></div><div class = 'column'><img src = 'category4/CS2.png' width = '70%;'></div></div>","null","pos","CS","CS","4","category4/CS2.png","","","","",""
"","html-keyboard-response","56","219883","0.0-6.0-4.0-0.8","s05vde9xst","one_one","1","direct_first","1","CK07IN27","0","22","1","1","1","1","","0","1","0","null","","","<div class = 'row'><div class = 'column'><img src = 'category1/CS10.png' width = '70%;'></div><div class = 'column'><img src = 'usneg/9421.bmp' width = '100%;'></div></div>","null","neg","CS","CS","1","category1/CS10.png","","","","",""
"","html-keyboard-response","57","222390","0.0-6.0-4.0-0.9","s05vde9xst","one_one","1","direct_first","1","CK07IN27","0","22","1","1","1","1","","0","1","0","null","","","<div class = 'row'><div class = 'column'><img src = 'category4/CS2.png' width = '70%;'></div><div class = 'column'><img src = 'uspos/8540.bmp' width = '100%;'></div></div>","null","pos","CS","CS","4","category4/CS2.png","","","","",""
"","html-keyboard-response","58","224902","0.0-6.0-4.0-0.10","s05vde9xst","one_one","1","direct_first","1","CK07IN27","0","22","1","1","1","1","","0","1","0","null","","","<div class = 'row'><div class = 'column'><img src = 'category2/CS9.png' width = '70%;'></div><div class = 'column'><img src = 'usneg/9000.bmp' width = '100%;'></div></div>","null","neg","CS","CS","2","category2/CS9.png","","","","",""
"","html-keyboard-response","59","227407","0.0-6.0-4.0-0.11","s05vde9xst","one_one","1","direct_first","1","CK07IN27","0","22","1","1","1","1","","0","1","0","null","","","<div class = 'row'><div class = 'column'><img src = 'category4/CS2.png' width = '70%;'></div><div class = 'column'><img src = 'uspos/8540.bmp' width = '100%;'></div></div>","null","pos","CS","CS","4","category4/CS2.png","","","","",""
"","html-keyboard-response","60","229915","0.0-6.0-4.0-0.12","s05vde9xst","one_one","1","direct_first","1","CK07IN27","0","22","1","1","1","1","","0","1","0","null","","","<div class = 'row'><div class = 'column'><img src = 'category3/CS9.png' width = '70%;'></div><div class = 'column'><img src = 'uspos/2550.bmp' width = '100%;'></div></div>","null","pos","CS","CS","3","category3/CS9.png","","","","",""
"","html-keyboard-response","61","232423","0.0-6.0-4.0-0.13","s05vde9xst","one_one","1","direct_first","1","CK07IN27","0","22","1","1","1","1","","0","1","0","null","","","<div class = 'row'><div class = 'column'><img src = 'usneg/9000.bmp' width = '100%;'></div><div class = 'column'><img src = 'category2/CS9.png' width = '70%;'></div></div>","null","neg","CS","CS","2","category2/CS9.png","","","","",""
"","html-keyboard-response","62","234931","0.0-6.0-4.0-0.14","s05vde9xst","one_one","1","direct_first","1","CK07IN27","0","22","1","1","1","1","","0","1","0","null","","","<div class = 'row'><div class = 'column'><img src = 'category1/CS10.png' width = '70%;'></div><div class = 'column'><img src = 'usneg/9421.bmp' width = '100%;'></div></div>","null","neg","CS","CS","1","category1/CS10.png","","","","",""
"","html-keyboard-response","63","237438","0.0-6.0-4.0-0.15","s05vde9xst","one_one","1","direct_first","1","CK07IN27","0","22","1","1","1","1","","0","1","0","null","","","<div class = 'row'><div class = 'column'><img src = 'category4/CS2.png' width = '70%;'></div><div class = 'column'><img src = 'uspos/8540.bmp' width = '100%;'></div></div>","null","pos","CS","CS","4","category4/CS2.png","","","","",""
"","html-keyboard-response","64","239948","0.0-6.0-4.0-0.16","s05vde9xst","one_one","1","direct_first","1","CK07IN27","0","22","1","1","1","1","","0","1","0","null","","","<div class = 'row'><div class = 'column'><img src = 'usneg/9000.bmp' width = '100%;'></div><div class = 'column'><img src = 'category2/CS9.png' width = '70%;'></div></div>","null","neg","CS","CS","2","category2/CS9.png","","","","",""
"","html-keyboard-response","65","242455","0.0-6.0-4.0-0.17","s05vde9xst","one_one","1","direct_first","1","CK07IN27","0","22","1","1","1","1","","0","1","0","null","","","<div class = 'row'><div class = 'column'><img src = 'uspos/2550.bmp' width = '100%;'></div><div class = 'column'><img src = 'category3/CS9.png' width = '70%;'></div></div>","null","pos","CS","CS","3","category3/CS9.png","","","","",""
"","html-keyboard-response","66","244966","0.0-6.0-4.0-0.18","s05vde9xst","one_one","1","direct_first","1","CK07IN27","0","22","1","1","1","1","","0","1","0","null","","","<div class = 'row'><div class = 'column'><img src = 'usneg/9421.bmp' width = '100%;'></div><div class = 'column'><img src = 'category1/CS10.png' width = '70%;'></div></div>","null","neg","CS","CS","1","category1/CS10.png","","","","",""
"","html-keyboard-response","67","247473","0.0-6.0-4.0-0.19","s05vde9xst","one_one","1","direct_first","1","CK07IN27","0","22","1","1","1","1","","0","1","0","null","","","<div class = 'row'><div class = 'column'><img src = 'category2/CS9.png' width = '70%;'></div><div class = 'column'><img src = 'usneg/9000.bmp' width = '100%;'></div></div>","null","neg","CS","CS","2","category2/CS9.png","","","","",""
"","survey-html-form","68","250047","0.0-6.0-5.0","s05vde9xst","one_one","1","direct_first","1","CK07IN27","0","22","1","1","1","1","","0","1","0","2068.104999983916","","{}","","","","","","","","","","","",""
"","html-keyboard-response","69","254060","0.0-6.0-6.0-0.0","s05vde9xst","one_one","1","direct_first","1","CK07IN27","0","22","1","1","1","1","","0","1","0","null","","","<div class = 'row'><div class = 'column'><img src = 'category4/CS2.png' width = '70%;'></div><div class = 'column'><img src = 'uspos/8540.bmp' width = '100%;'></div></div>","null","pos","CS","CS","4","category4/CS2.png","","","","",""
"","html-keyboard-response","70","256568","0.0-6.0-6.0-0.1","s05vde9xst","one_one","1","direct_first","1","CK07IN27","0","22","1","1","1","1","","0","1","0","null","","","<div class = 'row'><div class = 'column'><img src = 'category3/CS9.png' width = '70%;'></div><div class = 'column'><img src = 'uspos/2550.bmp' width = '100%;'></div></div>","null","pos","CS","CS","3","category3/CS9.png","","","","",""
"","html-keyboard-response","71","259075","0.0-6.0-6.0-0.2","s05vde9xst","one_one","1","direct_first","1","CK07IN27","0","22","1","1","1","1","","0","1","0","null","","","<div class = 'row'><div class = 'column'><img src = 'category2/CS9.png' width = '70%;'></div><div class = 'column'><img src = 'usneg/9000.bmp' width = '100%;'></div></div>","null","neg","CS","CS","2","category2/CS9.png","","","","",""
"","html-keyboard-response","72","261581","0.0-6.0-6.0-0.3","s05vde9xst","one_one","1","direct_first","1","CK07IN27","0","22","1","1","1","1","","0","1","0","null","","","<div class = 'row'><div class = 'column'><img src = 'usneg/9421.bmp' width = '100%;'></div><div class = 'column'><img src = 'category1/CS10.png' width = '70%;'></div></div>","null","neg","CS","CS","1","category1/CS10.png","","","","",""
"","html-keyboard-response","73","264091","0.0-6.0-6.0-0.4","s05vde9xst","one_one","1","direct_first","1","CK07IN27","0","22","1","1","1","1","","0","1","0","null","","","<div class = 'row'><div class = 'column'><img src = 'uspos/2550.bmp' width = '100%;'></div><div class = 'column'><img src = 'category3/CS9.png' width = '70%;'></div></div>","null","pos","CS","CS","3","category3/CS9.png","","","","",""
"","html-keyboard-response","74","266602","0.0-6.0-6.0-0.5","s05vde9xst","one_one","1","direct_first","1","CK07IN27","0","22","1","1","1","1","","0","1","0","null","","","<div class = 'row'><div class = 'column'><img src = 'uspos/8540.bmp' width = '100%;'></div><div class = 'column'><img src = 'category4/CS2.png' width = '70%;'></div></div>","null","pos","CS","CS","4","category4/CS2.png","","","","",""
"","html-keyboard-response","75","269111","0.0-6.0-6.0-0.6","s05vde9xst","one_one","1","direct_first","1","CK07IN27","0","22","1","1","1","1","","0","1","0","null","","","<div class = 'row'><div class = 'column'><img src = 'category2/CS9.png' width = '70%;'></div><div class = 'column'><img src = 'usneg/9000.bmp' width = '100%;'></div></div>","null","neg","CS","CS","2","category2/CS9.png","","","","",""
"","html-keyboard-response","76","271623","0.0-6.0-6.0-0.7","s05vde9xst","one_one","1","direct_first","1","CK07IN27","0","22","1","1","1","1","","0","1","0","null","","","<div class = 'row'><div class = 'column'><img src = 'category3/CS9.png' width = '70%;'></div><div class = 'column'><img src = 'uspos/2550.bmp' width = '100%;'></div></div>","null","pos","CS","CS","3","category3/CS9.png","","","","",""
"","html-keyboard-response","77","274131","0.0-6.0-6.0-0.8","s05vde9xst","one_one","1","direct_first","1","CK07IN27","0","22","1","1","1","1","","0","1","0","null","","","<div class = 'row'><div class = 'column'><img src = 'category2/CS9.png' width = '70%;'></div><div class = 'column'><img src = 'usneg/9000.bmp' width = '100%;'></div></div>","null","neg","CS","CS","2","category2/CS9.png","","","","",""
"","html-keyboard-response","78","276642","0.0-6.0-6.0-0.9","s05vde9xst","one_one","1","direct_first","1","CK07IN27","0","22","1","1","1","1","","0","1","0","null","","","<div class = 'row'><div class = 'column'><img src = 'category1/CS10.png' width = '70%;'></div><div class = 'column'><img src = 'usneg/9421.bmp' width = '100%;'></div></div>","null","neg","CS","CS","1","category1/CS10.png","","","","",""
"","html-keyboard-response","79","279149","0.0-6.0-6.0-0.10","s05vde9xst","one_one","1","direct_first","1","CK07IN27","0","22","1","1","1","1","","0","1","0","null","","","<div class = 'row'><div class = 'column'><img src = 'category4/CS2.png' width = '70%;'></div><div class = 'column'><img src = 'uspos/8540.bmp' width = '100%;'></div></div>","null","pos","CS","CS","4","category4/CS2.png","","","","",""
"","html-keyboard-response","80","281658","0.0-6.0-6.0-0.11","s05vde9xst","one_one","1","direct_first","1","CK07IN27","0","22","1","1","1","1","","0","1","0","null","","","<div class = 'row'><div class = 'column'><img src = 'category1/CS10.png' width = '70%;'></div><div class = 'column'><img src = 'usneg/9421.bmp' width = '100%;'></div></div>","null","neg","CS","CS","1","category1/CS10.png","","","","",""
"","html-keyboard-response","81","284169","0.0-6.0-6.0-0.12","s05vde9xst","one_one","1","direct_first","1","CK07IN27","0","22","1","1","1","1","","0","1","0","null","","","<div class = 'row'><div class = 'column'><img src = 'category3/CS9.png' width = '70%;'></div><div class = 'column'><img src = 'uspos/2550.bmp' width = '100%;'></div></div>","null","pos","CS","CS","3","category3/CS9.png","","","","",""
"","html-keyboard-response","82","286676","0.0-6.0-6.0-0.13","s05vde9xst","one_one","1","direct_first","1","CK07IN27","0","22","1","1","1","1","","0","1","0","null","","","<div class = 'row'><div class = 'column'><img src = 'category1/CS10.png' width = '70%;'></div><div class = 'column'><img src = 'usneg/9421.bmp' width = '100%;'></div></div>","null","neg","CS","CS","1","category1/CS10.png","","","","",""
"","html-keyboard-response","83","289186","0.0-6.0-6.0-0.14","s05vde9xst","one_one","1","direct_first","1","CK07IN27","0","22","1","1","1","1","","0","1","0","null","","","<div class = 'row'><div class = 'column'><img src = 'category4/CS2.png' width = '70%;'></div><div class = 'column'><img src = 'uspos/8540.bmp' width = '100%;'></div></div>","null","pos","CS","CS","4","category4/CS2.png","","","","",""
"","html-keyboard-response","84","291694","0.0-6.0-6.0-0.15","s05vde9xst","one_one","1","direct_first","1","CK07IN27","0","22","1","1","1","1","","0","1","0","null","","","<div class = 'row'><div class = 'column'><img src = 'category1/CS10.png' width = '70%;'></div><div class = 'column'><img src = 'usneg/9421.bmp' width = '100%;'></div></div>","null","neg","CS","CS","1","category1/CS10.png","","","","",""
"","html-keyboard-response","85","294201","0.0-6.0-6.0-0.16","s05vde9xst","one_one","1","direct_first","1","CK07IN27","0","22","1","1","1","1","","0","1","0","null","","","<div class = 'row'><div class = 'column'><img src = 'category2/CS9.png' width = '70%;'></div><div class = 'column'><img src = 'usneg/9000.bmp' width = '100%;'></div></div>","null","neg","CS","CS","2","category2/CS9.png","","","","",""
"","html-keyboard-response","86","296712","0.0-6.0-6.0-0.17","s05vde9xst","one_one","1","direct_first","1","CK07IN27","0","22","1","1","1","1","","0","1","0","null","","","<div class = 'row'><div class = 'column'><img src = 'category4/CS2.png' width = '70%;'></div><div class = 'column'><img src = 'uspos/8540.bmp' width = '100%;'></div></div>","null","pos","CS","CS","4","category4/CS2.png","","","","",""
"","html-keyboard-response","87","299221","0.0-6.0-6.0-0.18","s05vde9xst","one_one","1","direct_first","1","CK07IN27","0","22","1","1","1","1","","0","1","0","null","","","<div class = 'row'><div class = 'column'><img src = 'usneg/9000.bmp' width = '100%;'></div><div class = 'column'><img src = 'category2/CS9.png' width = '70%;'></div></div>","null","neg","CS","CS","2","category2/CS9.png","","","","",""
"","html-keyboard-response","88","301728","0.0-6.0-6.0-0.19","s05vde9xst","one_one","1","direct_first","1","CK07IN27","0","22","1","1","1","1","","0","1","0","null","","","<div class = 'row'><div class = 'column'><img src = 'category3/CS9.png' width = '70%;'></div><div class = 'column'><img src = 'uspos/2550.bmp' width = '100%;'></div></div>","null","pos","CS","CS","3","category3/CS9.png","","","","",""
"","survey-html-form","89","307511","0.0-7.0","s05vde9xst","one_one","1","direct_first","1","CK07IN27","0","22","1","1","1","1","","0","1","0","5276.809999981197","","{}","","","","","","","","","","","",""
"","image-slider-response","90","314346","0.0-8.0-0.0","s05vde9xst","one_one","1","direct_first","1","CK07IN27","0","22","1","1","1","1","","0","1","0","4825.659999973141","","","","","neg","GS","GSnew","2","category2/GS2.png","-48","targets/32.png","direct","",""
"","image-slider-response","91","317791","0.0-8.0-0.1","s05vde9xst","one_one","1","direct_first","1","CK07IN27","0","22","1","1","1","1","","0","1","0","3440.9100000048056","","","","","neg","CS","CS","1","category1/CS10.png","-58","targets/33.png","direct","",""
"","image-slider-response","92","320076","0.0-8.0-0.2","s05vde9xst","one_one","1","direct_first","1","CK07IN27","0","22","1","1","1","1","","0","1","0","2281.2550000089686","","","","","neg","GS","GSnew","1","category1/GS1.png","-1","targets/11.png","direct","",""
"","image-slider-response","93","322632","0.0-8.0-0.3","s05vde9xst","one_one","1","direct_first","1","CK07IN27","0","22","1","1","1","1","","0","1","0","2552.125000016531","","","","","pos","GS","GSold","4","category4/CS7.png","40","targets/24.png","direct","",""
"","image-slider-response","94","325695","0.0-8.0-0.4","s05vde9xst","one_one","1","direct_first","1","CK07IN27","0","22","1","1","1","1","","0","1","0","3059.9849999998696","","","","","pos","GS","GSold","3","category3/CS4.png","-74","targets/6.png","direct","",""
"","image-slider-response","95","328288","0.0-8.0-0.5","s05vde9xst","one_one","1","direct_first","1","CK07IN27","0","22","1","1","1","1","","0","1","0","2588.159999984782","","","","","neg","CS","CS","2","category2/CS9.png","-61","targets/5.png","direct","",""
"","image-slider-response","96","330789","0.0-8.0-0.6","s05vde9xst","one_one","1","direct_first","1","CK07IN27","0","22","1","1","1","1","","0","1","0","2497.460000013234","","","","","neg","GS","GSold","1","category1/CS6.png","50","targets/13.png","direct","",""
"","image-slider-response","97","332857","0.0-8.0-0.7","s05vde9xst","one_one","1","direct_first","1","CK07IN27","0","22","1","1","1","1","","0","1","0","2065.3349999920465","","","","","neg","GS","abstract","1","category1/ma.png","30","targets/8.png","direct","",""
"","image-slider-response","98","335053","0.0-8.0-0.8","s05vde9xst","one_one","1","direct_first","1","CK07IN27","0","22","1","1","1","1","","0","1","0","2192.269999999553","","","","","neg","GS","abstract","2","category2/men.png","49","targets/16.png","direct","",""
"","image-slider-response","99","337431","0.0-8.0-0.9","s05vde9xst","one_one","1","direct_first","1","CK07IN27","0","22","1","1","1","1","","0","1","0","2374.339999980293","","","","","pos","CS","CS","4","category4/CS2.png","87","targets/47.png","direct","",""
"","image-slider-response","100","340557","0.0-8.0-0.10","s05vde9xst","one_one","1","direct_first","1","CK07IN27","0","22","1","1","1","1","","0","1","0","3122.9699999967124","","","","","neg","GS","GSnew","1","category1/GS2.png","31","targets/4.png","direct","",""
"","image-slider-response","101","343148","0.0-8.0-0.11","s05vde9xst","one_one","1","direct_first","1","CK07IN27","0","22","1","1","1","1","","0","1","0","2586.7399999988265","","","","","neg","GS","GSold","2","category2/CS7.png","-54","targets/19.png","direct","",""
"","image-slider-response","102","345586","0.0-8.0-0.12","s05vde9xst","one_one","1","direct_first","1","CK07IN27","0","22","1","1","1","1","","0","1","0","2434.11499998183","","","","","pos","CS","CS","3","category3/CS9.png","-45","targets/9.png","direct","",""
"","image-slider-response","103","348151","0.0-8.0-0.13","s05vde9xst","one_one","1","direct_first","1","CK07IN27","0","22","1","1","1","1","","0","1","0","2561.8949999916367","","","","","pos","GS","GSnew","3","category3/GS1.png","-16","targets/26.png","direct","",""
"","image-slider-response","104","350538","0.0-8.0-0.14","s05vde9xst","one_one","1","direct_first","1","CK07IN27","0","22","1","1","1","1","","0","1","0","2383.029999997234","","","","","neg","GS","GSnew","2","category2/GS3.png","38","targets/20.png","direct","",""
"","image-slider-response","105","352836","0.0-8.0-0.15","s05vde9xst","one_one","1","direct_first","1","CK07IN27","0","22","1","1","1","1","","0","1","0","2294.339999993099","","","","","pos","GS","GSnew","4","category4/GS2.png","74","targets/29.png","direct","",""
"","image-slider-response","106","355351","0.0-8.0-0.16","s05vde9xst","one_one","1","direct_first","1","CK07IN27","0","22","1","1","1","1","","0","1","0","2511.2800000060815","","","","","pos","GS","GSnew","3","category3/GS3.png","74","targets/23.png","direct","",""
"","image-slider-response","107","357941","0.0-8.0-0.17","s05vde9xst","one_one","1","direct_first","1","CK07IN27","0","22","1","1","1","1","","0","1","0","2586.219999997411","","","","","neg","GS","GSnew","2","category2/GS1.png","45","targets/3.png","direct","",""
"","image-slider-response","108","360214","0.0-8.0-0.18","s05vde9xst","one_one","1","direct_first","1","CK07IN27","0","22","1","1","1","1","","0","1","0","2269.1349999804515","","","","","pos","GS","GSold","3","category3/CS6.png","75","targets/25.png","direct","",""
"","image-slider-response","109","362971","0.0-8.0-0.19","s05vde9xst","one_one","1","direct_first","1","CK07IN27","0","22","1","1","1","1","","0","1","0","2753.9899999974295","","","","","pos","GS","abstract","3","category3/wang.png","37","targets/45.png","direct","",""
"","image-slider-response","110","365383","0.0-8.0-0.20","s05vde9xst","one_one","1","direct_first","1","CK07IN27","0","22","1","1","1","1","","0","1","0","2408.720000006724","","","","","pos","GS","GSnew","4","category4/GS1.png","-44","targets/1.png","direct","",""
"","image-slider-response","111","368003","0.0-8.0-0.21","s05vde9xst","one_one","1","direct_first","1","CK07IN27","0","22","1","1","1","1","","0","1","0","2615.929999999935","","","","","pos","GS","abstract","4","category4/lin.png","67","targets/48.png","direct","",""
"","image-slider-response","112","370364","0.0-8.0-0.22","s05vde9xst","one_one","1","direct_first","1","CK07IN27","0","22","1","1","1","1","","0","1","0","2357.625000004191","","","","","neg","GS","GSnew","1","category1/GS3.png","73","targets/35.png","direct","",""
"","image-slider-response","113","372991","0.0-8.0-0.23","s05vde9xst","one_one","1","direct_first","1","CK07IN27","0","22","1","1","1","1","","0","1","0","2622.7249999938067","","","","","neg","GS","GSold","1","category1/CS7.png","75","targets/12.png","direct","",""
"","image-slider-response","114","375582","0.0-8.0-0.24","s05vde9xst","one_one","1","direct_first","1","CK07IN27","0","22","1","1","1","1","","0","1","0","2588.01500001573","","","","","pos","GS","GSnew","3","category3/GS2.png","-55","targets/30.png","direct","",""
"","image-slider-response","115","377855","0.0-8.0-0.25","s05vde9xst","one_one","1","direct_first","1","CK07IN27","0","22","1","1","1","1","","0","1","0","2269.865000009304","","","","","neg","GS","GSold","2","category2/CS10.png","-52","targets/27.png","direct","",""
"","image-slider-response","116","381159","0.0-8.0-0.26","s05vde9xst","one_one","1","direct_first","1","CK07IN27","0","22","1","1","1","1","","0","1","0","3299.9549999949522","","","","","pos","GS","GSold","4","category4/CS9.png","-1","targets/28.png","direct","",""
"","image-slider-response","117","383483","0.0-8.0-0.27","s05vde9xst","one_one","1","direct_first","1","CK07IN27","0","22","1","1","1","1","","0","1","0","2320.5099999904633","","","","","pos","GS","GSold","4","category4/CS5.png","-66","targets/2.png","direct","",""
"","image-slider-response","118","385894","0.0-8.0-0.28","s05vde9xst","one_one","1","direct_first","1","CK07IN27","0","22","1","1","1","1","","0","1","0","2408.0100000137463","","","","","pos","GS","GSold","3","category3/CS2.png","-32","targets/17.png","direct","",""
"","image-slider-response","119","388117","0.0-8.0-0.29","s05vde9xst","one_one","1","direct_first","1","CK07IN27","0","22","1","1","1","1","","0","1","0","2218.6950000177603","","","","","pos","GS","GSnew","4","category4/GS3.png","-69","targets/22.png","direct","",""
"","image-slider-response","120","390936","0.0-8.0-0.30","s05vde9xst","one_one","1","direct_first","1","CK07IN27","0","22","1","1","1","1","","0","1","0","2816.0050000005867","","","","","neg","GS","GSold","2","category2/CS6.png","29","targets/40.png","direct","",""
"","image-slider-response","121","392902","0.0-8.0-0.31","s05vde9xst","one_one","1","direct_first","1","CK07IN27","0","22","1","1","1","1","","0","1","0","1962.2849999868777","","","","","neg","GS","GSold","1","category1/CS1.png","-46","targets/42.png","direct","",""
"","html-keyboard-response","122","406146","0.0-9.0","s05vde9xst","one_one","1","direct_first","1","CK07IN27","0","22","1","1","1","1","","0","1","0","13241.084999986924","","","<p>Sie sehen nun die chinesischen Zeichen nur ganz kurz. Danach sehen Sie die jeweilige Aussprache der Zeichen als Silbe auf dem Bildschrim. Ihre Aufgabe ist es, für jede Silbe anzugeben, ob diese etwas angenehmes, oder unangenehmes bedeuten könnte. Verlassen Sie sich hier vor allem auf Ihre Intuition.<br><br>Die Zeichen werden nur zur Orientierung dargestellt, beachten Sie sie deshalb nicht. Konzentrieren Sie sich vor allem auf die Silben. <br>Reagieren Sie mit folgenden zwei Tasten: <br><br><b>'D' </b> wenn die Silbe etwas <b>unangenehmes</b> bedeuten könnte. <br><b>'K'</b> wenn die Silbe etwas <b>angenehmes</b> bedeuten könnte. <br><br>Bitte legen Sie nun den Zeigefinger der linken Hand auf die Taste 'D' und den Zeigefinger der rechten Hand auf die Taste 'K'. <br>Reagieren Sie auf jede Silbe so schnell wie möglich. Uns interessiert Ihre spontane Reaktion. <br> <br> <br>Drücken Sie 'D' oder 'K', um die nächste Aufgabe zu starten. </p>","68","","","","","","","","","",""
"","html-keyboard-response","123","409152","0.0-10.0-0.0","s05vde9xst","one_one","1","direct_first","1","CK07IN27","0","22","1","1","1","1","","0","1","0","null","","","<div style=""font-size:60px;"">+</div>","null","","","","","","","","","",""
"","html-keyboard-response","124","409248","0.0-10.0-1.0","s05vde9xst","one_one","1","direct_first","1","CK07IN27","0","22","1","1","1","1","","0","1","0","null","","","<img src = 'category4/CS9.png' width = '100%;'>","null","","","","","","","","","",""
"","html-keyboard-response","125","409507","0.0-10.0-2.0","s05vde9xst","one_one","1","direct_first","1","CK07IN27","0","22","1","1","1","1","","0","1","0","null","","","<img src = 'targets/28.png' width = '100%;'>","null","","","","","","","","","",""
"","html-keyboard-response","126","409870","0.0-10.0-3.0","s05vde9xst","one_one","1","direct_first","1","CK07IN27","0","22","1","1","1","1","","0","1","0","362.08000002079643","","","<img src = 'targets/mask.png' width = '100%;'>","75","pos","GS","GSold","4","category4/CS9.png","","targets/28.png","indirect","1","0"
"","html-keyboard-response","127","411376","0.0-10.0-0.1","s05vde9xst","one_one","1","direct_first","1","CK07IN27","0","22","1","1","1","1","","0","1","0","null","","","<div style=""font-size:60px;"">+</div>","null","","","","","","","","","",""
"","html-keyboard-response","128","411471","0.0-10.0-1.1","s05vde9xst","one_one","1","direct_first","1","CK07IN27","0","22","1","1","1","1","","0","1","0","null","","","<img src = 'category2/CS9.png' width = '100%;'>","null","","","","","","","","","",""
"","html-keyboard-response","129","411728","0.0-10.0-2.1","s05vde9xst","one_one","1","direct_first","1","CK07IN27","0","22","1","1","1","1","","0","1","0","null","","","<img src = 'targets/5.png' width = '100%;'>","null","","","","","","","","","",""
"","html-keyboard-response","130","414037","0.0-10.0-3.1","s05vde9xst","one_one","1","direct_first","1","CK07IN27","0","22","1","1","1","1","","0","1","0","2307.1249999920838","","","<img src = 'targets/mask.png' width = '100%;'>","68","neg","CS","CS","2","category2/CS9.png","","targets/5.png","indirect","0","1"
"","html-keyboard-response","131","415542","0.0-10.0-0.2","s05vde9xst","one_one","1","direct_first","1","CK07IN27","0","22","1","1","1","1","","0","1","0","null","","","<div style=""font-size:60px;"">+</div>","null","","","","","","","","","",""
"","html-keyboard-response","132","415636","0.0-10.0-1.2","s05vde9xst","one_one","1","direct_first","1","CK07IN27","0","22","1","1","1","1","","0","1","0","null","","","<img src = 'category4/CS5.png' width = '100%;'>","null","","","","","","","","","",""
"","html-keyboard-response","133","415889","0.0-10.0-2.2","s05vde9xst","one_one","1","direct_first","1","CK07IN27","0","22","1","1","1","1","","0","1","0","null","","","<img src = 'targets/2.png' width = '100%;'>","null","","","","","","","","","",""
"","html-keyboard-response","134","416504","0.0-10.0-3.2","s05vde9xst","one_one","1","direct_first","1","CK07IN27","0","22","1","1","1","1","","0","1","0","612.2949999989942","","","<img src = 'targets/mask.png' width = '100%;'>","75","pos","GS","GSold","4","category4/CS5.png","","targets/2.png","indirect","1","2"
"","html-keyboard-response","135","418009","0.0-10.0-0.3","s05vde9xst","one_one","1","direct_first","1","CK07IN27","0","22","1","1","1","1","","0","1","0","null","","","<div style=""font-size:60px;"">+</div>","null","","","","","","","","","",""
"","html-keyboard-response","136","418105","0.0-10.0-1.3","s05vde9xst","one_one","1","direct_first","1","CK07IN27","0","22","1","1","1","1","","0","1","0","null","","","<img src = 'category1/CS10.png' width = '100%;'>","null","","","","","","","","","",""
"","html-keyboard-response","137","418359","0.0-10.0-2.3","s05vde9xst","one_one","1","direct_first","1","CK07IN27","0","22","1","1","1","1","","0","1","0","null","","","<img src = 'targets/33.png' width = '100%;'>","null","","","","","","","","","",""
"","html-keyboard-response","138","419332","0.0-10.0-3.3","s05vde9xst","one_one","1","direct_first","1","CK07IN27","0","22","1","1","1","1","","0","1","0","970.9149999835063","","","<img src = 'targets/mask.png' width = '100%;'>","75","neg","CS","CS","1","category1/CS10.png","","targets/33.png","indirect","1","3"
"","html-keyboard-response","139","420838","0.0-10.0-0.4","s05vde9xst","one_one","1","direct_first","1","CK07IN27","0","22","1","1","1","1","","0","1","0","null","","","<div style=""font-size:60px;"">+</div>","null","","","","","","","","","",""
"","html-keyboard-response","140","420929","0.0-10.0-1.4","s05vde9xst","one_one","1","direct_first","1","CK07IN27","0","22","1","1","1","1","","0","1","0","null","","","<img src = 'category1/CS6.png' width = '100%;'>","null","","","","","","","","","",""
"","html-keyboard-response","141","421187","0.0-10.0-2.4","s05vde9xst","one_one","1","direct_first","1","CK07IN27","0","22","1","1","1","1","","0","1","0","null","","","<img src = 'targets/13.png' width = '100%;'>","null","","","","","","","","","",""
"","html-keyboard-response","142","421876","0.0-10.0-3.4","s05vde9xst","one_one","1","direct_first","1","CK07IN27","0","22","1","1","1","1","","0","1","0","687.2499999881256","","","<img src = 'targets/mask.png' width = '100%;'>","68","neg","GS","GSold","1","category1/CS6.png","","targets/13.png","indirect","0","4"
"","html-keyboard-response","143","423381","0.0-10.0-0.5","s05vde9xst","one_one","1","direct_first","1","CK07IN27","0","22","1","1","1","1","","0","1","0","null","","","<div style=""font-size:60px;"">+</div>","null","","","","","","","","","",""
"","html-keyboard-response","144","423474","0.0-10.0-1.5","s05vde9xst","one_one","1","direct_first","1","CK07IN27","0","22","1","1","1","1","","0","1","0","null","","","<img src = 'category3/CS2.png' width = '100%;'>","null","","","","","","","","","",""
"","html-keyboard-response","145","423730","0.0-10.0-2.5","s05vde9xst","one_one","1","direct_first","1","CK07IN27","0","22","1","1","1","1","","0","1","0","null","","","<img src = 'targets/17.png' width = '100%;'>","null","","","","","","","","","",""
"","html-keyboard-response","146","424456","0.0-10.0-3.5","s05vde9xst","one_one","1","direct_first","1","CK07IN27","0","22","1","1","1","1","","0","1","0","723.8849999848753","","","<img src = 'targets/mask.png' width = '100%;'>","68","pos","GS","GSold","3","category3/CS2.png","","targets/17.png","indirect","0","5"
"","html-keyboard-response","147","425961","0.0-10.0-0.6","s05vde9xst","one_one","1","direct_first","1","CK07IN27","0","22","1","1","1","1","","0","1","0","null","","","<div style=""font-size:60px;"">+</div>","null","","","","","","","","","",""
"","html-keyboard-response","148","426056","0.0-10.0-1.6","s05vde9xst","one_one","1","direct_first","1","CK07IN27","0","22","1","1","1","1","","0","1","0","null","","","<img src = 'category2/CS10.png' width = '100%;'>","null","","","","","","","","","",""
"","html-keyboard-response","149","426312","0.0-10.0-2.6","s05vde9xst","one_one","1","direct_first","1","CK07IN27","0","22","1","1","1","1","","0","1","0","null","","","<img src = 'targets/27.png' width = '100%;'>","null","","","","","","","","","",""
"","html-keyboard-response","150","426749","0.0-10.0-3.6","s05vde9xst","one_one","1","direct_first","1","CK07IN27","0","22","1","1","1","1","","0","1","0","435.2950000029523","","","<img src = 'targets/mask.png' width = '100%;'>","68","neg","GS","GSold","2","category2/CS10.png","","targets/27.png","indirect","0","6"
"","html-keyboard-response","151","428256","0.0-10.0-0.7","s05vde9xst","one_one","1","direct_first","1","CK07IN27","0","22","1","1","1","1","","0","1","0","null","","","<div style=""font-size:60px;"">+</div>","null","","","","","","","","","",""
"","html-keyboard-response","152","428348","0.0-10.0-1.7","s05vde9xst","one_one","1","direct_first","1","CK07IN27","0","22","1","1","1","1","","0","1","0","null","","","<img src = 'category2/CS6.png' width = '100%;'>","null","","","","","","","","","",""
"","html-keyboard-response","153","428604","0.0-10.0-2.7","s05vde9xst","one_one","1","direct_first","1","CK07IN27","0","22","1","1","1","1","","0","1","0","null","","","<img src = 'targets/40.png' width = '100%;'>","null","","","","","","","","","",""
"","html-keyboard-response","154","429116","0.0-10.0-3.7","s05vde9xst","one_one","1","direct_first","1","CK07IN27","0","22","1","1","1","1","","0","1","0","510.1250000006985","","","<img src = 'targets/mask.png' width = '100%;'>","68","neg","GS","GSold","2","category2/CS6.png","","targets/40.png","indirect","0","7"
"","html-keyboard-response","155","430623","0.0-10.0-0.8","s05vde9xst","one_one","1","direct_first","1","CK07IN27","0","22","1","1","1","1","","0","1","0","null","","","<div style=""font-size:60px;"">+</div>","null","","","","","","","","","",""
"","html-keyboard-response","156","430714","0.0-10.0-1.8","s05vde9xst","one_one","1","direct_first","1","CK07IN27","0","22","1","1","1","1","","0","1","0","null","","","<img src = 'category3/CS9.png' width = '100%;'>","null","","","","","","","","","",""
"","html-keyboard-response","157","430973","0.0-10.0-2.8","s05vde9xst","one_one","1","direct_first","1","CK07IN27","0","22","1","1","1","1","","0","1","0","null","","","<img src = 'targets/9.png' width = '100%;'>","null","","","","","","","","","",""
"","html-keyboard-response","158","431439","0.0-10.0-3.8","s05vde9xst","one_one","1","direct_first","1","CK07IN27","0","22","1","1","1","1","","0","1","0","464.9199999985285","","","<img src = 'targets/mask.png' width = '100%;'>","68","pos","CS","CS","3","category3/CS9.png","","targets/9.png","indirect","0","8"
"","html-keyboard-response","159","432943","0.0-10.0-0.9","s05vde9xst","one_one","1","direct_first","1","CK07IN27","0","22","1","1","1","1","","0","1","0","null","","","<div style=""font-size:60px;"">+</div>","null","","","","","","","","","",""
"","html-keyboard-response","160","433039","0.0-10.0-1.9","s05vde9xst","one_one","1","direct_first","1","CK07IN27","0","22","1","1","1","1","","0","1","0","null","","","<img src = 'category1/CS7.png' width = '100%;'>","null","","","","","","","","","",""
"","html-keyboard-response","161","433294","0.0-10.0-2.9","s05vde9xst","one_one","1","direct_first","1","CK07IN27","0","22","1","1","1","1","","0","1","0","null","","","<img src = 'targets/12.png' width = '100%;'>","null","","","","","","","","","",""
"","html-keyboard-response","162","434579","0.0-10.0-3.9","s05vde9xst","one_one","1","direct_first","1","CK07IN27","0","22","1","1","1","1","","0","1","0","1283.2950000010896","","","<img src = 'targets/mask.png' width = '100%;'>","75","neg","GS","GSold","1","category1/CS7.png","","targets/12.png","indirect","1","9"
"","html-keyboard-response","163","436088","0.0-10.0-0.10","s05vde9xst","one_one","1","direct_first","1","CK07IN27","0","22","1","1","1","1","","0","1","0","null","","","<div style=""font-size:60px;"">+</div>","null","","","","","","","","","",""
"","html-keyboard-response","164","436184","0.0-10.0-1.10","s05vde9xst","one_one","1","direct_first","1","CK07IN27","0","22","1","1","1","1","","0","1","0","null","","","<img src = 'category2/CS7.png' width = '100%;'>","null","","","","","","","","","",""
"","html-keyboard-response","165","436442","0.0-10.0-2.10","s05vde9xst","one_one","1","direct_first","1","CK07IN27","0","22","1","1","1","1","","0","1","0","null","","","<img src = 'targets/19.png' width = '100%;'>","null","","","","","","","","","",""
"","html-keyboard-response","166","436952","0.0-10.0-3.10","s05vde9xst","one_one","1","direct_first","1","CK07IN27","0","22","1","1","1","1","","0","1","0","506.889999989653","","","<img src = 'targets/mask.png' width = '100%;'>","68","neg","GS","GSold","2","category2/CS7.png","","targets/19.png","indirect","0","10"
"","html-keyboard-response","167","438454","0.0-10.0-0.11","s05vde9xst","one_one","1","direct_first","1","CK07IN27","0","22","1","1","1","1","","0","1","0","null","","","<div style=""font-size:60px;"">+</div>","null","","","","","","","","","",""
"","html-keyboard-response","168","438548","0.0-10.0-1.11","s05vde9xst","one_one","1","direct_first","1","CK07IN27","0","22","1","1","1","1","","0","1","0","null","","","<img src = 'category3/CS4.png' width = '100%;'>","null","","","","","","","","","",""
"","html-keyboard-response","169","438802","0.0-10.0-2.11","s05vde9xst","one_one","1","direct_first","1","CK07IN27","0","22","1","1","1","1","","0","1","0","null","","","<img src = 'targets/6.png' width = '100%;'>","null","","","","","","","","","",""
"","html-keyboard-response","170","439219","0.0-10.0-3.11","s05vde9xst","one_one","1","direct_first","1","CK07IN27","0","22","1","1","1","1","","0","1","0","415.2849999954924","","","<img src = 'targets/mask.png' width = '100%;'>","68","pos","GS","GSold","3","category3/CS4.png","","targets/6.png","indirect","0","11"
"","html-keyboard-response","171","440722","0.0-10.0-0.12","s05vde9xst","one_one","1","direct_first","1","CK07IN27","0","22","1","1","1","1","","0","1","0","null","","","<div style=""font-size:60px;"">+</div>","null","","","","","","","","","",""
"","html-keyboard-response","172","440813","0.0-10.0-1.12","s05vde9xst","one_one","1","direct_first","1","CK07IN27","0","22","1","1","1","1","","0","1","0","null","","","<img src = 'category4/CS7.png' width = '100%;'>","null","","","","","","","","","",""
"","html-keyboard-response","173","441067","0.0-10.0-2.12","s05vde9xst","one_one","1","direct_first","1","CK07IN27","0","22","1","1","1","1","","0","1","0","null","","","<img src = 'targets/24.png' width = '100%;'>","null","","","","","","","","","",""
"","html-keyboard-response","174","441644","0.0-10.0-3.12","s05vde9xst","one_one","1","direct_first","1","CK07IN27","0","22","1","1","1","1","","0","1","0","576.0900000168476","","","<img src = 'targets/mask.png' width = '100%;'>","75","pos","GS","GSold","4","category4/CS7.png","","targets/24.png","indirect","1","12"
"","html-keyboard-response","175","443152","0.0-10.0-0.13","s05vde9xst","one_one","1","direct_first","1","CK07IN27","0","22","1","1","1","1","","0","1","0","null","","","<div style=""font-size:60px;"">+</div>","null","","","","","","","","","",""
"","html-keyboard-response","176","443248","0.0-10.0-1.13","s05vde9xst","one_one","1","direct_first","1","CK07IN27","0","22","1","1","1","1","","0","1","0","null","","","<img src = 'category1/CS1.png' width = '100%;'>","null","","","","","","","","","",""
"","html-keyboard-response","177","443503","0.0-10.0-2.13","s05vde9xst","one_one","1","direct_first","1","CK07IN27","0","22","1","1","1","1","","0","1","0","null","","","<img src = 'targets/42.png' width = '100%;'>","null","","","","","","","","","",""
"","html-keyboard-response","178","443852","0.0-10.0-3.13","s05vde9xst","one_one","1","direct_first","1","CK07IN27","0","22","1","1","1","1","","0","1","0","346.66499999002554","","","<img src = 'targets/mask.png' width = '100%;'>","68","neg","GS","GSold","1","category1/CS1.png","","targets/42.png","indirect","0","13"
"","html-keyboard-response","179","445354","0.0-10.0-0.14","s05vde9xst","one_one","1","direct_first","1","CK07IN27","0","22","1","1","1","1","","0","1","0","null","","","<div style=""font-size:60px;"">+</div>","null","","","","","","","","","",""
"","html-keyboard-response","180","445449","0.0-10.0-1.14","s05vde9xst","one_one","1","direct_first","1","CK07IN27","0","22","1","1","1","1","","0","1","0","null","","","<img src = 'category3/CS6.png' width = '100%;'>","null","","","","","","","","","",""
"","html-keyboard-response","181","445707","0.0-10.0-2.14","s05vde9xst","one_one","1","direct_first","1","CK07IN27","0","22","1","1","1","1","","0","1","0","null","","","<img src = 'targets/25.png' width = '100%;'>","null","","","","","","","","","",""
"","html-keyboard-response","182","446103","0.0-10.0-3.14","s05vde9xst","one_one","1","direct_first","1","CK07IN27","0","22","1","1","1","1","","0","1","0","394.30000001448207","","","<img src = 'targets/mask.png' width = '100%;'>","68","pos","GS","GSold","3","category3/CS6.png","","targets/25.png","indirect","0","14"
"","html-keyboard-response","183","447610","0.0-10.0-0.15","s05vde9xst","one_one","1","direct_first","1","CK07IN27","0","22","1","1","1","1","","0","1","0","null","","","<div style=""font-size:60px;"">+</div>","null","","","","","","","","","",""
"","html-keyboard-response","184","447706","0.0-10.0-1.15","s05vde9xst","one_one","1","direct_first","1","CK07IN27","0","22","1","1","1","1","","0","1","0","null","","","<img src = 'category4/CS2.png' width = '100%;'>","null","","","","","","","","","",""
"","html-keyboard-response","185","447965","0.0-10.0-2.15","s05vde9xst","one_one","1","direct_first","1","CK07IN27","0","22","1","1","1","1","","0","1","0","null","","","<img src = 'targets/47.png' width = '100%;'>","null","","","","","","","","","",""
"","html-keyboard-response","186","448385","0.0-10.0-3.15","s05vde9xst","one_one","1","direct_first","1","CK07IN27","0","22","1","1","1","1","","0","1","0","417.90000000037253","","","<img src = 'targets/mask.png' width = '100%;'>","75","pos","CS","CS","4","category4/CS2.png","","targets/47.png","indirect","1","15"
"","survey-html-form","187","451483","0.0-11.0","s05vde9xst","one_one","1","direct_first","1","CK07IN27","0","22","1","1","1","1","","0","1","0","2592.7649999794085","","{}","","","","","","","","","","","",""
"","html-keyboard-response","188","454488","0.0-12.0-0.0","s05vde9xst","one_one","1","direct_first","1","CK07IN27","0","22","1","1","1","1","","0","1","0","null","","","<div style=""font-size:60px;"">+</div>","null","","","","","","","","","",""
"","html-keyboard-response","189","454584","0.0-12.0-1.0","s05vde9xst","one_one","1","direct_first","1","CK07IN27","0","22","1","1","1","1","","0","1","0","null","","","<img src = 'category1/GS1.png' width = '100%;'>","null","","","","","","","","","",""
"","html-keyboard-response","190","454838","0.0-12.0-2.0","s05vde9xst","one_one","1","direct_first","1","CK07IN27","0","22","1","1","1","1","","0","1","0","null","","","<img src = 'targets/11.png' width = '100%;'>","null","","","","","","","","","",""
"","html-keyboard-response","191","455070","0.0-12.0-3.0","s05vde9xst","one_one","1","direct_first","1","CK07IN27","0","22","1","1","1","1","","0","1","0","228.85000001406297","","","<img src = 'targets/mask.png' width = '100%;'>","68","neg","GS","GSnew","1","category1/GS1.png","","targets/11.png","indirect","0","16"
"","html-keyboard-response","192","456575","0.0-12.0-0.1","s05vde9xst","one_one","1","direct_first","1","CK07IN27","0","22","1","1","1","1","","0","1","0","null","","","<div style=""font-size:60px;"">+</div>","null","","","","","","","","","",""
"","html-keyboard-response","193","456669","0.0-12.0-1.1","s05vde9xst","one_one","1","direct_first","1","CK07IN27","0","22","1","1","1","1","","0","1","0","null","","","<img src = 'category4/lin.png' width = '100%;'>","null","","","","","","","","","",""
"","html-keyboard-response","194","456923","0.0-12.0-2.1","s05vde9xst","one_one","1","direct_first","1","CK07IN27","0","22","1","1","1","1","","0","1","0","null","","","<img src = 'targets/48.png' width = '100%;'>","null","","","","","","","","","",""
"","html-keyboard-response","195","457097","0.0-12.0-3.1","s05vde9xst","one_one","1","direct_first","1","CK07IN27","0","22","1","1","1","1","","0","1","0","172.25500001222827","","","<img src = 'targets/mask.png' width = '100%;'>","68","pos","GS","abstract","4","category4/lin.png","","targets/48.png","indirect","0","17"
"","html-keyboard-response","196","458603","0.0-12.0-0.2","s05vde9xst","one_one","1","direct_first","1","CK07IN27","0","22","1","1","1","1","","0","1","0","null","","","<div style=""font-size:60px;"">+</div>","null","","","","","","","","","",""
"","html-keyboard-response","197","458699","0.0-12.0-1.2","s05vde9xst","one_one","1","direct_first","1","CK07IN27","0","22","1","1","1","1","","0","1","0","null","","","<img src = 'category2/GS1.png' width = '100%;'>","null","","","","","","","","","",""
"","html-keyboard-response","198","458957","0.0-12.0-2.2","s05vde9xst","one_one","1","direct_first","1","CK07IN27","0","22","1","1","1","1","","0","1","0","null","","","<img src = 'targets/3.png' width = '100%;'>","null","","","","","","","","","",""
"","html-keyboard-response","199","460174","0.0-12.0-3.2","s05vde9xst","one_one","1","direct_first","1","CK07IN27","0","22","1","1","1","1","","0","1","0","1215.0699999765493","","","<img src = 'targets/mask.png' width = '100%;'>","75","neg","GS","GSnew","2","category2/GS1.png","","targets/3.png","indirect","1","18"
"","html-keyboard-response","200","461682","0.0-12.0-0.3","s05vde9xst","one_one","1","direct_first","1","CK07IN27","0","22","1","1","1","1","","0","1","0","null","","","<div style=""font-size:60px;"">+</div>","null","","","","","","","","","",""
"","html-keyboard-response","201","461774","0.0-12.0-1.3","s05vde9xst","one_one","1","direct_first","1","CK07IN27","0","22","1","1","1","1","","0","1","0","null","","","<img src = 'category3/GS2.png' width = '100%;'>","null","","","","","","","","","",""
"","html-keyboard-response","202","462033","0.0-12.0-2.3","s05vde9xst","one_one","1","direct_first","1","CK07IN27","0","22","1","1","1","1","","0","1","0","null","","","<img src = 'targets/30.png' width = '100%;'>","null","","","","","","","","","",""
"","html-keyboard-response","203","462446","0.0-12.0-3.3","s05vde9xst","one_one","1","direct_first","1","CK07IN27","0","22","1","1","1","1","","0","1","0","410.1899999950547","","","<img src = 'targets/mask.png' width = '100%;'>","68","pos","GS","GSnew","3","category3/GS2.png","","targets/30.png","indirect","0","19"
"","html-keyboard-response","204","463953","0.0-12.0-0.4","s05vde9xst","one_one","1","direct_first","1","CK07IN27","0","22","1","1","1","1","","0","1","0","null","","","<div style=""font-size:60px;"">+</div>","null","","","","","","","","","",""
"","html-keyboard-response","205","464046","0.0-12.0-1.4","s05vde9xst","one_one","1","direct_first","1","CK07IN27","0","22","1","1","1","1","","0","1","0","null","","","<img src = 'category4/GS3.png' width = '100%;'>","null","","","","","","","","","",""
"","html-keyboard-response","206","464298","0.0-12.0-2.4","s05vde9xst","one_one","1","direct_first","1","CK07IN27","0","22","1","1","1","1","","0","1","0","null","","","<img src = 'targets/22.png' width = '100%;'>","null","","","","","","","","","",""
"","html-keyboard-response","207","464735","0.0-12.0-3.4","s05vde9xst","one_one","1","direct_first","1","CK07IN27","0","22","1","1","1","1","","0","1","0","435.3149999806192","","","<img src = 'targets/mask.png' width = '100%;'>","68","pos","GS","GSnew","4","category4/GS3.png","","targets/22.png","indirect","0","20"
"","html-keyboard-response","208","466243","0.0-12.0-0.5","s05vde9xst","one_one","1","direct_first","1","CK07IN27","0","22","1","1","1","1","","0","1","0","null","","","<div style=""font-size:60px;"">+</div>","null","","","","","","","","","",""
"","html-keyboard-response","209","466335","0.0-12.0-1.5","s05vde9xst","one_one","1","direct_first","1","CK07IN27","0","22","1","1","1","1","","0","1","0","null","","","<img src = 'category4/GS1.png' width = '100%;'>","null","","","","","","","","","",""
"","html-keyboard-response","210","466591","0.0-12.0-2.5","s05vde9xst","one_one","1","direct_first","1","CK07IN27","0","22","1","1","1","1","","0","1","0","null","","","<img src = 'targets/1.png' width = '100%;'>","null","","","","","","","","","",""
"","html-keyboard-response","211","467036","0.0-12.0-3.5","s05vde9xst","one_one","1","direct_first","1","CK07IN27","0","22","1","1","1","1","","0","1","0","442.65499999164604","","","<img src = 'targets/mask.png' width = '100%;'>","75","pos","GS","GSnew","4","category4/GS1.png","","targets/1.png","indirect","1","21"
"","html-keyboard-response","212","468544","0.0-12.0-0.6","s05vde9xst","one_one","1","direct_first","1","CK07IN27","0","22","1","1","1","1","","0","1","0","null","","","<div style=""font-size:60px;"">+</div>","null","","","","","","","","","",""
"","html-keyboard-response","213","468640","0.0-12.0-1.6","s05vde9xst","one_one","1","direct_first","1","CK07IN27","0","22","1","1","1","1","","0","1","0","null","","","<img src = 'category2/men.png' width = '100%;'>","null","","","","","","","","","",""
"","html-keyboard-response","214","468896","0.0-12.0-2.6","s05vde9xst","one_one","1","direct_first","1","CK07IN27","0","22","1","1","1","1","","0","1","0","null","","","<img src = 'targets/16.png' width = '100%;'>","null","","","","","","","","","",""
"","html-keyboard-response","215","469533","0.0-12.0-3.6","s05vde9xst","one_one","1","direct_first","1","CK07IN27","0","22","1","1","1","1","","0","1","0","636.0500000009779","","","<img src = 'targets/mask.png' width = '100%;'>","75","neg","GS","abstract","2","category2/men.png","","targets/16.png","indirect","1","22"
"","html-keyboard-response","216","471041","0.0-12.0-0.7","s05vde9xst","one_one","1","direct_first","1","CK07IN27","0","22","1","1","1","1","","0","1","0","null","","","<div style=""font-size:60px;"">+</div>","null","","","","","","","","","",""
"","html-keyboard-response","217","471136","0.0-12.0-1.7","s05vde9xst","one_one","1","direct_first","1","CK07IN27","0","22","1","1","1","1","","0","1","0","null","","","<img src = 'category3/GS1.png' width = '100%;'>","null","","","","","","","","","",""
"","html-keyboard-response","218","471396","0.0-12.0-2.7","s05vde9xst","one_one","1","direct_first","1","CK07IN27","0","22","1","1","1","1","","0","1","0","null","","","<img src = 'targets/26.png' width = '100%;'>","null","","","","","","","","","",""
"","html-keyboard-response","219","472240","0.0-12.0-3.7","s05vde9xst","one_one","1","direct_first","1","CK07IN27","0","22","1","1","1","1","","0","1","0","842.6499999768566","","","<img src = 'targets/mask.png' width = '100%;'>","75","pos","GS","GSnew","3","category3/GS1.png","","targets/26.png","indirect","1","23"
"","html-keyboard-response","220","473747","0.0-12.0-0.8","s05vde9xst","one_one","1","direct_first","1","CK07IN27","0","22","1","1","1","1","","0","1","0","null","","","<div style=""font-size:60px;"">+</div>","null","","","","","","","","","",""
"","html-keyboard-response","221","473842","0.0-12.0-1.8","s05vde9xst","one_one","1","direct_first","1","CK07IN27","0","22","1","1","1","1","","0","1","0","null","","","<img src = 'category2/GS3.png' width = '100%;'>","null","","","","","","","","","",""
"","html-keyboard-response","222","474098","0.0-12.0-2.8","s05vde9xst","one_one","1","direct_first","1","CK07IN27","0","22","1","1","1","1","","0","1","0","null","","","<img src = 'targets/20.png' width = '100%;'>","null","","","","","","","","","",""
"","html-keyboard-response","223","474878","0.0-12.0-3.8","s05vde9xst","one_one","1","direct_first","1","CK07IN27","0","22","1","1","1","1","","0","1","0","776.9850000040606","","","<img src = 'targets/mask.png' width = '100%;'>","75","neg","GS","GSnew","2","category2/GS3.png","","targets/20.png","indirect","1","24"
"","html-keyboard-response","224","476381","0.0-12.0-0.9","s05vde9xst","one_one","1","direct_first","1","CK07IN27","0","22","1","1","1","1","","0","1","0","null","","","<div style=""font-size:60px;"">+</div>","null","","","","","","","","","",""
"","html-keyboard-response","225","476477","0.0-12.0-1.9","s05vde9xst","one_one","1","direct_first","1","CK07IN27","0","22","1","1","1","1","","0","1","0","null","","","<img src = 'category1/GS3.png' width = '100%;'>","null","","","","","","","","","",""
"","html-keyboard-response","226","476735","0.0-12.0-2.9","s05vde9xst","one_one","1","direct_first","1","CK07IN27","0","22","1","1","1","1","","0","1","0","null","","","<img src = 'targets/35.png' width = '100%;'>","null","","","","","","","","","",""
"","html-keyboard-response","227","476992","0.0-12.0-3.9","s05vde9xst","one_one","1","direct_first","1","CK07IN27","0","22","1","1","1","1","","0","1","0","254.7750000085216","","","<img src = 'targets/mask.png' width = '100%;'>","75","neg","GS","GSnew","1","category1/GS3.png","","targets/35.png","indirect","1","25"
"","html-keyboard-response","228","478498","0.0-12.0-0.10","s05vde9xst","one_one","1","direct_first","1","CK07IN27","0","22","1","1","1","1","","0","1","0","null","","","<div style=""font-size:60px;"">+</div>","null","","","","","","","","","",""
"","html-keyboard-response","229","478594","0.0-12.0-1.10","s05vde9xst","one_one","1","direct_first","1","CK07IN27","0","22","1","1","1","1","","0","1","0","null","","","<img src = 'category3/GS3.png' width = '100%;'>","null","","","","","","","","","",""
"","html-keyboard-response","230","478849","0.0-12.0-2.10","s05vde9xst","one_one","1","direct_first","1","CK07IN27","0","22","1","1","1","1","","0","1","0","null","","","<img src = 'targets/23.png' width = '100%;'>","null","","","","","","","","","",""
"","html-keyboard-response","231","479641","0.0-12.0-3.10","s05vde9xst","one_one","1","direct_first","1","CK07IN27","0","22","1","1","1","1","","0","1","0","789.4499999820255","","","<img src = 'targets/mask.png' width = '100%;'>","68","pos","GS","GSnew","3","category3/GS3.png","","targets/23.png","indirect","0","26"
"","html-keyboard-response","232","481147","0.0-12.0-0.11","s05vde9xst","one_one","1","direct_first","1","CK07IN27","0","22","1","1","1","1","","0","1","0","null","","","<div style=""font-size:60px;"">+</div>","null","","","","","","","","","",""
"","html-keyboard-response","233","481243","0.0-12.0-1.11","s05vde9xst","one_one","1","direct_first","1","CK07IN27","0","22","1","1","1","1","","0","1","0","null","","","<img src = 'category3/wang.png' width = '100%;'>","null","","","","","","","","","",""
"","html-keyboard-response","234","481497","0.0-12.0-2.11","s05vde9xst","one_one","1","direct_first","1","CK07IN27","0","22","1","1","1","1","","0","1","0","null","","","<img src = 'targets/45.png' width = '100%;'>","null","","","","","","","","","",""
"","html-keyboard-response","235","481865","0.0-12.0-3.11","s05vde9xst","one_one","1","direct_first","1","CK07IN27","0","22","1","1","1","1","","0","1","0","366.5000000037253","","","<img src = 'targets/mask.png' width = '100%;'>","68","pos","GS","abstract","3","category3/wang.png","","targets/45.png","indirect","0","27"
"","html-keyboard-response","236","483373","0.0-12.0-0.12","s05vde9xst","one_one","1","direct_first","1","CK07IN27","0","22","1","1","1","1","","0","1","0","null","","","<div style=""font-size:60px;"">+</div>","null","","","","","","","","","",""
"","html-keyboard-response","237","483467","0.0-12.0-1.12","s05vde9xst","one_one","1","direct_first","1","CK07IN27","0","22","1","1","1","1","","0","1","0","null","","","<img src = 'category4/GS2.png' width = '100%;'>","null","","","","","","","","","",""
"","html-keyboard-response","238","483725","0.0-12.0-2.12","s05vde9xst","one_one","1","direct_first","1","CK07IN27","0","22","1","1","1","1","","0","1","0","null","","","<img src = 'targets/29.png' width = '100%;'>","null","","","","","","","","","",""
"","html-keyboard-response","239","484328","0.0-12.0-3.12","s05vde9xst","one_one","1","direct_first","1","CK07IN27","0","22","1","1","1","1","","0","1","0","601.3649999804329","","","<img src = 'targets/mask.png' width = '100%;'>","75","pos","GS","GSnew","4","category4/GS2.png","","targets/29.png","indirect","1","28"
"","html-keyboard-response","240","485831","0.0-12.0-0.13","s05vde9xst","one_one","1","direct_first","1","CK07IN27","0","22","1","1","1","1","","0","1","0","null","","","<div style=""font-size:60px;"">+</div>","null","","","","","","","","","",""
"","html-keyboard-response","241","485925","0.0-12.0-1.13","s05vde9xst","one_one","1","direct_first","1","CK07IN27","0","22","1","1","1","1","","0","1","0","null","","","<img src = 'category1/ma.png' width = '100%;'>","null","","","","","","","","","",""
"","html-keyboard-response","242","486181","0.0-12.0-2.13","s05vde9xst","one_one","1","direct_first","1","CK07IN27","0","22","1","1","1","1","","0","1","0","null","","","<img src = 'targets/8.png' width = '100%;'>","null","","","","","","","","","",""
"","html-keyboard-response","243","486554","0.0-12.0-3.13","s05vde9xst","one_one","1","direct_first","1","CK07IN27","0","22","1","1","1","1","","0","1","0","369.8900000017602","","","<img src = 'targets/mask.png' width = '100%;'>","75","neg","GS","abstract","1","category1/ma.png","","targets/8.png","indirect","1","29"
"","html-keyboard-response","244","488061","0.0-12.0-0.14","s05vde9xst","one_one","1","direct_first","1","CK07IN27","0","22","1","1","1","1","","0","1","0","null","","","<div style=""font-size:60px;"">+</div>","null","","","","","","","","","",""
"","html-keyboard-response","245","488153","0.0-12.0-1.14","s05vde9xst","one_one","1","direct_first","1","CK07IN27","0","22","1","1","1","1","","0","1","0","null","","","<img src = 'category2/GS2.png' width = '100%;'>","null","","","","","","","","","",""
"","html-keyboard-response","246","488412","0.0-12.0-2.14","s05vde9xst","one_one","1","direct_first","1","CK07IN27","0","22","1","1","1","1","","0","1","0","null","","","<img src = 'targets/32.png' width = '100%;'>","null","","","","","","","","","",""
"","html-keyboard-response","247","488927","0.0-12.0-3.14","s05vde9xst","one_one","1","direct_first","1","CK07IN27","0","22","1","1","1","1","","0","1","0","513.4499999985565","","","<img src = 'targets/mask.png' width = '100%;'>","75","neg","GS","GSnew","2","category2/GS2.png","","targets/32.png","indirect","1","30"
"","html-keyboard-response","248","490430","0.0-12.0-0.15","s05vde9xst","one_one","1","direct_first","1","CK07IN27","0","22","1","1","1","1","","0","1","0","null","","","<div style=""font-size:60px;"">+</div>","null","","","","","","","","","",""
"","html-keyboard-response","249","490524","0.0-12.0-1.15","s05vde9xst","one_one","1","direct_first","1","CK07IN27","0","22","1","1","1","1","","0","1","0","null","","","<img src = 'category1/GS2.png' width = '100%;'>","null","","","","","","","","","",""
"","html-keyboard-response","250","490783","0.0-12.0-2.15","s05vde9xst","one_one","1","direct_first","1","CK07IN27","0","22","1","1","1","1","","0","1","0","null","","","<img src = 'targets/4.png' width = '100%;'>","null","","","","","","","","","",""
"","html-keyboard-response","251","490871","0.0-12.0-3.15","s05vde9xst","one_one","1","direct_first","1","CK07IN27","0","22","1","1","1","1","","0","1","0","87.00500000850298","","","<img src = 'targets/mask.png' width = '100%;'>","68","neg","GS","GSnew","1","category1/GS2.png","","targets/4.png","indirect","0","31"
"","survey-html-form","252","493904","0.0-13.0","s05vde9xst","one_one","1","direct_first","1","CK07IN27","0","22","1","1","1","1","","0","1","0","2529.3650000239722","","{}","","","","","","","","","","","",""
"","image-slider-response","253","499851","0.0-14.0-0.0","s05vde9xst","one_one","1","direct_first","1","CK07IN27","0","22","1","1","1","1","","0","1","0","4939.99499999336","","","","","neg","All","all","1","category1/ma_all.png","26","","all","",""
"","image-slider-response","254","503297","0.0-14.0-0.1","s05vde9xst","one_one","1","direct_first","1","CK07IN27","0","22","1","1","1","1","","0","1","0","3441.01499998942","","","","","neg","All","all","2","category2/men_all.png","-20","","all","",""
"","image-slider-response","255","506323","0.0-14.0-0.2","s05vde9xst","one_one","1","direct_first","1","CK07IN27","0","22","1","1","1","1","","0","1","0","3022.4900000030175","","","","","pos","All","all","4","category4/lin_all.png","-38","","all","",""
"","image-slider-response","256","508977","0.0-14.0-0.3","s05vde9xst","one_one","1","direct_first","1","CK07IN27","0","22","1","1","1","1","","0","1","0","2649.969999998575","","","","","pos","All","all","3","category3/wang_all.png","-33","","all","",""
"","survey-text","257","511236","0.0-15.0","s05vde9xst","one_one","1","direct_first","1","CK07IN27","0","22","1","1","1","1","","0","1","0","2240.265000000363","","{""comment"":""""}","","","","","","","","","","","",""
"","survey-html-form","258","522786","0.0-16.0","s05vde9xst","one_one","1","direct_first","1","CK07IN27","0","22","1","1","1","1","","0","1","0","11544.504999998026","","{""hinschauen"":""0"",""ablenkung"":""1"",""gewissenhaft"":""0""}","","","","","","","","","","","",""
