"success","trial_type","trial_index","time_elapsed","internal_node_id","subject","condition","condition_code","measure","measure_code","codeword","gender","age","education","chinese","fach","handedness","comment","hinschauen","ablenkung","gewissenhaft","rt","url","responses","stimulus","key_press","val","type","type_specific","category","cs_selected","target","indirect","task","nr_pres","response"
"true","fullscreen","0","12595","0.0-0.0","jf18mbay4y","many_one","0","indirect_first","0","st06ns22","0","23","1","1","3","1","","0","1","0","","","","","","","","","","","","","","",""
"","external-html","1","76839","0.0-1.0","jf18mbay4y","many_one","0","indirect_first","0","st06ns22","0","23","1","1","3","1","","0","1","0","64170.86499999277","text/information.html","","","","","","","","","","","","",""
"","external-html","2","90466","0.0-2.0","jf18mbay4y","many_one","0","indirect_first","0","st06ns22","0","23","1","1","3","1","","0","1","0","13553.139999974519","text/consent.html","","","","","","","","","","","","",""
"","survey-html-form","3","153662","0.0-3.0","jf18mbay4y","many_one","0","indirect_first","0","st06ns22","0","23","1","1","3","1","","0","1","0","63190.35999989137","","{""codeword_enter"":""st06ns22""}","","","","","","","","","","","",""
"","survey-html-form","4","185592","0.0-4.0","jf18mbay4y","many_one","0","indirect_first","0","st06ns22","0","23","1","1","3","1","","0","1","0","31923.064999980852","","{""age"":""23"",""education"":""1"",""subject"":""3"",""gender"":""0"",""handedness"":""1"",""chinese"":""1""}","","","","","","","","","","","",""
"","survey-html-form","5","191638","0.0-5.0","jf18mbay4y","many_one","0","indirect_first","0","st06ns22","0","23","1","1","3","1","","0","1","0","6038.990000030026","","{}","","","","","","","","","","","",""
"","html-keyboard-response","6","195656","0.0-6.0-0.0-0.0","jf18mbay4y","many_one","0","indirect_first","0","st06ns22","0","23","1","1","3","1","","0","1","0","null","","","<div class = 'row'><div class = 'column'><img src = 'category1/CS5.png' width = '70%;'></div><div class = 'column'><img src = 'uspos/2165.bmp' width = '100%;'></div></div>","null","pos","CS","CS","1","category1/CS5.png","","","","",""
"","html-keyboard-response","7","198172","0.0-6.0-0.0-0.1","jf18mbay4y","many_one","0","indirect_first","0","st06ns22","0","23","1","1","3","1","","0","1","0","null","","","<div class = 'row'><div class = 'column'><img src = 'usneg/3160.bmp' width = '100%;'></div><div class = 'column'><img src = 'category3/CS9.png' width = '70%;'></div></div>","null","neg","CS","CS","3","category3/CS9.png","","","","",""
"","html-keyboard-response","8","200697","0.0-6.0-0.0-0.2","jf18mbay4y","many_one","0","indirect_first","0","st06ns22","0","23","1","1","3","1","","0","1","0","null","","","<div class = 'row'><div class = 'column'><img src = 'usneg/9000.bmp' width = '100%;'></div><div class = 'column'><img src = 'category3/CS6.png' width = '70%;'></div></div>","null","neg","CS","CS","3","category3/CS6.png","","","","",""
"","html-keyboard-response","9","203213","0.0-6.0-0.0-0.3","jf18mbay4y","many_one","0","indirect_first","0","st06ns22","0","23","1","1","3","1","","0","1","0","null","","","<div class = 'row'><div class = 'column'><img src = 'uspos/8350.bmp' width = '100%;'></div><div class = 'column'><img src = 'category1/CS2.png' width = '70%;'></div></div>","null","pos","CS","CS","1","category1/CS2.png","","","","",""
"","html-keyboard-response","10","205742","0.0-6.0-0.0-0.4","jf18mbay4y","many_one","0","indirect_first","0","st06ns22","0","23","1","1","3","1","","0","1","0","null","","","<div class = 'row'><div class = 'column'><img src = 'usneg/9561.bmp' width = '100%;'></div><div class = 'column'><img src = 'category4/CS7.png' width = '70%;'></div></div>","null","neg","CS","CS","4","category4/CS7.png","","","","",""
"","html-keyboard-response","11","208256","0.0-6.0-0.0-0.5","jf18mbay4y","many_one","0","indirect_first","0","st06ns22","0","23","1","1","3","1","","0","1","0","null","","","<div class = 'row'><div class = 'column'><img src = 'usneg/2205.bmp' width = '100%;'></div><div class = 'column'><img src = 'category3/CS7.png' width = '70%;'></div></div>","null","neg","CS","CS","3","category3/CS7.png","","","","",""
"","html-keyboard-response","12","210770","0.0-6.0-0.0-0.6","jf18mbay4y","many_one","0","indirect_first","0","st06ns22","0","23","1","1","3","1","","0","1","0","null","","","<div class = 'row'><div class = 'column'><img src = 'usneg/9830.bmp' width = '100%;'></div><div class = 'column'><img src = 'category3/CS10.png' width = '70%;'></div></div>","null","neg","CS","CS","3","category3/CS10.png","","","","",""
"","html-keyboard-response","13","213286","0.0-6.0-0.0-0.7","jf18mbay4y","many_one","0","indirect_first","0","st06ns22","0","23","1","1","3","1","","0","1","0","null","","","<div class = 'row'><div class = 'column'><img src = 'category2/CS10.png' width = '70%;'></div><div class = 'column'><img src = 'uspos/2530.bmp' width = '100%;'></div></div>","null","pos","CS","CS","2","category2/CS10.png","","","","",""
"","html-keyboard-response","14","215812","0.0-6.0-0.0-0.8","jf18mbay4y","many_one","0","indirect_first","0","st06ns22","0","23","1","1","3","1","","0","1","0","null","","","<div class = 'row'><div class = 'column'><img src = 'uspos/2040.bmp' width = '100%;'></div><div class = 'column'><img src = 'category2/CS1.png' width = '70%;'></div></div>","null","pos","CS","CS","2","category2/CS1.png","","","","",""
"","html-keyboard-response","15","218338","0.0-6.0-0.0-0.9","jf18mbay4y","many_one","0","indirect_first","0","st06ns22","0","23","1","1","3","1","","0","1","0","null","","","<div class = 'row'><div class = 'column'><img src = 'uspos/5629.bmp' width = '100%;'></div><div class = 'column'><img src = 'category1/CS1.png' width = '70%;'></div></div>","null","pos","CS","CS","1","category1/CS1.png","","","","",""
"","html-keyboard-response","16","220853","0.0-6.0-0.0-0.10","jf18mbay4y","many_one","0","indirect_first","0","st06ns22","0","23","1","1","3","1","","0","1","0","null","","","<div class = 'row'><div class = 'column'><img src = 'uspos/2160.bmp' width = '100%;'></div><div class = 'column'><img src = 'category2/CS3.png' width = '70%;'></div></div>","null","pos","CS","CS","2","category2/CS3.png","","","","",""
"","html-keyboard-response","17","223372","0.0-6.0-0.0-0.11","jf18mbay4y","many_one","0","indirect_first","0","st06ns22","0","23","1","1","3","1","","0","1","0","null","","","<div class = 'row'><div class = 'column'><img src = 'category2/CS8.png' width = '70%;'></div><div class = 'column'><img src = 'uspos/7325.bmp' width = '100%;'></div></div>","null","pos","CS","CS","2","category2/CS8.png","","","","",""
"","html-keyboard-response","18","225898","0.0-6.0-0.0-0.12","jf18mbay4y","many_one","0","indirect_first","0","st06ns22","0","23","1","1","3","1","","0","1","0","null","","","<div class = 'row'><div class = 'column'><img src = 'category4/CS8.png' width = '70%;'></div><div class = 'column'><img src = 'usneg/9182.bmp' width = '100%;'></div></div>","null","neg","CS","CS","4","category4/CS8.png","","","","",""
"","html-keyboard-response","19","228406","0.0-6.0-0.0-0.13","jf18mbay4y","many_one","0","indirect_first","0","st06ns22","0","23","1","1","3","1","","0","1","0","null","","","<div class = 'row'><div class = 'column'><img src = 'category1/CS10.png' width = '70%;'></div><div class = 'column'><img src = 'uspos/5760.bmp' width = '100%;'></div></div>","null","pos","CS","CS","1","category1/CS10.png","","","","",""
"","html-keyboard-response","20","230925","0.0-6.0-0.0-0.14","jf18mbay4y","many_one","0","indirect_first","0","st06ns22","0","23","1","1","3","1","","0","1","0","null","","","<div class = 'row'><div class = 'column'><img src = 'uspos/1710.bmp' width = '100%;'></div><div class = 'column'><img src = 'category1/CS9.png' width = '70%;'></div></div>","null","pos","CS","CS","1","category1/CS9.png","","","","",""
"","html-keyboard-response","21","233439","0.0-6.0-0.0-0.15","jf18mbay4y","many_one","0","indirect_first","0","st06ns22","0","23","1","1","3","1","","0","1","0","null","","","<div class = 'row'><div class = 'column'><img src = 'usneg/9421.bmp' width = '100%;'></div><div class = 'column'><img src = 'category4/CS4.png' width = '70%;'></div></div>","null","neg","CS","CS","4","category4/CS4.png","","","","",""
"","html-keyboard-response","22","235966","0.0-6.0-0.0-0.16","jf18mbay4y","many_one","0","indirect_first","0","st06ns22","0","23","1","1","3","1","","0","1","0","null","","","<div class = 'row'><div class = 'column'><img src = 'usneg/2750.bmp' width = '100%;'></div><div class = 'column'><img src = 'category3/CS5.png' width = '70%;'></div></div>","null","neg","CS","CS","3","category3/CS5.png","","","","",""
"","html-keyboard-response","23","238479","0.0-6.0-0.0-0.17","jf18mbay4y","many_one","0","indirect_first","0","st06ns22","0","23","1","1","3","1","","0","1","0","null","","","<div class = 'row'><div class = 'column'><img src = 'usneg/9181.bmp' width = '100%;'></div><div class = 'column'><img src = 'category4/CS6.png' width = '70%;'></div></div>","null","neg","CS","CS","4","category4/CS6.png","","","","",""
"","html-keyboard-response","24","241002","0.0-6.0-0.0-0.18","jf18mbay4y","many_one","0","indirect_first","0","st06ns22","0","23","1","1","3","1","","0","1","0","null","","","<div class = 'row'><div class = 'column'><img src = 'uspos/8461.bmp' width = '100%;'></div><div class = 'column'><img src = 'category2/CS6.png' width = '70%;'></div></div>","null","pos","CS","CS","2","category2/CS6.png","","","","",""
"","html-keyboard-response","25","243527","0.0-6.0-0.0-0.19","jf18mbay4y","many_one","0","indirect_first","0","st06ns22","0","23","1","1","3","1","","0","1","0","null","","","<div class = 'row'><div class = 'column'><img src = 'usneg/2900.bmp' width = '100%;'></div><div class = 'column'><img src = 'category4/CS5.png' width = '70%;'></div></div>","null","neg","CS","CS","4","category4/CS5.png","","","","",""
"","survey-html-form","26","246788","0.0-6.0-1.0","jf18mbay4y","many_one","0","indirect_first","0","st06ns22","0","23","1","1","3","1","","0","1","0","2750.3500001039356","","{}","","","","","","","","","","","",""
"","html-keyboard-response","27","250808","0.0-6.0-2.0-0.0","jf18mbay4y","many_one","0","indirect_first","0","st06ns22","0","23","1","1","3","1","","0","1","0","null","","","<div class = 'row'><div class = 'column'><img src = 'uspos/7325.bmp' width = '100%;'></div><div class = 'column'><img src = 'category2/CS8.png' width = '70%;'></div></div>","null","pos","CS","CS","2","category2/CS8.png","","","","",""
"","html-keyboard-response","28","253316","0.0-6.0-2.0-0.1","jf18mbay4y","many_one","0","indirect_first","0","st06ns22","0","23","1","1","3","1","","0","1","0","null","","","<div class = 'row'><div class = 'column'><img src = 'category1/CS5.png' width = '70%;'></div><div class = 'column'><img src = 'uspos/2165.bmp' width = '100%;'></div></div>","null","pos","CS","CS","1","category1/CS5.png","","","","",""
"","html-keyboard-response","29","255842","0.0-6.0-2.0-0.2","jf18mbay4y","many_one","0","indirect_first","0","st06ns22","0","23","1","1","3","1","","0","1","0","null","","","<div class = 'row'><div class = 'column'><img src = 'category1/CS9.png' width = '70%;'></div><div class = 'column'><img src = 'uspos/1710.bmp' width = '100%;'></div></div>","null","pos","CS","CS","1","category1/CS9.png","","","","",""
"","html-keyboard-response","30","258362","0.0-6.0-2.0-0.3","jf18mbay4y","many_one","0","indirect_first","0","st06ns22","0","23","1","1","3","1","","0","1","0","null","","","<div class = 'row'><div class = 'column'><img src = 'uspos/5629.bmp' width = '100%;'></div><div class = 'column'><img src = 'category1/CS1.png' width = '70%;'></div></div>","null","pos","CS","CS","1","category1/CS1.png","","","","",""
"","html-keyboard-response","31","260872","0.0-6.0-2.0-0.4","jf18mbay4y","many_one","0","indirect_first","0","st06ns22","0","23","1","1","3","1","","0","1","0","null","","","<div class = 'row'><div class = 'column'><img src = 'uspos/8461.bmp' width = '100%;'></div><div class = 'column'><img src = 'category2/CS6.png' width = '70%;'></div></div>","null","pos","CS","CS","2","category2/CS6.png","","","","",""
"","html-keyboard-response","32","263387","0.0-6.0-2.0-0.5","jf18mbay4y","many_one","0","indirect_first","0","st06ns22","0","23","1","1","3","1","","0","1","0","null","","","<div class = 'row'><div class = 'column'><img src = 'usneg/9830.bmp' width = '100%;'></div><div class = 'column'><img src = 'category3/CS10.png' width = '70%;'></div></div>","null","neg","CS","CS","3","category3/CS10.png","","","","",""
"","html-keyboard-response","33","265908","0.0-6.0-2.0-0.6","jf18mbay4y","many_one","0","indirect_first","0","st06ns22","0","23","1","1","3","1","","0","1","0","null","","","<div class = 'row'><div class = 'column'><img src = 'usneg/9182.bmp' width = '100%;'></div><div class = 'column'><img src = 'category4/CS8.png' width = '70%;'></div></div>","null","neg","CS","CS","4","category4/CS8.png","","","","",""
"","html-keyboard-response","34","268432","0.0-6.0-2.0-0.7","jf18mbay4y","many_one","0","indirect_first","0","st06ns22","0","23","1","1","3","1","","0","1","0","null","","","<div class = 'row'><div class = 'column'><img src = 'uspos/2530.bmp' width = '100%;'></div><div class = 'column'><img src = 'category2/CS10.png' width = '70%;'></div></div>","null","pos","CS","CS","2","category2/CS10.png","","","","",""
"","html-keyboard-response","35","270948","0.0-6.0-2.0-0.8","jf18mbay4y","many_one","0","indirect_first","0","st06ns22","0","23","1","1","3","1","","0","1","0","null","","","<div class = 'row'><div class = 'column'><img src = 'category3/CS5.png' width = '70%;'></div><div class = 'column'><img src = 'usneg/2750.bmp' width = '100%;'></div></div>","null","neg","CS","CS","3","category3/CS5.png","","","","",""
"","html-keyboard-response","36","273475","0.0-6.0-2.0-0.9","jf18mbay4y","many_one","0","indirect_first","0","st06ns22","0","23","1","1","3","1","","0","1","0","null","","","<div class = 'row'><div class = 'column'><img src = 'usneg/9561.bmp' width = '100%;'></div><div class = 'column'><img src = 'category4/CS7.png' width = '70%;'></div></div>","null","neg","CS","CS","4","category4/CS7.png","","","","",""
"","html-keyboard-response","37","276008","0.0-6.0-2.0-0.10","jf18mbay4y","many_one","0","indirect_first","0","st06ns22","0","23","1","1","3","1","","0","1","0","null","","","<div class = 'row'><div class = 'column'><img src = 'category4/CS4.png' width = '70%;'></div><div class = 'column'><img src = 'usneg/9421.bmp' width = '100%;'></div></div>","null","neg","CS","CS","4","category4/CS4.png","","","","",""
"","html-keyboard-response","38","278523","0.0-6.0-2.0-0.11","jf18mbay4y","many_one","0","indirect_first","0","st06ns22","0","23","1","1","3","1","","0","1","0","null","","","<div class = 'row'><div class = 'column'><img src = 'category3/CS6.png' width = '70%;'></div><div class = 'column'><img src = 'usneg/9000.bmp' width = '100%;'></div></div>","null","neg","CS","CS","3","category3/CS6.png","","","","",""
"","html-keyboard-response","39","281042","0.0-6.0-2.0-0.12","jf18mbay4y","many_one","0","indirect_first","0","st06ns22","0","23","1","1","3","1","","0","1","0","null","","","<div class = 'row'><div class = 'column'><img src = 'category4/CS5.png' width = '70%;'></div><div class = 'column'><img src = 'usneg/2900.bmp' width = '100%;'></div></div>","null","neg","CS","CS","4","category4/CS5.png","","","","",""
"","html-keyboard-response","40","283563","0.0-6.0-2.0-0.13","jf18mbay4y","many_one","0","indirect_first","0","st06ns22","0","23","1","1","3","1","","0","1","0","null","","","<div class = 'row'><div class = 'column'><img src = 'category3/CS7.png' width = '70%;'></div><div class = 'column'><img src = 'usneg/2205.bmp' width = '100%;'></div></div>","null","neg","CS","CS","3","category3/CS7.png","","","","",""
"","html-keyboard-response","41","286090","0.0-6.0-2.0-0.14","jf18mbay4y","many_one","0","indirect_first","0","st06ns22","0","23","1","1","3","1","","0","1","0","null","","","<div class = 'row'><div class = 'column'><img src = 'category1/CS2.png' width = '70%;'></div><div class = 'column'><img src = 'uspos/8350.bmp' width = '100%;'></div></div>","null","pos","CS","CS","1","category1/CS2.png","","","","",""
"","html-keyboard-response","42","288610","0.0-6.0-2.0-0.15","jf18mbay4y","many_one","0","indirect_first","0","st06ns22","0","23","1","1","3","1","","0","1","0","null","","","<div class = 'row'><div class = 'column'><img src = 'category2/CS3.png' width = '70%;'></div><div class = 'column'><img src = 'uspos/2160.bmp' width = '100%;'></div></div>","null","pos","CS","CS","2","category2/CS3.png","","","","",""
"","html-keyboard-response","43","291119","0.0-6.0-2.0-0.16","jf18mbay4y","many_one","0","indirect_first","0","st06ns22","0","23","1","1","3","1","","0","1","0","null","","","<div class = 'row'><div class = 'column'><img src = 'usneg/9181.bmp' width = '100%;'></div><div class = 'column'><img src = 'category4/CS6.png' width = '70%;'></div></div>","null","neg","CS","CS","4","category4/CS6.png","","","","",""
"","html-keyboard-response","44","293629","0.0-6.0-2.0-0.17","jf18mbay4y","many_one","0","indirect_first","0","st06ns22","0","23","1","1","3","1","","0","1","0","null","","","<div class = 'row'><div class = 'column'><img src = 'uspos/5760.bmp' width = '100%;'></div><div class = 'column'><img src = 'category1/CS10.png' width = '70%;'></div></div>","null","pos","CS","CS","1","category1/CS10.png","","","","",""
"","html-keyboard-response","45","296144","0.0-6.0-2.0-0.18","jf18mbay4y","many_one","0","indirect_first","0","st06ns22","0","23","1","1","3","1","","0","1","0","null","","","<div class = 'row'><div class = 'column'><img src = 'category3/CS9.png' width = '70%;'></div><div class = 'column'><img src = 'usneg/3160.bmp' width = '100%;'></div></div>","null","neg","CS","CS","3","category3/CS9.png","","","","",""
"","html-keyboard-response","46","298662","0.0-6.0-2.0-0.19","jf18mbay4y","many_one","0","indirect_first","0","st06ns22","0","23","1","1","3","1","","0","1","0","null","","","<div class = 'row'><div class = 'column'><img src = 'category2/CS1.png' width = '70%;'></div><div class = 'column'><img src = 'uspos/2040.bmp' width = '100%;'></div></div>","null","pos","CS","CS","2","category2/CS1.png","","","","",""
"","survey-html-form","47","304198","0.0-6.0-3.0","jf18mbay4y","many_one","0","indirect_first","0","st06ns22","0","23","1","1","3","1","","0","1","0","5025.990000227466","","{}","","","","","","","","","","","",""
"","html-keyboard-response","48","308217","0.0-6.0-4.0-0.0","jf18mbay4y","many_one","0","indirect_first","0","st06ns22","0","23","1","1","3","1","","0","1","0","null","","","<div class = 'row'><div class = 'column'><img src = 'category1/CS2.png' width = '70%;'></div><div class = 'column'><img src = 'uspos/8350.bmp' width = '100%;'></div></div>","null","pos","CS","CS","1","category1/CS2.png","","","","",""
"","html-keyboard-response","49","310729","0.0-6.0-4.0-0.1","jf18mbay4y","many_one","0","indirect_first","0","st06ns22","0","23","1","1","3","1","","0","1","0","null","","","<div class = 'row'><div class = 'column'><img src = 'category2/CS3.png' width = '70%;'></div><div class = 'column'><img src = 'uspos/2160.bmp' width = '100%;'></div></div>","null","pos","CS","CS","2","category2/CS3.png","","","","",""
"","html-keyboard-response","50","313250","0.0-6.0-4.0-0.2","jf18mbay4y","many_one","0","indirect_first","0","st06ns22","0","23","1","1","3","1","","0","1","0","null","","","<div class = 'row'><div class = 'column'><img src = 'usneg/2205.bmp' width = '100%;'></div><div class = 'column'><img src = 'category3/CS7.png' width = '70%;'></div></div>","null","neg","CS","CS","3","category3/CS7.png","","","","",""
"","html-keyboard-response","51","315757","0.0-6.0-4.0-0.3","jf18mbay4y","many_one","0","indirect_first","0","st06ns22","0","23","1","1","3","1","","0","1","0","null","","","<div class = 'row'><div class = 'column'><img src = 'category2/CS6.png' width = '70%;'></div><div class = 'column'><img src = 'uspos/8461.bmp' width = '100%;'></div></div>","null","pos","CS","CS","2","category2/CS6.png","","","","",""
"","html-keyboard-response","52","318272","0.0-6.0-4.0-0.4","jf18mbay4y","many_one","0","indirect_first","0","st06ns22","0","23","1","1","3","1","","0","1","0","null","","","<div class = 'row'><div class = 'column'><img src = 'category1/CS5.png' width = '70%;'></div><div class = 'column'><img src = 'uspos/2165.bmp' width = '100%;'></div></div>","null","pos","CS","CS","1","category1/CS5.png","","","","",""
"","html-keyboard-response","53","320788","0.0-6.0-4.0-0.5","jf18mbay4y","many_one","0","indirect_first","0","st06ns22","0","23","1","1","3","1","","0","1","0","null","","","<div class = 'row'><div class = 'column'><img src = 'usneg/2750.bmp' width = '100%;'></div><div class = 'column'><img src = 'category3/CS5.png' width = '70%;'></div></div>","null","neg","CS","CS","3","category3/CS5.png","","","","",""
"","html-keyboard-response","54","323305","0.0-6.0-4.0-0.6","jf18mbay4y","many_one","0","indirect_first","0","st06ns22","0","23","1","1","3","1","","0","1","0","null","","","<div class = 'row'><div class = 'column'><img src = 'category4/CS8.png' width = '70%;'></div><div class = 'column'><img src = 'usneg/9182.bmp' width = '100%;'></div></div>","null","neg","CS","CS","4","category4/CS8.png","","","","",""
"","html-keyboard-response","55","325823","0.0-6.0-4.0-0.7","jf18mbay4y","many_one","0","indirect_first","0","st06ns22","0","23","1","1","3","1","","0","1","0","null","","","<div class = 'row'><div class = 'column'><img src = 'uspos/5760.bmp' width = '100%;'></div><div class = 'column'><img src = 'category1/CS10.png' width = '70%;'></div></div>","null","pos","CS","CS","1","category1/CS10.png","","","","",""
"","html-keyboard-response","56","328348","0.0-6.0-4.0-0.8","jf18mbay4y","many_one","0","indirect_first","0","st06ns22","0","23","1","1","3","1","","0","1","0","null","","","<div class = 'row'><div class = 'column'><img src = 'category2/CS10.png' width = '70%;'></div><div class = 'column'><img src = 'uspos/2530.bmp' width = '100%;'></div></div>","null","pos","CS","CS","2","category2/CS10.png","","","","",""
"","html-keyboard-response","57","330859","0.0-6.0-4.0-0.9","jf18mbay4y","many_one","0","indirect_first","0","st06ns22","0","23","1","1","3","1","","0","1","0","null","","","<div class = 'row'><div class = 'column'><img src = 'usneg/9181.bmp' width = '100%;'></div><div class = 'column'><img src = 'category4/CS6.png' width = '70%;'></div></div>","null","neg","CS","CS","4","category4/CS6.png","","","","",""
"","html-keyboard-response","58","333369","0.0-6.0-4.0-0.10","jf18mbay4y","many_one","0","indirect_first","0","st06ns22","0","23","1","1","3","1","","0","1","0","null","","","<div class = 'row'><div class = 'column'><img src = 'category4/CS4.png' width = '70%;'></div><div class = 'column'><img src = 'usneg/9421.bmp' width = '100%;'></div></div>","null","neg","CS","CS","4","category4/CS4.png","","","","",""
"","html-keyboard-response","59","335888","0.0-6.0-4.0-0.11","jf18mbay4y","many_one","0","indirect_first","0","st06ns22","0","23","1","1","3","1","","0","1","0","null","","","<div class = 'row'><div class = 'column'><img src = 'uspos/7325.bmp' width = '100%;'></div><div class = 'column'><img src = 'category2/CS8.png' width = '70%;'></div></div>","null","pos","CS","CS","2","category2/CS8.png","","","","",""
"","html-keyboard-response","60","338402","0.0-6.0-4.0-0.12","jf18mbay4y","many_one","0","indirect_first","0","st06ns22","0","23","1","1","3","1","","0","1","0","null","","","<div class = 'row'><div class = 'column'><img src = 'category4/CS7.png' width = '70%;'></div><div class = 'column'><img src = 'usneg/9561.bmp' width = '100%;'></div></div>","null","neg","CS","CS","4","category4/CS7.png","","","","",""
"","html-keyboard-response","61","340911","0.0-6.0-4.0-0.13","jf18mbay4y","many_one","0","indirect_first","0","st06ns22","0","23","1","1","3","1","","0","1","0","null","","","<div class = 'row'><div class = 'column'><img src = 'category4/CS5.png' width = '70%;'></div><div class = 'column'><img src = 'usneg/2900.bmp' width = '100%;'></div></div>","null","neg","CS","CS","4","category4/CS5.png","","","","",""
"","html-keyboard-response","62","343432","0.0-6.0-4.0-0.14","jf18mbay4y","many_one","0","indirect_first","0","st06ns22","0","23","1","1","3","1","","0","1","0","null","","","<div class = 'row'><div class = 'column'><img src = 'category3/CS6.png' width = '70%;'></div><div class = 'column'><img src = 'usneg/9000.bmp' width = '100%;'></div></div>","null","neg","CS","CS","3","category3/CS6.png","","","","",""
"","html-keyboard-response","63","345950","0.0-6.0-4.0-0.15","jf18mbay4y","many_one","0","indirect_first","0","st06ns22","0","23","1","1","3","1","","0","1","0","null","","","<div class = 'row'><div class = 'column'><img src = 'uspos/1710.bmp' width = '100%;'></div><div class = 'column'><img src = 'category1/CS9.png' width = '70%;'></div></div>","null","pos","CS","CS","1","category1/CS9.png","","","","",""
"","html-keyboard-response","64","348473","0.0-6.0-4.0-0.16","jf18mbay4y","many_one","0","indirect_first","0","st06ns22","0","23","1","1","3","1","","0","1","0","null","","","<div class = 'row'><div class = 'column'><img src = 'uspos/5629.bmp' width = '100%;'></div><div class = 'column'><img src = 'category1/CS1.png' width = '70%;'></div></div>","null","pos","CS","CS","1","category1/CS1.png","","","","",""
"","html-keyboard-response","65","350981","0.0-6.0-4.0-0.17","jf18mbay4y","many_one","0","indirect_first","0","st06ns22","0","23","1","1","3","1","","0","1","0","null","","","<div class = 'row'><div class = 'column'><img src = 'usneg/9830.bmp' width = '100%;'></div><div class = 'column'><img src = 'category3/CS10.png' width = '70%;'></div></div>","null","neg","CS","CS","3","category3/CS10.png","","","","",""
"","html-keyboard-response","66","353496","0.0-6.0-4.0-0.18","jf18mbay4y","many_one","0","indirect_first","0","st06ns22","0","23","1","1","3","1","","0","1","0","null","","","<div class = 'row'><div class = 'column'><img src = 'usneg/3160.bmp' width = '100%;'></div><div class = 'column'><img src = 'category3/CS9.png' width = '70%;'></div></div>","null","neg","CS","CS","3","category3/CS9.png","","","","",""
"","html-keyboard-response","67","356019","0.0-6.0-4.0-0.19","jf18mbay4y","many_one","0","indirect_first","0","st06ns22","0","23","1","1","3","1","","0","1","0","null","","","<div class = 'row'><div class = 'column'><img src = 'category2/CS1.png' width = '70%;'></div><div class = 'column'><img src = 'uspos/2040.bmp' width = '100%;'></div></div>","null","pos","CS","CS","2","category2/CS1.png","","","","",""
"","survey-html-form","68","358762","0.0-6.0-5.0","jf18mbay4y","many_one","0","indirect_first","0","st06ns22","0","23","1","1","3","1","","0","1","0","2232.530000153929","","{}","","","","","","","","","","","",""
"","html-keyboard-response","69","362783","0.0-6.0-6.0-0.0","jf18mbay4y","many_one","0","indirect_first","0","st06ns22","0","23","1","1","3","1","","0","1","0","null","","","<div class = 'row'><div class = 'column'><img src = 'category3/CS10.png' width = '70%;'></div><div class = 'column'><img src = 'usneg/9830.bmp' width = '100%;'></div></div>","null","neg","CS","CS","3","category3/CS10.png","","","","",""
"","html-keyboard-response","70","365303","0.0-6.0-6.0-0.1","jf18mbay4y","many_one","0","indirect_first","0","st06ns22","0","23","1","1","3","1","","0","1","0","null","","","<div class = 'row'><div class = 'column'><img src = 'uspos/2160.bmp' width = '100%;'></div><div class = 'column'><img src = 'category2/CS3.png' width = '70%;'></div></div>","null","pos","CS","CS","2","category2/CS3.png","","","","",""
"","html-keyboard-response","71","367826","0.0-6.0-6.0-0.2","jf18mbay4y","many_one","0","indirect_first","0","st06ns22","0","23","1","1","3","1","","0","1","0","null","","","<div class = 'row'><div class = 'column'><img src = 'uspos/2530.bmp' width = '100%;'></div><div class = 'column'><img src = 'category2/CS10.png' width = '70%;'></div></div>","null","pos","CS","CS","2","category2/CS10.png","","","","",""
"","html-keyboard-response","72","370343","0.0-6.0-6.0-0.3","jf18mbay4y","many_one","0","indirect_first","0","st06ns22","0","23","1","1","3","1","","0","1","0","null","","","<div class = 'row'><div class = 'column'><img src = 'uspos/7325.bmp' width = '100%;'></div><div class = 'column'><img src = 'category2/CS8.png' width = '70%;'></div></div>","null","pos","CS","CS","2","category2/CS8.png","","","","",""
"","html-keyboard-response","73","372856","0.0-6.0-6.0-0.4","jf18mbay4y","many_one","0","indirect_first","0","st06ns22","0","23","1","1","3","1","","0","1","0","null","","","<div class = 'row'><div class = 'column'><img src = 'category4/CS8.png' width = '70%;'></div><div class = 'column'><img src = 'usneg/9182.bmp' width = '100%;'></div></div>","null","neg","CS","CS","4","category4/CS8.png","","","","",""
"","html-keyboard-response","74","375365","0.0-6.0-6.0-0.5","jf18mbay4y","many_one","0","indirect_first","0","st06ns22","0","23","1","1","3","1","","0","1","0","null","","","<div class = 'row'><div class = 'column'><img src = 'uspos/1710.bmp' width = '100%;'></div><div class = 'column'><img src = 'category1/CS9.png' width = '70%;'></div></div>","null","pos","CS","CS","1","category1/CS9.png","","","","",""
"","html-keyboard-response","75","377882","0.0-6.0-6.0-0.6","jf18mbay4y","many_one","0","indirect_first","0","st06ns22","0","23","1","1","3","1","","0","1","0","null","","","<div class = 'row'><div class = 'column'><img src = 'category4/CS7.png' width = '70%;'></div><div class = 'column'><img src = 'usneg/9561.bmp' width = '100%;'></div></div>","null","neg","CS","CS","4","category4/CS7.png","","","","",""
"","html-keyboard-response","76","380398","0.0-6.0-6.0-0.7","jf18mbay4y","many_one","0","indirect_first","0","st06ns22","0","23","1","1","3","1","","0","1","0","null","","","<div class = 'row'><div class = 'column'><img src = 'usneg/9421.bmp' width = '100%;'></div><div class = 'column'><img src = 'category4/CS4.png' width = '70%;'></div></div>","null","neg","CS","CS","4","category4/CS4.png","","","","",""
"","html-keyboard-response","77","382915","0.0-6.0-6.0-0.8","jf18mbay4y","many_one","0","indirect_first","0","st06ns22","0","23","1","1","3","1","","0","1","0","null","","","<div class = 'row'><div class = 'column'><img src = 'category2/CS1.png' width = '70%;'></div><div class = 'column'><img src = 'uspos/2040.bmp' width = '100%;'></div></div>","null","pos","CS","CS","2","category2/CS1.png","","","","",""
"","html-keyboard-response","78","385425","0.0-6.0-6.0-0.9","jf18mbay4y","many_one","0","indirect_first","0","st06ns22","0","23","1","1","3","1","","0","1","0","null","","","<div class = 'row'><div class = 'column'><img src = 'category4/CS6.png' width = '70%;'></div><div class = 'column'><img src = 'usneg/9181.bmp' width = '100%;'></div></div>","null","neg","CS","CS","4","category4/CS6.png","","","","",""
"","html-keyboard-response","79","387942","0.0-6.0-6.0-0.10","jf18mbay4y","many_one","0","indirect_first","0","st06ns22","0","23","1","1","3","1","","0","1","0","null","","","<div class = 'row'><div class = 'column'><img src = 'usneg/2750.bmp' width = '100%;'></div><div class = 'column'><img src = 'category3/CS5.png' width = '70%;'></div></div>","null","neg","CS","CS","3","category3/CS5.png","","","","",""
"","html-keyboard-response","80","390459","0.0-6.0-6.0-0.11","jf18mbay4y","many_one","0","indirect_first","0","st06ns22","0","23","1","1","3","1","","0","1","0","null","","","<div class = 'row'><div class = 'column'><img src = 'uspos/5760.bmp' width = '100%;'></div><div class = 'column'><img src = 'category1/CS10.png' width = '70%;'></div></div>","null","pos","CS","CS","1","category1/CS10.png","","","","",""
"","html-keyboard-response","81","392978","0.0-6.0-6.0-0.12","jf18mbay4y","many_one","0","indirect_first","0","st06ns22","0","23","1","1","3","1","","0","1","0","null","","","<div class = 'row'><div class = 'column'><img src = 'uspos/8350.bmp' width = '100%;'></div><div class = 'column'><img src = 'category1/CS2.png' width = '70%;'></div></div>","null","pos","CS","CS","1","category1/CS2.png","","","","",""
"","html-keyboard-response","82","395496","0.0-6.0-6.0-0.13","jf18mbay4y","many_one","0","indirect_first","0","st06ns22","0","23","1","1","3","1","","0","1","0","null","","","<div class = 'row'><div class = 'column'><img src = 'category4/CS5.png' width = '70%;'></div><div class = 'column'><img src = 'usneg/2900.bmp' width = '100%;'></div></div>","null","neg","CS","CS","4","category4/CS5.png","","","","",""
"","html-keyboard-response","83","398011","0.0-6.0-6.0-0.14","jf18mbay4y","many_one","0","indirect_first","0","st06ns22","0","23","1","1","3","1","","0","1","0","null","","","<div class = 'row'><div class = 'column'><img src = 'category3/CS6.png' width = '70%;'></div><div class = 'column'><img src = 'usneg/9000.bmp' width = '100%;'></div></div>","null","neg","CS","CS","3","category3/CS6.png","","","","",""
"","html-keyboard-response","84","400533","0.0-6.0-6.0-0.15","jf18mbay4y","many_one","0","indirect_first","0","st06ns22","0","23","1","1","3","1","","0","1","0","null","","","<div class = 'row'><div class = 'column'><img src = 'category1/CS1.png' width = '70%;'></div><div class = 'column'><img src = 'uspos/5629.bmp' width = '100%;'></div></div>","null","pos","CS","CS","1","category1/CS1.png","","","","",""
"","html-keyboard-response","85","403056","0.0-6.0-6.0-0.16","jf18mbay4y","many_one","0","indirect_first","0","st06ns22","0","23","1","1","3","1","","0","1","0","null","","","<div class = 'row'><div class = 'column'><img src = 'uspos/8461.bmp' width = '100%;'></div><div class = 'column'><img src = 'category2/CS6.png' width = '70%;'></div></div>","null","pos","CS","CS","2","category2/CS6.png","","","","",""
"","html-keyboard-response","86","405567","0.0-6.0-6.0-0.17","jf18mbay4y","many_one","0","indirect_first","0","st06ns22","0","23","1","1","3","1","","0","1","0","null","","","<div class = 'row'><div class = 'column'><img src = 'category1/CS5.png' width = '70%;'></div><div class = 'column'><img src = 'uspos/2165.bmp' width = '100%;'></div></div>","null","pos","CS","CS","1","category1/CS5.png","","","","",""
"","html-keyboard-response","87","408087","0.0-6.0-6.0-0.18","jf18mbay4y","many_one","0","indirect_first","0","st06ns22","0","23","1","1","3","1","","0","1","0","null","","","<div class = 'row'><div class = 'column'><img src = 'usneg/2205.bmp' width = '100%;'></div><div class = 'column'><img src = 'category3/CS7.png' width = '70%;'></div></div>","null","neg","CS","CS","3","category3/CS7.png","","","","",""
"","html-keyboard-response","88","410617","0.0-6.0-6.0-0.19","jf18mbay4y","many_one","0","indirect_first","0","st06ns22","0","23","1","1","3","1","","0","1","0","null","","","<div class = 'row'><div class = 'column'><img src = 'category3/CS9.png' width = '70%;'></div><div class = 'column'><img src = 'usneg/3160.bmp' width = '100%;'></div></div>","null","neg","CS","CS","3","category3/CS9.png","","","","",""
"","html-keyboard-response","89","470186","0.0-7.0","jf18mbay4y","many_one","0","indirect_first","0","st06ns22","0","23","1","1","3","1","","0","1","0","59056.55500013381","","","<p>Sie sehen nun die chinesischen Zeichen nur ganz kurz. Danach sehen Sie die jeweilige Aussprache der Zeichen als Silbe auf dem Bildschrim. Ihre Aufgabe ist es, für jede Silbe anzugeben, ob diese etwas angenehmes, oder unangenehmes bedeuten könnte. Verlassen Sie sich hier vor allem auf Ihre Intuition.<br><br>Die Zeichen werden nur zur Orientierung dargestellt, beachten Sie sie deshalb nicht. Konzentrieren Sie sich vor allem auf die Silben. <br>Reagieren Sie mit folgenden zwei Tasten: <br><br><b>'D' </b> wenn die Silbe etwas <b>unangenehmes</b> bedeuten könnte. <br><b>'K'</b> wenn die Silbe etwas <b>angenehmes</b> bedeuten könnte. <br><br>Bitte legen Sie nun den Zeigefinger der linken Hand auf die Taste 'D' und den Zeigefinger der rechten Hand auf die Taste 'K'. <br>Reagieren Sie auf jede Silbe so schnell wie möglich. Uns interessiert Ihre spontane Reaktion. <br> <br> <br>Drücken Sie 'D' oder 'K', um die nächste Aufgabe zu starten. </p>","68","","","","","","","","","",""
"","html-keyboard-response","90","473199","0.0-8.0-0.0","jf18mbay4y","many_one","0","indirect_first","0","st06ns22","0","23","1","1","3","1","","0","1","0","null","","","<div style=""font-size:60px;"">+</div>","null","","","","","","","","","",""
"","html-keyboard-response","91","473300","0.0-8.0-1.0","jf18mbay4y","many_one","0","indirect_first","0","st06ns22","0","23","1","1","3","1","","0","1","0","null","","","<img src = 'category2/CS3.png' width = '100%;'>","null","","","","","","","","","",""
"","html-keyboard-response","92","473568","0.0-8.0-2.0","jf18mbay4y","many_one","0","indirect_first","0","st06ns22","0","23","1","1","3","1","","0","1","0","null","","","<img src = 'targets/23.png' width = '100%;'>","null","","","","","","","","","",""
"","html-keyboard-response","93","478626","0.0-8.0-3.0","jf18mbay4y","many_one","0","indirect_first","0","st06ns22","0","23","1","1","3","1","","0","1","0","5055.5750001221895","","","<img src = 'targets/mask.png' width = '100%;'>","68","pos","CS","CS","2","category2/CS3.png","targets/23.png","0","indirect","0",""
"","html-keyboard-response","94","480137","0.0-8.0-0.1","jf18mbay4y","many_one","0","indirect_first","0","st06ns22","0","23","1","1","3","1","","0","1","0","null","","","<div style=""font-size:60px;"">+</div>","null","","","","","","","","","",""
"","html-keyboard-response","95","480229","0.0-8.0-1.1","jf18mbay4y","many_one","0","indirect_first","0","st06ns22","0","23","1","1","3","1","","0","1","0","null","","","<img src = 'category2/CS1.png' width = '100%;'>","null","","","","","","","","","",""
"","html-keyboard-response","96","480490","0.0-8.0-2.1","jf18mbay4y","many_one","0","indirect_first","0","st06ns22","0","23","1","1","3","1","","0","1","0","null","","","<img src = 'targets/13.png' width = '100%;'>","null","","","","","","","","","",""
"","html-keyboard-response","97","484021","0.0-8.0-3.1","jf18mbay4y","many_one","0","indirect_first","0","st06ns22","0","23","1","1","3","1","","0","1","0","3528.8849999196827","","","<img src = 'targets/mask.png' width = '100%;'>","75","pos","CS","CS","2","category2/CS1.png","targets/13.png","1","indirect","1",""
"","html-keyboard-response","98","485535","0.0-8.0-0.2","jf18mbay4y","many_one","0","indirect_first","0","st06ns22","0","23","1","1","3","1","","0","1","0","null","","","<div style=""font-size:60px;"">+</div>","null","","","","","","","","","",""
"","html-keyboard-response","99","485635","0.0-8.0-1.2","jf18mbay4y","many_one","0","indirect_first","0","st06ns22","0","23","1","1","3","1","","0","1","0","null","","","<img src = 'category1/CS1.png' width = '100%;'>","null","","","","","","","","","",""
"","html-keyboard-response","100","485889","0.0-8.0-2.2","jf18mbay4y","many_one","0","indirect_first","0","st06ns22","0","23","1","1","3","1","","0","1","0","null","","","<img src = 'targets/39.png' width = '100%;'>","null","","","","","","","","","",""
"","html-keyboard-response","101","487214","0.0-8.0-3.2","jf18mbay4y","many_one","0","indirect_first","0","st06ns22","0","23","1","1","3","1","","0","1","0","1321.1799999698997","","","<img src = 'targets/mask.png' width = '100%;'>","68","pos","CS","CS","1","category1/CS1.png","targets/39.png","0","indirect","2",""
"","html-keyboard-response","102","488731","0.0-8.0-0.3","jf18mbay4y","many_one","0","indirect_first","0","st06ns22","0","23","1","1","3","1","","0","1","0","null","","","<div style=""font-size:60px;"">+</div>","null","","","","","","","","","",""
"","html-keyboard-response","103","488831","0.0-8.0-1.3","jf18mbay4y","many_one","0","indirect_first","0","st06ns22","0","23","1","1","3","1","","0","1","0","null","","","<img src = 'category3/CS9.png' width = '100%;'>","null","","","","","","","","","",""
"","html-keyboard-response","104","489096","0.0-8.0-2.3","jf18mbay4y","many_one","0","indirect_first","0","st06ns22","0","23","1","1","3","1","","0","1","0","null","","","<img src = 'targets/36.png' width = '100%;'>","null","","","","","","","","","",""
"","html-keyboard-response","105","491436","0.0-8.0-3.3","jf18mbay4y","many_one","0","indirect_first","0","st06ns22","0","23","1","1","3","1","","0","1","0","2337.169999955222","","","<img src = 'targets/mask.png' width = '100%;'>","68","neg","CS","CS","3","category3/CS9.png","targets/36.png","0","indirect","3",""
"","html-keyboard-response","106","492946","0.0-8.0-0.4","jf18mbay4y","many_one","0","indirect_first","0","st06ns22","0","23","1","1","3","1","","0","1","0","null","","","<div style=""font-size:60px;"">+</div>","null","","","","","","","","","",""
"","html-keyboard-response","107","493045","0.0-8.0-1.4","jf18mbay4y","many_one","0","indirect_first","0","st06ns22","0","23","1","1","3","1","","0","1","0","null","","","<img src = 'category1/CS2.png' width = '100%;'>","null","","","","","","","","","",""
"","html-keyboard-response","108","493312","0.0-8.0-2.4","jf18mbay4y","many_one","0","indirect_first","0","st06ns22","0","23","1","1","3","1","","0","1","0","null","","","<img src = 'targets/3.png' width = '100%;'>","null","","","","","","","","","",""
"","html-keyboard-response","109","496734","0.0-8.0-3.4","jf18mbay4y","many_one","0","indirect_first","0","st06ns22","0","23","1","1","3","1","","0","1","0","3418.309999862686","","","<img src = 'targets/mask.png' width = '100%;'>","75","pos","CS","CS","1","category1/CS2.png","targets/3.png","1","indirect","4",""
"","html-keyboard-response","110","498252","0.0-8.0-0.5","jf18mbay4y","many_one","0","indirect_first","0","st06ns22","0","23","1","1","3","1","","0","1","0","null","","","<div style=""font-size:60px;"">+</div>","null","","","","","","","","","",""
"","html-keyboard-response","111","498345","0.0-8.0-1.5","jf18mbay4y","many_one","0","indirect_first","0","st06ns22","0","23","1","1","3","1","","0","1","0","null","","","<img src = 'category4/CS2.png' width = '100%;'>","null","","","","","","","","","",""
"","html-keyboard-response","112","498605","0.0-8.0-2.5","jf18mbay4y","many_one","0","indirect_first","0","st06ns22","0","23","1","1","3","1","","0","1","0","null","","","<img src = 'targets/22.png' width = '100%;'>","null","","","","","","","","","",""
"","html-keyboard-response","113","500153","0.0-8.0-3.5","jf18mbay4y","many_one","0","indirect_first","0","st06ns22","0","23","1","1","3","1","","0","1","0","1545.014999806881","","","<img src = 'targets/mask.png' width = '100%;'>","68","neg","GS","GSold","4","category4/CS2.png","targets/22.png","0","indirect","5",""
"","html-keyboard-response","114","501672","0.0-8.0-0.6","jf18mbay4y","many_one","0","indirect_first","0","st06ns22","0","23","1","1","3","1","","0","1","0","null","","","<div style=""font-size:60px;"">+</div>","null","","","","","","","","","",""
"","html-keyboard-response","115","501765","0.0-8.0-1.6","jf18mbay4y","many_one","0","indirect_first","0","st06ns22","0","23","1","1","3","1","","0","1","0","null","","","<img src = 'category4/CS7.png' width = '100%;'>","null","","","","","","","","","",""
"","html-keyboard-response","116","502027","0.0-8.0-2.6","jf18mbay4y","many_one","0","indirect_first","0","st06ns22","0","23","1","1","3","1","","0","1","0","null","","","<img src = 'targets/45.png' width = '100%;'>","null","","","","","","","","","",""
"","html-keyboard-response","117","502811","0.0-8.0-3.6","jf18mbay4y","many_one","0","indirect_first","0","st06ns22","0","23","1","1","3","1","","0","1","0","781.6949998959899","","","<img src = 'targets/mask.png' width = '100%;'>","75","neg","CS","CS","4","category4/CS7.png","targets/45.png","1","indirect","6",""
"","html-keyboard-response","118","504325","0.0-8.0-0.7","jf18mbay4y","many_one","0","indirect_first","0","st06ns22","0","23","1","1","3","1","","0","1","0","null","","","<div style=""font-size:60px;"">+</div>","null","","","","","","","","","",""
"","html-keyboard-response","119","504419","0.0-8.0-1.7","jf18mbay4y","many_one","0","indirect_first","0","st06ns22","0","23","1","1","3","1","","0","1","0","null","","","<img src = 'category3/CS6.png' width = '100%;'>","null","","","","","","","","","",""
"","html-keyboard-response","120","504683","0.0-8.0-2.7","jf18mbay4y","many_one","0","indirect_first","0","st06ns22","0","23","1","1","3","1","","0","1","0","null","","","<img src = 'targets/25.png' width = '100%;'>","null","","","","","","","","","",""
"","html-keyboard-response","121","505527","0.0-8.0-3.7","jf18mbay4y","many_one","0","indirect_first","0","st06ns22","0","23","1","1","3","1","","0","1","0","841.8099998962134","","","<img src = 'targets/mask.png' width = '100%;'>","75","neg","CS","CS","3","category3/CS6.png","targets/25.png","1","indirect","7",""
"","html-keyboard-response","122","507034","0.0-8.0-0.8","jf18mbay4y","many_one","0","indirect_first","0","st06ns22","0","23","1","1","3","1","","0","1","0","null","","","<div style=""font-size:60px;"">+</div>","null","","","","","","","","","",""
"","html-keyboard-response","123","507127","0.0-8.0-1.8","jf18mbay4y","many_one","0","indirect_first","0","st06ns22","0","23","1","1","3","1","","0","1","0","null","","","<img src = 'category4/CS4.png' width = '100%;'>","null","","","","","","","","","",""
"","html-keyboard-response","124","507388","0.0-8.0-2.8","jf18mbay4y","many_one","0","indirect_first","0","st06ns22","0","23","1","1","3","1","","0","1","0","null","","","<img src = 'targets/16.png' width = '100%;'>","null","","","","","","","","","",""
"","html-keyboard-response","125","508207","0.0-8.0-3.8","jf18mbay4y","many_one","0","indirect_first","0","st06ns22","0","23","1","1","3","1","","0","1","0","817.0700001064688","","","<img src = 'targets/mask.png' width = '100%;'>","68","neg","CS","CS","4","category4/CS4.png","targets/16.png","0","indirect","8",""
"","html-keyboard-response","126","509717","0.0-8.0-0.9","jf18mbay4y","many_one","0","indirect_first","0","st06ns22","0","23","1","1","3","1","","0","1","0","null","","","<div style=""font-size:60px;"">+</div>","null","","","","","","","","","",""
"","html-keyboard-response","127","509810","0.0-8.0-1.9","jf18mbay4y","many_one","0","indirect_first","0","st06ns22","0","23","1","1","3","1","","0","1","0","null","","","<img src = 'category3/CS7.png' width = '100%;'>","null","","","","","","","","","",""
"","html-keyboard-response","128","510073","0.0-8.0-2.9","jf18mbay4y","many_one","0","indirect_first","0","st06ns22","0","23","1","1","3","1","","0","1","0","null","","","<img src = 'targets/2.png' width = '100%;'>","null","","","","","","","","","",""
"","html-keyboard-response","129","511361","0.0-8.0-3.9","jf18mbay4y","many_one","0","indirect_first","0","st06ns22","0","23","1","1","3","1","","0","1","0","1285.789999878034","","","<img src = 'targets/mask.png' width = '100%;'>","68","neg","CS","CS","3","category3/CS7.png","targets/2.png","0","indirect","9",""
"","html-keyboard-response","130","512868","0.0-8.0-0.10","jf18mbay4y","many_one","0","indirect_first","0","st06ns22","0","23","1","1","3","1","","0","1","0","null","","","<div style=""font-size:60px;"">+</div>","null","","","","","","","","","",""
"","html-keyboard-response","131","512968","0.0-8.0-1.10","jf18mbay4y","many_one","0","indirect_first","0","st06ns22","0","23","1","1","3","1","","0","1","0","null","","","<img src = 'category2/CS8.png' width = '100%;'>","null","","","","","","","","","",""
"","html-keyboard-response","132","513232","0.0-8.0-2.10","jf18mbay4y","many_one","0","indirect_first","0","st06ns22","0","23","1","1","3","1","","0","1","0","null","","","<img src = 'targets/15.png' width = '100%;'>","null","","","","","","","","","",""
"","html-keyboard-response","133","514514","0.0-8.0-3.10","jf18mbay4y","many_one","0","indirect_first","0","st06ns22","0","23","1","1","3","1","","0","1","0","1279.1999999899417","","","<img src = 'targets/mask.png' width = '100%;'>","75","pos","CS","CS","2","category2/CS8.png","targets/15.png","1","indirect","10",""
"","html-keyboard-response","134","516030","0.0-8.0-0.11","jf18mbay4y","many_one","0","indirect_first","0","st06ns22","0","23","1","1","3","1","","0","1","0","null","","","<div style=""font-size:60px;"">+</div>","null","","","","","","","","","",""
"","html-keyboard-response","135","516130","0.0-8.0-1.11","jf18mbay4y","many_one","0","indirect_first","0","st06ns22","0","23","1","1","3","1","","0","1","0","null","","","<img src = 'category3/CS5.png' width = '100%;'>","null","","","","","","","","","",""
"","html-keyboard-response","136","516396","0.0-8.0-2.11","jf18mbay4y","many_one","0","indirect_first","0","st06ns22","0","23","1","1","3","1","","0","1","0","null","","","<img src = 'targets/18.png' width = '100%;'>","null","","","","","","","","","",""
"","html-keyboard-response","137","520154","0.0-8.0-3.11","jf18mbay4y","many_one","0","indirect_first","0","st06ns22","0","23","1","1","3","1","","0","1","0","3755.265000043437","","","<img src = 'targets/mask.png' width = '100%;'>","68","neg","CS","CS","3","category3/CS5.png","targets/18.png","0","indirect","11",""
"","html-keyboard-response","138","521672","0.0-8.0-0.12","jf18mbay4y","many_one","0","indirect_first","0","st06ns22","0","23","1","1","3","1","","0","1","0","null","","","<div style=""font-size:60px;"">+</div>","null","","","","","","","","","",""
"","html-keyboard-response","139","521772","0.0-8.0-1.12","jf18mbay4y","many_one","0","indirect_first","0","st06ns22","0","23","1","1","3","1","","0","1","0","null","","","<img src = 'category1/CS9.png' width = '100%;'>","null","","","","","","","","","",""
"","html-keyboard-response","140","522029","0.0-8.0-2.12","jf18mbay4y","many_one","0","indirect_first","0","st06ns22","0","23","1","1","3","1","","0","1","0","null","","","<img src = 'targets/5.png' width = '100%;'>","null","","","","","","","","","",""
"","html-keyboard-response","141","523704","0.0-8.0-3.12","jf18mbay4y","many_one","0","indirect_first","0","st06ns22","0","23","1","1","3","1","","0","1","0","1672.3149998579174","","","<img src = 'targets/mask.png' width = '100%;'>","68","pos","CS","CS","1","category1/CS9.png","targets/5.png","0","indirect","12",""
"","html-keyboard-response","142","525219","0.0-8.0-0.13","jf18mbay4y","many_one","0","indirect_first","0","st06ns22","0","23","1","1","3","1","","0","1","0","null","","","<div style=""font-size:60px;"">+</div>","null","","","","","","","","","",""
"","html-keyboard-response","143","525312","0.0-8.0-1.13","jf18mbay4y","many_one","0","indirect_first","0","st06ns22","0","23","1","1","3","1","","0","1","0","null","","","<img src = 'category4/CS8.png' width = '100%;'>","null","","","","","","","","","",""
"","html-keyboard-response","144","525574","0.0-8.0-2.13","jf18mbay4y","many_one","0","indirect_first","0","st06ns22","0","23","1","1","3","1","","0","1","0","null","","","<img src = 'targets/31.png' width = '100%;'>","null","","","","","","","","","",""
"","html-keyboard-response","145","527534","0.0-8.0-3.13","jf18mbay4y","many_one","0","indirect_first","0","st06ns22","0","23","1","1","3","1","","0","1","0","1957.2050001006573","","","<img src = 'targets/mask.png' width = '100%;'>","75","neg","CS","CS","4","category4/CS8.png","targets/31.png","1","indirect","13",""
"","html-keyboard-response","146","529051","0.0-8.0-0.14","jf18mbay4y","many_one","0","indirect_first","0","st06ns22","0","23","1","1","3","1","","0","1","0","null","","","<div style=""font-size:60px;"">+</div>","null","","","","","","","","","",""
"","html-keyboard-response","147","529144","0.0-8.0-1.14","jf18mbay4y","many_one","0","indirect_first","0","st06ns22","0","23","1","1","3","1","","0","1","0","null","","","<img src = 'category2/CS2.png' width = '100%;'>","null","","","","","","","","","",""
"","html-keyboard-response","148","529409","0.0-8.0-2.14","jf18mbay4y","many_one","0","indirect_first","0","st06ns22","0","23","1","1","3","1","","0","1","0","null","","","<img src = 'targets/24.png' width = '100%;'>","null","","","","","","","","","",""
"","html-keyboard-response","149","530653","0.0-8.0-3.14","jf18mbay4y","many_one","0","indirect_first","0","st06ns22","0","23","1","1","3","1","","0","1","0","1240.504999877885","","","<img src = 'targets/mask.png' width = '100%;'>","75","pos","GS","GSold","2","category2/CS2.png","targets/24.png","1","indirect","14",""
"","html-keyboard-response","150","532160","0.0-8.0-0.15","jf18mbay4y","many_one","0","indirect_first","0","st06ns22","0","23","1","1","3","1","","0","1","0","null","","","<div style=""font-size:60px;"">+</div>","null","","","","","","","","","",""
"","html-keyboard-response","151","532262","0.0-8.0-1.15","jf18mbay4y","many_one","0","indirect_first","0","st06ns22","0","23","1","1","3","1","","0","1","0","null","","","<img src = 'category2/CS6.png' width = '100%;'>","null","","","","","","","","","",""
"","html-keyboard-response","152","532527","0.0-8.0-2.15","jf18mbay4y","many_one","0","indirect_first","0","st06ns22","0","23","1","1","3","1","","0","1","0","null","","","<img src = 'targets/37.png' width = '100%;'>","null","","","","","","","","","",""
"","html-keyboard-response","153","533829","0.0-8.0-3.15","jf18mbay4y","many_one","0","indirect_first","0","st06ns22","0","23","1","1","3","1","","0","1","0","1299.6700000949204","","","<img src = 'targets/mask.png' width = '100%;'>","68","pos","CS","CS","2","category2/CS6.png","targets/37.png","0","indirect","15",""
"","html-keyboard-response","154","535338","0.0-8.0-0.16","jf18mbay4y","many_one","0","indirect_first","0","st06ns22","0","23","1","1","3","1","","0","1","0","null","","","<div style=""font-size:60px;"">+</div>","null","","","","","","","","","",""
"","html-keyboard-response","155","535431","0.0-8.0-1.16","jf18mbay4y","many_one","0","indirect_first","0","st06ns22","0","23","1","1","3","1","","0","1","0","null","","","<img src = 'category4/CS3.png' width = '100%;'>","null","","","","","","","","","",""
"","html-keyboard-response","156","535698","0.0-8.0-2.16","jf18mbay4y","many_one","0","indirect_first","0","st06ns22","0","23","1","1","3","1","","0","1","0","null","","","<img src = 'targets/4.png' width = '100%;'>","null","","","","","","","","","",""
"","html-keyboard-response","157","536632","0.0-8.0-3.16","jf18mbay4y","many_one","0","indirect_first","0","st06ns22","0","23","1","1","3","1","","0","1","0","931.6750001162291","","","<img src = 'targets/mask.png' width = '100%;'>","68","neg","GS","GSold","4","category4/CS3.png","targets/4.png","0","indirect","16",""
"","html-keyboard-response","158","538139","0.0-8.0-0.17","jf18mbay4y","many_one","0","indirect_first","0","st06ns22","0","23","1","1","3","1","","0","1","0","null","","","<div style=""font-size:60px;"">+</div>","null","","","","","","","","","",""
"","html-keyboard-response","159","538235","0.0-8.0-1.17","jf18mbay4y","many_one","0","indirect_first","0","st06ns22","0","23","1","1","3","1","","0","1","0","null","","","<img src = 'category2/CS10.png' width = '100%;'>","null","","","","","","","","","",""
"","html-keyboard-response","160","538499","0.0-8.0-2.17","jf18mbay4y","many_one","0","indirect_first","0","st06ns22","0","23","1","1","3","1","","0","1","0","null","","","<img src = 'targets/26.png' width = '100%;'>","null","","","","","","","","","",""
"","html-keyboard-response","161","540754","0.0-8.0-3.17","jf18mbay4y","many_one","0","indirect_first","0","st06ns22","0","23","1","1","3","1","","0","1","0","2252.0149999763817","","","<img src = 'targets/mask.png' width = '100%;'>","75","pos","CS","CS","2","category2/CS10.png","targets/26.png","1","indirect","17",""
"","html-keyboard-response","162","542266","0.0-8.0-0.18","jf18mbay4y","many_one","0","indirect_first","0","st06ns22","0","23","1","1","3","1","","0","1","0","null","","","<div style=""font-size:60px;"">+</div>","null","","","","","","","","","",""
"","html-keyboard-response","163","542367","0.0-8.0-1.18","jf18mbay4y","many_one","0","indirect_first","0","st06ns22","0","23","1","1","3","1","","0","1","0","null","","","<img src = 'category1/CS5.png' width = '100%;'>","null","","","","","","","","","",""
"","html-keyboard-response","164","542640","0.0-8.0-2.18","jf18mbay4y","many_one","0","indirect_first","0","st06ns22","0","23","1","1","3","1","","0","1","0","null","","","<img src = 'targets/28.png' width = '100%;'>","null","","","","","","","","","",""
"","html-keyboard-response","165","543679","0.0-8.0-3.18","jf18mbay4y","many_one","0","indirect_first","0","st06ns22","0","23","1","1","3","1","","0","1","0","1036.4000000990927","","","<img src = 'targets/mask.png' width = '100%;'>","68","pos","CS","CS","1","category1/CS5.png","targets/28.png","0","indirect","18",""
"","html-keyboard-response","166","545198","0.0-8.0-0.19","jf18mbay4y","many_one","0","indirect_first","0","st06ns22","0","23","1","1","3","1","","0","1","0","null","","","<div style=""font-size:60px;"">+</div>","null","","","","","","","","","",""
"","html-keyboard-response","167","545291","0.0-8.0-1.19","jf18mbay4y","many_one","0","indirect_first","0","st06ns22","0","23","1","1","3","1","","0","1","0","null","","","<img src = 'category4/CS6.png' width = '100%;'>","null","","","","","","","","","",""
"","html-keyboard-response","168","545552","0.0-8.0-2.19","jf18mbay4y","many_one","0","indirect_first","0","st06ns22","0","23","1","1","3","1","","0","1","0","null","","","<img src = 'targets/19.png' width = '100%;'>","null","","","","","","","","","",""
"","html-keyboard-response","169","546962","0.0-8.0-3.19","jf18mbay4y","many_one","0","indirect_first","0","st06ns22","0","23","1","1","3","1","","0","1","0","1407.7649998944253","","","<img src = 'targets/mask.png' width = '100%;'>","68","neg","CS","CS","4","category4/CS6.png","targets/19.png","0","indirect","19",""
"","html-keyboard-response","170","548481","0.0-8.0-0.20","jf18mbay4y","many_one","0","indirect_first","0","st06ns22","0","23","1","1","3","1","","0","1","0","null","","","<div style=""font-size:60px;"">+</div>","null","","","","","","","","","",""
"","html-keyboard-response","171","548574","0.0-8.0-1.20","jf18mbay4y","many_one","0","indirect_first","0","st06ns22","0","23","1","1","3","1","","0","1","0","null","","","<img src = 'category4/CS5.png' width = '100%;'>","null","","","","","","","","","",""
"","html-keyboard-response","172","548831","0.0-8.0-2.20","jf18mbay4y","many_one","0","indirect_first","0","st06ns22","0","23","1","1","3","1","","0","1","0","null","","","<img src = 'targets/42.png' width = '100%;'>","null","","","","","","","","","",""
"","html-keyboard-response","173","549604","0.0-8.0-3.20","jf18mbay4y","many_one","0","indirect_first","0","st06ns22","0","23","1","1","3","1","","0","1","0","769.994999980554","","","<img src = 'targets/mask.png' width = '100%;'>","68","neg","CS","CS","4","category4/CS5.png","targets/42.png","0","indirect","20",""
"","html-keyboard-response","174","551115","0.0-8.0-0.21","jf18mbay4y","many_one","0","indirect_first","0","st06ns22","0","23","1","1","3","1","","0","1","0","null","","","<div style=""font-size:60px;"">+</div>","null","","","","","","","","","",""
"","html-keyboard-response","175","551208","0.0-8.0-1.21","jf18mbay4y","many_one","0","indirect_first","0","st06ns22","0","23","1","1","3","1","","0","1","0","null","","","<img src = 'category1/CS10.png' width = '100%;'>","null","","","","","","","","","",""
"","html-keyboard-response","176","551475","0.0-8.0-2.21","jf18mbay4y","many_one","0","indirect_first","0","st06ns22","0","23","1","1","3","1","","0","1","0","null","","","<img src = 'targets/27.png' width = '100%;'>","null","","","","","","","","","",""
"","html-keyboard-response","177","555191","0.0-8.0-3.21","jf18mbay4y","many_one","0","indirect_first","0","st06ns22","0","23","1","1","3","1","","0","1","0","3713.495000032708","","","<img src = 'targets/mask.png' width = '100%;'>","75","pos","CS","CS","1","category1/CS10.png","targets/27.png","1","indirect","21",""
"","html-keyboard-response","178","556700","0.0-8.0-0.22","jf18mbay4y","many_one","0","indirect_first","0","st06ns22","0","23","1","1","3","1","","0","1","0","null","","","<div style=""font-size:60px;"">+</div>","null","","","","","","","","","",""
"","html-keyboard-response","179","556793","0.0-8.0-1.22","jf18mbay4y","many_one","0","indirect_first","0","st06ns22","0","23","1","1","3","1","","0","1","0","null","","","<img src = 'category3/CS10.png' width = '100%;'>","null","","","","","","","","","",""
"","html-keyboard-response","180","557049","0.0-8.0-2.22","jf18mbay4y","many_one","0","indirect_first","0","st06ns22","0","23","1","1","3","1","","0","1","0","null","","","<img src = 'targets/12.png' width = '100%;'>","null","","","","","","","","","",""
"","html-keyboard-response","181","557726","0.0-8.0-3.22","jf18mbay4y","many_one","0","indirect_first","0","st06ns22","0","23","1","1","3","1","","0","1","0","673.9350000862032","","","<img src = 'targets/mask.png' width = '100%;'>","75","neg","CS","CS","3","category3/CS10.png","targets/12.png","1","indirect","22",""
"","html-keyboard-response","182","559229","0.0-8.0-0.23","jf18mbay4y","many_one","0","indirect_first","0","st06ns22","0","23","1","1","3","1","","0","1","0","null","","","<div style=""font-size:60px;"">+</div>","null","","","","","","","","","",""
"","html-keyboard-response","183","559322","0.0-8.0-1.23","jf18mbay4y","many_one","0","indirect_first","0","st06ns22","0","23","1","1","3","1","","0","1","0","null","","","<img src = 'category4/CS10.png' width = '100%;'>","null","","","","","","","","","",""
"","html-keyboard-response","184","559585","0.0-8.0-2.23","jf18mbay4y","many_one","0","indirect_first","0","st06ns22","0","23","1","1","3","1","","0","1","0","null","","","<img src = 'targets/32.png' width = '100%;'>","null","","","","","","","","","",""
"","html-keyboard-response","185","560144","0.0-8.0-3.23","jf18mbay4y","many_one","0","indirect_first","0","st06ns22","0","23","1","1","3","1","","0","1","0","556.014999980107","","","<img src = 'targets/mask.png' width = '100%;'>","75","neg","GS","GSold","4","category4/CS10.png","targets/32.png","1","indirect","23",""
"","survey-html-form","186","562651","0.0-9.0","jf18mbay4y","many_one","0","indirect_first","0","st06ns22","0","23","1","1","3","1","","0","1","0","1999.2299999576062","","{}","","","","","","","","","","","",""
"","html-keyboard-response","187","565663","0.0-10.0-0.0","jf18mbay4y","many_one","0","indirect_first","0","st06ns22","0","23","1","1","3","1","","0","1","0","null","","","<div style=""font-size:60px;"">+</div>","null","","","","","","","","","",""
"","html-keyboard-response","188","565763","0.0-10.0-1.0","jf18mbay4y","many_one","0","indirect_first","0","st06ns22","0","23","1","1","3","1","","0","1","0","null","","","<img src = 'category1/CS7.png' width = '100%;'>","null","","","","","","","","","",""
"","html-keyboard-response","189","566028","0.0-10.0-2.0","jf18mbay4y","many_one","0","indirect_first","0","st06ns22","0","23","1","1","3","1","","0","1","0","null","","","<img src = 'targets/30.png' width = '100%;'>","null","","","","","","","","","",""
"","html-keyboard-response","190","566940","0.0-10.0-3.0","jf18mbay4y","many_one","0","indirect_first","0","st06ns22","0","23","1","1","3","1","","0","1","0","908.3600000012666","","","<img src = 'targets/mask.png' width = '100%;'>","75","pos","GS","GSold","1","category1/CS7.png","targets/30.png","1","indirect","24",""
"","html-keyboard-response","191","568446","0.0-10.0-0.1","jf18mbay4y","many_one","0","indirect_first","0","st06ns22","0","23","1","1","3","1","","0","1","0","null","","","<div style=""font-size:60px;"">+</div>","null","","","","","","","","","",""
"","html-keyboard-response","192","568538","0.0-10.0-1.1","jf18mbay4y","many_one","0","indirect_first","0","st06ns22","0","23","1","1","3","1","","0","1","0","null","","","<img src = 'category2/GS1.png' width = '100%;'>","null","","","","","","","","","",""
"","html-keyboard-response","193","568805","0.0-10.0-2.1","jf18mbay4y","many_one","0","indirect_first","0","st06ns22","0","23","1","1","3","1","","0","1","0","null","","","<img src = 'targets/47.png' width = '100%;'>","null","","","","","","","","","",""
"","html-keyboard-response","194","569536","0.0-10.0-3.1","jf18mbay4y","many_one","0","indirect_first","0","st06ns22","0","23","1","1","3","1","","0","1","0","728.3250000327826","","","<img src = 'targets/mask.png' width = '100%;'>","68","pos","GS","GSnew","2","category2/GS1.png","targets/47.png","0","indirect","25",""
"","html-keyboard-response","195","571051","0.0-10.0-0.2","jf18mbay4y","many_one","0","indirect_first","0","st06ns22","0","23","1","1","3","1","","0","1","0","null","","","<div style=""font-size:60px;"">+</div>","null","","","","","","","","","",""
"","html-keyboard-response","196","571151","0.0-10.0-1.2","jf18mbay4y","many_one","0","indirect_first","0","st06ns22","0","23","1","1","3","1","","0","1","0","null","","","<img src = 'category2/men.png' width = '100%;'>","null","","","","","","","","","",""
"","html-keyboard-response","197","571416","0.0-10.0-2.2","jf18mbay4y","many_one","0","indirect_first","0","st06ns22","0","23","1","1","3","1","","0","1","0","null","","","<img src = 'targets/6.png' width = '100%;'>","null","","","","","","","","","",""
"","html-keyboard-response","198","572414","0.0-10.0-3.2","jf18mbay4y","many_one","0","indirect_first","0","st06ns22","0","23","1","1","3","1","","0","1","0","995.4300001263618","","","<img src = 'targets/mask.png' width = '100%;'>","75","pos","GS","abstract","2","category2/men.png","targets/6.png","1","indirect","26",""
"","html-keyboard-response","199","573925","0.0-10.0-0.3","jf18mbay4y","many_one","0","indirect_first","0","st06ns22","0","23","1","1","3","1","","0","1","0","null","","","<div style=""font-size:60px;"">+</div>","null","","","","","","","","","",""
"","html-keyboard-response","200","574018","0.0-10.0-1.3","jf18mbay4y","many_one","0","indirect_first","0","st06ns22","0","23","1","1","3","1","","0","1","0","null","","","<img src = 'category4/lin.png' width = '100%;'>","null","","","","","","","","","",""
"","html-keyboard-response","201","574275","0.0-10.0-2.3","jf18mbay4y","many_one","0","indirect_first","0","st06ns22","0","23","1","1","3","1","","0","1","0","null","","","<img src = 'targets/38.png' width = '100%;'>","null","","","","","","","","","",""
"","html-keyboard-response","202","575701","0.0-10.0-3.3","jf18mbay4y","many_one","0","indirect_first","0","st06ns22","0","23","1","1","3","1","","0","1","0","1424.1900001652539","","","<img src = 'targets/mask.png' width = '100%;'>","75","neg","GS","abstract","4","category4/lin.png","targets/38.png","1","indirect","27",""
"","html-keyboard-response","203","577218","0.0-10.0-0.4","jf18mbay4y","many_one","0","indirect_first","0","st06ns22","0","23","1","1","3","1","","0","1","0","null","","","<div style=""font-size:60px;"">+</div>","null","","","","","","","","","",""
"","html-keyboard-response","204","577311","0.0-10.0-1.4","jf18mbay4y","many_one","0","indirect_first","0","st06ns22","0","23","1","1","3","1","","0","1","0","null","","","<img src = 'category1/ma.png' width = '100%;'>","null","","","","","","","","","",""
"","html-keyboard-response","205","577577","0.0-10.0-2.4","jf18mbay4y","many_one","0","indirect_first","0","st06ns22","0","23","1","1","3","1","","0","1","0","null","","","<img src = 'targets/40.png' width = '100%;'>","null","","","","","","","","","",""
"","html-keyboard-response","206","578415","0.0-10.0-3.4","jf18mbay4y","many_one","0","indirect_first","0","st06ns22","0","23","1","1","3","1","","0","1","0","834.6150000579655","","","<img src = 'targets/mask.png' width = '100%;'>","68","pos","GS","abstract","1","category1/ma.png","targets/40.png","0","indirect","28",""
"","html-keyboard-response","207","579930","0.0-10.0-0.5","jf18mbay4y","many_one","0","indirect_first","0","st06ns22","0","23","1","1","3","1","","0","1","0","null","","","<div style=""font-size:60px;"">+</div>","null","","","","","","","","","",""
"","html-keyboard-response","208","580028","0.0-10.0-1.5","jf18mbay4y","many_one","0","indirect_first","0","st06ns22","0","23","1","1","3","1","","0","1","0","null","","","<img src = 'category4/GS1.png' width = '100%;'>","null","","","","","","","","","",""
"","html-keyboard-response","209","580297","0.0-10.0-2.5","jf18mbay4y","many_one","0","indirect_first","0","st06ns22","0","23","1","1","3","1","","0","1","0","null","","","<img src = 'targets/33.png' width = '100%;'>","null","","","","","","","","","",""
"","html-keyboard-response","210","581662","0.0-10.0-3.5","jf18mbay4y","many_one","0","indirect_first","0","st06ns22","0","23","1","1","3","1","","0","1","0","1363.405000185594","","","<img src = 'targets/mask.png' width = '100%;'>","68","neg","GS","GSnew","4","category4/GS1.png","targets/33.png","0","indirect","29",""
"","html-keyboard-response","211","583171","0.0-10.0-0.6","jf18mbay4y","many_one","0","indirect_first","0","st06ns22","0","23","1","1","3","1","","0","1","0","null","","","<div style=""font-size:60px;"">+</div>","null","","","","","","","","","",""
"","html-keyboard-response","212","583264","0.0-10.0-1.6","jf18mbay4y","many_one","0","indirect_first","0","st06ns22","0","23","1","1","3","1","","0","1","0","null","","","<img src = 'category3/GS2.png' width = '100%;'>","null","","","","","","","","","",""
"","html-keyboard-response","213","583530","0.0-10.0-2.6","jf18mbay4y","many_one","0","indirect_first","0","st06ns22","0","23","1","1","3","1","","0","1","0","null","","","<img src = 'targets/41.png' width = '100%;'>","null","","","","","","","","","",""
"","html-keyboard-response","214","584742","0.0-10.0-3.6","jf18mbay4y","many_one","0","indirect_first","0","st06ns22","0","23","1","1","3","1","","0","1","0","1208.3550000097603","","","<img src = 'targets/mask.png' width = '100%;'>","68","neg","GS","GSnew","3","category3/GS2.png","targets/41.png","0","indirect","30",""
"","html-keyboard-response","215","586266","0.0-10.0-0.7","jf18mbay4y","many_one","0","indirect_first","0","st06ns22","0","23","1","1","3","1","","0","1","0","null","","","<div style=""font-size:60px;"">+</div>","null","","","","","","","","","",""
"","html-keyboard-response","216","586359","0.0-10.0-1.7","jf18mbay4y","many_one","0","indirect_first","0","st06ns22","0","23","1","1","3","1","","0","1","0","null","","","<img src = 'category1/CS8.png' width = '100%;'>","null","","","","","","","","","",""
"","html-keyboard-response","217","586624","0.0-10.0-2.7","jf18mbay4y","many_one","0","indirect_first","0","st06ns22","0","23","1","1","3","1","","0","1","0","null","","","<img src = 'targets/14.png' width = '100%;'>","null","","","","","","","","","",""
"","html-keyboard-response","218","588609","0.0-10.0-3.7","jf18mbay4y","many_one","0","indirect_first","0","st06ns22","0","23","1","1","3","1","","0","1","0","1982.1999999694526","","","<img src = 'targets/mask.png' width = '100%;'>","75","pos","GS","GSold","1","category1/CS8.png","targets/14.png","1","indirect","31",""
"","html-keyboard-response","219","590121","0.0-10.0-0.8","jf18mbay4y","many_one","0","indirect_first","0","st06ns22","0","23","1","1","3","1","","0","1","0","null","","","<div style=""font-size:60px;"">+</div>","null","","","","","","","","","",""
"","html-keyboard-response","220","590220","0.0-10.0-1.8","jf18mbay4y","many_one","0","indirect_first","0","st06ns22","0","23","1","1","3","1","","0","1","0","null","","","<img src = 'category2/CS9.png' width = '100%;'>","null","","","","","","","","","",""
"","html-keyboard-response","221","590491","0.0-10.0-2.8","jf18mbay4y","many_one","0","indirect_first","0","st06ns22","0","23","1","1","3","1","","0","1","0","null","","","<img src = 'targets/35.png' width = '100%;'>","null","","","","","","","","","",""
"","html-keyboard-response","222","591827","0.0-10.0-3.8","jf18mbay4y","many_one","0","indirect_first","0","st06ns22","0","23","1","1","3","1","","0","1","0","1333.9549999218434","","","<img src = 'targets/mask.png' width = '100%;'>","75","pos","GS","GSold","2","category2/CS9.png","targets/35.png","1","indirect","32",""
"","html-keyboard-response","223","593337","0.0-10.0-0.9","jf18mbay4y","many_one","0","indirect_first","0","st06ns22","0","23","1","1","3","1","","0","1","0","null","","","<div style=""font-size:60px;"">+</div>","null","","","","","","","","","",""
"","html-keyboard-response","224","593438","0.0-10.0-1.9","jf18mbay4y","many_one","0","indirect_first","0","st06ns22","0","23","1","1","3","1","","0","1","0","null","","","<img src = 'category3/CS3.png' width = '100%;'>","null","","","","","","","","","",""
"","html-keyboard-response","225","593699","0.0-10.0-2.9","jf18mbay4y","many_one","0","indirect_first","0","st06ns22","0","23","1","1","3","1","","0","1","0","null","","","<img src = 'targets/7.png' width = '100%;'>","null","","","","","","","","","",""
"","html-keyboard-response","226","595200","0.0-10.0-3.9","jf18mbay4y","many_one","0","indirect_first","0","st06ns22","0","23","1","1","3","1","","0","1","0","1498.20000003092","","","<img src = 'targets/mask.png' width = '100%;'>","75","neg","GS","GSold","3","category3/CS3.png","targets/7.png","1","indirect","33",""
"","html-keyboard-response","227","596716","0.0-10.0-0.10","jf18mbay4y","many_one","0","indirect_first","0","st06ns22","0","23","1","1","3","1","","0","1","0","null","","","<div style=""font-size:60px;"">+</div>","null","","","","","","","","","",""
"","html-keyboard-response","228","596809","0.0-10.0-1.10","jf18mbay4y","many_one","0","indirect_first","0","st06ns22","0","23","1","1","3","1","","0","1","0","null","","","<img src = 'category2/GS2.png' width = '100%;'>","null","","","","","","","","","",""
"","html-keyboard-response","229","597071","0.0-10.0-2.10","jf18mbay4y","many_one","0","indirect_first","0","st06ns22","0","23","1","1","3","1","","0","1","0","null","","","<img src = 'targets/48.png' width = '100%;'>","null","","","","","","","","","",""
"","html-keyboard-response","230","597941","0.0-10.0-3.10","jf18mbay4y","many_one","0","indirect_first","0","st06ns22","0","23","1","1","3","1","","0","1","0","866.7349999304861","","","<img src = 'targets/mask.png' width = '100%;'>","68","pos","GS","GSnew","2","category2/GS2.png","targets/48.png","0","indirect","34",""
"","html-keyboard-response","231","599452","0.0-10.0-0.11","jf18mbay4y","many_one","0","indirect_first","0","st06ns22","0","23","1","1","3","1","","0","1","0","null","","","<div style=""font-size:60px;"">+</div>","null","","","","","","","","","",""
"","html-keyboard-response","232","599549","0.0-10.0-1.11","jf18mbay4y","many_one","0","indirect_first","0","st06ns22","0","23","1","1","3","1","","0","1","0","null","","","<img src = 'category3/CS4.png' width = '100%;'>","null","","","","","","","","","",""
"","html-keyboard-response","233","599810","0.0-10.0-2.11","jf18mbay4y","many_one","0","indirect_first","0","st06ns22","0","23","1","1","3","1","","0","1","0","null","","","<img src = 'targets/21.png' width = '100%;'>","null","","","","","","","","","",""
"","html-keyboard-response","234","601051","0.0-10.0-3.11","jf18mbay4y","many_one","0","indirect_first","0","st06ns22","0","23","1","1","3","1","","0","1","0","1239.4550000317395","","","<img src = 'targets/mask.png' width = '100%;'>","75","neg","GS","GSold","3","category3/CS4.png","targets/21.png","1","indirect","35",""
"","html-keyboard-response","235","602558","0.0-10.0-0.12","jf18mbay4y","many_one","0","indirect_first","0","st06ns22","0","23","1","1","3","1","","0","1","0","null","","","<div style=""font-size:60px;"">+</div>","null","","","","","","","","","",""
"","html-keyboard-response","236","602652","0.0-10.0-1.12","jf18mbay4y","many_one","0","indirect_first","0","st06ns22","0","23","1","1","3","1","","0","1","0","null","","","<img src = 'category3/GS3.png' width = '100%;'>","null","","","","","","","","","",""
"","html-keyboard-response","237","602924","0.0-10.0-2.12","jf18mbay4y","many_one","0","indirect_first","0","st06ns22","0","23","1","1","3","1","","0","1","0","null","","","<img src = 'targets/34.png' width = '100%;'>","null","","","","","","","","","",""
"","html-keyboard-response","238","604018","0.0-10.0-3.12","jf18mbay4y","many_one","0","indirect_first","0","st06ns22","0","23","1","1","3","1","","0","1","0","1090.8900001086295","","","<img src = 'targets/mask.png' width = '100%;'>","68","neg","GS","GSnew","3","category3/GS3.png","targets/34.png","0","indirect","36",""
"","html-keyboard-response","239","605532","0.0-10.0-0.13","jf18mbay4y","many_one","0","indirect_first","0","st06ns22","0","23","1","1","3","1","","0","1","0","null","","","<div style=""font-size:60px;"">+</div>","null","","","","","","","","","",""
"","html-keyboard-response","240","605625","0.0-10.0-1.13","jf18mbay4y","many_one","0","indirect_first","0","st06ns22","0","23","1","1","3","1","","0","1","0","null","","","<img src = 'category3/GS1.png' width = '100%;'>","null","","","","","","","","","",""
"","html-keyboard-response","241","605888","0.0-10.0-2.13","jf18mbay4y","many_one","0","indirect_first","0","st06ns22","0","23","1","1","3","1","","0","1","0","null","","","<img src = 'targets/10.png' width = '100%;'>","null","","","","","","","","","",""
"","html-keyboard-response","242","607742","0.0-10.0-3.13","jf18mbay4y","many_one","0","indirect_first","0","st06ns22","0","23","1","1","3","1","","0","1","0","1852.140000090003","","","<img src = 'targets/mask.png' width = '100%;'>","68","neg","GS","GSnew","3","category3/GS1.png","targets/10.png","0","indirect","37",""
"","html-keyboard-response","243","609246","0.0-10.0-0.14","jf18mbay4y","many_one","0","indirect_first","0","st06ns22","0","23","1","1","3","1","","0","1","0","null","","","<div style=""font-size:60px;"">+</div>","null","","","","","","","","","",""
"","html-keyboard-response","244","609340","0.0-10.0-1.14","jf18mbay4y","many_one","0","indirect_first","0","st06ns22","0","23","1","1","3","1","","0","1","0","null","","","<img src = 'category3/wang.png' width = '100%;'>","null","","","","","","","","","",""
"","html-keyboard-response","245","609605","0.0-10.0-2.14","jf18mbay4y","many_one","0","indirect_first","0","st06ns22","0","23","1","1","3","1","","0","1","0","null","","","<img src = 'targets/20.png' width = '100%;'>","null","","","","","","","","","",""
"","html-keyboard-response","246","612320","0.0-10.0-3.14","jf18mbay4y","many_one","0","indirect_first","0","st06ns22","0","23","1","1","3","1","","0","1","0","2711.494999937713","","","<img src = 'targets/mask.png' width = '100%;'>","75","neg","GS","abstract","3","category3/wang.png","targets/20.png","1","indirect","38",""
"","html-keyboard-response","247","613832","0.0-10.0-0.15","jf18mbay4y","many_one","0","indirect_first","0","st06ns22","0","23","1","1","3","1","","0","1","0","null","","","<div style=""font-size:60px;"">+</div>","null","","","","","","","","","",""
"","html-keyboard-response","248","613925","0.0-10.0-1.15","jf18mbay4y","many_one","0","indirect_first","0","st06ns22","0","23","1","1","3","1","","0","1","0","null","","","<img src = 'category3/CS1.png' width = '100%;'>","null","","","","","","","","","",""
"","html-keyboard-response","249","614192","0.0-10.0-2.15","jf18mbay4y","many_one","0","indirect_first","0","st06ns22","0","23","1","1","3","1","","0","1","0","null","","","<img src = 'targets/46.png' width = '100%;'>","null","","","","","","","","","",""
"","html-keyboard-response","250","615196","0.0-10.0-3.15","jf18mbay4y","many_one","0","indirect_first","0","st06ns22","0","23","1","1","3","1","","0","1","0","1001.5000000130385","","","<img src = 'targets/mask.png' width = '100%;'>","68","neg","GS","GSold","3","category3/CS1.png","targets/46.png","0","indirect","39",""
"","html-keyboard-response","251","616716","0.0-10.0-0.16","jf18mbay4y","many_one","0","indirect_first","0","st06ns22","0","23","1","1","3","1","","0","1","0","null","","","<div style=""font-size:60px;"">+</div>","null","","","","","","","","","",""
"","html-keyboard-response","252","616810","0.0-10.0-1.16","jf18mbay4y","many_one","0","indirect_first","0","st06ns22","0","23","1","1","3","1","","0","1","0","null","","","<img src = 'category4/GS2.png' width = '100%;'>","null","","","","","","","","","",""
"","html-keyboard-response","253","617082","0.0-10.0-2.16","jf18mbay4y","many_one","0","indirect_first","0","st06ns22","0","23","1","1","3","1","","0","1","0","null","","","<img src = 'targets/29.png' width = '100%;'>","null","","","","","","","","","",""
"","html-keyboard-response","254","617630","0.0-10.0-3.16","jf18mbay4y","many_one","0","indirect_first","0","st06ns22","0","23","1","1","3","1","","0","1","0","545.1100000645965","","","<img src = 'targets/mask.png' width = '100%;'>","75","neg","GS","GSnew","4","category4/GS2.png","targets/29.png","1","indirect","40",""
"","html-keyboard-response","255","619150","0.0-10.0-0.17","jf18mbay4y","many_one","0","indirect_first","0","st06ns22","0","23","1","1","3","1","","0","1","0","null","","","<div style=""font-size:60px;"">+</div>","null","","","","","","","","","",""
"","html-keyboard-response","256","619243","0.0-10.0-1.17","jf18mbay4y","many_one","0","indirect_first","0","st06ns22","0","23","1","1","3","1","","0","1","0","null","","","<img src = 'category2/GS3.png' width = '100%;'>","null","","","","","","","","","",""
"","html-keyboard-response","257","619506","0.0-10.0-2.17","jf18mbay4y","many_one","0","indirect_first","0","st06ns22","0","23","1","1","3","1","","0","1","0","null","","","<img src = 'targets/1.png' width = '100%;'>","null","","","","","","","","","",""
"","html-keyboard-response","258","620652","0.0-10.0-3.17","jf18mbay4y","many_one","0","indirect_first","0","st06ns22","0","23","1","1","3","1","","0","1","0","1143.8349999953061","","","<img src = 'targets/mask.png' width = '100%;'>","75","pos","GS","GSnew","2","category2/GS3.png","targets/1.png","1","indirect","41",""
"","html-keyboard-response","259","622165","0.0-10.0-0.18","jf18mbay4y","many_one","0","indirect_first","0","st06ns22","0","23","1","1","3","1","","0","1","0","null","","","<div style=""font-size:60px;"">+</div>","null","","","","","","","","","",""
"","html-keyboard-response","260","622267","0.0-10.0-1.18","jf18mbay4y","many_one","0","indirect_first","0","st06ns22","0","23","1","1","3","1","","0","1","0","null","","","<img src = 'category1/CS3.png' width = '100%;'>","null","","","","","","","","","",""
"","html-keyboard-response","261","622531","0.0-10.0-2.18","jf18mbay4y","many_one","0","indirect_first","0","st06ns22","0","23","1","1","3","1","","0","1","0","null","","","<img src = 'targets/11.png' width = '100%;'>","null","","","","","","","","","",""
"","html-keyboard-response","262","623086","0.0-10.0-3.18","jf18mbay4y","many_one","0","indirect_first","0","st06ns22","0","23","1","1","3","1","","0","1","0","551.9449999555945","","","<img src = 'targets/mask.png' width = '100%;'>","68","pos","GS","GSold","1","category1/CS3.png","targets/11.png","0","indirect","42",""
"","html-keyboard-response","263","624602","0.0-10.0-0.19","jf18mbay4y","many_one","0","indirect_first","0","st06ns22","0","23","1","1","3","1","","0","1","0","null","","","<div style=""font-size:60px;"">+</div>","null","","","","","","","","","",""
"","html-keyboard-response","264","624705","0.0-10.0-1.19","jf18mbay4y","many_one","0","indirect_first","0","st06ns22","0","23","1","1","3","1","","0","1","0","null","","","<img src = 'category1/GS1.png' width = '100%;'>","null","","","","","","","","","",""
"","html-keyboard-response","265","624965","0.0-10.0-2.19","jf18mbay4y","many_one","0","indirect_first","0","st06ns22","0","23","1","1","3","1","","0","1","0","null","","","<img src = 'targets/44.png' width = '100%;'>","null","","","","","","","","","",""
"","html-keyboard-response","266","626240","0.0-10.0-3.19","jf18mbay4y","many_one","0","indirect_first","0","st06ns22","0","23","1","1","3","1","","0","1","0","1272.0349999144673","","","<img src = 'targets/mask.png' width = '100%;'>","68","pos","GS","GSnew","1","category1/GS1.png","targets/44.png","0","indirect","43",""
"","html-keyboard-response","267","627750","0.0-10.0-0.20","jf18mbay4y","many_one","0","indirect_first","0","st06ns22","0","23","1","1","3","1","","0","1","0","null","","","<div style=""font-size:60px;"">+</div>","null","","","","","","","","","",""
"","html-keyboard-response","268","627850","0.0-10.0-1.20","jf18mbay4y","many_one","0","indirect_first","0","st06ns22","0","23","1","1","3","1","","0","1","0","null","","","<img src = 'category1/GS2.png' width = '100%;'>","null","","","","","","","","","",""
"","html-keyboard-response","269","628119","0.0-10.0-2.20","jf18mbay4y","many_one","0","indirect_first","0","st06ns22","0","23","1","1","3","1","","0","1","0","null","","","<img src = 'targets/43.png' width = '100%;'>","null","","","","","","","","","",""
"","html-keyboard-response","270","628883","0.0-10.0-3.20","jf18mbay4y","many_one","0","indirect_first","0","st06ns22","0","23","1","1","3","1","","0","1","0","761.7699999827892","","","<img src = 'targets/mask.png' width = '100%;'>","75","pos","GS","GSnew","1","category1/GS2.png","targets/43.png","1","indirect","44",""
"","html-keyboard-response","271","630397","0.0-10.0-0.21","jf18mbay4y","many_one","0","indirect_first","0","st06ns22","0","23","1","1","3","1","","0","1","0","null","","","<div style=""font-size:60px;"">+</div>","null","","","","","","","","","",""
"","html-keyboard-response","272","630498","0.0-10.0-1.21","jf18mbay4y","many_one","0","indirect_first","0","st06ns22","0","23","1","1","3","1","","0","1","0","null","","","<img src = 'category4/GS3.png' width = '100%;'>","null","","","","","","","","","",""
"","html-keyboard-response","273","630759","0.0-10.0-2.21","jf18mbay4y","many_one","0","indirect_first","0","st06ns22","0","23","1","1","3","1","","0","1","0","null","","","<img src = 'targets/9.png' width = '100%;'>","null","","","","","","","","","",""
"","html-keyboard-response","274","631532","0.0-10.0-3.21","jf18mbay4y","many_one","0","indirect_first","0","st06ns22","0","23","1","1","3","1","","0","1","0","769.3699998781085","","","<img src = 'targets/mask.png' width = '100%;'>","68","neg","GS","GSnew","4","category4/GS3.png","targets/9.png","0","indirect","45",""
"","html-keyboard-response","275","633045","0.0-10.0-0.22","jf18mbay4y","many_one","0","indirect_first","0","st06ns22","0","23","1","1","3","1","","0","1","0","null","","","<div style=""font-size:60px;"">+</div>","null","","","","","","","","","",""
"","html-keyboard-response","276","633139","0.0-10.0-1.22","jf18mbay4y","many_one","0","indirect_first","0","st06ns22","0","23","1","1","3","1","","0","1","0","null","","","<img src = 'category2/CS5.png' width = '100%;'>","null","","","","","","","","","",""
"","html-keyboard-response","277","633400","0.0-10.0-2.22","jf18mbay4y","many_one","0","indirect_first","0","st06ns22","0","23","1","1","3","1","","0","1","0","null","","","<img src = 'targets/17.png' width = '100%;'>","null","","","","","","","","","",""
"","html-keyboard-response","278","634535","0.0-10.0-3.22","jf18mbay4y","many_one","0","indirect_first","0","st06ns22","0","23","1","1","3","1","","0","1","0","1133.265000069514","","","<img src = 'targets/mask.png' width = '100%;'>","68","pos","GS","GSold","2","category2/CS5.png","targets/17.png","0","indirect","46",""
"","html-keyboard-response","279","636052","0.0-10.0-0.23","jf18mbay4y","many_one","0","indirect_first","0","st06ns22","0","23","1","1","3","1","","0","1","0","null","","","<div style=""font-size:60px;"">+</div>","null","","","","","","","","","",""
"","html-keyboard-response","280","636151","0.0-10.0-1.23","jf18mbay4y","many_one","0","indirect_first","0","st06ns22","0","23","1","1","3","1","","0","1","0","null","","","<img src = 'category1/GS3.png' width = '100%;'>","null","","","","","","","","","",""
"","html-keyboard-response","281","636406","0.0-10.0-2.23","jf18mbay4y","many_one","0","indirect_first","0","st06ns22","0","23","1","1","3","1","","0","1","0","null","","","<img src = 'targets/8.png' width = '100%;'>","null","","","","","","","","","",""
"","html-keyboard-response","282","637175","0.0-10.0-3.23","jf18mbay4y","many_one","0","indirect_first","0","st06ns22","0","23","1","1","3","1","","0","1","0","766.5249998681247","","","<img src = 'targets/mask.png' width = '100%;'>","75","pos","GS","GSnew","1","category1/GS3.png","targets/8.png","1","indirect","47",""
"","survey-html-form","283","650906","0.0-11.0","jf18mbay4y","many_one","0","indirect_first","0","st06ns22","0","23","1","1","3","1","","0","1","0","13221.174999838695","","{}","","","","","","","","","","","",""
"","image-slider-response","284","660947","0.0-12.0-0.0","jf18mbay4y","many_one","0","indirect_first","0","st06ns22","0","23","1","1","3","1","","0","1","0","8026.509999996051","","","","","pos","CS","CS","1","category1/CS10.png","targets/27.png","","direct","","-9"
"","image-slider-response","285","665889","0.0-12.0-0.1","jf18mbay4y","many_one","0","indirect_first","0","st06ns22","0","23","1","1","3","1","","0","1","0","4939.669999992475","","","","","pos","GS","GSnew","2","category2/GS2.png","targets/48.png","","direct","","-6"
"","image-slider-response","286","670477","0.0-12.0-0.2","jf18mbay4y","many_one","0","indirect_first","0","st06ns22","0","23","1","1","3","1","","0","1","0","4586.5449998527765","","","","","neg","CS","CS","4","category4/CS8.png","targets/31.png","","direct","","13"
"","image-slider-response","287","675575","0.0-12.0-0.3","jf18mbay4y","many_one","0","indirect_first","0","st06ns22","0","23","1","1","3","1","","0","1","0","5096.195000223815","","","","","neg","GS","GSold","3","category3/CS4.png","targets/21.png","","direct","","33"
"","image-slider-response","288","680717","0.0-12.0-0.4","jf18mbay4y","many_one","0","indirect_first","0","st06ns22","0","23","1","1","3","1","","0","1","0","5140.894999960437","","","","","pos","GS","GSold","2","category2/CS5.png","targets/17.png","","direct","","30"
"","image-slider-response","289","684158","0.0-12.0-0.5","jf18mbay4y","many_one","0","indirect_first","0","st06ns22","0","23","1","1","3","1","","0","1","0","3438.9399997889996","","","","","pos","CS","CS","1","category1/CS1.png","targets/39.png","","direct","","23"
"","image-slider-response","290","688049","0.0-12.0-0.6","jf18mbay4y","many_one","0","indirect_first","0","st06ns22","0","23","1","1","3","1","","0","1","0","3889.5699998829514","","","","","pos","CS","CS","2","category2/CS1.png","targets/13.png","","direct","","-6"
"","image-slider-response","291","713827","0.0-12.0-0.7","jf18mbay4y","many_one","0","indirect_first","0","st06ns22","0","23","1","1","3","1","","0","1","0","25775.055000092834","","","","","pos","CS","CS","2","category2/CS10.png","targets/26.png","","direct","","-4"
"","image-slider-response","292","720957","0.0-12.0-0.8","jf18mbay4y","many_one","0","indirect_first","0","st06ns22","0","23","1","1","3","1","","0","1","0","7128.169999923557","","","","","neg","GS","abstract","3","category3/wang.png","targets/20.png","","direct","","9"
"","image-slider-response","293","726233","0.0-12.0-0.9","jf18mbay4y","many_one","0","indirect_first","0","st06ns22","0","23","1","1","3","1","","0","1","0","5274.904999881983","","","","","pos","GS","abstract","1","category1/ma.png","targets/40.png","","direct","","-17"
"","image-slider-response","294","732208","0.0-12.0-0.10","jf18mbay4y","many_one","0","indirect_first","0","st06ns22","0","23","1","1","3","1","","0","1","0","5973.460000008345","","","","","pos","GS","GSold","1","category1/CS8.png","targets/14.png","","direct","","16"
"","image-slider-response","295","736352","0.0-12.0-0.11","jf18mbay4y","many_one","0","indirect_first","0","st06ns22","0","23","1","1","3","1","","0","1","0","4141.689999960363","","","","","neg","CS","CS","3","category3/CS9.png","targets/36.png","","direct","","19"
"","image-slider-response","296","740652","0.0-12.0-0.12","jf18mbay4y","many_one","0","indirect_first","0","st06ns22","0","23","1","1","3","1","","0","1","0","4299.085000064224","","","","","neg","GS","GSold","4","category4/CS2.png","targets/22.png","","direct","","21"
"","image-slider-response","297","745443","0.0-12.0-0.13","jf18mbay4y","many_one","0","indirect_first","0","st06ns22","0","23","1","1","3","1","","0","1","0","4788.4450000710785","","","","","pos","GS","GSold","1","category1/CS7.png","targets/30.png","","direct","","-6"
"","image-slider-response","298","750085","0.0-12.0-0.14","jf18mbay4y","many_one","0","indirect_first","0","st06ns22","0","23","1","1","3","1","","0","1","0","4640.309999929741","","","","","pos","CS","CS","2","category2/CS8.png","targets/15.png","","direct","","-22"
"","image-slider-response","299","754043","0.0-12.0-0.15","jf18mbay4y","many_one","0","indirect_first","0","st06ns22","0","23","1","1","3","1","","0","1","0","3957.040000008419","","","","","pos","CS","CS","1","category1/CS5.png","targets/28.png","","direct","","-35"
"","image-slider-response","300","759362","0.0-12.0-0.16","jf18mbay4y","many_one","0","indirect_first","0","st06ns22","0","23","1","1","3","1","","0","1","0","5316.980000119656","","","","","neg","CS","CS","3","category3/CS5.png","targets/18.png","","direct","","-30"
"","image-slider-response","301","763826","0.0-12.0-0.17","jf18mbay4y","many_one","0","indirect_first","0","st06ns22","0","23","1","1","3","1","","0","1","0","4462.860000086948","","","","","pos","GS","GSnew","2","category2/GS1.png","targets/47.png","","direct","","24"
"","image-slider-response","302","767480","0.0-12.0-0.18","jf18mbay4y","many_one","0","indirect_first","0","st06ns22","0","23","1","1","3","1","","0","1","0","3651.4449999667704","","","","","neg","CS","CS","3","category3/CS10.png","targets/12.png","","direct","","20"
"","image-slider-response","303","771615","0.0-12.0-0.19","jf18mbay4y","many_one","0","indirect_first","0","st06ns22","0","23","1","1","3","1","","0","1","0","4133.270000107586","","","","","neg","GS","GSnew","4","category4/GS3.png","targets/9.png","","direct","","30"
"","image-slider-response","304","774534","0.0-12.0-0.20","jf18mbay4y","many_one","0","indirect_first","0","st06ns22","0","23","1","1","3","1","","0","1","0","2917.9749998729676","","","","","pos","GS","GSnew","1","category1/GS3.png","targets/8.png","","direct","","27"
"","image-slider-response","305","779773","0.0-12.0-0.21","jf18mbay4y","many_one","0","indirect_first","0","st06ns22","0","23","1","1","3","1","","0","1","0","5236.210000002757","","","","","pos","CS","CS","1","category1/CS9.png","targets/5.png","","direct","","13"
"","image-slider-response","306","784411","0.0-12.0-0.22","jf18mbay4y","many_one","0","indirect_first","0","st06ns22","0","23","1","1","3","1","","0","1","0","4636.5149999037385","","","","","pos","CS","CS","2","category2/CS3.png","targets/23.png","","direct","","15"
"","image-slider-response","307","789282","0.0-12.0-0.23","jf18mbay4y","many_one","0","indirect_first","0","st06ns22","0","23","1","1","3","1","","0","1","0","4869.590000016615","","","","","neg","GS","GSold","3","category3/CS1.png","targets/46.png","","direct","","14"
"","image-slider-response","308","792587","0.0-12.0-0.24","jf18mbay4y","many_one","0","indirect_first","0","st06ns22","0","23","1","1","3","1","","0","1","0","3303.0699999071658","","","","","pos","GS","GSnew","2","category2/GS3.png","targets/1.png","","direct","","-28"
"","image-slider-response","309","795519","0.0-12.0-0.25","jf18mbay4y","many_one","0","indirect_first","0","st06ns22","0","23","1","1","3","1","","0","1","0","2930.4849999025464","","","","","pos","CS","CS","2","category2/CS6.png","targets/37.png","","direct","","-44"
"","image-slider-response","310","799148","0.0-12.0-0.26","jf18mbay4y","many_one","0","indirect_first","0","st06ns22","0","23","1","1","3","1","","0","1","0","3628.065000055358","","","","","neg","CS","CS","3","category3/CS6.png","targets/25.png","","direct","","-55"
"","image-slider-response","311","802550","0.0-12.0-0.27","jf18mbay4y","many_one","0","indirect_first","0","st06ns22","0","23","1","1","3","1","","0","1","0","3400.3600000869483","","","","","pos","GS","GSnew","1","category1/GS2.png","targets/43.png","","direct","","-59"
"","image-slider-response","312","806850","0.0-12.0-0.28","jf18mbay4y","many_one","0","indirect_first","0","st06ns22","0","23","1","1","3","1","","0","1","0","4297.959999879822","","","","","neg","CS","CS","3","category3/CS7.png","targets/2.png","","direct","","45"
"","image-slider-response","313","811557","0.0-12.0-0.29","jf18mbay4y","many_one","0","indirect_first","0","st06ns22","0","23","1","1","3","1","","0","1","0","4704.485000111163","","","","","neg","GS","GSnew","3","category3/GS1.png","targets/10.png","","direct","","-63"
"","image-slider-response","314","816092","0.0-12.0-0.30","jf18mbay4y","many_one","0","indirect_first","0","st06ns22","0","23","1","1","3","1","","0","1","0","4533.805000130087","","","","","neg","GS","GSnew","3","category3/GS3.png","targets/34.png","","direct","","-68"
"","image-slider-response","315","826371","0.0-12.0-0.31","jf18mbay4y","many_one","0","indirect_first","0","st06ns22","0","23","1","1","3","1","","0","1","0","10277.304999995977","","","","","neg","GS","GSnew","4","category4/GS2.png","targets/29.png","","direct","","9"
"","image-slider-response","316","830246","0.0-12.0-0.32","jf18mbay4y","many_one","0","indirect_first","0","st06ns22","0","23","1","1","3","1","","0","1","0","3872.800000011921","","","","","neg","CS","CS","4","category4/CS7.png","targets/45.png","","direct","","6"
"","image-slider-response","317","833379","0.0-12.0-0.33","jf18mbay4y","many_one","0","indirect_first","0","st06ns22","0","23","1","1","3","1","","0","1","0","3131.295000202954","","","","","neg","CS","CS","4","category4/CS5.png","targets/42.png","","direct","","8"
"","image-slider-response","318","838024","0.0-12.0-0.34","jf18mbay4y","many_one","0","indirect_first","0","st06ns22","0","23","1","1","3","1","","0","1","0","4643.089999910444","","","","","neg","GS","GSnew","3","category3/GS2.png","targets/41.png","","direct","","-49"
"","image-slider-response","319","843496","0.0-12.0-0.35","jf18mbay4y","many_one","0","indirect_first","0","st06ns22","0","23","1","1","3","1","","0","1","0","5470.860000001267","","","","","neg","GS","GSold","4","category4/CS3.png","targets/4.png","","direct","","4"
"","image-slider-response","320","846292","0.0-12.0-0.36","jf18mbay4y","many_one","0","indirect_first","0","st06ns22","0","23","1","1","3","1","","0","1","0","2793.979999842122","","","","","neg","GS","abstract","4","category4/lin.png","targets/38.png","","direct","","6"
"","image-slider-response","321","852473","0.0-12.0-0.37","jf18mbay4y","many_one","0","indirect_first","0","st06ns22","0","23","1","1","3","1","","0","1","0","6180.135000031441","","","","","pos","GS","GSnew","1","category1/GS1.png","targets/44.png","","direct","","-41"
"","image-slider-response","322","855764","0.0-12.0-0.38","jf18mbay4y","many_one","0","indirect_first","0","st06ns22","0","23","1","1","3","1","","0","1","0","3288.880000123754","","","","","neg","GS","GSnew","4","category4/GS1.png","targets/33.png","","direct","","11"
"","image-slider-response","323","859083","0.0-12.0-0.39","jf18mbay4y","many_one","0","indirect_first","0","st06ns22","0","23","1","1","3","1","","0","1","0","3318.375000031665","","","","","neg","CS","CS","4","category4/CS6.png","targets/19.png","","direct","","16"
"","image-slider-response","324","862658","0.0-12.0-0.40","jf18mbay4y","many_one","0","indirect_first","0","st06ns22","0","23","1","1","3","1","","0","1","0","3573.250000132248","","","","","pos","GS","GSold","2","category2/CS2.png","targets/24.png","","direct","","18"
