"success","trial_type","trial_index","time_elapsed","internal_node_id","subject","condition","condition_code","measure","measure_code","codeword","gender","age","education","chinese","fach","handedness","comment","hinschauen","ablenkung","gewissenhaft","rt","url","responses","stimulus","key_press","val","type","type_specific","category","cs_selected","target","indirect","task","nr_pres","response"
"true","fullscreen","0","2940","0.0-0.0","o89gqnsgzz","many_one","0","indirect_first","0","in04el10","1","23","1","1","3","1","Sehr sehr schwierig zwischen den Zeichen zu differenzieren. Das sich Teile der Zeichen wiederholt haben, ist mir schnell aufgefallen, jedoch ist die Einschätzung in unangenehm und angenehm in verschiedenen Kontexten sehr schwierig.","0","1","0","","","","","","","","","","","","","","",""
"","external-html","1","15707","0.0-1.0","o89gqnsgzz","many_one","0","indirect_first","0","in04el10","1","23","1","1","3","1","Sehr sehr schwierig zwischen den Zeichen zu differenzieren. Das sich Teile der Zeichen wiederholt haben, ist mir schnell aufgefallen, jedoch ist die Einschätzung in unangenehm und angenehm in verschiedenen Kontexten sehr schwierig.","0","1","0","12724.255000000085","text/information.html","","","","","","","","","","","","",""
"","external-html","2","29811","0.0-2.0","o89gqnsgzz","many_one","0","indirect_first","0","in04el10","1","23","1","1","3","1","Sehr sehr schwierig zwischen den Zeichen zu differenzieren. Das sich Teile der Zeichen wiederholt haben, ist mir schnell aufgefallen, jedoch ist die Einschätzung in unangenehm und angenehm in verschiedenen Kontexten sehr schwierig.","0","1","0","14005.070000000163","text/consent.html","","","","","","","","","","","","",""
"","survey-html-form","3","65231","0.0-3.0","o89gqnsgzz","many_one","0","indirect_first","0","in04el10","1","23","1","1","3","1","Sehr sehr schwierig zwischen den Zeichen zu differenzieren. Das sich Teile der Zeichen wiederholt haben, ist mir schnell aufgefallen, jedoch ist die Einschätzung in unangenehm und angenehm in verschiedenen Kontexten sehr schwierig.","0","1","0","35417.32500000035","","{""codeword_enter"":""in04el10""}","","","","","","","","","","","",""
"","survey-html-form","4","80518","0.0-4.0","o89gqnsgzz","many_one","0","indirect_first","0","in04el10","1","23","1","1","3","1","Sehr sehr schwierig zwischen den Zeichen zu differenzieren. Das sich Teile der Zeichen wiederholt haben, ist mir schnell aufgefallen, jedoch ist die Einschätzung in unangenehm und angenehm in verschiedenen Kontexten sehr schwierig.","0","1","0","15283.429999999964","","{""age"":""23"",""education"":""1"",""subject"":""3"",""gender"":""1"",""handedness"":""1"",""chinese"":""1""}","","","","","","","","","","","",""
"","survey-html-form","5","92303","0.0-5.0","o89gqnsgzz","many_one","0","indirect_first","0","in04el10","1","23","1","1","3","1","Sehr sehr schwierig zwischen den Zeichen zu differenzieren. Das sich Teile der Zeichen wiederholt haben, ist mir schnell aufgefallen, jedoch ist die Einschätzung in unangenehm und angenehm in verschiedenen Kontexten sehr schwierig.","0","1","0","11782.470000000103","","{}","","","","","","","","","","","",""
"","html-keyboard-response","6","96317","0.0-6.0-0.0-0.0","o89gqnsgzz","many_one","0","indirect_first","0","in04el10","1","23","1","1","3","1","Sehr sehr schwierig zwischen den Zeichen zu differenzieren. Das sich Teile der Zeichen wiederholt haben, ist mir schnell aufgefallen, jedoch ist die Einschätzung in unangenehm und angenehm in verschiedenen Kontexten sehr schwierig.","0","1","0","null","","","<div class = 'row'><div class = 'column'><img src = 'usneg/9520.bmp' width = '100%;'></div><div class = 'column'><img src = 'category2/CS8.png' width = '70%;'></div></div>","null","neg","CS","CS","2","category2/CS8.png","","","","",""
"","html-keyboard-response","7","98836","0.0-6.0-0.0-0.1","o89gqnsgzz","many_one","0","indirect_first","0","in04el10","1","23","1","1","3","1","Sehr sehr schwierig zwischen den Zeichen zu differenzieren. Das sich Teile der Zeichen wiederholt haben, ist mir schnell aufgefallen, jedoch ist die Einschätzung in unangenehm und angenehm in verschiedenen Kontexten sehr schwierig.","0","1","0","null","","","<div class = 'row'><div class = 'column'><img src = 'category1/CS7.png' width = '70%;'></div><div class = 'column'><img src = 'uspos/2165.bmp' width = '100%;'></div></div>","null","pos","CS","CS","1","category1/CS7.png","","","","",""
"","html-keyboard-response","8","101366","0.0-6.0-0.0-0.2","o89gqnsgzz","many_one","0","indirect_first","0","in04el10","1","23","1","1","3","1","Sehr sehr schwierig zwischen den Zeichen zu differenzieren. Das sich Teile der Zeichen wiederholt haben, ist mir schnell aufgefallen, jedoch ist die Einschätzung in unangenehm und angenehm in verschiedenen Kontexten sehr schwierig.","0","1","0","null","","","<div class = 'row'><div class = 'column'><img src = 'category3/CS7.png' width = '70%;'></div><div class = 'column'><img src = 'uspos/1460.bmp' width = '100%;'></div></div>","null","pos","CS","CS","3","category3/CS7.png","","","","",""
"","html-keyboard-response","9","103876","0.0-6.0-0.0-0.3","o89gqnsgzz","many_one","0","indirect_first","0","in04el10","1","23","1","1","3","1","Sehr sehr schwierig zwischen den Zeichen zu differenzieren. Das sich Teile der Zeichen wiederholt haben, ist mir schnell aufgefallen, jedoch ist die Einschätzung in unangenehm und angenehm in verschiedenen Kontexten sehr schwierig.","0","1","0","null","","","<div class = 'row'><div class = 'column'><img src = 'category1/CS8.png' width = '70%;'></div><div class = 'column'><img src = 'uspos/8350.bmp' width = '100%;'></div></div>","null","pos","CS","CS","1","category1/CS8.png","","","","",""
"","html-keyboard-response","10","106394","0.0-6.0-0.0-0.4","o89gqnsgzz","many_one","0","indirect_first","0","in04el10","1","23","1","1","3","1","Sehr sehr schwierig zwischen den Zeichen zu differenzieren. Das sich Teile der Zeichen wiederholt haben, ist mir schnell aufgefallen, jedoch ist die Einschätzung in unangenehm und angenehm in verschiedenen Kontexten sehr schwierig.","0","1","0","null","","","<div class = 'row'><div class = 'column'><img src = 'usneg/3160.bmp' width = '100%;'></div><div class = 'column'><img src = 'category4/CS3.png' width = '70%;'></div></div>","null","neg","CS","CS","4","category4/CS3.png","","","","",""
"","html-keyboard-response","11","108904","0.0-6.0-0.0-0.5","o89gqnsgzz","many_one","0","indirect_first","0","in04el10","1","23","1","1","3","1","Sehr sehr schwierig zwischen den Zeichen zu differenzieren. Das sich Teile der Zeichen wiederholt haben, ist mir schnell aufgefallen, jedoch ist die Einschätzung in unangenehm und angenehm in verschiedenen Kontexten sehr schwierig.","0","1","0","null","","","<div class = 'row'><div class = 'column'><img src = 'category4/CS4.png' width = '70%;'></div><div class = 'column'><img src = 'usneg/9180.bmp' width = '100%;'></div></div>","null","neg","CS","CS","4","category4/CS4.png","","","","",""
"","html-keyboard-response","12","111420","0.0-6.0-0.0-0.6","o89gqnsgzz","many_one","0","indirect_first","0","in04el10","1","23","1","1","3","1","Sehr sehr schwierig zwischen den Zeichen zu differenzieren. Das sich Teile der Zeichen wiederholt haben, ist mir schnell aufgefallen, jedoch ist die Einschätzung in unangenehm und angenehm in verschiedenen Kontexten sehr schwierig.","0","1","0","null","","","<div class = 'row'><div class = 'column'><img src = 'usneg/9182.bmp' width = '100%;'></div><div class = 'column'><img src = 'category4/CS5.png' width = '70%;'></div></div>","null","neg","CS","CS","4","category4/CS5.png","","","","",""
"","html-keyboard-response","13","113941","0.0-6.0-0.0-0.7","o89gqnsgzz","many_one","0","indirect_first","0","in04el10","1","23","1","1","3","1","Sehr sehr schwierig zwischen den Zeichen zu differenzieren. Das sich Teile der Zeichen wiederholt haben, ist mir schnell aufgefallen, jedoch ist die Einschätzung in unangenehm und angenehm in verschiedenen Kontexten sehr schwierig.","0","1","0","null","","","<div class = 'row'><div class = 'column'><img src = 'category4/CS7.png' width = '70%;'></div><div class = 'column'><img src = 'usneg/9050.bmp' width = '100%;'></div></div>","null","neg","CS","CS","4","category4/CS7.png","","","","",""
"","html-keyboard-response","14","116471","0.0-6.0-0.0-0.8","o89gqnsgzz","many_one","0","indirect_first","0","in04el10","1","23","1","1","3","1","Sehr sehr schwierig zwischen den Zeichen zu differenzieren. Das sich Teile der Zeichen wiederholt haben, ist mir schnell aufgefallen, jedoch ist die Einschätzung in unangenehm und angenehm in verschiedenen Kontexten sehr schwierig.","0","1","0","null","","","<div class = 'row'><div class = 'column'><img src = 'uspos/2058.bmp' width = '100%;'></div><div class = 'column'><img src = 'category3/CS10.png' width = '70%;'></div></div>","null","pos","CS","CS","3","category3/CS10.png","","","","",""
"","html-keyboard-response","15","118994","0.0-6.0-0.0-0.9","o89gqnsgzz","many_one","0","indirect_first","0","in04el10","1","23","1","1","3","1","Sehr sehr schwierig zwischen den Zeichen zu differenzieren. Das sich Teile der Zeichen wiederholt haben, ist mir schnell aufgefallen, jedoch ist die Einschätzung in unangenehm und angenehm in verschiedenen Kontexten sehr schwierig.","0","1","0","null","","","<div class = 'row'><div class = 'column'><img src = 'category2/CS4.png' width = '70%;'></div><div class = 'column'><img src = 'usneg/9415.bmp' width = '100%;'></div></div>","null","neg","CS","CS","2","category2/CS4.png","","","","",""
"","html-keyboard-response","16","121515","0.0-6.0-0.0-0.10","o89gqnsgzz","many_one","0","indirect_first","0","in04el10","1","23","1","1","3","1","Sehr sehr schwierig zwischen den Zeichen zu differenzieren. Das sich Teile der Zeichen wiederholt haben, ist mir schnell aufgefallen, jedoch ist die Einschätzung in unangenehm und angenehm in verschiedenen Kontexten sehr schwierig.","0","1","0","null","","","<div class = 'row'><div class = 'column'><img src = 'usneg/9041.bmp' width = '100%;'></div><div class = 'column'><img src = 'category2/CS7.png' width = '70%;'></div></div>","null","neg","CS","CS","2","category2/CS7.png","","","","",""
"","html-keyboard-response","17","124024","0.0-6.0-0.0-0.11","o89gqnsgzz","many_one","0","indirect_first","0","in04el10","1","23","1","1","3","1","Sehr sehr schwierig zwischen den Zeichen zu differenzieren. Das sich Teile der Zeichen wiederholt haben, ist mir schnell aufgefallen, jedoch ist die Einschätzung in unangenehm und angenehm in verschiedenen Kontexten sehr schwierig.","0","1","0","null","","","<div class = 'row'><div class = 'column'><img src = 'category4/CS9.png' width = '70%;'></div><div class = 'column'><img src = 'usneg/6020.bmp' width = '100%;'></div></div>","null","neg","CS","CS","4","category4/CS9.png","","","","",""
"","html-keyboard-response","18","126540","0.0-6.0-0.0-0.12","o89gqnsgzz","many_one","0","indirect_first","0","in04el10","1","23","1","1","3","1","Sehr sehr schwierig zwischen den Zeichen zu differenzieren. Das sich Teile der Zeichen wiederholt haben, ist mir schnell aufgefallen, jedoch ist die Einschätzung in unangenehm und angenehm in verschiedenen Kontexten sehr schwierig.","0","1","0","null","","","<div class = 'row'><div class = 'column'><img src = 'usneg/2900.bmp' width = '100%;'></div><div class = 'column'><img src = 'category2/CS5.png' width = '70%;'></div></div>","null","neg","CS","CS","2","category2/CS5.png","","","","",""
"","html-keyboard-response","19","129049","0.0-6.0-0.0-0.13","o89gqnsgzz","many_one","0","indirect_first","0","in04el10","1","23","1","1","3","1","Sehr sehr schwierig zwischen den Zeichen zu differenzieren. Das sich Teile der Zeichen wiederholt haben, ist mir schnell aufgefallen, jedoch ist die Einschätzung in unangenehm und angenehm in verschiedenen Kontexten sehr schwierig.","0","1","0","null","","","<div class = 'row'><div class = 'column'><img src = 'uspos/2160.bmp' width = '100%;'></div><div class = 'column'><img src = 'category3/CS5.png' width = '70%;'></div></div>","null","pos","CS","CS","3","category3/CS5.png","","","","",""
"","html-keyboard-response","20","131574","0.0-6.0-0.0-0.14","o89gqnsgzz","many_one","0","indirect_first","0","in04el10","1","23","1","1","3","1","Sehr sehr schwierig zwischen den Zeichen zu differenzieren. Das sich Teile der Zeichen wiederholt haben, ist mir schnell aufgefallen, jedoch ist die Einschätzung in unangenehm und angenehm in verschiedenen Kontexten sehr schwierig.","0","1","0","null","","","<div class = 'row'><div class = 'column'><img src = 'category1/CS4.png' width = '70%;'></div><div class = 'column'><img src = 'uspos/2150.bmp' width = '100%;'></div></div>","null","pos","CS","CS","1","category1/CS4.png","","","","",""
"","html-keyboard-response","21","134099","0.0-6.0-0.0-0.15","o89gqnsgzz","many_one","0","indirect_first","0","in04el10","1","23","1","1","3","1","Sehr sehr schwierig zwischen den Zeichen zu differenzieren. Das sich Teile der Zeichen wiederholt haben, ist mir schnell aufgefallen, jedoch ist die Einschätzung in unangenehm und angenehm in verschiedenen Kontexten sehr schwierig.","0","1","0","null","","","<div class = 'row'><div class = 'column'><img src = 'category3/CS3.png' width = '70%;'></div><div class = 'column'><img src = 'uspos/8080.bmp' width = '100%;'></div></div>","null","pos","CS","CS","3","category3/CS3.png","","","","",""
"","html-keyboard-response","22","136609","0.0-6.0-0.0-0.16","o89gqnsgzz","many_one","0","indirect_first","0","in04el10","1","23","1","1","3","1","Sehr sehr schwierig zwischen den Zeichen zu differenzieren. Das sich Teile der Zeichen wiederholt haben, ist mir schnell aufgefallen, jedoch ist die Einschätzung in unangenehm und angenehm in verschiedenen Kontexten sehr schwierig.","0","1","0","null","","","<div class = 'row'><div class = 'column'><img src = 'usneg/2750.bmp' width = '100%;'></div><div class = 'column'><img src = 'category2/CS2.png' width = '70%;'></div></div>","null","neg","CS","CS","2","category2/CS2.png","","","","",""
"","html-keyboard-response","23","139137","0.0-6.0-0.0-0.17","o89gqnsgzz","many_one","0","indirect_first","0","in04el10","1","23","1","1","3","1","Sehr sehr schwierig zwischen den Zeichen zu differenzieren. Das sich Teile der Zeichen wiederholt haben, ist mir schnell aufgefallen, jedoch ist die Einschätzung in unangenehm und angenehm in verschiedenen Kontexten sehr schwierig.","0","1","0","null","","","<div class = 'row'><div class = 'column'><img src = 'uspos/5760.bmp' width = '100%;'></div><div class = 'column'><img src = 'category3/CS1.png' width = '70%;'></div></div>","null","pos","CS","CS","3","category3/CS1.png","","","","",""
"","html-keyboard-response","24","141654","0.0-6.0-0.0-0.18","o89gqnsgzz","many_one","0","indirect_first","0","in04el10","1","23","1","1","3","1","Sehr sehr schwierig zwischen den Zeichen zu differenzieren. Das sich Teile der Zeichen wiederholt haben, ist mir schnell aufgefallen, jedoch ist die Einschätzung in unangenehm und angenehm in verschiedenen Kontexten sehr schwierig.","0","1","0","null","","","<div class = 'row'><div class = 'column'><img src = 'uspos/2341.bmp' width = '100%;'></div><div class = 'column'><img src = 'category1/CS2.png' width = '70%;'></div></div>","null","pos","CS","CS","1","category1/CS2.png","","","","",""
"","html-keyboard-response","25","144170","0.0-6.0-0.0-0.19","o89gqnsgzz","many_one","0","indirect_first","0","in04el10","1","23","1","1","3","1","Sehr sehr schwierig zwischen den Zeichen zu differenzieren. Das sich Teile der Zeichen wiederholt haben, ist mir schnell aufgefallen, jedoch ist die Einschätzung in unangenehm und angenehm in verschiedenen Kontexten sehr schwierig.","0","1","0","null","","","<div class = 'row'><div class = 'column'><img src = 'category1/CS6.png' width = '70%;'></div><div class = 'column'><img src = 'uspos/2040.bmp' width = '100%;'></div></div>","null","pos","CS","CS","1","category1/CS6.png","","","","",""
"","survey-html-form","26","146185","0.0-6.0-1.0","o89gqnsgzz","many_one","0","indirect_first","0","in04el10","1","23","1","1","3","1","Sehr sehr schwierig zwischen den Zeichen zu differenzieren. Das sich Teile der Zeichen wiederholt haben, ist mir schnell aufgefallen, jedoch ist die Einschätzung in unangenehm und angenehm in verschiedenen Kontexten sehr schwierig.","0","1","0","1511.8950000000768","","{}","","","","","","","","","","","",""
"","html-keyboard-response","27","150212","0.0-6.0-2.0-0.0","o89gqnsgzz","many_one","0","indirect_first","0","in04el10","1","23","1","1","3","1","Sehr sehr schwierig zwischen den Zeichen zu differenzieren. Das sich Teile der Zeichen wiederholt haben, ist mir schnell aufgefallen, jedoch ist die Einschätzung in unangenehm und angenehm in verschiedenen Kontexten sehr schwierig.","0","1","0","null","","","<div class = 'row'><div class = 'column'><img src = 'uspos/5760.bmp' width = '100%;'></div><div class = 'column'><img src = 'category3/CS1.png' width = '70%;'></div></div>","null","pos","CS","CS","3","category3/CS1.png","","","","",""
"","html-keyboard-response","28","152733","0.0-6.0-2.0-0.1","o89gqnsgzz","many_one","0","indirect_first","0","in04el10","1","23","1","1","3","1","Sehr sehr schwierig zwischen den Zeichen zu differenzieren. Das sich Teile der Zeichen wiederholt haben, ist mir schnell aufgefallen, jedoch ist die Einschätzung in unangenehm und angenehm in verschiedenen Kontexten sehr schwierig.","0","1","0","null","","","<div class = 'row'><div class = 'column'><img src = 'uspos/8080.bmp' width = '100%;'></div><div class = 'column'><img src = 'category3/CS3.png' width = '70%;'></div></div>","null","pos","CS","CS","3","category3/CS3.png","","","","",""
"","html-keyboard-response","29","155253","0.0-6.0-2.0-0.2","o89gqnsgzz","many_one","0","indirect_first","0","in04el10","1","23","1","1","3","1","Sehr sehr schwierig zwischen den Zeichen zu differenzieren. Das sich Teile der Zeichen wiederholt haben, ist mir schnell aufgefallen, jedoch ist die Einschätzung in unangenehm und angenehm in verschiedenen Kontexten sehr schwierig.","0","1","0","null","","","<div class = 'row'><div class = 'column'><img src = 'uspos/2160.bmp' width = '100%;'></div><div class = 'column'><img src = 'category3/CS5.png' width = '70%;'></div></div>","null","pos","CS","CS","3","category3/CS5.png","","","","",""
"","html-keyboard-response","30","157770","0.0-6.0-2.0-0.3","o89gqnsgzz","many_one","0","indirect_first","0","in04el10","1","23","1","1","3","1","Sehr sehr schwierig zwischen den Zeichen zu differenzieren. Das sich Teile der Zeichen wiederholt haben, ist mir schnell aufgefallen, jedoch ist die Einschätzung in unangenehm und angenehm in verschiedenen Kontexten sehr schwierig.","0","1","0","null","","","<div class = 'row'><div class = 'column'><img src = 'usneg/9520.bmp' width = '100%;'></div><div class = 'column'><img src = 'category2/CS8.png' width = '70%;'></div></div>","null","neg","CS","CS","2","category2/CS8.png","","","","",""
"","html-keyboard-response","31","160282","0.0-6.0-2.0-0.4","o89gqnsgzz","many_one","0","indirect_first","0","in04el10","1","23","1","1","3","1","Sehr sehr schwierig zwischen den Zeichen zu differenzieren. Das sich Teile der Zeichen wiederholt haben, ist mir schnell aufgefallen, jedoch ist die Einschätzung in unangenehm und angenehm in verschiedenen Kontexten sehr schwierig.","0","1","0","null","","","<div class = 'row'><div class = 'column'><img src = 'category1/CS4.png' width = '70%;'></div><div class = 'column'><img src = 'uspos/2150.bmp' width = '100%;'></div></div>","null","pos","CS","CS","1","category1/CS4.png","","","","",""
"","html-keyboard-response","32","162797","0.0-6.0-2.0-0.5","o89gqnsgzz","many_one","0","indirect_first","0","in04el10","1","23","1","1","3","1","Sehr sehr schwierig zwischen den Zeichen zu differenzieren. Das sich Teile der Zeichen wiederholt haben, ist mir schnell aufgefallen, jedoch ist die Einschätzung in unangenehm und angenehm in verschiedenen Kontexten sehr schwierig.","0","1","0","null","","","<div class = 'row'><div class = 'column'><img src = 'uspos/2165.bmp' width = '100%;'></div><div class = 'column'><img src = 'category1/CS7.png' width = '70%;'></div></div>","null","pos","CS","CS","1","category1/CS7.png","","","","",""
"","html-keyboard-response","33","165307","0.0-6.0-2.0-0.6","o89gqnsgzz","many_one","0","indirect_first","0","in04el10","1","23","1","1","3","1","Sehr sehr schwierig zwischen den Zeichen zu differenzieren. Das sich Teile der Zeichen wiederholt haben, ist mir schnell aufgefallen, jedoch ist die Einschätzung in unangenehm und angenehm in verschiedenen Kontexten sehr schwierig.","0","1","0","null","","","<div class = 'row'><div class = 'column'><img src = 'category1/CS2.png' width = '70%;'></div><div class = 'column'><img src = 'uspos/2341.bmp' width = '100%;'></div></div>","null","pos","CS","CS","1","category1/CS2.png","","","","",""
"","html-keyboard-response","34","167837","0.0-6.0-2.0-0.7","o89gqnsgzz","many_one","0","indirect_first","0","in04el10","1","23","1","1","3","1","Sehr sehr schwierig zwischen den Zeichen zu differenzieren. Das sich Teile der Zeichen wiederholt haben, ist mir schnell aufgefallen, jedoch ist die Einschätzung in unangenehm und angenehm in verschiedenen Kontexten sehr schwierig.","0","1","0","null","","","<div class = 'row'><div class = 'column'><img src = 'uspos/2040.bmp' width = '100%;'></div><div class = 'column'><img src = 'category1/CS6.png' width = '70%;'></div></div>","null","pos","CS","CS","1","category1/CS6.png","","","","",""
"","html-keyboard-response","35","170367","0.0-6.0-2.0-0.8","o89gqnsgzz","many_one","0","indirect_first","0","in04el10","1","23","1","1","3","1","Sehr sehr schwierig zwischen den Zeichen zu differenzieren. Das sich Teile der Zeichen wiederholt haben, ist mir schnell aufgefallen, jedoch ist die Einschätzung in unangenehm und angenehm in verschiedenen Kontexten sehr schwierig.","0","1","0","null","","","<div class = 'row'><div class = 'column'><img src = 'uspos/8350.bmp' width = '100%;'></div><div class = 'column'><img src = 'category1/CS8.png' width = '70%;'></div></div>","null","pos","CS","CS","1","category1/CS8.png","","","","",""
"","html-keyboard-response","36","172905","0.0-6.0-2.0-0.9","o89gqnsgzz","many_one","0","indirect_first","0","in04el10","1","23","1","1","3","1","Sehr sehr schwierig zwischen den Zeichen zu differenzieren. Das sich Teile der Zeichen wiederholt haben, ist mir schnell aufgefallen, jedoch ist die Einschätzung in unangenehm und angenehm in verschiedenen Kontexten sehr schwierig.","0","1","0","null","","","<div class = 'row'><div class = 'column'><img src = 'category4/CS4.png' width = '70%;'></div><div class = 'column'><img src = 'usneg/9180.bmp' width = '100%;'></div></div>","null","neg","CS","CS","4","category4/CS4.png","","","","",""
"","html-keyboard-response","37","175428","0.0-6.0-2.0-0.10","o89gqnsgzz","many_one","0","indirect_first","0","in04el10","1","23","1","1","3","1","Sehr sehr schwierig zwischen den Zeichen zu differenzieren. Das sich Teile der Zeichen wiederholt haben, ist mir schnell aufgefallen, jedoch ist die Einschätzung in unangenehm und angenehm in verschiedenen Kontexten sehr schwierig.","0","1","0","null","","","<div class = 'row'><div class = 'column'><img src = 'usneg/2900.bmp' width = '100%;'></div><div class = 'column'><img src = 'category2/CS5.png' width = '70%;'></div></div>","null","neg","CS","CS","2","category2/CS5.png","","","","",""
"","html-keyboard-response","38","177952","0.0-6.0-2.0-0.11","o89gqnsgzz","many_one","0","indirect_first","0","in04el10","1","23","1","1","3","1","Sehr sehr schwierig zwischen den Zeichen zu differenzieren. Das sich Teile der Zeichen wiederholt haben, ist mir schnell aufgefallen, jedoch ist die Einschätzung in unangenehm und angenehm in verschiedenen Kontexten sehr schwierig.","0","1","0","null","","","<div class = 'row'><div class = 'column'><img src = 'category2/CS2.png' width = '70%;'></div><div class = 'column'><img src = 'usneg/2750.bmp' width = '100%;'></div></div>","null","neg","CS","CS","2","category2/CS2.png","","","","",""
"","html-keyboard-response","39","180469","0.0-6.0-2.0-0.12","o89gqnsgzz","many_one","0","indirect_first","0","in04el10","1","23","1","1","3","1","Sehr sehr schwierig zwischen den Zeichen zu differenzieren. Das sich Teile der Zeichen wiederholt haben, ist mir schnell aufgefallen, jedoch ist die Einschätzung in unangenehm und angenehm in verschiedenen Kontexten sehr schwierig.","0","1","0","null","","","<div class = 'row'><div class = 'column'><img src = 'usneg/9041.bmp' width = '100%;'></div><div class = 'column'><img src = 'category2/CS7.png' width = '70%;'></div></div>","null","neg","CS","CS","2","category2/CS7.png","","","","",""
"","html-keyboard-response","40","182983","0.0-6.0-2.0-0.13","o89gqnsgzz","many_one","0","indirect_first","0","in04el10","1","23","1","1","3","1","Sehr sehr schwierig zwischen den Zeichen zu differenzieren. Das sich Teile der Zeichen wiederholt haben, ist mir schnell aufgefallen, jedoch ist die Einschätzung in unangenehm und angenehm in verschiedenen Kontexten sehr schwierig.","0","1","0","null","","","<div class = 'row'><div class = 'column'><img src = 'usneg/9415.bmp' width = '100%;'></div><div class = 'column'><img src = 'category2/CS4.png' width = '70%;'></div></div>","null","neg","CS","CS","2","category2/CS4.png","","","","",""
"","html-keyboard-response","41","185505","0.0-6.0-2.0-0.14","o89gqnsgzz","many_one","0","indirect_first","0","in04el10","1","23","1","1","3","1","Sehr sehr schwierig zwischen den Zeichen zu differenzieren. Das sich Teile der Zeichen wiederholt haben, ist mir schnell aufgefallen, jedoch ist die Einschätzung in unangenehm und angenehm in verschiedenen Kontexten sehr schwierig.","0","1","0","null","","","<div class = 'row'><div class = 'column'><img src = 'uspos/2058.bmp' width = '100%;'></div><div class = 'column'><img src = 'category3/CS10.png' width = '70%;'></div></div>","null","pos","CS","CS","3","category3/CS10.png","","","","",""
"","html-keyboard-response","42","188018","0.0-6.0-2.0-0.15","o89gqnsgzz","many_one","0","indirect_first","0","in04el10","1","23","1","1","3","1","Sehr sehr schwierig zwischen den Zeichen zu differenzieren. Das sich Teile der Zeichen wiederholt haben, ist mir schnell aufgefallen, jedoch ist die Einschätzung in unangenehm und angenehm in verschiedenen Kontexten sehr schwierig.","0","1","0","null","","","<div class = 'row'><div class = 'column'><img src = 'category3/CS7.png' width = '70%;'></div><div class = 'column'><img src = 'uspos/1460.bmp' width = '100%;'></div></div>","null","pos","CS","CS","3","category3/CS7.png","","","","",""
"","html-keyboard-response","43","190540","0.0-6.0-2.0-0.16","o89gqnsgzz","many_one","0","indirect_first","0","in04el10","1","23","1","1","3","1","Sehr sehr schwierig zwischen den Zeichen zu differenzieren. Das sich Teile der Zeichen wiederholt haben, ist mir schnell aufgefallen, jedoch ist die Einschätzung in unangenehm und angenehm in verschiedenen Kontexten sehr schwierig.","0","1","0","null","","","<div class = 'row'><div class = 'column'><img src = 'category4/CS5.png' width = '70%;'></div><div class = 'column'><img src = 'usneg/9182.bmp' width = '100%;'></div></div>","null","neg","CS","CS","4","category4/CS5.png","","","","",""
"","html-keyboard-response","44","193057","0.0-6.0-2.0-0.17","o89gqnsgzz","many_one","0","indirect_first","0","in04el10","1","23","1","1","3","1","Sehr sehr schwierig zwischen den Zeichen zu differenzieren. Das sich Teile der Zeichen wiederholt haben, ist mir schnell aufgefallen, jedoch ist die Einschätzung in unangenehm und angenehm in verschiedenen Kontexten sehr schwierig.","0","1","0","null","","","<div class = 'row'><div class = 'column'><img src = 'usneg/9050.bmp' width = '100%;'></div><div class = 'column'><img src = 'category4/CS7.png' width = '70%;'></div></div>","null","neg","CS","CS","4","category4/CS7.png","","","","",""
"","html-keyboard-response","45","195577","0.0-6.0-2.0-0.18","o89gqnsgzz","many_one","0","indirect_first","0","in04el10","1","23","1","1","3","1","Sehr sehr schwierig zwischen den Zeichen zu differenzieren. Das sich Teile der Zeichen wiederholt haben, ist mir schnell aufgefallen, jedoch ist die Einschätzung in unangenehm und angenehm in verschiedenen Kontexten sehr schwierig.","0","1","0","null","","","<div class = 'row'><div class = 'column'><img src = 'usneg/6020.bmp' width = '100%;'></div><div class = 'column'><img src = 'category4/CS9.png' width = '70%;'></div></div>","null","neg","CS","CS","4","category4/CS9.png","","","","",""
"","html-keyboard-response","46","198094","0.0-6.0-2.0-0.19","o89gqnsgzz","many_one","0","indirect_first","0","in04el10","1","23","1","1","3","1","Sehr sehr schwierig zwischen den Zeichen zu differenzieren. Das sich Teile der Zeichen wiederholt haben, ist mir schnell aufgefallen, jedoch ist die Einschätzung in unangenehm und angenehm in verschiedenen Kontexten sehr schwierig.","0","1","0","null","","","<div class = 'row'><div class = 'column'><img src = 'category4/CS3.png' width = '70%;'></div><div class = 'column'><img src = 'usneg/3160.bmp' width = '100%;'></div></div>","null","neg","CS","CS","4","category4/CS3.png","","","","",""
"","survey-html-form","47","201880","0.0-6.0-3.0","o89gqnsgzz","many_one","0","indirect_first","0","in04el10","1","23","1","1","3","1","Sehr sehr schwierig zwischen den Zeichen zu differenzieren. Das sich Teile der Zeichen wiederholt haben, ist mir schnell aufgefallen, jedoch ist die Einschätzung in unangenehm und angenehm in verschiedenen Kontexten sehr schwierig.","0","1","0","3264.4150000000955","","{}","","","","","","","","","","","",""
"","html-keyboard-response","48","205886","0.0-6.0-4.0-0.0","o89gqnsgzz","many_one","0","indirect_first","0","in04el10","1","23","1","1","3","1","Sehr sehr schwierig zwischen den Zeichen zu differenzieren. Das sich Teile der Zeichen wiederholt haben, ist mir schnell aufgefallen, jedoch ist die Einschätzung in unangenehm und angenehm in verschiedenen Kontexten sehr schwierig.","0","1","0","null","","","<div class = 'row'><div class = 'column'><img src = 'uspos/2165.bmp' width = '100%;'></div><div class = 'column'><img src = 'category1/CS7.png' width = '70%;'></div></div>","null","pos","CS","CS","1","category1/CS7.png","","","","",""
"","html-keyboard-response","49","208406","0.0-6.0-4.0-0.1","o89gqnsgzz","many_one","0","indirect_first","0","in04el10","1","23","1","1","3","1","Sehr sehr schwierig zwischen den Zeichen zu differenzieren. Das sich Teile der Zeichen wiederholt haben, ist mir schnell aufgefallen, jedoch ist die Einschätzung in unangenehm und angenehm in verschiedenen Kontexten sehr schwierig.","0","1","0","null","","","<div class = 'row'><div class = 'column'><img src = 'category1/CS4.png' width = '70%;'></div><div class = 'column'><img src = 'uspos/2150.bmp' width = '100%;'></div></div>","null","pos","CS","CS","1","category1/CS4.png","","","","",""
"","html-keyboard-response","50","210925","0.0-6.0-4.0-0.2","o89gqnsgzz","many_one","0","indirect_first","0","in04el10","1","23","1","1","3","1","Sehr sehr schwierig zwischen den Zeichen zu differenzieren. Das sich Teile der Zeichen wiederholt haben, ist mir schnell aufgefallen, jedoch ist die Einschätzung in unangenehm und angenehm in verschiedenen Kontexten sehr schwierig.","0","1","0","null","","","<div class = 'row'><div class = 'column'><img src = 'uspos/2040.bmp' width = '100%;'></div><div class = 'column'><img src = 'category1/CS6.png' width = '70%;'></div></div>","null","pos","CS","CS","1","category1/CS6.png","","","","",""
"","html-keyboard-response","51","213452","0.0-6.0-4.0-0.3","o89gqnsgzz","many_one","0","indirect_first","0","in04el10","1","23","1","1","3","1","Sehr sehr schwierig zwischen den Zeichen zu differenzieren. Das sich Teile der Zeichen wiederholt haben, ist mir schnell aufgefallen, jedoch ist die Einschätzung in unangenehm und angenehm in verschiedenen Kontexten sehr schwierig.","0","1","0","null","","","<div class = 'row'><div class = 'column'><img src = 'usneg/9180.bmp' width = '100%;'></div><div class = 'column'><img src = 'category4/CS4.png' width = '70%;'></div></div>","null","neg","CS","CS","4","category4/CS4.png","","","","",""
"","html-keyboard-response","52","215976","0.0-6.0-4.0-0.4","o89gqnsgzz","many_one","0","indirect_first","0","in04el10","1","23","1","1","3","1","Sehr sehr schwierig zwischen den Zeichen zu differenzieren. Das sich Teile der Zeichen wiederholt haben, ist mir schnell aufgefallen, jedoch ist die Einschätzung in unangenehm und angenehm in verschiedenen Kontexten sehr schwierig.","0","1","0","null","","","<div class = 'row'><div class = 'column'><img src = 'category3/CS3.png' width = '70%;'></div><div class = 'column'><img src = 'uspos/8080.bmp' width = '100%;'></div></div>","null","pos","CS","CS","3","category3/CS3.png","","","","",""
"","html-keyboard-response","53","218487","0.0-6.0-4.0-0.5","o89gqnsgzz","many_one","0","indirect_first","0","in04el10","1","23","1","1","3","1","Sehr sehr schwierig zwischen den Zeichen zu differenzieren. Das sich Teile der Zeichen wiederholt haben, ist mir schnell aufgefallen, jedoch ist die Einschätzung in unangenehm und angenehm in verschiedenen Kontexten sehr schwierig.","0","1","0","null","","","<div class = 'row'><div class = 'column'><img src = 'category4/CS3.png' width = '70%;'></div><div class = 'column'><img src = 'usneg/3160.bmp' width = '100%;'></div></div>","null","neg","CS","CS","4","category4/CS3.png","","","","",""
"","html-keyboard-response","54","221006","0.0-6.0-4.0-0.6","o89gqnsgzz","many_one","0","indirect_first","0","in04el10","1","23","1","1","3","1","Sehr sehr schwierig zwischen den Zeichen zu differenzieren. Das sich Teile der Zeichen wiederholt haben, ist mir schnell aufgefallen, jedoch ist die Einschätzung in unangenehm und angenehm in verschiedenen Kontexten sehr schwierig.","0","1","0","null","","","<div class = 'row'><div class = 'column'><img src = 'usneg/9041.bmp' width = '100%;'></div><div class = 'column'><img src = 'category2/CS7.png' width = '70%;'></div></div>","null","neg","CS","CS","2","category2/CS7.png","","","","",""
"","html-keyboard-response","55","223522","0.0-6.0-4.0-0.7","o89gqnsgzz","many_one","0","indirect_first","0","in04el10","1","23","1","1","3","1","Sehr sehr schwierig zwischen den Zeichen zu differenzieren. Das sich Teile der Zeichen wiederholt haben, ist mir schnell aufgefallen, jedoch ist die Einschätzung in unangenehm und angenehm in verschiedenen Kontexten sehr schwierig.","0","1","0","null","","","<div class = 'row'><div class = 'column'><img src = 'usneg/2750.bmp' width = '100%;'></div><div class = 'column'><img src = 'category2/CS2.png' width = '70%;'></div></div>","null","neg","CS","CS","2","category2/CS2.png","","","","",""
"","html-keyboard-response","56","226037","0.0-6.0-4.0-0.8","o89gqnsgzz","many_one","0","indirect_first","0","in04el10","1","23","1","1","3","1","Sehr sehr schwierig zwischen den Zeichen zu differenzieren. Das sich Teile der Zeichen wiederholt haben, ist mir schnell aufgefallen, jedoch ist die Einschätzung in unangenehm und angenehm in verschiedenen Kontexten sehr schwierig.","0","1","0","null","","","<div class = 'row'><div class = 'column'><img src = 'usneg/9182.bmp' width = '100%;'></div><div class = 'column'><img src = 'category4/CS5.png' width = '70%;'></div></div>","null","neg","CS","CS","4","category4/CS5.png","","","","",""
"","html-keyboard-response","57","228554","0.0-6.0-4.0-0.9","o89gqnsgzz","many_one","0","indirect_first","0","in04el10","1","23","1","1","3","1","Sehr sehr schwierig zwischen den Zeichen zu differenzieren. Das sich Teile der Zeichen wiederholt haben, ist mir schnell aufgefallen, jedoch ist die Einschätzung in unangenehm und angenehm in verschiedenen Kontexten sehr schwierig.","0","1","0","null","","","<div class = 'row'><div class = 'column'><img src = 'uspos/2160.bmp' width = '100%;'></div><div class = 'column'><img src = 'category3/CS5.png' width = '70%;'></div></div>","null","pos","CS","CS","3","category3/CS5.png","","","","",""
"","html-keyboard-response","58","231080","0.0-6.0-4.0-0.10","o89gqnsgzz","many_one","0","indirect_first","0","in04el10","1","23","1","1","3","1","Sehr sehr schwierig zwischen den Zeichen zu differenzieren. Das sich Teile der Zeichen wiederholt haben, ist mir schnell aufgefallen, jedoch ist die Einschätzung in unangenehm und angenehm in verschiedenen Kontexten sehr schwierig.","0","1","0","null","","","<div class = 'row'><div class = 'column'><img src = 'usneg/9415.bmp' width = '100%;'></div><div class = 'column'><img src = 'category2/CS4.png' width = '70%;'></div></div>","null","neg","CS","CS","2","category2/CS4.png","","","","",""
"","html-keyboard-response","59","233593","0.0-6.0-4.0-0.11","o89gqnsgzz","many_one","0","indirect_first","0","in04el10","1","23","1","1","3","1","Sehr sehr schwierig zwischen den Zeichen zu differenzieren. Das sich Teile der Zeichen wiederholt haben, ist mir schnell aufgefallen, jedoch ist die Einschätzung in unangenehm und angenehm in verschiedenen Kontexten sehr schwierig.","0","1","0","null","","","<div class = 'row'><div class = 'column'><img src = 'uspos/2341.bmp' width = '100%;'></div><div class = 'column'><img src = 'category1/CS2.png' width = '70%;'></div></div>","null","pos","CS","CS","1","category1/CS2.png","","","","",""
"","html-keyboard-response","60","236120","0.0-6.0-4.0-0.12","o89gqnsgzz","many_one","0","indirect_first","0","in04el10","1","23","1","1","3","1","Sehr sehr schwierig zwischen den Zeichen zu differenzieren. Das sich Teile der Zeichen wiederholt haben, ist mir schnell aufgefallen, jedoch ist die Einschätzung in unangenehm und angenehm in verschiedenen Kontexten sehr schwierig.","0","1","0","null","","","<div class = 'row'><div class = 'column'><img src = 'category3/CS1.png' width = '70%;'></div><div class = 'column'><img src = 'uspos/5760.bmp' width = '100%;'></div></div>","null","pos","CS","CS","3","category3/CS1.png","","","","",""
"","html-keyboard-response","61","238647","0.0-6.0-4.0-0.13","o89gqnsgzz","many_one","0","indirect_first","0","in04el10","1","23","1","1","3","1","Sehr sehr schwierig zwischen den Zeichen zu differenzieren. Das sich Teile der Zeichen wiederholt haben, ist mir schnell aufgefallen, jedoch ist die Einschätzung in unangenehm und angenehm in verschiedenen Kontexten sehr schwierig.","0","1","0","null","","","<div class = 'row'><div class = 'column'><img src = 'usneg/6020.bmp' width = '100%;'></div><div class = 'column'><img src = 'category4/CS9.png' width = '70%;'></div></div>","null","neg","CS","CS","4","category4/CS9.png","","","","",""
"","html-keyboard-response","62","241154","0.0-6.0-4.0-0.14","o89gqnsgzz","many_one","0","indirect_first","0","in04el10","1","23","1","1","3","1","Sehr sehr schwierig zwischen den Zeichen zu differenzieren. Das sich Teile der Zeichen wiederholt haben, ist mir schnell aufgefallen, jedoch ist die Einschätzung in unangenehm und angenehm in verschiedenen Kontexten sehr schwierig.","0","1","0","null","","","<div class = 'row'><div class = 'column'><img src = 'category2/CS8.png' width = '70%;'></div><div class = 'column'><img src = 'usneg/9520.bmp' width = '100%;'></div></div>","null","neg","CS","CS","2","category2/CS8.png","","","","",""
"","html-keyboard-response","63","243675","0.0-6.0-4.0-0.15","o89gqnsgzz","many_one","0","indirect_first","0","in04el10","1","23","1","1","3","1","Sehr sehr schwierig zwischen den Zeichen zu differenzieren. Das sich Teile der Zeichen wiederholt haben, ist mir schnell aufgefallen, jedoch ist die Einschätzung in unangenehm und angenehm in verschiedenen Kontexten sehr schwierig.","0","1","0","null","","","<div class = 'row'><div class = 'column'><img src = 'uspos/2058.bmp' width = '100%;'></div><div class = 'column'><img src = 'category3/CS10.png' width = '70%;'></div></div>","null","pos","CS","CS","3","category3/CS10.png","","","","",""
"","html-keyboard-response","64","246198","0.0-6.0-4.0-0.16","o89gqnsgzz","many_one","0","indirect_first","0","in04el10","1","23","1","1","3","1","Sehr sehr schwierig zwischen den Zeichen zu differenzieren. Das sich Teile der Zeichen wiederholt haben, ist mir schnell aufgefallen, jedoch ist die Einschätzung in unangenehm und angenehm in verschiedenen Kontexten sehr schwierig.","0","1","0","null","","","<div class = 'row'><div class = 'column'><img src = 'category1/CS8.png' width = '70%;'></div><div class = 'column'><img src = 'uspos/8350.bmp' width = '100%;'></div></div>","null","pos","CS","CS","1","category1/CS8.png","","","","",""
"","html-keyboard-response","65","248721","0.0-6.0-4.0-0.17","o89gqnsgzz","many_one","0","indirect_first","0","in04el10","1","23","1","1","3","1","Sehr sehr schwierig zwischen den Zeichen zu differenzieren. Das sich Teile der Zeichen wiederholt haben, ist mir schnell aufgefallen, jedoch ist die Einschätzung in unangenehm und angenehm in verschiedenen Kontexten sehr schwierig.","0","1","0","null","","","<div class = 'row'><div class = 'column'><img src = 'usneg/9050.bmp' width = '100%;'></div><div class = 'column'><img src = 'category4/CS7.png' width = '70%;'></div></div>","null","neg","CS","CS","4","category4/CS7.png","","","","",""
"","html-keyboard-response","66","251242","0.0-6.0-4.0-0.18","o89gqnsgzz","many_one","0","indirect_first","0","in04el10","1","23","1","1","3","1","Sehr sehr schwierig zwischen den Zeichen zu differenzieren. Das sich Teile der Zeichen wiederholt haben, ist mir schnell aufgefallen, jedoch ist die Einschätzung in unangenehm und angenehm in verschiedenen Kontexten sehr schwierig.","0","1","0","null","","","<div class = 'row'><div class = 'column'><img src = 'category3/CS7.png' width = '70%;'></div><div class = 'column'><img src = 'uspos/1460.bmp' width = '100%;'></div></div>","null","pos","CS","CS","3","category3/CS7.png","","","","",""
"","html-keyboard-response","67","253754","0.0-6.0-4.0-0.19","o89gqnsgzz","many_one","0","indirect_first","0","in04el10","1","23","1","1","3","1","Sehr sehr schwierig zwischen den Zeichen zu differenzieren. Das sich Teile der Zeichen wiederholt haben, ist mir schnell aufgefallen, jedoch ist die Einschätzung in unangenehm und angenehm in verschiedenen Kontexten sehr schwierig.","0","1","0","null","","","<div class = 'row'><div class = 'column'><img src = 'usneg/2900.bmp' width = '100%;'></div><div class = 'column'><img src = 'category2/CS5.png' width = '70%;'></div></div>","null","neg","CS","CS","2","category2/CS5.png","","","","",""
"","survey-html-form","68","259235","0.0-6.0-5.0","o89gqnsgzz","many_one","0","indirect_first","0","in04el10","1","23","1","1","3","1","Sehr sehr schwierig zwischen den Zeichen zu differenzieren. Das sich Teile der Zeichen wiederholt haben, ist mir schnell aufgefallen, jedoch ist die Einschätzung in unangenehm und angenehm in verschiedenen Kontexten sehr schwierig.","0","1","0","4978.7300000003015","","{}","","","","","","","","","","","",""
"","html-keyboard-response","69","263261","0.0-6.0-6.0-0.0","o89gqnsgzz","many_one","0","indirect_first","0","in04el10","1","23","1","1","3","1","Sehr sehr schwierig zwischen den Zeichen zu differenzieren. Das sich Teile der Zeichen wiederholt haben, ist mir schnell aufgefallen, jedoch ist die Einschätzung in unangenehm und angenehm in verschiedenen Kontexten sehr schwierig.","0","1","0","null","","","<div class = 'row'><div class = 'column'><img src = 'uspos/2150.bmp' width = '100%;'></div><div class = 'column'><img src = 'category1/CS4.png' width = '70%;'></div></div>","null","pos","CS","CS","1","category1/CS4.png","","","","",""
"","html-keyboard-response","70","265777","0.0-6.0-6.0-0.1","o89gqnsgzz","many_one","0","indirect_first","0","in04el10","1","23","1","1","3","1","Sehr sehr schwierig zwischen den Zeichen zu differenzieren. Das sich Teile der Zeichen wiederholt haben, ist mir schnell aufgefallen, jedoch ist die Einschätzung in unangenehm und angenehm in verschiedenen Kontexten sehr schwierig.","0","1","0","null","","","<div class = 'row'><div class = 'column'><img src = 'category2/CS2.png' width = '70%;'></div><div class = 'column'><img src = 'usneg/2750.bmp' width = '100%;'></div></div>","null","neg","CS","CS","2","category2/CS2.png","","","","",""
"","html-keyboard-response","71","268294","0.0-6.0-6.0-0.2","o89gqnsgzz","many_one","0","indirect_first","0","in04el10","1","23","1","1","3","1","Sehr sehr schwierig zwischen den Zeichen zu differenzieren. Das sich Teile der Zeichen wiederholt haben, ist mir schnell aufgefallen, jedoch ist die Einschätzung in unangenehm und angenehm in verschiedenen Kontexten sehr schwierig.","0","1","0","null","","","<div class = 'row'><div class = 'column'><img src = 'usneg/2900.bmp' width = '100%;'></div><div class = 'column'><img src = 'category2/CS5.png' width = '70%;'></div></div>","null","neg","CS","CS","2","category2/CS5.png","","","","",""
"","html-keyboard-response","72","270816","0.0-6.0-6.0-0.3","o89gqnsgzz","many_one","0","indirect_first","0","in04el10","1","23","1","1","3","1","Sehr sehr schwierig zwischen den Zeichen zu differenzieren. Das sich Teile der Zeichen wiederholt haben, ist mir schnell aufgefallen, jedoch ist die Einschätzung in unangenehm und angenehm in verschiedenen Kontexten sehr schwierig.","0","1","0","null","","","<div class = 'row'><div class = 'column'><img src = 'category1/CS7.png' width = '70%;'></div><div class = 'column'><img src = 'uspos/2165.bmp' width = '100%;'></div></div>","null","pos","CS","CS","1","category1/CS7.png","","","","",""
"","html-keyboard-response","73","273340","0.0-6.0-6.0-0.4","o89gqnsgzz","many_one","0","indirect_first","0","in04el10","1","23","1","1","3","1","Sehr sehr schwierig zwischen den Zeichen zu differenzieren. Das sich Teile der Zeichen wiederholt haben, ist mir schnell aufgefallen, jedoch ist die Einschätzung in unangenehm und angenehm in verschiedenen Kontexten sehr schwierig.","0","1","0","null","","","<div class = 'row'><div class = 'column'><img src = 'uspos/2160.bmp' width = '100%;'></div><div class = 'column'><img src = 'category3/CS5.png' width = '70%;'></div></div>","null","pos","CS","CS","3","category3/CS5.png","","","","",""
"","html-keyboard-response","74","275854","0.0-6.0-6.0-0.5","o89gqnsgzz","many_one","0","indirect_first","0","in04el10","1","23","1","1","3","1","Sehr sehr schwierig zwischen den Zeichen zu differenzieren. Das sich Teile der Zeichen wiederholt haben, ist mir schnell aufgefallen, jedoch ist die Einschätzung in unangenehm und angenehm in verschiedenen Kontexten sehr schwierig.","0","1","0","null","","","<div class = 'row'><div class = 'column'><img src = 'category4/CS7.png' width = '70%;'></div><div class = 'column'><img src = 'usneg/9050.bmp' width = '100%;'></div></div>","null","neg","CS","CS","4","category4/CS7.png","","","","",""
"","html-keyboard-response","75","278376","0.0-6.0-6.0-0.6","o89gqnsgzz","many_one","0","indirect_first","0","in04el10","1","23","1","1","3","1","Sehr sehr schwierig zwischen den Zeichen zu differenzieren. Das sich Teile der Zeichen wiederholt haben, ist mir schnell aufgefallen, jedoch ist die Einschätzung in unangenehm und angenehm in verschiedenen Kontexten sehr schwierig.","0","1","0","null","","","<div class = 'row'><div class = 'column'><img src = 'category2/CS7.png' width = '70%;'></div><div class = 'column'><img src = 'usneg/9041.bmp' width = '100%;'></div></div>","null","neg","CS","CS","2","category2/CS7.png","","","","",""
"","html-keyboard-response","76","280894","0.0-6.0-6.0-0.7","o89gqnsgzz","many_one","0","indirect_first","0","in04el10","1","23","1","1","3","1","Sehr sehr schwierig zwischen den Zeichen zu differenzieren. Das sich Teile der Zeichen wiederholt haben, ist mir schnell aufgefallen, jedoch ist die Einschätzung in unangenehm und angenehm in verschiedenen Kontexten sehr schwierig.","0","1","0","null","","","<div class = 'row'><div class = 'column'><img src = 'usneg/6020.bmp' width = '100%;'></div><div class = 'column'><img src = 'category4/CS9.png' width = '70%;'></div></div>","null","neg","CS","CS","4","category4/CS9.png","","","","",""
"","html-keyboard-response","77","283407","0.0-6.0-6.0-0.8","o89gqnsgzz","many_one","0","indirect_first","0","in04el10","1","23","1","1","3","1","Sehr sehr schwierig zwischen den Zeichen zu differenzieren. Das sich Teile der Zeichen wiederholt haben, ist mir schnell aufgefallen, jedoch ist die Einschätzung in unangenehm und angenehm in verschiedenen Kontexten sehr schwierig.","0","1","0","null","","","<div class = 'row'><div class = 'column'><img src = 'category3/CS7.png' width = '70%;'></div><div class = 'column'><img src = 'uspos/1460.bmp' width = '100%;'></div></div>","null","pos","CS","CS","3","category3/CS7.png","","","","",""
"","html-keyboard-response","78","285929","0.0-6.0-6.0-0.9","o89gqnsgzz","many_one","0","indirect_first","0","in04el10","1","23","1","1","3","1","Sehr sehr schwierig zwischen den Zeichen zu differenzieren. Das sich Teile der Zeichen wiederholt haben, ist mir schnell aufgefallen, jedoch ist die Einschätzung in unangenehm und angenehm in verschiedenen Kontexten sehr schwierig.","0","1","0","null","","","<div class = 'row'><div class = 'column'><img src = 'category2/CS8.png' width = '70%;'></div><div class = 'column'><img src = 'usneg/9520.bmp' width = '100%;'></div></div>","null","neg","CS","CS","2","category2/CS8.png","","","","",""
"","html-keyboard-response","79","288446","0.0-6.0-6.0-0.10","o89gqnsgzz","many_one","0","indirect_first","0","in04el10","1","23","1","1","3","1","Sehr sehr schwierig zwischen den Zeichen zu differenzieren. Das sich Teile der Zeichen wiederholt haben, ist mir schnell aufgefallen, jedoch ist die Einschätzung in unangenehm und angenehm in verschiedenen Kontexten sehr schwierig.","0","1","0","null","","","<div class = 'row'><div class = 'column'><img src = 'uspos/5760.bmp' width = '100%;'></div><div class = 'column'><img src = 'category3/CS1.png' width = '70%;'></div></div>","null","pos","CS","CS","3","category3/CS1.png","","","","",""
"","html-keyboard-response","80","290969","0.0-6.0-6.0-0.11","o89gqnsgzz","many_one","0","indirect_first","0","in04el10","1","23","1","1","3","1","Sehr sehr schwierig zwischen den Zeichen zu differenzieren. Das sich Teile der Zeichen wiederholt haben, ist mir schnell aufgefallen, jedoch ist die Einschätzung in unangenehm und angenehm in verschiedenen Kontexten sehr schwierig.","0","1","0","null","","","<div class = 'row'><div class = 'column'><img src = 'uspos/2040.bmp' width = '100%;'></div><div class = 'column'><img src = 'category1/CS6.png' width = '70%;'></div></div>","null","pos","CS","CS","1","category1/CS6.png","","","","",""
"","html-keyboard-response","81","293492","0.0-6.0-6.0-0.12","o89gqnsgzz","many_one","0","indirect_first","0","in04el10","1","23","1","1","3","1","Sehr sehr schwierig zwischen den Zeichen zu differenzieren. Das sich Teile der Zeichen wiederholt haben, ist mir schnell aufgefallen, jedoch ist die Einschätzung in unangenehm und angenehm in verschiedenen Kontexten sehr schwierig.","0","1","0","null","","","<div class = 'row'><div class = 'column'><img src = 'usneg/9415.bmp' width = '100%;'></div><div class = 'column'><img src = 'category2/CS4.png' width = '70%;'></div></div>","null","neg","CS","CS","2","category2/CS4.png","","","","",""
"","html-keyboard-response","82","296024","0.0-6.0-6.0-0.13","o89gqnsgzz","many_one","0","indirect_first","0","in04el10","1","23","1","1","3","1","Sehr sehr schwierig zwischen den Zeichen zu differenzieren. Das sich Teile der Zeichen wiederholt haben, ist mir schnell aufgefallen, jedoch ist die Einschätzung in unangenehm und angenehm in verschiedenen Kontexten sehr schwierig.","0","1","0","null","","","<div class = 'row'><div class = 'column'><img src = 'category1/CS2.png' width = '70%;'></div><div class = 'column'><img src = 'uspos/2341.bmp' width = '100%;'></div></div>","null","pos","CS","CS","1","category1/CS2.png","","","","",""
"","html-keyboard-response","83","298533","0.0-6.0-6.0-0.14","o89gqnsgzz","many_one","0","indirect_first","0","in04el10","1","23","1","1","3","1","Sehr sehr schwierig zwischen den Zeichen zu differenzieren. Das sich Teile der Zeichen wiederholt haben, ist mir schnell aufgefallen, jedoch ist die Einschätzung in unangenehm und angenehm in verschiedenen Kontexten sehr schwierig.","0","1","0","null","","","<div class = 'row'><div class = 'column'><img src = 'category1/CS8.png' width = '70%;'></div><div class = 'column'><img src = 'uspos/8350.bmp' width = '100%;'></div></div>","null","pos","CS","CS","1","category1/CS8.png","","","","",""
"","html-keyboard-response","84","301049","0.0-6.0-6.0-0.15","o89gqnsgzz","many_one","0","indirect_first","0","in04el10","1","23","1","1","3","1","Sehr sehr schwierig zwischen den Zeichen zu differenzieren. Das sich Teile der Zeichen wiederholt haben, ist mir schnell aufgefallen, jedoch ist die Einschätzung in unangenehm und angenehm in verschiedenen Kontexten sehr schwierig.","0","1","0","null","","","<div class = 'row'><div class = 'column'><img src = 'uspos/8080.bmp' width = '100%;'></div><div class = 'column'><img src = 'category3/CS3.png' width = '70%;'></div></div>","null","pos","CS","CS","3","category3/CS3.png","","","","",""
"","html-keyboard-response","85","303570","0.0-6.0-6.0-0.16","o89gqnsgzz","many_one","0","indirect_first","0","in04el10","1","23","1","1","3","1","Sehr sehr schwierig zwischen den Zeichen zu differenzieren. Das sich Teile der Zeichen wiederholt haben, ist mir schnell aufgefallen, jedoch ist die Einschätzung in unangenehm und angenehm in verschiedenen Kontexten sehr schwierig.","0","1","0","null","","","<div class = 'row'><div class = 'column'><img src = 'category4/CS5.png' width = '70%;'></div><div class = 'column'><img src = 'usneg/9182.bmp' width = '100%;'></div></div>","null","neg","CS","CS","4","category4/CS5.png","","","","",""
"","html-keyboard-response","86","306081","0.0-6.0-6.0-0.17","o89gqnsgzz","many_one","0","indirect_first","0","in04el10","1","23","1","1","3","1","Sehr sehr schwierig zwischen den Zeichen zu differenzieren. Das sich Teile der Zeichen wiederholt haben, ist mir schnell aufgefallen, jedoch ist die Einschätzung in unangenehm und angenehm in verschiedenen Kontexten sehr schwierig.","0","1","0","null","","","<div class = 'row'><div class = 'column'><img src = 'usneg/3160.bmp' width = '100%;'></div><div class = 'column'><img src = 'category4/CS3.png' width = '70%;'></div></div>","null","neg","CS","CS","4","category4/CS3.png","","","","",""
"","html-keyboard-response","87","308596","0.0-6.0-6.0-0.18","o89gqnsgzz","many_one","0","indirect_first","0","in04el10","1","23","1","1","3","1","Sehr sehr schwierig zwischen den Zeichen zu differenzieren. Das sich Teile der Zeichen wiederholt haben, ist mir schnell aufgefallen, jedoch ist die Einschätzung in unangenehm und angenehm in verschiedenen Kontexten sehr schwierig.","0","1","0","null","","","<div class = 'row'><div class = 'column'><img src = 'uspos/2058.bmp' width = '100%;'></div><div class = 'column'><img src = 'category3/CS10.png' width = '70%;'></div></div>","null","pos","CS","CS","3","category3/CS10.png","","","","",""
"","html-keyboard-response","88","311118","0.0-6.0-6.0-0.19","o89gqnsgzz","many_one","0","indirect_first","0","in04el10","1","23","1","1","3","1","Sehr sehr schwierig zwischen den Zeichen zu differenzieren. Das sich Teile der Zeichen wiederholt haben, ist mir schnell aufgefallen, jedoch ist die Einschätzung in unangenehm und angenehm in verschiedenen Kontexten sehr schwierig.","0","1","0","null","","","<div class = 'row'><div class = 'column'><img src = 'usneg/9180.bmp' width = '100%;'></div><div class = 'column'><img src = 'category4/CS4.png' width = '70%;'></div></div>","null","neg","CS","CS","4","category4/CS4.png","","","","",""
"","html-keyboard-response","89","346942","0.0-7.0","o89gqnsgzz","many_one","0","indirect_first","0","in04el10","1","23","1","1","3","1","Sehr sehr schwierig zwischen den Zeichen zu differenzieren. Das sich Teile der Zeichen wiederholt haben, ist mir schnell aufgefallen, jedoch ist die Einschätzung in unangenehm und angenehm in verschiedenen Kontexten sehr schwierig.","0","1","0","35310.32999999978","","","<p>Sie sehen nun die chinesischen Zeichen nur ganz kurz. Danach sehen Sie die jeweilige Aussprache der Zeichen als Silbe auf dem Bildschrim. Ihre Aufgabe ist es, für jede Silbe anzugeben, ob diese etwas angenehmes, oder unangenehmes bedeuten könnte. Verlassen Sie sich hier vor allem auf Ihre Intuition.<br><br>Die Zeichen werden nur zur Orientierung dargestellt, beachten Sie sie deshalb nicht. Konzentrieren Sie sich vor allem auf die Silben. <br>Reagieren Sie mit folgenden zwei Tasten: <br><br><b>'D' </b> wenn die Silbe etwas <b>unangenehmes</b> bedeuten könnte. <br><b>'K'</b> wenn die Silbe etwas <b>angenehmes</b> bedeuten könnte. <br><br>Bitte legen Sie nun den Zeigefinger der linken Hand auf die Taste 'D' und den Zeigefinger der rechten Hand auf die Taste 'K'. <br>Reagieren Sie auf jede Silbe so schnell wie möglich. Uns interessiert Ihre spontane Reaktion. <br> <br> <br>Drücken Sie 'D' oder 'K', um die nächste Aufgabe zu starten. </p>","75","","","","","","","","","",""
"","html-keyboard-response","90","349957","0.0-8.0-0.0","o89gqnsgzz","many_one","0","indirect_first","0","in04el10","1","23","1","1","3","1","Sehr sehr schwierig zwischen den Zeichen zu differenzieren. Das sich Teile der Zeichen wiederholt haben, ist mir schnell aufgefallen, jedoch ist die Einschätzung in unangenehm und angenehm in verschiedenen Kontexten sehr schwierig.","0","1","0","null","","","<div style=""font-size:60px;"">+</div>","null","","","","","","","","","",""
"","html-keyboard-response","91","350053","0.0-8.0-1.0","o89gqnsgzz","many_one","0","indirect_first","0","in04el10","1","23","1","1","3","1","Sehr sehr schwierig zwischen den Zeichen zu differenzieren. Das sich Teile der Zeichen wiederholt haben, ist mir schnell aufgefallen, jedoch ist die Einschätzung in unangenehm und angenehm in verschiedenen Kontexten sehr schwierig.","0","1","0","null","","","<img src = 'category2/CS2.png' width = '100%;'>","null","","","","","","","","","",""
"","html-keyboard-response","92","350321","0.0-8.0-2.0","o89gqnsgzz","many_one","0","indirect_first","0","in04el10","1","23","1","1","3","1","Sehr sehr schwierig zwischen den Zeichen zu differenzieren. Das sich Teile der Zeichen wiederholt haben, ist mir schnell aufgefallen, jedoch ist die Einschätzung in unangenehm und angenehm in verschiedenen Kontexten sehr schwierig.","0","1","0","null","","","<img src = 'targets/5.png' width = '100%;'>","null","","","","","","","","","",""
"","html-keyboard-response","93","353995","0.0-8.0-3.0","o89gqnsgzz","many_one","0","indirect_first","0","in04el10","1","23","1","1","3","1","Sehr sehr schwierig zwischen den Zeichen zu differenzieren. Das sich Teile der Zeichen wiederholt haben, ist mir schnell aufgefallen, jedoch ist die Einschätzung in unangenehm und angenehm in verschiedenen Kontexten sehr schwierig.","0","1","0","3674.179999999993","","","<img src = 'targets/mask.png' width = '100%;'>","68","neg","CS","CS","2","category2/CS2.png","targets/5.png","0","indirect","0",""
"","html-keyboard-response","94","355515","0.0-8.0-0.1","o89gqnsgzz","many_one","0","indirect_first","0","in04el10","1","23","1","1","3","1","Sehr sehr schwierig zwischen den Zeichen zu differenzieren. Das sich Teile der Zeichen wiederholt haben, ist mir schnell aufgefallen, jedoch ist die Einschätzung in unangenehm und angenehm in verschiedenen Kontexten sehr schwierig.","0","1","0","null","","","<div style=""font-size:60px;"">+</div>","null","","","","","","","","","",""
"","html-keyboard-response","95","355610","0.0-8.0-1.1","o89gqnsgzz","many_one","0","indirect_first","0","in04el10","1","23","1","1","3","1","Sehr sehr schwierig zwischen den Zeichen zu differenzieren. Das sich Teile der Zeichen wiederholt haben, ist mir schnell aufgefallen, jedoch ist die Einschätzung in unangenehm und angenehm in verschiedenen Kontexten sehr schwierig.","0","1","0","null","","","<img src = 'category4/CS6.png' width = '100%;'>","null","","","","","","","","","",""
"","html-keyboard-response","96","355884","0.0-8.0-2.1","o89gqnsgzz","many_one","0","indirect_first","0","in04el10","1","23","1","1","3","1","Sehr sehr schwierig zwischen den Zeichen zu differenzieren. Das sich Teile der Zeichen wiederholt haben, ist mir schnell aufgefallen, jedoch ist die Einschätzung in unangenehm und angenehm in verschiedenen Kontexten sehr schwierig.","0","1","0","null","","","<img src = 'targets/45.png' width = '100%;'>","null","","","","","","","","","",""
"","html-keyboard-response","97","359655","0.0-8.0-3.1","o89gqnsgzz","many_one","0","indirect_first","0","in04el10","1","23","1","1","3","1","Sehr sehr schwierig zwischen den Zeichen zu differenzieren. Das sich Teile der Zeichen wiederholt haben, ist mir schnell aufgefallen, jedoch ist die Einschätzung in unangenehm und angenehm in verschiedenen Kontexten sehr schwierig.","0","1","0","3769.3300000000745","","","<img src = 'targets/mask.png' width = '100%;'>","68","neg","GS","GSold","4","category4/CS6.png","targets/45.png","0","indirect","1",""
"","html-keyboard-response","98","361170","0.0-8.0-0.2","o89gqnsgzz","many_one","0","indirect_first","0","in04el10","1","23","1","1","3","1","Sehr sehr schwierig zwischen den Zeichen zu differenzieren. Das sich Teile der Zeichen wiederholt haben, ist mir schnell aufgefallen, jedoch ist die Einschätzung in unangenehm und angenehm in verschiedenen Kontexten sehr schwierig.","0","1","0","null","","","<div style=""font-size:60px;"">+</div>","null","","","","","","","","","",""
"","html-keyboard-response","99","361276","0.0-8.0-1.2","o89gqnsgzz","many_one","0","indirect_first","0","in04el10","1","23","1","1","3","1","Sehr sehr schwierig zwischen den Zeichen zu differenzieren. Das sich Teile der Zeichen wiederholt haben, ist mir schnell aufgefallen, jedoch ist die Einschätzung in unangenehm und angenehm in verschiedenen Kontexten sehr schwierig.","0","1","0","null","","","<img src = 'category1/CS8.png' width = '100%;'>","null","","","","","","","","","",""
"","html-keyboard-response","100","361540","0.0-8.0-2.2","o89gqnsgzz","many_one","0","indirect_first","0","in04el10","1","23","1","1","3","1","Sehr sehr schwierig zwischen den Zeichen zu differenzieren. Das sich Teile der Zeichen wiederholt haben, ist mir schnell aufgefallen, jedoch ist die Einschätzung in unangenehm und angenehm in verschiedenen Kontexten sehr schwierig.","0","1","0","null","","","<img src = 'targets/8.png' width = '100%;'>","null","","","","","","","","","",""
"","html-keyboard-response","101","362661","0.0-8.0-3.2","o89gqnsgzz","many_one","0","indirect_first","0","in04el10","1","23","1","1","3","1","Sehr sehr schwierig zwischen den Zeichen zu differenzieren. Das sich Teile der Zeichen wiederholt haben, ist mir schnell aufgefallen, jedoch ist die Einschätzung in unangenehm und angenehm in verschiedenen Kontexten sehr schwierig.","0","1","0","1118.380000000354","","","<img src = 'targets/mask.png' width = '100%;'>","75","pos","CS","CS","1","category1/CS8.png","targets/8.png","1","indirect","2",""
"","html-keyboard-response","102","364178","0.0-8.0-0.3","o89gqnsgzz","many_one","0","indirect_first","0","in04el10","1","23","1","1","3","1","Sehr sehr schwierig zwischen den Zeichen zu differenzieren. Das sich Teile der Zeichen wiederholt haben, ist mir schnell aufgefallen, jedoch ist die Einschätzung in unangenehm und angenehm in verschiedenen Kontexten sehr schwierig.","0","1","0","null","","","<div style=""font-size:60px;"">+</div>","null","","","","","","","","","",""
"","html-keyboard-response","103","364270","0.0-8.0-1.3","o89gqnsgzz","many_one","0","indirect_first","0","in04el10","1","23","1","1","3","1","Sehr sehr schwierig zwischen den Zeichen zu differenzieren. Das sich Teile der Zeichen wiederholt haben, ist mir schnell aufgefallen, jedoch ist die Einschätzung in unangenehm und angenehm in verschiedenen Kontexten sehr schwierig.","0","1","0","null","","","<img src = 'category4/CS4.png' width = '100%;'>","null","","","","","","","","","",""
"","html-keyboard-response","104","364538","0.0-8.0-2.3","o89gqnsgzz","many_one","0","indirect_first","0","in04el10","1","23","1","1","3","1","Sehr sehr schwierig zwischen den Zeichen zu differenzieren. Das sich Teile der Zeichen wiederholt haben, ist mir schnell aufgefallen, jedoch ist die Einschätzung in unangenehm und angenehm in verschiedenen Kontexten sehr schwierig.","0","1","0","null","","","<img src = 'targets/36.png' width = '100%;'>","null","","","","","","","","","",""
"","html-keyboard-response","105","365947","0.0-8.0-3.3","o89gqnsgzz","many_one","0","indirect_first","0","in04el10","1","23","1","1","3","1","Sehr sehr schwierig zwischen den Zeichen zu differenzieren. Das sich Teile der Zeichen wiederholt haben, ist mir schnell aufgefallen, jedoch ist die Einschätzung in unangenehm und angenehm in verschiedenen Kontexten sehr schwierig.","0","1","0","1407.3699999999371","","","<img src = 'targets/mask.png' width = '100%;'>","68","neg","CS","CS","4","category4/CS4.png","targets/36.png","0","indirect","3",""
"","html-keyboard-response","106","367473","0.0-8.0-0.4","o89gqnsgzz","many_one","0","indirect_first","0","in04el10","1","23","1","1","3","1","Sehr sehr schwierig zwischen den Zeichen zu differenzieren. Das sich Teile der Zeichen wiederholt haben, ist mir schnell aufgefallen, jedoch ist die Einschätzung in unangenehm und angenehm in verschiedenen Kontexten sehr schwierig.","0","1","0","null","","","<div style=""font-size:60px;"">+</div>","null","","","","","","","","","",""
"","html-keyboard-response","107","367569","0.0-8.0-1.4","o89gqnsgzz","many_one","0","indirect_first","0","in04el10","1","23","1","1","3","1","Sehr sehr schwierig zwischen den Zeichen zu differenzieren. Das sich Teile der Zeichen wiederholt haben, ist mir schnell aufgefallen, jedoch ist die Einschätzung in unangenehm und angenehm in verschiedenen Kontexten sehr schwierig.","0","1","0","null","","","<img src = 'category4/CS7.png' width = '100%;'>","null","","","","","","","","","",""
"","html-keyboard-response","108","367841","0.0-8.0-2.4","o89gqnsgzz","many_one","0","indirect_first","0","in04el10","1","23","1","1","3","1","Sehr sehr schwierig zwischen den Zeichen zu differenzieren. Das sich Teile der Zeichen wiederholt haben, ist mir schnell aufgefallen, jedoch ist die Einschätzung in unangenehm und angenehm in verschiedenen Kontexten sehr schwierig.","0","1","0","null","","","<img src = 'targets/10.png' width = '100%;'>","null","","","","","","","","","",""
"","html-keyboard-response","109","370090","0.0-8.0-3.4","o89gqnsgzz","many_one","0","indirect_first","0","in04el10","1","23","1","1","3","1","Sehr sehr schwierig zwischen den Zeichen zu differenzieren. Das sich Teile der Zeichen wiederholt haben, ist mir schnell aufgefallen, jedoch ist die Einschätzung in unangenehm und angenehm in verschiedenen Kontexten sehr schwierig.","0","1","0","2247.1300000001793","","","<img src = 'targets/mask.png' width = '100%;'>","75","neg","CS","CS","4","category4/CS7.png","targets/10.png","1","indirect","4",""
"","html-keyboard-response","110","371606","0.0-8.0-0.5","o89gqnsgzz","many_one","0","indirect_first","0","in04el10","1","23","1","1","3","1","Sehr sehr schwierig zwischen den Zeichen zu differenzieren. Das sich Teile der Zeichen wiederholt haben, ist mir schnell aufgefallen, jedoch ist die Einschätzung in unangenehm und angenehm in verschiedenen Kontexten sehr schwierig.","0","1","0","null","","","<div style=""font-size:60px;"">+</div>","null","","","","","","","","","",""
"","html-keyboard-response","111","371702","0.0-8.0-1.5","o89gqnsgzz","many_one","0","indirect_first","0","in04el10","1","23","1","1","3","1","Sehr sehr schwierig zwischen den Zeichen zu differenzieren. Das sich Teile der Zeichen wiederholt haben, ist mir schnell aufgefallen, jedoch ist die Einschätzung in unangenehm und angenehm in verschiedenen Kontexten sehr schwierig.","0","1","0","null","","","<img src = 'category1/CS4.png' width = '100%;'>","null","","","","","","","","","",""
"","html-keyboard-response","112","371975","0.0-8.0-2.5","o89gqnsgzz","many_one","0","indirect_first","0","in04el10","1","23","1","1","3","1","Sehr sehr schwierig zwischen den Zeichen zu differenzieren. Das sich Teile der Zeichen wiederholt haben, ist mir schnell aufgefallen, jedoch ist die Einschätzung in unangenehm und angenehm in verschiedenen Kontexten sehr schwierig.","0","1","0","null","","","<img src = 'targets/12.png' width = '100%;'>","null","","","","","","","","","",""
"","html-keyboard-response","113","373268","0.0-8.0-3.5","o89gqnsgzz","many_one","0","indirect_first","0","in04el10","1","23","1","1","3","1","Sehr sehr schwierig zwischen den Zeichen zu differenzieren. Das sich Teile der Zeichen wiederholt haben, ist mir schnell aufgefallen, jedoch ist die Einschätzung in unangenehm und angenehm in verschiedenen Kontexten sehr schwierig.","0","1","0","1290.9199999999255","","","<img src = 'targets/mask.png' width = '100%;'>","75","pos","CS","CS","1","category1/CS4.png","targets/12.png","1","indirect","5",""
"","html-keyboard-response","114","374778","0.0-8.0-0.6","o89gqnsgzz","many_one","0","indirect_first","0","in04el10","1","23","1","1","3","1","Sehr sehr schwierig zwischen den Zeichen zu differenzieren. Das sich Teile der Zeichen wiederholt haben, ist mir schnell aufgefallen, jedoch ist die Einschätzung in unangenehm und angenehm in verschiedenen Kontexten sehr schwierig.","0","1","0","null","","","<div style=""font-size:60px;"">+</div>","null","","","","","","","","","",""
"","html-keyboard-response","115","374874","0.0-8.0-1.6","o89gqnsgzz","many_one","0","indirect_first","0","in04el10","1","23","1","1","3","1","Sehr sehr schwierig zwischen den Zeichen zu differenzieren. Das sich Teile der Zeichen wiederholt haben, ist mir schnell aufgefallen, jedoch ist die Einschätzung in unangenehm und angenehm in verschiedenen Kontexten sehr schwierig.","0","1","0","null","","","<img src = 'category3/CS1.png' width = '100%;'>","null","","","","","","","","","",""
"","html-keyboard-response","116","375134","0.0-8.0-2.6","o89gqnsgzz","many_one","0","indirect_first","0","in04el10","1","23","1","1","3","1","Sehr sehr schwierig zwischen den Zeichen zu differenzieren. Das sich Teile der Zeichen wiederholt haben, ist mir schnell aufgefallen, jedoch ist die Einschätzung in unangenehm und angenehm in verschiedenen Kontexten sehr schwierig.","0","1","0","null","","","<img src = 'targets/18.png' width = '100%;'>","null","","","","","","","","","",""
"","html-keyboard-response","117","376236","0.0-8.0-3.6","o89gqnsgzz","many_one","0","indirect_first","0","in04el10","1","23","1","1","3","1","Sehr sehr schwierig zwischen den Zeichen zu differenzieren. Das sich Teile der Zeichen wiederholt haben, ist mir schnell aufgefallen, jedoch ist die Einschätzung in unangenehm und angenehm in verschiedenen Kontexten sehr schwierig.","0","1","0","1100.1350000001257","","","<img src = 'targets/mask.png' width = '100%;'>","75","pos","CS","CS","3","category3/CS1.png","targets/18.png","1","indirect","6",""
"","html-keyboard-response","118","377761","0.0-8.0-0.7","o89gqnsgzz","many_one","0","indirect_first","0","in04el10","1","23","1","1","3","1","Sehr sehr schwierig zwischen den Zeichen zu differenzieren. Das sich Teile der Zeichen wiederholt haben, ist mir schnell aufgefallen, jedoch ist die Einschätzung in unangenehm und angenehm in verschiedenen Kontexten sehr schwierig.","0","1","0","null","","","<div style=""font-size:60px;"">+</div>","null","","","","","","","","","",""
"","html-keyboard-response","119","377858","0.0-8.0-1.7","o89gqnsgzz","many_one","0","indirect_first","0","in04el10","1","23","1","1","3","1","Sehr sehr schwierig zwischen den Zeichen zu differenzieren. Das sich Teile der Zeichen wiederholt haben, ist mir schnell aufgefallen, jedoch ist die Einschätzung in unangenehm und angenehm in verschiedenen Kontexten sehr schwierig.","0","1","0","null","","","<img src = 'category3/CS8.png' width = '100%;'>","null","","","","","","","","","",""
"","html-keyboard-response","120","378125","0.0-8.0-2.7","o89gqnsgzz","many_one","0","indirect_first","0","in04el10","1","23","1","1","3","1","Sehr sehr schwierig zwischen den Zeichen zu differenzieren. Das sich Teile der Zeichen wiederholt haben, ist mir schnell aufgefallen, jedoch ist die Einschätzung in unangenehm und angenehm in verschiedenen Kontexten sehr schwierig.","0","1","0","null","","","<img src = 'targets/41.png' width = '100%;'>","null","","","","","","","","","",""
"","html-keyboard-response","121","379548","0.0-8.0-3.7","o89gqnsgzz","many_one","0","indirect_first","0","in04el10","1","23","1","1","3","1","Sehr sehr schwierig zwischen den Zeichen zu differenzieren. Das sich Teile der Zeichen wiederholt haben, ist mir schnell aufgefallen, jedoch ist die Einschätzung in unangenehm und angenehm in verschiedenen Kontexten sehr schwierig.","0","1","0","1421.4400000001187","","","<img src = 'targets/mask.png' width = '100%;'>","75","pos","GS","GSold","3","category3/CS8.png","targets/41.png","1","indirect","7",""
"","html-keyboard-response","122","381072","0.0-8.0-0.8","o89gqnsgzz","many_one","0","indirect_first","0","in04el10","1","23","1","1","3","1","Sehr sehr schwierig zwischen den Zeichen zu differenzieren. Das sich Teile der Zeichen wiederholt haben, ist mir schnell aufgefallen, jedoch ist die Einschätzung in unangenehm und angenehm in verschiedenen Kontexten sehr schwierig.","0","1","0","null","","","<div style=""font-size:60px;"">+</div>","null","","","","","","","","","",""
"","html-keyboard-response","123","381176","0.0-8.0-1.8","o89gqnsgzz","many_one","0","indirect_first","0","in04el10","1","23","1","1","3","1","Sehr sehr schwierig zwischen den Zeichen zu differenzieren. Das sich Teile der Zeichen wiederholt haben, ist mir schnell aufgefallen, jedoch ist die Einschätzung in unangenehm und angenehm in verschiedenen Kontexten sehr schwierig.","0","1","0","null","","","<img src = 'category2/CS7.png' width = '100%;'>","null","","","","","","","","","",""
"","html-keyboard-response","124","381433","0.0-8.0-2.8","o89gqnsgzz","many_one","0","indirect_first","0","in04el10","1","23","1","1","3","1","Sehr sehr schwierig zwischen den Zeichen zu differenzieren. Das sich Teile der Zeichen wiederholt haben, ist mir schnell aufgefallen, jedoch ist die Einschätzung in unangenehm und angenehm in verschiedenen Kontexten sehr schwierig.","0","1","0","null","","","<img src = 'targets/44.png' width = '100%;'>","null","","","","","","","","","",""
"","html-keyboard-response","125","382038","0.0-8.0-3.8","o89gqnsgzz","many_one","0","indirect_first","0","in04el10","1","23","1","1","3","1","Sehr sehr schwierig zwischen den Zeichen zu differenzieren. Das sich Teile der Zeichen wiederholt haben, ist mir schnell aufgefallen, jedoch ist die Einschätzung in unangenehm und angenehm in verschiedenen Kontexten sehr schwierig.","0","1","0","601.9999999998836","","","<img src = 'targets/mask.png' width = '100%;'>","68","neg","CS","CS","2","category2/CS7.png","targets/44.png","0","indirect","8",""
"","html-keyboard-response","126","383556","0.0-8.0-0.9","o89gqnsgzz","many_one","0","indirect_first","0","in04el10","1","23","1","1","3","1","Sehr sehr schwierig zwischen den Zeichen zu differenzieren. Das sich Teile der Zeichen wiederholt haben, ist mir schnell aufgefallen, jedoch ist die Einschätzung in unangenehm und angenehm in verschiedenen Kontexten sehr schwierig.","0","1","0","null","","","<div style=""font-size:60px;"">+</div>","null","","","","","","","","","",""
"","html-keyboard-response","127","383658","0.0-8.0-1.9","o89gqnsgzz","many_one","0","indirect_first","0","in04el10","1","23","1","1","3","1","Sehr sehr schwierig zwischen den Zeichen zu differenzieren. Das sich Teile der Zeichen wiederholt haben, ist mir schnell aufgefallen, jedoch ist die Einschätzung in unangenehm und angenehm in verschiedenen Kontexten sehr schwierig.","0","1","0","null","","","<img src = 'category4/CS2.png' width = '100%;'>","null","","","","","","","","","",""
"","html-keyboard-response","128","383925","0.0-8.0-2.9","o89gqnsgzz","many_one","0","indirect_first","0","in04el10","1","23","1","1","3","1","Sehr sehr schwierig zwischen den Zeichen zu differenzieren. Das sich Teile der Zeichen wiederholt haben, ist mir schnell aufgefallen, jedoch ist die Einschätzung in unangenehm und angenehm in verschiedenen Kontexten sehr schwierig.","0","1","0","null","","","<img src = 'targets/9.png' width = '100%;'>","null","","","","","","","","","",""
"","html-keyboard-response","129","384463","0.0-8.0-3.9","o89gqnsgzz","many_one","0","indirect_first","0","in04el10","1","23","1","1","3","1","Sehr sehr schwierig zwischen den Zeichen zu differenzieren. Das sich Teile der Zeichen wiederholt haben, ist mir schnell aufgefallen, jedoch ist die Einschätzung in unangenehm und angenehm in verschiedenen Kontexten sehr schwierig.","0","1","0","536.9550000000745","","","<img src = 'targets/mask.png' width = '100%;'>","68","neg","GS","GSold","4","category4/CS2.png","targets/9.png","0","indirect","9",""
"","html-keyboard-response","130","385972","0.0-8.0-0.10","o89gqnsgzz","many_one","0","indirect_first","0","in04el10","1","23","1","1","3","1","Sehr sehr schwierig zwischen den Zeichen zu differenzieren. Das sich Teile der Zeichen wiederholt haben, ist mir schnell aufgefallen, jedoch ist die Einschätzung in unangenehm und angenehm in verschiedenen Kontexten sehr schwierig.","0","1","0","null","","","<div style=""font-size:60px;"">+</div>","null","","","","","","","","","",""
"","html-keyboard-response","131","386068","0.0-8.0-1.10","o89gqnsgzz","many_one","0","indirect_first","0","in04el10","1","23","1","1","3","1","Sehr sehr schwierig zwischen den Zeichen zu differenzieren. Das sich Teile der Zeichen wiederholt haben, ist mir schnell aufgefallen, jedoch ist die Einschätzung in unangenehm und angenehm in verschiedenen Kontexten sehr schwierig.","0","1","0","null","","","<img src = 'category3/CS3.png' width = '100%;'>","null","","","","","","","","","",""
"","html-keyboard-response","132","386333","0.0-8.0-2.10","o89gqnsgzz","many_one","0","indirect_first","0","in04el10","1","23","1","1","3","1","Sehr sehr schwierig zwischen den Zeichen zu differenzieren. Das sich Teile der Zeichen wiederholt haben, ist mir schnell aufgefallen, jedoch ist die Einschätzung in unangenehm und angenehm in verschiedenen Kontexten sehr schwierig.","0","1","0","null","","","<img src = 'targets/32.png' width = '100%;'>","null","","","","","","","","","",""
"","html-keyboard-response","133","387251","0.0-8.0-3.10","o89gqnsgzz","many_one","0","indirect_first","0","in04el10","1","23","1","1","3","1","Sehr sehr schwierig zwischen den Zeichen zu differenzieren. Das sich Teile der Zeichen wiederholt haben, ist mir schnell aufgefallen, jedoch ist die Einschätzung in unangenehm und angenehm in verschiedenen Kontexten sehr schwierig.","0","1","0","915.7049999998417","","","<img src = 'targets/mask.png' width = '100%;'>","75","pos","CS","CS","3","category3/CS3.png","targets/32.png","1","indirect","10",""
"","html-keyboard-response","134","388763","0.0-8.0-0.11","o89gqnsgzz","many_one","0","indirect_first","0","in04el10","1","23","1","1","3","1","Sehr sehr schwierig zwischen den Zeichen zu differenzieren. Das sich Teile der Zeichen wiederholt haben, ist mir schnell aufgefallen, jedoch ist die Einschätzung in unangenehm und angenehm in verschiedenen Kontexten sehr schwierig.","0","1","0","null","","","<div style=""font-size:60px;"">+</div>","null","","","","","","","","","",""
"","html-keyboard-response","135","388868","0.0-8.0-1.11","o89gqnsgzz","many_one","0","indirect_first","0","in04el10","1","23","1","1","3","1","Sehr sehr schwierig zwischen den Zeichen zu differenzieren. Das sich Teile der Zeichen wiederholt haben, ist mir schnell aufgefallen, jedoch ist die Einschätzung in unangenehm und angenehm in verschiedenen Kontexten sehr schwierig.","0","1","0","null","","","<img src = 'category4/CS9.png' width = '100%;'>","null","","","","","","","","","",""
"","html-keyboard-response","136","389133","0.0-8.0-2.11","o89gqnsgzz","many_one","0","indirect_first","0","in04el10","1","23","1","1","3","1","Sehr sehr schwierig zwischen den Zeichen zu differenzieren. Das sich Teile der Zeichen wiederholt haben, ist mir schnell aufgefallen, jedoch ist die Einschätzung in unangenehm und angenehm in verschiedenen Kontexten sehr schwierig.","0","1","0","null","","","<img src = 'targets/7.png' width = '100%;'>","null","","","","","","","","","",""
"","html-keyboard-response","137","389828","0.0-8.0-3.11","o89gqnsgzz","many_one","0","indirect_first","0","in04el10","1","23","1","1","3","1","Sehr sehr schwierig zwischen den Zeichen zu differenzieren. Das sich Teile der Zeichen wiederholt haben, ist mir schnell aufgefallen, jedoch ist die Einschätzung in unangenehm und angenehm in verschiedenen Kontexten sehr schwierig.","0","1","0","692.3649999998743","","","<img src = 'targets/mask.png' width = '100%;'>","68","neg","CS","CS","4","category4/CS9.png","targets/7.png","0","indirect","11",""
"","html-keyboard-response","138","391350","0.0-8.0-0.12","o89gqnsgzz","many_one","0","indirect_first","0","in04el10","1","23","1","1","3","1","Sehr sehr schwierig zwischen den Zeichen zu differenzieren. Das sich Teile der Zeichen wiederholt haben, ist mir schnell aufgefallen, jedoch ist die Einschätzung in unangenehm und angenehm in verschiedenen Kontexten sehr schwierig.","0","1","0","null","","","<div style=""font-size:60px;"">+</div>","null","","","","","","","","","",""
"","html-keyboard-response","139","391467","0.0-8.0-1.12","o89gqnsgzz","many_one","0","indirect_first","0","in04el10","1","23","1","1","3","1","Sehr sehr schwierig zwischen den Zeichen zu differenzieren. Das sich Teile der Zeichen wiederholt haben, ist mir schnell aufgefallen, jedoch ist die Einschätzung in unangenehm und angenehm in verschiedenen Kontexten sehr schwierig.","0","1","0","null","","","<img src = 'category2/CS8.png' width = '100%;'>","null","","","","","","","","","",""
"","html-keyboard-response","140","391735","0.0-8.0-2.12","o89gqnsgzz","many_one","0","indirect_first","0","in04el10","1","23","1","1","3","1","Sehr sehr schwierig zwischen den Zeichen zu differenzieren. Das sich Teile der Zeichen wiederholt haben, ist mir schnell aufgefallen, jedoch ist die Einschätzung in unangenehm und angenehm in verschiedenen Kontexten sehr schwierig.","0","1","0","null","","","<img src = 'targets/15.png' width = '100%;'>","null","","","","","","","","","",""
"","html-keyboard-response","141","392466","0.0-8.0-3.12","o89gqnsgzz","many_one","0","indirect_first","0","in04el10","1","23","1","1","3","1","Sehr sehr schwierig zwischen den Zeichen zu differenzieren. Das sich Teile der Zeichen wiederholt haben, ist mir schnell aufgefallen, jedoch ist die Einschätzung in unangenehm und angenehm in verschiedenen Kontexten sehr schwierig.","0","1","0","729.3700000000536","","","<img src = 'targets/mask.png' width = '100%;'>","68","neg","CS","CS","2","category2/CS8.png","targets/15.png","0","indirect","12",""
"","html-keyboard-response","142","393983","0.0-8.0-0.13","o89gqnsgzz","many_one","0","indirect_first","0","in04el10","1","23","1","1","3","1","Sehr sehr schwierig zwischen den Zeichen zu differenzieren. Das sich Teile der Zeichen wiederholt haben, ist mir schnell aufgefallen, jedoch ist die Einschätzung in unangenehm und angenehm in verschiedenen Kontexten sehr schwierig.","0","1","0","null","","","<div style=""font-size:60px;"">+</div>","null","","","","","","","","","",""
"","html-keyboard-response","143","394085","0.0-8.0-1.13","o89gqnsgzz","many_one","0","indirect_first","0","in04el10","1","23","1","1","3","1","Sehr sehr schwierig zwischen den Zeichen zu differenzieren. Das sich Teile der Zeichen wiederholt haben, ist mir schnell aufgefallen, jedoch ist die Einschätzung in unangenehm und angenehm in verschiedenen Kontexten sehr schwierig.","0","1","0","null","","","<img src = 'category3/CS10.png' width = '100%;'>","null","","","","","","","","","",""
"","html-keyboard-response","144","394352","0.0-8.0-2.13","o89gqnsgzz","many_one","0","indirect_first","0","in04el10","1","23","1","1","3","1","Sehr sehr schwierig zwischen den Zeichen zu differenzieren. Das sich Teile der Zeichen wiederholt haben, ist mir schnell aufgefallen, jedoch ist die Einschätzung in unangenehm und angenehm in verschiedenen Kontexten sehr schwierig.","0","1","0","null","","","<img src = 'targets/42.png' width = '100%;'>","null","","","","","","","","","",""
"","html-keyboard-response","145","394960","0.0-8.0-3.13","o89gqnsgzz","many_one","0","indirect_first","0","in04el10","1","23","1","1","3","1","Sehr sehr schwierig zwischen den Zeichen zu differenzieren. Das sich Teile der Zeichen wiederholt haben, ist mir schnell aufgefallen, jedoch ist die Einschätzung in unangenehm und angenehm in verschiedenen Kontexten sehr schwierig.","0","1","0","605.5299999997951","","","<img src = 'targets/mask.png' width = '100%;'>","75","pos","CS","CS","3","category3/CS10.png","targets/42.png","1","indirect","13",""
"","html-keyboard-response","146","396480","0.0-8.0-0.14","o89gqnsgzz","many_one","0","indirect_first","0","in04el10","1","23","1","1","3","1","Sehr sehr schwierig zwischen den Zeichen zu differenzieren. Das sich Teile der Zeichen wiederholt haben, ist mir schnell aufgefallen, jedoch ist die Einschätzung in unangenehm und angenehm in verschiedenen Kontexten sehr schwierig.","0","1","0","null","","","<div style=""font-size:60px;"">+</div>","null","","","","","","","","","",""
"","html-keyboard-response","147","396584","0.0-8.0-1.14","o89gqnsgzz","many_one","0","indirect_first","0","in04el10","1","23","1","1","3","1","Sehr sehr schwierig zwischen den Zeichen zu differenzieren. Das sich Teile der Zeichen wiederholt haben, ist mir schnell aufgefallen, jedoch ist die Einschätzung in unangenehm und angenehm in verschiedenen Kontexten sehr schwierig.","0","1","0","null","","","<img src = 'category2/CS5.png' width = '100%;'>","null","","","","","","","","","",""
"","html-keyboard-response","148","396859","0.0-8.0-2.14","o89gqnsgzz","many_one","0","indirect_first","0","in04el10","1","23","1","1","3","1","Sehr sehr schwierig zwischen den Zeichen zu differenzieren. Das sich Teile der Zeichen wiederholt haben, ist mir schnell aufgefallen, jedoch ist die Einschätzung in unangenehm und angenehm in verschiedenen Kontexten sehr schwierig.","0","1","0","null","","","<img src = 'targets/38.png' width = '100%;'>","null","","","","","","","","","",""
"","html-keyboard-response","149","397417","0.0-8.0-3.14","o89gqnsgzz","many_one","0","indirect_first","0","in04el10","1","23","1","1","3","1","Sehr sehr schwierig zwischen den Zeichen zu differenzieren. Das sich Teile der Zeichen wiederholt haben, ist mir schnell aufgefallen, jedoch ist die Einschätzung in unangenehm und angenehm in verschiedenen Kontexten sehr schwierig.","0","1","0","555.9250000001048","","","<img src = 'targets/mask.png' width = '100%;'>","68","neg","CS","CS","2","category2/CS5.png","targets/38.png","0","indirect","14",""
"","html-keyboard-response","150","398935","0.0-8.0-0.15","o89gqnsgzz","many_one","0","indirect_first","0","in04el10","1","23","1","1","3","1","Sehr sehr schwierig zwischen den Zeichen zu differenzieren. Das sich Teile der Zeichen wiederholt haben, ist mir schnell aufgefallen, jedoch ist die Einschätzung in unangenehm und angenehm in verschiedenen Kontexten sehr schwierig.","0","1","0","null","","","<div style=""font-size:60px;"">+</div>","null","","","","","","","","","",""
"","html-keyboard-response","151","399039","0.0-8.0-1.15","o89gqnsgzz","many_one","0","indirect_first","0","in04el10","1","23","1","1","3","1","Sehr sehr schwierig zwischen den Zeichen zu differenzieren. Das sich Teile der Zeichen wiederholt haben, ist mir schnell aufgefallen, jedoch ist die Einschätzung in unangenehm und angenehm in verschiedenen Kontexten sehr schwierig.","0","1","0","null","","","<img src = 'category1/CS7.png' width = '100%;'>","null","","","","","","","","","",""
"","html-keyboard-response","152","399303","0.0-8.0-2.15","o89gqnsgzz","many_one","0","indirect_first","0","in04el10","1","23","1","1","3","1","Sehr sehr schwierig zwischen den Zeichen zu differenzieren. Das sich Teile der Zeichen wiederholt haben, ist mir schnell aufgefallen, jedoch ist die Einschätzung in unangenehm und angenehm in verschiedenen Kontexten sehr schwierig.","0","1","0","null","","","<img src = 'targets/25.png' width = '100%;'>","null","","","","","","","","","",""
"","html-keyboard-response","153","400654","0.0-8.0-3.15","o89gqnsgzz","many_one","0","indirect_first","0","in04el10","1","23","1","1","3","1","Sehr sehr schwierig zwischen den Zeichen zu differenzieren. Das sich Teile der Zeichen wiederholt haben, ist mir schnell aufgefallen, jedoch ist die Einschätzung in unangenehm und angenehm in verschiedenen Kontexten sehr schwierig.","0","1","0","1348.5049999998882","","","<img src = 'targets/mask.png' width = '100%;'>","68","pos","CS","CS","1","category1/CS7.png","targets/25.png","0","indirect","15",""
"","html-keyboard-response","154","402164","0.0-8.0-0.16","o89gqnsgzz","many_one","0","indirect_first","0","in04el10","1","23","1","1","3","1","Sehr sehr schwierig zwischen den Zeichen zu differenzieren. Das sich Teile der Zeichen wiederholt haben, ist mir schnell aufgefallen, jedoch ist die Einschätzung in unangenehm und angenehm in verschiedenen Kontexten sehr schwierig.","0","1","0","null","","","<div style=""font-size:60px;"">+</div>","null","","","","","","","","","",""
"","html-keyboard-response","155","402271","0.0-8.0-1.16","o89gqnsgzz","many_one","0","indirect_first","0","in04el10","1","23","1","1","3","1","Sehr sehr schwierig zwischen den Zeichen zu differenzieren. Das sich Teile der Zeichen wiederholt haben, ist mir schnell aufgefallen, jedoch ist die Einschätzung in unangenehm und angenehm in verschiedenen Kontexten sehr schwierig.","0","1","0","null","","","<img src = 'category4/CS5.png' width = '100%;'>","null","","","","","","","","","",""
"","html-keyboard-response","156","402541","0.0-8.0-2.16","o89gqnsgzz","many_one","0","indirect_first","0","in04el10","1","23","1","1","3","1","Sehr sehr schwierig zwischen den Zeichen zu differenzieren. Das sich Teile der Zeichen wiederholt haben, ist mir schnell aufgefallen, jedoch ist die Einschätzung in unangenehm und angenehm in verschiedenen Kontexten sehr schwierig.","0","1","0","null","","","<img src = 'targets/17.png' width = '100%;'>","null","","","","","","","","","",""
"","html-keyboard-response","157","403180","0.0-8.0-3.16","o89gqnsgzz","many_one","0","indirect_first","0","in04el10","1","23","1","1","3","1","Sehr sehr schwierig zwischen den Zeichen zu differenzieren. Das sich Teile der Zeichen wiederholt haben, ist mir schnell aufgefallen, jedoch ist die Einschätzung in unangenehm und angenehm in verschiedenen Kontexten sehr schwierig.","0","1","0","636.795000000333","","","<img src = 'targets/mask.png' width = '100%;'>","68","neg","CS","CS","4","category4/CS5.png","targets/17.png","0","indirect","16",""
"","html-keyboard-response","158","404696","0.0-8.0-0.17","o89gqnsgzz","many_one","0","indirect_first","0","in04el10","1","23","1","1","3","1","Sehr sehr schwierig zwischen den Zeichen zu differenzieren. Das sich Teile der Zeichen wiederholt haben, ist mir schnell aufgefallen, jedoch ist die Einschätzung in unangenehm und angenehm in verschiedenen Kontexten sehr schwierig.","0","1","0","null","","","<div style=""font-size:60px;"">+</div>","null","","","","","","","","","",""
"","html-keyboard-response","159","404802","0.0-8.0-1.17","o89gqnsgzz","many_one","0","indirect_first","0","in04el10","1","23","1","1","3","1","Sehr sehr schwierig zwischen den Zeichen zu differenzieren. Das sich Teile der Zeichen wiederholt haben, ist mir schnell aufgefallen, jedoch ist die Einschätzung in unangenehm und angenehm in verschiedenen Kontexten sehr schwierig.","0","1","0","null","","","<img src = 'category1/CS2.png' width = '100%;'>","null","","","","","","","","","",""
"","html-keyboard-response","160","405070","0.0-8.0-2.17","o89gqnsgzz","many_one","0","indirect_first","0","in04el10","1","23","1","1","3","1","Sehr sehr schwierig zwischen den Zeichen zu differenzieren. Das sich Teile der Zeichen wiederholt haben, ist mir schnell aufgefallen, jedoch ist die Einschätzung in unangenehm und angenehm in verschiedenen Kontexten sehr schwierig.","0","1","0","null","","","<img src = 'targets/34.png' width = '100%;'>","null","","","","","","","","","",""
"","html-keyboard-response","161","405672","0.0-8.0-3.17","o89gqnsgzz","many_one","0","indirect_first","0","in04el10","1","23","1","1","3","1","Sehr sehr schwierig zwischen den Zeichen zu differenzieren. Das sich Teile der Zeichen wiederholt haben, ist mir schnell aufgefallen, jedoch ist die Einschätzung in unangenehm und angenehm in verschiedenen Kontexten sehr schwierig.","0","1","0","600.6950000000652","","","<img src = 'targets/mask.png' width = '100%;'>","68","pos","CS","CS","1","category1/CS2.png","targets/34.png","0","indirect","17",""
"","html-keyboard-response","162","407182","0.0-8.0-0.18","o89gqnsgzz","many_one","0","indirect_first","0","in04el10","1","23","1","1","3","1","Sehr sehr schwierig zwischen den Zeichen zu differenzieren. Das sich Teile der Zeichen wiederholt haben, ist mir schnell aufgefallen, jedoch ist die Einschätzung in unangenehm und angenehm in verschiedenen Kontexten sehr schwierig.","0","1","0","null","","","<div style=""font-size:60px;"">+</div>","null","","","","","","","","","",""
"","html-keyboard-response","163","407281","0.0-8.0-1.18","o89gqnsgzz","many_one","0","indirect_first","0","in04el10","1","23","1","1","3","1","Sehr sehr schwierig zwischen den Zeichen zu differenzieren. Das sich Teile der Zeichen wiederholt haben, ist mir schnell aufgefallen, jedoch ist die Einschätzung in unangenehm und angenehm in verschiedenen Kontexten sehr schwierig.","0","1","0","null","","","<img src = 'category4/CS3.png' width = '100%;'>","null","","","","","","","","","",""
"","html-keyboard-response","164","407563","0.0-8.0-2.18","o89gqnsgzz","many_one","0","indirect_first","0","in04el10","1","23","1","1","3","1","Sehr sehr schwierig zwischen den Zeichen zu differenzieren. Das sich Teile der Zeichen wiederholt haben, ist mir schnell aufgefallen, jedoch ist die Einschätzung in unangenehm und angenehm in verschiedenen Kontexten sehr schwierig.","0","1","0","null","","","<img src = 'targets/39.png' width = '100%;'>","null","","","","","","","","","",""
"","html-keyboard-response","165","409916","0.0-8.0-3.18","o89gqnsgzz","many_one","0","indirect_first","0","in04el10","1","23","1","1","3","1","Sehr sehr schwierig zwischen den Zeichen zu differenzieren. Das sich Teile der Zeichen wiederholt haben, ist mir schnell aufgefallen, jedoch ist die Einschätzung in unangenehm und angenehm in verschiedenen Kontexten sehr schwierig.","0","1","0","2351.389999999781","","","<img src = 'targets/mask.png' width = '100%;'>","75","neg","CS","CS","4","category4/CS3.png","targets/39.png","1","indirect","18",""
"","html-keyboard-response","166","411443","0.0-8.0-0.19","o89gqnsgzz","many_one","0","indirect_first","0","in04el10","1","23","1","1","3","1","Sehr sehr schwierig zwischen den Zeichen zu differenzieren. Das sich Teile der Zeichen wiederholt haben, ist mir schnell aufgefallen, jedoch ist die Einschätzung in unangenehm und angenehm in verschiedenen Kontexten sehr schwierig.","0","1","0","null","","","<div style=""font-size:60px;"">+</div>","null","","","","","","","","","",""
"","html-keyboard-response","167","411552","0.0-8.0-1.19","o89gqnsgzz","many_one","0","indirect_first","0","in04el10","1","23","1","1","3","1","Sehr sehr schwierig zwischen den Zeichen zu differenzieren. Das sich Teile der Zeichen wiederholt haben, ist mir schnell aufgefallen, jedoch ist die Einschätzung in unangenehm und angenehm in verschiedenen Kontexten sehr schwierig.","0","1","0","null","","","<img src = 'category1/CS6.png' width = '100%;'>","null","","","","","","","","","",""
"","html-keyboard-response","168","411823","0.0-8.0-2.19","o89gqnsgzz","many_one","0","indirect_first","0","in04el10","1","23","1","1","3","1","Sehr sehr schwierig zwischen den Zeichen zu differenzieren. Das sich Teile der Zeichen wiederholt haben, ist mir schnell aufgefallen, jedoch ist die Einschätzung in unangenehm und angenehm in verschiedenen Kontexten sehr schwierig.","0","1","0","null","","","<img src = 'targets/26.png' width = '100%;'>","null","","","","","","","","","",""
"","html-keyboard-response","169","412927","0.0-8.0-3.19","o89gqnsgzz","many_one","0","indirect_first","0","in04el10","1","23","1","1","3","1","Sehr sehr schwierig zwischen den Zeichen zu differenzieren. Das sich Teile der Zeichen wiederholt haben, ist mir schnell aufgefallen, jedoch ist die Einschätzung in unangenehm und angenehm in verschiedenen Kontexten sehr schwierig.","0","1","0","1102.1999999997788","","","<img src = 'targets/mask.png' width = '100%;'>","68","pos","CS","CS","1","category1/CS6.png","targets/26.png","0","indirect","19",""
"","html-keyboard-response","170","414454","0.0-8.0-0.20","o89gqnsgzz","many_one","0","indirect_first","0","in04el10","1","23","1","1","3","1","Sehr sehr schwierig zwischen den Zeichen zu differenzieren. Das sich Teile der Zeichen wiederholt haben, ist mir schnell aufgefallen, jedoch ist die Einschätzung in unangenehm und angenehm in verschiedenen Kontexten sehr schwierig.","0","1","0","null","","","<div style=""font-size:60px;"">+</div>","null","","","","","","","","","",""
"","html-keyboard-response","171","414554","0.0-8.0-1.20","o89gqnsgzz","many_one","0","indirect_first","0","in04el10","1","23","1","1","3","1","Sehr sehr schwierig zwischen den Zeichen zu differenzieren. Das sich Teile der Zeichen wiederholt haben, ist mir schnell aufgefallen, jedoch ist die Einschätzung in unangenehm und angenehm in verschiedenen Kontexten sehr schwierig.","0","1","0","null","","","<img src = 'category4/CS10.png' width = '100%;'>","null","","","","","","","","","",""
"","html-keyboard-response","172","414824","0.0-8.0-2.20","o89gqnsgzz","many_one","0","indirect_first","0","in04el10","1","23","1","1","3","1","Sehr sehr schwierig zwischen den Zeichen zu differenzieren. Das sich Teile der Zeichen wiederholt haben, ist mir schnell aufgefallen, jedoch ist die Einschätzung in unangenehm und angenehm in verschiedenen Kontexten sehr schwierig.","0","1","0","null","","","<img src = 'targets/16.png' width = '100%;'>","null","","","","","","","","","",""
"","html-keyboard-response","173","415840","0.0-8.0-3.20","o89gqnsgzz","many_one","0","indirect_first","0","in04el10","1","23","1","1","3","1","Sehr sehr schwierig zwischen den Zeichen zu differenzieren. Das sich Teile der Zeichen wiederholt haben, ist mir schnell aufgefallen, jedoch ist die Einschätzung in unangenehm und angenehm in verschiedenen Kontexten sehr schwierig.","0","1","0","1013.8400000000838","","","<img src = 'targets/mask.png' width = '100%;'>","68","neg","GS","GSold","4","category4/CS10.png","targets/16.png","0","indirect","20",""
"","html-keyboard-response","174","417364","0.0-8.0-0.21","o89gqnsgzz","many_one","0","indirect_first","0","in04el10","1","23","1","1","3","1","Sehr sehr schwierig zwischen den Zeichen zu differenzieren. Das sich Teile der Zeichen wiederholt haben, ist mir schnell aufgefallen, jedoch ist die Einschätzung in unangenehm und angenehm in verschiedenen Kontexten sehr schwierig.","0","1","0","null","","","<div style=""font-size:60px;"">+</div>","null","","","","","","","","","",""
