"success","trial_type","trial_index","time_elapsed","internal_node_id","subject","condition","condition_code","measure","measure_code","codeword","gender","age","education","chinese","fach","handedness","comment","hinschauen","ablenkung","gewissenhaft","rt","url","responses","stimulus","key_press","val","type","type_specific","category","cs_selected","response","target","task","indirect","nr_pres"
"true","fullscreen","0","3747","0.0-0.0","vthrokdv3a","many_one","0","direct_first","1","er06us26","0","20","1","1","3","1","","0","1","0","","","","","","","","","","","","","","",""
"","external-html","1","17592","0.0-1.0","vthrokdv3a","many_one","0","direct_first","1","er06us26","0","20","1","1","3","1","","0","1","0","13812.659999995958","text/information.html","","","","","","","","","","","","",""
"","external-html","2","30211","0.0-2.0","vthrokdv3a","many_one","0","direct_first","1","er06us26","0","20","1","1","3","1","","0","1","0","12546.080000000075","text/consent.html","","","","","","","","","","","","",""
"","survey-html-form","3","94709","0.0-3.0","vthrokdv3a","many_one","0","direct_first","1","er06us26","0","20","1","1","3","1","","0","1","0","64493.98500000825","","{""codeword_enter"":""er06us26""}","","","","","","","","","","","",""
"","survey-html-form","4","115534","0.0-4.0","vthrokdv3a","many_one","0","direct_first","1","er06us26","0","20","1","1","3","1","","0","1","0","20821.994999991148","","{""age"":""20"",""education"":""1"",""subject"":""3"",""gender"":""0"",""handedness"":""1"",""chinese"":""1""}","","","","","","","","","","","",""
"","survey-html-form","5","119103","0.0-5.0","vthrokdv3a","many_one","0","direct_first","1","er06us26","0","20","1","1","3","1","","0","1","0","3563.3249999955297","","{}","","","","","","","","","","","",""
"","html-keyboard-response","6","123109","0.0-6.0-0.0-0.0","vthrokdv3a","many_one","0","direct_first","1","er06us26","0","20","1","1","3","1","","0","1","0","null","","","<div class = 'row'><div class = 'column'><img src = 'category3/CS6.png' width = '70%;'></div><div class = 'column'><img src = 'uspos/5700.bmp' width = '100%;'></div></div>","null","pos","CS","CS","3","category3/CS6.png","","","","",""
"","html-keyboard-response","7","125613","0.0-6.0-0.0-0.1","vthrokdv3a","many_one","0","direct_first","1","er06us26","0","20","1","1","3","1","","0","1","0","null","","","<div class = 'row'><div class = 'column'><img src = 'category3/CS9.png' width = '70%;'></div><div class = 'column'><img src = 'uspos/5831.bmp' width = '100%;'></div></div>","null","pos","CS","CS","3","category3/CS9.png","","","","",""
"","html-keyboard-response","8","128119","0.0-6.0-0.0-0.2","vthrokdv3a","many_one","0","direct_first","1","er06us26","0","20","1","1","3","1","","0","1","0","null","","","<div class = 'row'><div class = 'column'><img src = 'usneg/2750.bmp' width = '100%;'></div><div class = 'column'><img src = 'category1/CS7.png' width = '70%;'></div></div>","null","neg","CS","CS","1","category1/CS7.png","","","","",""
"","html-keyboard-response","9","130621","0.0-6.0-0.0-0.3","vthrokdv3a","many_one","0","direct_first","1","er06us26","0","20","1","1","3","1","","0","1","0","null","","","<div class = 'row'><div class = 'column'><img src = 'category4/CS3.png' width = '70%;'></div><div class = 'column'><img src = 'uspos/1460.bmp' width = '100%;'></div></div>","null","pos","CS","CS","4","category4/CS3.png","","","","",""
"","html-keyboard-response","10","133125","0.0-6.0-0.0-0.4","vthrokdv3a","many_one","0","direct_first","1","er06us26","0","20","1","1","3","1","","0","1","0","null","","","<div class = 'row'><div class = 'column'><img src = 'uspos/2208.bmp' width = '100%;'></div><div class = 'column'><img src = 'category4/CS4.png' width = '70%;'></div></div>","null","pos","CS","CS","4","category4/CS4.png","","","","",""
"","html-keyboard-response","11","135629","0.0-6.0-0.0-0.5","vthrokdv3a","many_one","0","direct_first","1","er06us26","0","20","1","1","3","1","","0","1","0","null","","","<div class = 'row'><div class = 'column'><img src = 'category2/CS3.png' width = '70%;'></div><div class = 'column'><img src = 'usneg/9181.bmp' width = '100%;'></div></div>","null","neg","CS","CS","2","category2/CS3.png","","","","",""
"","html-keyboard-response","12","138132","0.0-6.0-0.0-0.6","vthrokdv3a","many_one","0","direct_first","1","er06us26","0","20","1","1","3","1","","0","1","0","null","","","<div class = 'row'><div class = 'column'><img src = 'category1/CS8.png' width = '70%;'></div><div class = 'column'><img src = 'usneg/9342.bmp' width = '100%;'></div></div>","null","neg","CS","CS","1","category1/CS8.png","","","","",""
"","html-keyboard-response","13","140635","0.0-6.0-0.0-0.7","vthrokdv3a","many_one","0","direct_first","1","er06us26","0","20","1","1","3","1","","0","1","0","null","","","<div class = 'row'><div class = 'column'><img src = 'uspos/8461.bmp' width = '100%;'></div><div class = 'column'><img src = 'category3/CS7.png' width = '70%;'></div></div>","null","pos","CS","CS","3","category3/CS7.png","","","","",""
"","html-keyboard-response","14","143139","0.0-6.0-0.0-0.8","vthrokdv3a","many_one","0","direct_first","1","er06us26","0","20","1","1","3","1","","0","1","0","null","","","<div class = 'row'><div class = 'column'><img src = 'category1/CS2.png' width = '70%;'></div><div class = 'column'><img src = 'usneg/9050.bmp' width = '100%;'></div></div>","null","neg","CS","CS","1","category1/CS2.png","","","","",""
"","html-keyboard-response","15","145643","0.0-6.0-0.0-0.9","vthrokdv3a","many_one","0","direct_first","1","er06us26","0","20","1","1","3","1","","0","1","0","null","","","<div class = 'row'><div class = 'column'><img src = 'category3/CS3.png' width = '70%;'></div><div class = 'column'><img src = 'uspos/8540.bmp' width = '100%;'></div></div>","null","pos","CS","CS","3","category3/CS3.png","","","","",""
"","html-keyboard-response","16","148147","0.0-6.0-0.0-0.10","vthrokdv3a","many_one","0","direct_first","1","er06us26","0","20","1","1","3","1","","0","1","0","null","","","<div class = 'row'><div class = 'column'><img src = 'usneg/9280.bmp' width = '100%;'></div><div class = 'column'><img src = 'category2/CS7.png' width = '70%;'></div></div>","null","neg","CS","CS","2","category2/CS7.png","","","","",""
"","html-keyboard-response","17","150651","0.0-6.0-0.0-0.11","vthrokdv3a","many_one","0","direct_first","1","er06us26","0","20","1","1","3","1","","0","1","0","null","","","<div class = 'row'><div class = 'column'><img src = 'category2/CS1.png' width = '70%;'></div><div class = 'column'><img src = 'usneg/9340.bmp' width = '100%;'></div></div>","null","neg","CS","CS","2","category2/CS1.png","","","","",""
"","html-keyboard-response","18","153154","0.0-6.0-0.0-0.12","vthrokdv3a","many_one","0","direct_first","1","er06us26","0","20","1","1","3","1","","0","1","0","null","","","<div class = 'row'><div class = 'column'><img src = 'uspos/1340.bmp' width = '100%;'></div><div class = 'column'><img src = 'category3/CS5.png' width = '70%;'></div></div>","null","pos","CS","CS","3","category3/CS5.png","","","","",""
"","html-keyboard-response","19","155659","0.0-6.0-0.0-0.13","vthrokdv3a","many_one","0","direct_first","1","er06us26","0","20","1","1","3","1","","0","1","0","null","","","<div class = 'row'><div class = 'column'><img src = 'uspos/2165.bmp' width = '100%;'></div><div class = 'column'><img src = 'category4/CS5.png' width = '70%;'></div></div>","null","pos","CS","CS","4","category4/CS5.png","","","","",""
"","html-keyboard-response","20","158162","0.0-6.0-0.0-0.14","vthrokdv3a","many_one","0","direct_first","1","er06us26","0","20","1","1","3","1","","0","1","0","null","","","<div class = 'row'><div class = 'column'><img src = 'category1/CS3.png' width = '70%;'></div><div class = 'column'><img src = 'usneg/9635.2.bmp' width = '100%;'></div></div>","null","neg","CS","CS","1","category1/CS3.png","","","","",""
"","html-keyboard-response","21","160666","0.0-6.0-0.0-0.15","vthrokdv3a","many_one","0","direct_first","1","er06us26","0","20","1","1","3","1","","0","1","0","null","","","<div class = 'row'><div class = 'column'><img src = 'usneg/9435.bmp' width = '100%;'></div><div class = 'column'><img src = 'category2/CS6.png' width = '70%;'></div></div>","null","neg","CS","CS","2","category2/CS6.png","","","","",""
"","html-keyboard-response","22","163171","0.0-6.0-0.0-0.16","vthrokdv3a","many_one","0","direct_first","1","er06us26","0","20","1","1","3","1","","0","1","0","null","","","<div class = 'row'><div class = 'column'><img src = 'usneg/9220.bmp' width = '100%;'></div><div class = 'column'><img src = 'category2/CS10.png' width = '70%;'></div></div>","null","neg","CS","CS","2","category2/CS10.png","","","","",""
"","html-keyboard-response","23","165674","0.0-6.0-0.0-0.17","vthrokdv3a","many_one","0","direct_first","1","er06us26","0","20","1","1","3","1","","0","1","0","null","","","<div class = 'row'><div class = 'column'><img src = 'category4/CS7.png' width = '70%;'></div><div class = 'column'><img src = 'uspos/2340.bmp' width = '100%;'></div></div>","null","pos","CS","CS","4","category4/CS7.png","","","","",""
"","html-keyboard-response","24","168177","0.0-6.0-0.0-0.18","vthrokdv3a","many_one","0","direct_first","1","er06us26","0","20","1","1","3","1","","0","1","0","null","","","<div class = 'row'><div class = 'column'><img src = 'category1/CS10.png' width = '70%;'></div><div class = 'column'><img src = 'usneg/9290.bmp' width = '100%;'></div></div>","null","neg","CS","CS","1","category1/CS10.png","","","","",""
"","html-keyboard-response","25","170680","0.0-6.0-0.0-0.19","vthrokdv3a","many_one","0","direct_first","1","er06us26","0","20","1","1","3","1","","0","1","0","null","","","<div class = 'row'><div class = 'column'><img src = 'uspos/5621.bmp' width = '100%;'></div><div class = 'column'><img src = 'category4/CS8.png' width = '70%;'></div></div>","null","pos","CS","CS","4","category4/CS8.png","","","","",""
"","survey-html-form","26","175967","0.0-6.0-1.0","vthrokdv3a","many_one","0","direct_first","1","er06us26","0","20","1","1","3","1","","0","1","0","4785.190000009607","","{}","","","","","","","","","","","",""
"","html-keyboard-response","27","179971","0.0-6.0-2.0-0.0","vthrokdv3a","many_one","0","direct_first","1","er06us26","0","20","1","1","3","1","","0","1","0","null","","","<div class = 'row'><div class = 'column'><img src = 'category4/CS7.png' width = '70%;'></div><div class = 'column'><img src = 'uspos/2340.bmp' width = '100%;'></div></div>","null","pos","CS","CS","4","category4/CS7.png","","","","",""
"","html-keyboard-response","28","182474","0.0-6.0-2.0-0.1","vthrokdv3a","many_one","0","direct_first","1","er06us26","0","20","1","1","3","1","","0","1","0","null","","","<div class = 'row'><div class = 'column'><img src = 'category3/CS5.png' width = '70%;'></div><div class = 'column'><img src = 'uspos/1340.bmp' width = '100%;'></div></div>","null","pos","CS","CS","3","category3/CS5.png","","","","",""
"","html-keyboard-response","29","184978","0.0-6.0-2.0-0.2","vthrokdv3a","many_one","0","direct_first","1","er06us26","0","20","1","1","3","1","","0","1","0","null","","","<div class = 'row'><div class = 'column'><img src = 'category1/CS7.png' width = '70%;'></div><div class = 'column'><img src = 'usneg/2750.bmp' width = '100%;'></div></div>","null","neg","CS","CS","1","category1/CS7.png","","","","",""
"","html-keyboard-response","30","187481","0.0-6.0-2.0-0.3","vthrokdv3a","many_one","0","direct_first","1","er06us26","0","20","1","1","3","1","","0","1","0","null","","","<div class = 'row'><div class = 'column'><img src = 'category2/CS7.png' width = '70%;'></div><div class = 'column'><img src = 'usneg/9280.bmp' width = '100%;'></div></div>","null","neg","CS","CS","2","category2/CS7.png","","","","",""
"","html-keyboard-response","31","189985","0.0-6.0-2.0-0.4","vthrokdv3a","many_one","0","direct_first","1","er06us26","0","20","1","1","3","1","","0","1","0","null","","","<div class = 'row'><div class = 'column'><img src = 'category1/CS8.png' width = '70%;'></div><div class = 'column'><img src = 'usneg/9342.bmp' width = '100%;'></div></div>","null","neg","CS","CS","1","category1/CS8.png","","","","",""
"","html-keyboard-response","32","192487","0.0-6.0-2.0-0.5","vthrokdv3a","many_one","0","direct_first","1","er06us26","0","20","1","1","3","1","","0","1","0","null","","","<div class = 'row'><div class = 'column'><img src = 'usneg/9635.2.bmp' width = '100%;'></div><div class = 'column'><img src = 'category1/CS3.png' width = '70%;'></div></div>","null","neg","CS","CS","1","category1/CS3.png","","","","",""
"","html-keyboard-response","33","194991","0.0-6.0-2.0-0.6","vthrokdv3a","many_one","0","direct_first","1","er06us26","0","20","1","1","3","1","","0","1","0","null","","","<div class = 'row'><div class = 'column'><img src = 'usneg/9340.bmp' width = '100%;'></div><div class = 'column'><img src = 'category2/CS1.png' width = '70%;'></div></div>","null","neg","CS","CS","2","category2/CS1.png","","","","",""
"","html-keyboard-response","34","197495","0.0-6.0-2.0-0.7","vthrokdv3a","many_one","0","direct_first","1","er06us26","0","20","1","1","3","1","","0","1","0","null","","","<div class = 'row'><div class = 'column'><img src = 'category3/CS7.png' width = '70%;'></div><div class = 'column'><img src = 'uspos/8461.bmp' width = '100%;'></div></div>","null","pos","CS","CS","3","category3/CS7.png","","","","",""
"","html-keyboard-response","35","199998","0.0-6.0-2.0-0.8","vthrokdv3a","many_one","0","direct_first","1","er06us26","0","20","1","1","3","1","","0","1","0","null","","","<div class = 'row'><div class = 'column'><img src = 'category4/CS4.png' width = '70%;'></div><div class = 'column'><img src = 'uspos/2208.bmp' width = '100%;'></div></div>","null","pos","CS","CS","4","category4/CS4.png","","","","",""
"","html-keyboard-response","36","202502","0.0-6.0-2.0-0.9","vthrokdv3a","many_one","0","direct_first","1","er06us26","0","20","1","1","3","1","","0","1","0","null","","","<div class = 'row'><div class = 'column'><img src = 'uspos/2165.bmp' width = '100%;'></div><div class = 'column'><img src = 'category4/CS5.png' width = '70%;'></div></div>","null","pos","CS","CS","4","category4/CS5.png","","","","",""
"","html-keyboard-response","37","205006","0.0-6.0-2.0-0.10","vthrokdv3a","many_one","0","direct_first","1","er06us26","0","20","1","1","3","1","","0","1","0","null","","","<div class = 'row'><div class = 'column'><img src = 'usneg/9181.bmp' width = '100%;'></div><div class = 'column'><img src = 'category2/CS3.png' width = '70%;'></div></div>","null","neg","CS","CS","2","category2/CS3.png","","","","",""
"","html-keyboard-response","38","207509","0.0-6.0-2.0-0.11","vthrokdv3a","many_one","0","direct_first","1","er06us26","0","20","1","1","3","1","","0","1","0","null","","","<div class = 'row'><div class = 'column'><img src = 'category3/CS9.png' width = '70%;'></div><div class = 'column'><img src = 'uspos/5831.bmp' width = '100%;'></div></div>","null","pos","CS","CS","3","category3/CS9.png","","","","",""
"","html-keyboard-response","39","210013","0.0-6.0-2.0-0.12","vthrokdv3a","many_one","0","direct_first","1","er06us26","0","20","1","1","3","1","","0","1","0","null","","","<div class = 'row'><div class = 'column'><img src = 'category4/CS8.png' width = '70%;'></div><div class = 'column'><img src = 'uspos/5621.bmp' width = '100%;'></div></div>","null","pos","CS","CS","4","category4/CS8.png","","","","",""
"","html-keyboard-response","40","212516","0.0-6.0-2.0-0.13","vthrokdv3a","many_one","0","direct_first","1","er06us26","0","20","1","1","3","1","","0","1","0","null","","","<div class = 'row'><div class = 'column'><img src = 'category2/CS6.png' width = '70%;'></div><div class = 'column'><img src = 'usneg/9435.bmp' width = '100%;'></div></div>","null","neg","CS","CS","2","category2/CS6.png","","","","",""
"","html-keyboard-response","41","215019","0.0-6.0-2.0-0.14","vthrokdv3a","many_one","0","direct_first","1","er06us26","0","20","1","1","3","1","","0","1","0","null","","","<div class = 'row'><div class = 'column'><img src = 'usneg/9050.bmp' width = '100%;'></div><div class = 'column'><img src = 'category1/CS2.png' width = '70%;'></div></div>","null","neg","CS","CS","1","category1/CS2.png","","","","",""
"","html-keyboard-response","42","217523","0.0-6.0-2.0-0.15","vthrokdv3a","many_one","0","direct_first","1","er06us26","0","20","1","1","3","1","","0","1","0","null","","","<div class = 'row'><div class = 'column'><img src = 'uspos/8540.bmp' width = '100%;'></div><div class = 'column'><img src = 'category3/CS3.png' width = '70%;'></div></div>","null","pos","CS","CS","3","category3/CS3.png","","","","",""
"","html-keyboard-response","43","220029","0.0-6.0-2.0-0.16","vthrokdv3a","many_one","0","direct_first","1","er06us26","0","20","1","1","3","1","","0","1","0","null","","","<div class = 'row'><div class = 'column'><img src = 'category2/CS10.png' width = '70%;'></div><div class = 'column'><img src = 'usneg/9220.bmp' width = '100%;'></div></div>","null","neg","CS","CS","2","category2/CS10.png","","","","",""
"","html-keyboard-response","44","222532","0.0-6.0-2.0-0.17","vthrokdv3a","many_one","0","direct_first","1","er06us26","0","20","1","1","3","1","","0","1","0","null","","","<div class = 'row'><div class = 'column'><img src = 'usneg/9290.bmp' width = '100%;'></div><div class = 'column'><img src = 'category1/CS10.png' width = '70%;'></div></div>","null","neg","CS","CS","1","category1/CS10.png","","","","",""
"","html-keyboard-response","45","225035","0.0-6.0-2.0-0.18","vthrokdv3a","many_one","0","direct_first","1","er06us26","0","20","1","1","3","1","","0","1","0","null","","","<div class = 'row'><div class = 'column'><img src = 'uspos/1460.bmp' width = '100%;'></div><div class = 'column'><img src = 'category4/CS3.png' width = '70%;'></div></div>","null","pos","CS","CS","4","category4/CS3.png","","","","",""
"","html-keyboard-response","46","227538","0.0-6.0-2.0-0.19","vthrokdv3a","many_one","0","direct_first","1","er06us26","0","20","1","1","3","1","","0","1","0","null","","","<div class = 'row'><div class = 'column'><img src = 'uspos/5700.bmp' width = '100%;'></div><div class = 'column'><img src = 'category3/CS6.png' width = '70%;'></div></div>","null","pos","CS","CS","3","category3/CS6.png","","","","",""
"","survey-html-form","47","235697","0.0-6.0-3.0","vthrokdv3a","many_one","0","direct_first","1","er06us26","0","20","1","1","3","1","","0","1","0","7656.715000004624","","{}","","","","","","","","","","","",""
"","html-keyboard-response","48","239701","0.0-6.0-4.0-0.0","vthrokdv3a","many_one","0","direct_first","1","er06us26","0","20","1","1","3","1","","0","1","0","null","","","<div class = 'row'><div class = 'column'><img src = 'uspos/1340.bmp' width = '100%;'></div><div class = 'column'><img src = 'category3/CS5.png' width = '70%;'></div></div>","null","pos","CS","CS","3","category3/CS5.png","","","","",""
"","html-keyboard-response","49","242205","0.0-6.0-4.0-0.1","vthrokdv3a","many_one","0","direct_first","1","er06us26","0","20","1","1","3","1","","0","1","0","null","","","<div class = 'row'><div class = 'column'><img src = 'uspos/5700.bmp' width = '100%;'></div><div class = 'column'><img src = 'category3/CS6.png' width = '70%;'></div></div>","null","pos","CS","CS","3","category3/CS6.png","","","","",""
"","html-keyboard-response","50","244708","0.0-6.0-4.0-0.2","vthrokdv3a","many_one","0","direct_first","1","er06us26","0","20","1","1","3","1","","0","1","0","null","","","<div class = 'row'><div class = 'column'><img src = 'category1/CS8.png' width = '70%;'></div><div class = 'column'><img src = 'usneg/9342.bmp' width = '100%;'></div></div>","null","neg","CS","CS","1","category1/CS8.png","","","","",""
"","html-keyboard-response","51","247211","0.0-6.0-4.0-0.3","vthrokdv3a","many_one","0","direct_first","1","er06us26","0","20","1","1","3","1","","0","1","0","null","","","<div class = 'row'><div class = 'column'><img src = 'category4/CS5.png' width = '70%;'></div><div class = 'column'><img src = 'uspos/2165.bmp' width = '100%;'></div></div>","null","pos","CS","CS","4","category4/CS5.png","","","","",""
"","html-keyboard-response","52","249715","0.0-6.0-4.0-0.4","vthrokdv3a","many_one","0","direct_first","1","er06us26","0","20","1","1","3","1","","0","1","0","null","","","<div class = 'row'><div class = 'column'><img src = 'category2/CS10.png' width = '70%;'></div><div class = 'column'><img src = 'usneg/9220.bmp' width = '100%;'></div></div>","null","neg","CS","CS","2","category2/CS10.png","","","","",""
"","html-keyboard-response","53","252219","0.0-6.0-4.0-0.5","vthrokdv3a","many_one","0","direct_first","1","er06us26","0","20","1","1","3","1","","0","1","0","null","","","<div class = 'row'><div class = 'column'><img src = 'usneg/9340.bmp' width = '100%;'></div><div class = 'column'><img src = 'category2/CS1.png' width = '70%;'></div></div>","null","neg","CS","CS","2","category2/CS1.png","","","","",""
"","html-keyboard-response","54","254722","0.0-6.0-4.0-0.6","vthrokdv3a","many_one","0","direct_first","1","er06us26","0","20","1","1","3","1","","0","1","0","null","","","<div class = 'row'><div class = 'column'><img src = 'category4/CS8.png' width = '70%;'></div><div class = 'column'><img src = 'uspos/5621.bmp' width = '100%;'></div></div>","null","pos","CS","CS","4","category4/CS8.png","","","","",""
"","html-keyboard-response","55","257224","0.0-6.0-4.0-0.7","vthrokdv3a","many_one","0","direct_first","1","er06us26","0","20","1","1","3","1","","0","1","0","null","","","<div class = 'row'><div class = 'column'><img src = 'usneg/9181.bmp' width = '100%;'></div><div class = 'column'><img src = 'category2/CS3.png' width = '70%;'></div></div>","null","neg","CS","CS","2","category2/CS3.png","","","","",""
"","html-keyboard-response","56","259727","0.0-6.0-4.0-0.8","vthrokdv3a","many_one","0","direct_first","1","er06us26","0","20","1","1","3","1","","0","1","0","null","","","<div class = 'row'><div class = 'column'><img src = 'usneg/9280.bmp' width = '100%;'></div><div class = 'column'><img src = 'category2/CS7.png' width = '70%;'></div></div>","null","neg","CS","CS","2","category2/CS7.png","","","","",""
"","html-keyboard-response","57","262230","0.0-6.0-4.0-0.9","vthrokdv3a","many_one","0","direct_first","1","er06us26","0","20","1","1","3","1","","0","1","0","null","","","<div class = 'row'><div class = 'column'><img src = 'uspos/8461.bmp' width = '100%;'></div><div class = 'column'><img src = 'category3/CS7.png' width = '70%;'></div></div>","null","pos","CS","CS","3","category3/CS7.png","","","","",""
"","html-keyboard-response","58","264733","0.0-6.0-4.0-0.10","vthrokdv3a","many_one","0","direct_first","1","er06us26","0","20","1","1","3","1","","0","1","0","null","","","<div class = 'row'><div class = 'column'><img src = 'category1/CS3.png' width = '70%;'></div><div class = 'column'><img src = 'usneg/9635.2.bmp' width = '100%;'></div></div>","null","neg","CS","CS","1","category1/CS3.png","","","","",""
"","html-keyboard-response","59","267237","0.0-6.0-4.0-0.11","vthrokdv3a","many_one","0","direct_first","1","er06us26","0","20","1","1","3","1","","0","1","0","null","","","<div class = 'row'><div class = 'column'><img src = 'category1/CS10.png' width = '70%;'></div><div class = 'column'><img src = 'usneg/9290.bmp' width = '100%;'></div></div>","null","neg","CS","CS","1","category1/CS10.png","","","","",""
"","html-keyboard-response","60","269741","0.0-6.0-4.0-0.12","vthrokdv3a","many_one","0","direct_first","1","er06us26","0","20","1","1","3","1","","0","1","0","null","","","<div class = 'row'><div class = 'column'><img src = 'category1/CS2.png' width = '70%;'></div><div class = 'column'><img src = 'usneg/9050.bmp' width = '100%;'></div></div>","null","neg","CS","CS","1","category1/CS2.png","","","","",""
"","html-keyboard-response","61","272245","0.0-6.0-4.0-0.13","vthrokdv3a","many_one","0","direct_first","1","er06us26","0","20","1","1","3","1","","0","1","0","null","","","<div class = 'row'><div class = 'column'><img src = 'uspos/2340.bmp' width = '100%;'></div><div class = 'column'><img src = 'category4/CS7.png' width = '70%;'></div></div>","null","pos","CS","CS","4","category4/CS7.png","","","","",""
"","html-keyboard-response","62","274749","0.0-6.0-4.0-0.14","vthrokdv3a","many_one","0","direct_first","1","er06us26","0","20","1","1","3","1","","0","1","0","null","","","<div class = 'row'><div class = 'column'><img src = 'category3/CS9.png' width = '70%;'></div><div class = 'column'><img src = 'uspos/5831.bmp' width = '100%;'></div></div>","null","pos","CS","CS","3","category3/CS9.png","","","","",""
"","html-keyboard-response","63","277253","0.0-6.0-4.0-0.15","vthrokdv3a","many_one","0","direct_first","1","er06us26","0","20","1","1","3","1","","0","1","0","null","","","<div class = 'row'><div class = 'column'><img src = 'category1/CS7.png' width = '70%;'></div><div class = 'column'><img src = 'usneg/2750.bmp' width = '100%;'></div></div>","null","neg","CS","CS","1","category1/CS7.png","","","","",""
"","html-keyboard-response","64","279759","0.0-6.0-4.0-0.16","vthrokdv3a","many_one","0","direct_first","1","er06us26","0","20","1","1","3","1","","0","1","0","null","","","<div class = 'row'><div class = 'column'><img src = 'category4/CS3.png' width = '70%;'></div><div class = 'column'><img src = 'uspos/1460.bmp' width = '100%;'></div></div>","null","pos","CS","CS","4","category4/CS3.png","","","","",""
"","html-keyboard-response","65","282262","0.0-6.0-4.0-0.17","vthrokdv3a","many_one","0","direct_first","1","er06us26","0","20","1","1","3","1","","0","1","0","null","","","<div class = 'row'><div class = 'column'><img src = 'category4/CS4.png' width = '70%;'></div><div class = 'column'><img src = 'uspos/2208.bmp' width = '100%;'></div></div>","null","pos","CS","CS","4","category4/CS4.png","","","","",""
"","html-keyboard-response","66","284765","0.0-6.0-4.0-0.18","vthrokdv3a","many_one","0","direct_first","1","er06us26","0","20","1","1","3","1","","0","1","0","null","","","<div class = 'row'><div class = 'column'><img src = 'category2/CS6.png' width = '70%;'></div><div class = 'column'><img src = 'usneg/9435.bmp' width = '100%;'></div></div>","null","neg","CS","CS","2","category2/CS6.png","","","","",""
"","html-keyboard-response","67","287270","0.0-6.0-4.0-0.19","vthrokdv3a","many_one","0","direct_first","1","er06us26","0","20","1","1","3","1","","0","1","0","null","","","<div class = 'row'><div class = 'column'><img src = 'category3/CS3.png' width = '70%;'></div><div class = 'column'><img src = 'uspos/8540.bmp' width = '100%;'></div></div>","null","pos","CS","CS","3","category3/CS3.png","","","","",""
"","survey-html-form","68","291529","0.0-6.0-5.0","vthrokdv3a","many_one","0","direct_first","1","er06us26","0","20","1","1","3","1","","0","1","0","3757.035000002361","","{}","","","","","","","","","","","",""
"","html-keyboard-response","69","295535","0.0-6.0-6.0-0.0","vthrokdv3a","many_one","0","direct_first","1","er06us26","0","20","1","1","3","1","","0","1","0","null","","","<div class = 'row'><div class = 'column'><img src = 'usneg/9181.bmp' width = '100%;'></div><div class = 'column'><img src = 'category2/CS3.png' width = '70%;'></div></div>","null","neg","CS","CS","2","category2/CS3.png","","","","",""
"","html-keyboard-response","70","298039","0.0-6.0-6.0-0.1","vthrokdv3a","many_one","0","direct_first","1","er06us26","0","20","1","1","3","1","","0","1","0","null","","","<div class = 'row'><div class = 'column'><img src = 'category3/CS7.png' width = '70%;'></div><div class = 'column'><img src = 'uspos/8461.bmp' width = '100%;'></div></div>","null","pos","CS","CS","3","category3/CS7.png","","","","",""
"","html-keyboard-response","71","300542","0.0-6.0-6.0-0.2","vthrokdv3a","many_one","0","direct_first","1","er06us26","0","20","1","1","3","1","","0","1","0","null","","","<div class = 'row'><div class = 'column'><img src = 'category3/CS3.png' width = '70%;'></div><div class = 'column'><img src = 'uspos/8540.bmp' width = '100%;'></div></div>","null","pos","CS","CS","3","category3/CS3.png","","","","",""
"","html-keyboard-response","72","303045","0.0-6.0-6.0-0.3","vthrokdv3a","many_one","0","direct_first","1","er06us26","0","20","1","1","3","1","","0","1","0","null","","","<div class = 'row'><div class = 'column'><img src = 'uspos/2340.bmp' width = '100%;'></div><div class = 'column'><img src = 'category4/CS7.png' width = '70%;'></div></div>","null","pos","CS","CS","4","category4/CS7.png","","","","",""
"","html-keyboard-response","73","305548","0.0-6.0-6.0-0.4","vthrokdv3a","many_one","0","direct_first","1","er06us26","0","20","1","1","3","1","","0","1","0","null","","","<div class = 'row'><div class = 'column'><img src = 'uspos/5700.bmp' width = '100%;'></div><div class = 'column'><img src = 'category3/CS6.png' width = '70%;'></div></div>","null","pos","CS","CS","3","category3/CS6.png","","","","",""
"","html-keyboard-response","74","308051","0.0-6.0-6.0-0.5","vthrokdv3a","many_one","0","direct_first","1","er06us26","0","20","1","1","3","1","","0","1","0","null","","","<div class = 'row'><div class = 'column'><img src = 'usneg/9220.bmp' width = '100%;'></div><div class = 'column'><img src = 'category2/CS10.png' width = '70%;'></div></div>","null","neg","CS","CS","2","category2/CS10.png","","","","",""
"","html-keyboard-response","75","310553","0.0-6.0-6.0-0.6","vthrokdv3a","many_one","0","direct_first","1","er06us26","0","20","1","1","3","1","","0","1","0","null","","","<div class = 'row'><div class = 'column'><img src = 'category4/CS3.png' width = '70%;'></div><div class = 'column'><img src = 'uspos/1460.bmp' width = '100%;'></div></div>","null","pos","CS","CS","4","category4/CS3.png","","","","",""
"","html-keyboard-response","76","313057","0.0-6.0-6.0-0.7","vthrokdv3a","many_one","0","direct_first","1","er06us26","0","20","1","1","3","1","","0","1","0","null","","","<div class = 'row'><div class = 'column'><img src = 'category1/CS8.png' width = '70%;'></div><div class = 'column'><img src = 'usneg/9342.bmp' width = '100%;'></div></div>","null","neg","CS","CS","1","category1/CS8.png","","","","",""
"","html-keyboard-response","77","315561","0.0-6.0-6.0-0.8","vthrokdv3a","many_one","0","direct_first","1","er06us26","0","20","1","1","3","1","","0","1","0","null","","","<div class = 'row'><div class = 'column'><img src = 'category2/CS1.png' width = '70%;'></div><div class = 'column'><img src = 'usneg/9340.bmp' width = '100%;'></div></div>","null","neg","CS","CS","2","category2/CS1.png","","","","",""
"","html-keyboard-response","78","318063","0.0-6.0-6.0-0.9","vthrokdv3a","many_one","0","direct_first","1","er06us26","0","20","1","1","3","1","","0","1","0","null","","","<div class = 'row'><div class = 'column'><img src = 'uspos/5621.bmp' width = '100%;'></div><div class = 'column'><img src = 'category4/CS8.png' width = '70%;'></div></div>","null","pos","CS","CS","4","category4/CS8.png","","","","",""
"","html-keyboard-response","79","320566","0.0-6.0-6.0-0.10","vthrokdv3a","many_one","0","direct_first","1","er06us26","0","20","1","1","3","1","","0","1","0","null","","","<div class = 'row'><div class = 'column'><img src = 'category4/CS4.png' width = '70%;'></div><div class = 'column'><img src = 'uspos/2208.bmp' width = '100%;'></div></div>","null","pos","CS","CS","4","category4/CS4.png","","","","",""
"","html-keyboard-response","80","323070","0.0-6.0-6.0-0.11","vthrokdv3a","many_one","0","direct_first","1","er06us26","0","20","1","1","3","1","","0","1","0","null","","","<div class = 'row'><div class = 'column'><img src = 'usneg/9280.bmp' width = '100%;'></div><div class = 'column'><img src = 'category2/CS7.png' width = '70%;'></div></div>","null","neg","CS","CS","2","category2/CS7.png","","","","",""
"","html-keyboard-response","81","325573","0.0-6.0-6.0-0.12","vthrokdv3a","many_one","0","direct_first","1","er06us26","0","20","1","1","3","1","","0","1","0","null","","","<div class = 'row'><div class = 'column'><img src = 'usneg/9435.bmp' width = '100%;'></div><div class = 'column'><img src = 'category2/CS6.png' width = '70%;'></div></div>","null","neg","CS","CS","2","category2/CS6.png","","","","",""
"","html-keyboard-response","82","328077","0.0-6.0-6.0-0.13","vthrokdv3a","many_one","0","direct_first","1","er06us26","0","20","1","1","3","1","","0","1","0","null","","","<div class = 'row'><div class = 'column'><img src = 'category3/CS5.png' width = '70%;'></div><div class = 'column'><img src = 'uspos/1340.bmp' width = '100%;'></div></div>","null","pos","CS","CS","3","category3/CS5.png","","","","",""
"","html-keyboard-response","83","330579","0.0-6.0-6.0-0.14","vthrokdv3a","many_one","0","direct_first","1","er06us26","0","20","1","1","3","1","","0","1","0","null","","","<div class = 'row'><div class = 'column'><img src = 'category4/CS5.png' width = '70%;'></div><div class = 'column'><img src = 'uspos/2165.bmp' width = '100%;'></div></div>","null","pos","CS","CS","4","category4/CS5.png","","","","",""
"","html-keyboard-response","84","333083","0.0-6.0-6.0-0.15","vthrokdv3a","many_one","0","direct_first","1","er06us26","0","20","1","1","3","1","","0","1","0","null","","","<div class = 'row'><div class = 'column'><img src = 'usneg/9050.bmp' width = '100%;'></div><div class = 'column'><img src = 'category1/CS2.png' width = '70%;'></div></div>","null","neg","CS","CS","1","category1/CS2.png","","","","",""
"","html-keyboard-response","85","335587","0.0-6.0-6.0-0.16","vthrokdv3a","many_one","0","direct_first","1","er06us26","0","20","1","1","3","1","","0","1","0","null","","","<div class = 'row'><div class = 'column'><img src = 'category3/CS9.png' width = '70%;'></div><div class = 'column'><img src = 'uspos/5831.bmp' width = '100%;'></div></div>","null","pos","CS","CS","3","category3/CS9.png","","","","",""
"","html-keyboard-response","86","338090","0.0-6.0-6.0-0.17","vthrokdv3a","many_one","0","direct_first","1","er06us26","0","20","1","1","3","1","","0","1","0","null","","","<div class = 'row'><div class = 'column'><img src = 'usneg/9635.2.bmp' width = '100%;'></div><div class = 'column'><img src = 'category1/CS3.png' width = '70%;'></div></div>","null","neg","CS","CS","1","category1/CS3.png","","","","",""
"","html-keyboard-response","87","340594","0.0-6.0-6.0-0.18","vthrokdv3a","many_one","0","direct_first","1","er06us26","0","20","1","1","3","1","","0","1","0","null","","","<div class = 'row'><div class = 'column'><img src = 'category1/CS7.png' width = '70%;'></div><div class = 'column'><img src = 'usneg/2750.bmp' width = '100%;'></div></div>","null","neg","CS","CS","1","category1/CS7.png","","","","",""
"","html-keyboard-response","88","343097","0.0-6.0-6.0-0.19","vthrokdv3a","many_one","0","direct_first","1","er06us26","0","20","1","1","3","1","","0","1","0","null","","","<div class = 'row'><div class = 'column'><img src = 'usneg/9290.bmp' width = '100%;'></div><div class = 'column'><img src = 'category1/CS10.png' width = '70%;'></div></div>","null","neg","CS","CS","1","category1/CS10.png","","","","",""
"","survey-html-form","89","352305","0.0-7.0","vthrokdv3a","many_one","0","direct_first","1","er06us26","0","20","1","1","3","1","","0","1","0","8706.140000009327","","{}","","","","","","","","","","","",""
"","image-slider-response","90","360717","0.0-8.0-0.0","vthrokdv3a","many_one","0","direct_first","1","er06us26","0","20","1","1","3","1","","0","1","0","6408.749999987776","","","","","neg","CS","CS","1","category1/CS3.png","2","targets/10.png","direct","",""
"","image-slider-response","91","366467","0.0-8.0-0.1","vthrokdv3a","many_one","0","direct_first","1","er06us26","0","20","1","1","3","1","","0","1","0","5747.489999994286","","","","","pos","CS","CS","4","category4/CS8.png","-44","targets/5.png","direct","",""
"","image-slider-response","92","371606","0.0-8.0-0.2","vthrokdv3a","many_one","0","direct_first","1","er06us26","0","20","1","1","3","1","","0","1","0","5136.115000001155","","","","","pos","CS","CS","3","category3/CS3.png","51","targets/18.png","direct","",""
"","image-slider-response","93","375255","0.0-8.0-0.3","vthrokdv3a","many_one","0","direct_first","1","er06us26","0","20","1","1","3","1","","0","1","0","3647.8399999905378","","","","","pos","GS","GSold","4","category4/CS2.png","-22","targets/35.png","direct","",""
"","image-slider-response","94","380525","0.0-8.0-0.4","vthrokdv3a","many_one","0","direct_first","1","er06us26","0","20","1","1","3","1","","0","1","0","5266.944999995758","","","","","pos","CS","CS","3","category3/CS5.png","44","targets/46.png","direct","",""
"","image-slider-response","95","383995","0.0-8.0-0.5","vthrokdv3a","many_one","0","direct_first","1","er06us26","0","20","1","1","3","1","","0","1","0","3467.624999990221","","","","","neg","GS","GSold","2","category2/CS2.png","-33","targets/1.png","direct","",""
"","image-slider-response","96","386646","0.0-8.0-0.6","vthrokdv3a","many_one","0","direct_first","1","er06us26","0","20","1","1","3","1","","0","1","0","2649.2549999966286","","","","","pos","GS","GSold","3","category3/CS2.png","56","targets/45.png","direct","",""
"","image-slider-response","97","391218","0.0-8.0-0.7","vthrokdv3a","many_one","0","direct_first","1","er06us26","0","20","1","1","3","1","","0","1","0","4569.600000002538","","","","","pos","GS","GSnew","3","category3/GS3.png","70","targets/33.png","direct","",""
"","image-slider-response","98","394016","0.0-8.0-0.8","vthrokdv3a","many_one","0","direct_first","1","er06us26","0","20","1","1","3","1","","0","1","0","2795.704999996815","","","","","pos","GS","GSnew","3","category3/GS1.png","-51","targets/34.png","direct","",""
"","image-slider-response","99","398451","0.0-8.0-0.9","vthrokdv3a","many_one","0","direct_first","1","er06us26","0","20","1","1","3","1","","0","1","0","4432.889999996405","","","","","neg","CS","CS","1","category1/CS8.png","47","targets/27.png","direct","",""
"","image-slider-response","100","401307","0.0-8.0-0.10","vthrokdv3a","many_one","0","direct_first","1","er06us26","0","20","1","1","3","1","","0","1","0","2853.6500000045635","","","","","pos","CS","CS","3","category3/CS7.png","-50","targets/11.png","direct","",""
"","image-slider-response","101","404992","0.0-8.0-0.11","vthrokdv3a","many_one","0","direct_first","1","er06us26","0","20","1","1","3","1","","0","1","0","3683.084999996936","","","","","neg","CS","CS","2","category2/CS1.png","41","targets/4.png","direct","",""
"","image-slider-response","102","407932","0.0-8.0-0.12","vthrokdv3a","many_one","0","direct_first","1","er06us26","0","20","1","1","3","1","","0","1","0","2937.1249999967404","","","","","neg","CS","CS","1","category1/CS10.png","45","targets/48.png","direct","",""
"","image-slider-response","103","413958","0.0-8.0-0.13","vthrokdv3a","many_one","0","direct_first","1","er06us26","0","20","1","1","3","1","","0","1","0","6024.159999986296","","","","","neg","CS","CS","2","category2/CS3.png","3","targets/22.png","direct","",""
"","image-slider-response","104","417316","0.0-8.0-0.14","vthrokdv3a","many_one","0","direct_first","1","er06us26","0","20","1","1","3","1","","0","1","0","3355.859999996028","","","","","pos","CS","CS","4","category4/CS4.png","13","targets/25.png","direct","",""
"","image-slider-response","105","423541","0.0-8.0-0.15","vthrokdv3a","many_one","0","direct_first","1","er06us26","0","20","1","1","3","1","","0","1","0","6222.550000005867","","","","","pos","GS","GSold","4","category4/CS6.png","-13","targets/41.png","direct","",""
"","image-slider-response","106","427136","0.0-8.0-0.16","vthrokdv3a","many_one","0","direct_first","1","er06us26","0","20","1","1","3","1","","0","1","0","3592.094999999972","","","","","neg","GS","GSnew","1","category1/GS2.png","2","targets/28.png","direct","",""
"","image-slider-response","107","435644","0.0-8.0-0.17","vthrokdv3a","many_one","0","direct_first","1","er06us26","0","20","1","1","3","1","","0","1","0","8506.185000005644","","","","","neg","CS","CS","2","category2/CS7.png","0","targets/6.png","direct","",""
"","image-slider-response","108","439083","0.0-8.0-0.18","vthrokdv3a","many_one","0","direct_first","1","er06us26","0","20","1","1","3","1","","0","1","0","3436.4150000037625","","","","","neg","GS","GSnew","1","category1/GS3.png","12","targets/39.png","direct","",""
"","image-slider-response","109","442312","0.0-8.0-0.19","vthrokdv3a","many_one","0","direct_first","1","er06us26","0","20","1","1","3","1","","0","1","0","3226.47500000312","","","","","pos","GS","GSold","3","category3/CS8.png","54","targets/24.png","direct","",""
"","image-slider-response","110","445929","0.0-8.0-0.20","vthrokdv3a","many_one","0","direct_first","1","er06us26","0","20","1","1","3","1","","0","1","0","3614.499999996042","","","","","pos","GS","GSnew","4","category4/GS1.png","5","targets/23.png","direct","",""
"","image-slider-response","111","448958","0.0-8.0-0.21","vthrokdv3a","many_one","0","direct_first","1","er06us26","0","20","1","1","3","1","","0","1","0","3026.6300000075717","","","","","pos","CS","CS","3","category3/CS9.png","22","targets/19.png","direct","",""
"","image-slider-response","112","452001","0.0-8.0-0.22","vthrokdv3a","many_one","0","direct_first","1","er06us26","0","20","1","1","3","1","","0","1","0","3041.0350000020117","","","","","pos","CS","CS","4","category4/CS5.png","24","targets/21.png","direct","",""
"","image-slider-response","113","456994","0.0-8.0-0.23","vthrokdv3a","many_one","0","direct_first","1","er06us26","0","20","1","1","3","1","","0","1","0","4990.799999999581","","","","","pos","GS","GSnew","4","category4/GS2.png","2","targets/37.png","direct","",""
"","image-slider-response","114","461419","0.0-8.0-0.24","vthrokdv3a","many_one","0","direct_first","1","er06us26","0","20","1","1","3","1","","0","1","0","4422.539999999572","","","","","neg","GS","GSnew","2","category2/GS2.png","2","targets/29.png","direct","",""
"","image-slider-response","115","475731","0.0-8.0-0.25","vthrokdv3a","many_one","0","direct_first","1","er06us26","0","20","1","1","3","1","","0","1","0","14309.639999992214","","","","","pos","CS","CS","4","category4/CS7.png","2","targets/42.png","direct","",""
"","image-slider-response","116","478757","0.0-8.0-0.26","vthrokdv3a","many_one","0","direct_first","1","er06us26","0","20","1","1","3","1","","0","1","0","3023.719999997411","","","","","neg","GS","GSold","2","category2/CS9.png","6","targets/7.png","direct","",""
"","image-slider-response","117","481895","0.0-8.0-0.27","vthrokdv3a","many_one","0","direct_first","1","er06us26","0","20","1","1","3","1","","0","1","0","3136.335000002873","","","","","pos","GS","GSnew","4","category4/GS3.png","12","targets/17.png","direct","",""
"","image-slider-response","118","484615","0.0-8.0-0.28","vthrokdv3a","many_one","0","direct_first","1","er06us26","0","20","1","1","3","1","","0","1","0","2717.964999988908","","","","","pos","GS","abstract","4","category4/lin.png","11","targets/8.png","direct","",""
"","image-slider-response","119","487883","0.0-8.0-0.29","vthrokdv3a","many_one","0","direct_first","1","er06us26","0","20","1","1","3","1","","0","1","0","3265.895000004093","","","","","neg","GS","GSold","2","category2/CS8.png","-6","targets/14.png","direct","",""
"","image-slider-response","120","491246","0.0-8.0-0.30","vthrokdv3a","many_one","0","direct_first","1","er06us26","0","20","1","1","3","1","","0","1","0","3360.6650000001537","","","","","neg","GS","abstract","2","category2/men.png","-55","targets/9.png","direct","",""
"","image-slider-response","121","495953","0.0-8.0-0.31","vthrokdv3a","many_one","0","direct_first","1","er06us26","0","20","1","1","3","1","","0","1","0","4705.860000001849","","","","","neg","GS","GSnew","2","category2/GS3.png","-61","targets/32.png","direct","",""
"","image-slider-response","122","499015","0.0-8.0-0.32","vthrokdv3a","many_one","0","direct_first","1","er06us26","0","20","1","1","3","1","","0","1","0","3059.399999998277","","","","","neg","GS","GSold","1","category1/CS6.png","5","targets/15.png","direct","",""
"","image-slider-response","123","502755","0.0-8.0-0.33","vthrokdv3a","many_one","0","direct_first","1","er06us26","0","20","1","1","3","1","","0","1","0","3737.1600000042235","","","","","neg","CS","CS","1","category1/CS2.png","-16","targets/2.png","direct","",""
"","image-slider-response","124","506052","0.0-8.0-0.34","vthrokdv3a","many_one","0","direct_first","1","er06us26","0","20","1","1","3","1","","0","1","0","3294.609999997192","","","","","pos","GS","abstract","3","category3/wang.png","18","targets/36.png","direct","",""
"","image-slider-response","125","511161","0.0-8.0-0.35","vthrokdv3a","many_one","0","direct_first","1","er06us26","0","20","1","1","3","1","","0","1","0","5107.2149999963585","","","","","neg","CS","CS","1","category1/CS7.png","-10","targets/20.png","direct","",""
"","image-slider-response","126","514867","0.0-8.0-0.36","vthrokdv3a","many_one","0","direct_first","1","er06us26","0","20","1","1","3","1","","0","1","0","3703.395000004093","","","","","neg","CS","CS","2","category2/CS10.png","27","targets/43.png","direct","",""
"","image-slider-response","127","517273","0.0-8.0-0.37","vthrokdv3a","many_one","0","direct_first","1","er06us26","0","20","1","1","3","1","","0","1","0","2402.944999994361","","","","","neg","GS","GSold","1","category1/CS9.png","27","targets/16.png","direct","",""
"","image-slider-response","128","519896","0.0-8.0-0.38","vthrokdv3a","many_one","0","direct_first","1","er06us26","0","20","1","1","3","1","","0","1","0","2621.8099999969127","","","","","pos","GS","GSnew","3","category3/GS2.png","40","targets/38.png","direct","",""
"","image-slider-response","129","522534","0.0-8.0-0.39","vthrokdv3a","many_one","0","direct_first","1","er06us26","0","20","1","1","3","1","","0","1","0","2635.3150000068126","","","","","neg","GS","abstract","1","category1/ma.png","15","targets/3.png","direct","",""
"","image-slider-response","130","525102","0.0-8.0-0.40","vthrokdv3a","many_one","0","direct_first","1","er06us26","0","20","1","1","3","1","","0","1","0","2566.2350000056904","","","","","pos","CS","CS","3","category3/CS6.png","16","targets/47.png","direct","",""
"","image-slider-response","131","528322","0.0-8.0-0.41","vthrokdv3a","many_one","0","direct_first","1","er06us26","0","20","1","1","3","1","","0","1","0","3218.47500000149","","","","","pos","CS","CS","4","category4/CS3.png","-23","targets/26.png","direct","",""
"","image-slider-response","132","530872","0.0-8.0-0.42","vthrokdv3a","many_one","0","direct_first","1","er06us26","0","20","1","1","3","1","","0","1","0","2547.3149999888847","","","","","pos","GS","GSold","4","category4/CS9.png","-19","targets/31.png","direct","",""
"","image-slider-response","133","533473","0.0-8.0-0.43","vthrokdv3a","many_one","0","direct_first","1","er06us26","0","20","1","1","3","1","","0","1","0","2599.645000009332","","","","","neg","CS","CS","2","category2/CS6.png","15","targets/13.png","direct","",""
"","image-slider-response","134","536213","0.0-8.0-0.44","vthrokdv3a","many_one","0","direct_first","1","er06us26","0","20","1","1","3","1","","0","1","0","2738.6249999981374","","","","","neg","GS","GSnew","2","category2/GS1.png","-23","targets/30.png","direct","",""
"","image-slider-response","135","540185","0.0-8.0-0.45","vthrokdv3a","many_one","0","direct_first","1","er06us26","0","20","1","1","3","1","","0","1","0","3970.130000001518","","","","","pos","GS","GSold","3","category3/CS10.png","16","targets/40.png","direct","",""
"","image-slider-response","136","542707","0.0-8.0-0.46","vthrokdv3a","many_one","0","direct_first","1","er06us26","0","20","1","1","3","1","","0","1","0","2518.835000009858","","","","","neg","GS","GSnew","1","category1/GS1.png","14","targets/12.png","direct","",""
"","image-slider-response","137","545358","0.0-8.0-0.47","vthrokdv3a","many_one","0","direct_first","1","er06us26","0","20","1","1","3","1","","0","1","0","2649.489999996149","","","","","neg","GS","GSold","1","category1/CS4.png","22","targets/44.png","direct","",""
"","html-keyboard-response","138","574210","0.0-9.0","vthrokdv3a","many_one","0","direct_first","1","er06us26","0","20","1","1","3","1","","0","1","0","28850.354999987758","","","<p>Sie sehen nun die chinesischen Zeichen nur ganz kurz. Danach sehen Sie die jeweilige Aussprache der Zeichen als Silbe auf dem Bildschrim. Ihre Aufgabe ist es, für jede Silbe anzugeben, ob diese etwas angenehmes, oder unangenehmes bedeuten könnte. Verlassen Sie sich hier vor allem auf Ihre Intuition.<br><br>Die Zeichen werden nur zur Orientierung dargestellt, beachten Sie sie deshalb nicht. Konzentrieren Sie sich vor allem auf die Silben. <br>Reagieren Sie mit folgenden zwei Tasten: <br><br><b>'D' </b> wenn die Silbe etwas <b>unangenehmes</b> bedeuten könnte. <br><b>'K'</b> wenn die Silbe etwas <b>angenehmes</b> bedeuten könnte. <br><br>Bitte legen Sie nun den Zeigefinger der linken Hand auf die Taste 'D' und den Zeigefinger der rechten Hand auf die Taste 'K'. <br>Reagieren Sie auf jede Silbe so schnell wie möglich. Uns interessiert Ihre spontane Reaktion. <br> <br> <br>Drücken Sie 'D' oder 'K', um die nächste Aufgabe zu starten. </p>","75","","","","","","","","","",""
"","html-keyboard-response","139","577212","0.0-10.0-0.0","vthrokdv3a","many_one","0","direct_first","1","er06us26","0","20","1","1","3","1","","0","1","0","null","","","<div style=""font-size:60px;"">+</div>","null","","","","","","","","","",""
"","html-keyboard-response","140","577303","0.0-10.0-1.0","vthrokdv3a","many_one","0","direct_first","1","er06us26","0","20","1","1","3","1","","0","1","0","null","","","<img src = 'category1/CS10.png' width = '100%;'>","null","","","","","","","","","",""
"","html-keyboard-response","141","577556","0.0-10.0-2.0","vthrokdv3a","many_one","0","direct_first","1","er06us26","0","20","1","1","3","1","","0","1","0","null","","","<img src = 'targets/48.png' width = '100%;'>","null","","","","","","","","","",""
"","html-keyboard-response","142","584708","0.0-10.0-3.0","vthrokdv3a","many_one","0","direct_first","1","er06us26","0","20","1","1","3","1","","0","1","0","7151.449999990291","","","<img src = 'targets/mask.png' width = '100%;'>","75","neg","CS","CS","1","category1/CS10.png","","targets/48.png","indirect","1","0"
"","html-keyboard-response","143","586210","0.0-10.0-0.1","vthrokdv3a","many_one","0","direct_first","1","er06us26","0","20","1","1","3","1","","0","1","0","null","","","<div style=""font-size:60px;"">+</div>","null","","","","","","","","","",""
"","html-keyboard-response","144","586302","0.0-10.0-1.1","vthrokdv3a","many_one","0","direct_first","1","er06us26","0","20","1","1","3","1","","0","1","0","null","","","<img src = 'category2/CS2.png' width = '100%;'>","null","","","","","","","","","",""
"","html-keyboard-response","145","586555","0.0-10.0-2.1","vthrokdv3a","many_one","0","direct_first","1","er06us26","0","20","1","1","3","1","","0","1","0","null","","","<img src = 'targets/1.png' width = '100%;'>","null","","","","","","","","","",""
"","html-keyboard-response","146","587608","0.0-10.0-3.1","vthrokdv3a","many_one","0","direct_first","1","er06us26","0","20","1","1","3","1","","0","1","0","1051.8900000024587","","","<img src = 'targets/mask.png' width = '100%;'>","68","neg","GS","GSold","2","category2/CS2.png","","targets/1.png","indirect","0","1"
"","html-keyboard-response","147","589110","0.0-10.0-0.2","vthrokdv3a","many_one","0","direct_first","1","er06us26","0","20","1","1","3","1","","0","1","0","null","","","<div style=""font-size:60px;"">+</div>","null","","","","","","","","","",""
"","html-keyboard-response","148","589202","0.0-10.0-1.2","vthrokdv3a","many_one","0","direct_first","1","er06us26","0","20","1","1","3","1","","0","1","0","null","","","<img src = 'category2/CS10.png' width = '100%;'>","null","","","","","","","","","",""
"","html-keyboard-response","149","589456","0.0-10.0-2.2","vthrokdv3a","many_one","0","direct_first","1","er06us26","0","20","1","1","3","1","","0","1","0","null","","","<img src = 'targets/43.png' width = '100%;'>","null","","","","","","","","","",""
"","html-keyboard-response","150","590628","0.0-10.0-3.2","vthrokdv3a","many_one","0","direct_first","1","er06us26","0","20","1","1","3","1","","0","1","0","1170.5050000018673","","","<img src = 'targets/mask.png' width = '100%;'>","75","neg","CS","CS","2","category2/CS10.png","","targets/43.png","indirect","1","2"
"","html-keyboard-response","151","592130","0.0-10.0-0.3","vthrokdv3a","many_one","0","direct_first","1","er06us26","0","20","1","1","3","1","","0","1","0","null","","","<div style=""font-size:60px;"">+</div>","null","","","","","","","","","",""
"","html-keyboard-response","152","592222","0.0-10.0-1.3","vthrokdv3a","many_one","0","direct_first","1","er06us26","0","20","1","1","3","1","","0","1","0","null","","","<img src = 'category4/CS6.png' width = '100%;'>","null","","","","","","","","","",""
"","html-keyboard-response","153","592474","0.0-10.0-2.3","vthrokdv3a","many_one","0","direct_first","1","er06us26","0","20","1","1","3","1","","0","1","0","null","","","<img src = 'targets/41.png' width = '100%;'>","null","","","","","","","","","",""
"","html-keyboard-response","154","593198","0.0-10.0-3.3","vthrokdv3a","many_one","0","direct_first","1","er06us26","0","20","1","1","3","1","","0","1","0","723.6399999965215","","","<img src = 'targets/mask.png' width = '100%;'>","68","pos","GS","GSold","4","category4/CS6.png","","targets/41.png","indirect","0","3"
"","html-keyboard-response","155","594701","0.0-10.0-0.4","vthrokdv3a","many_one","0","direct_first","1","er06us26","0","20","1","1","3","1","","0","1","0","null","","","<div style=""font-size:60px;"">+</div>","null","","","","","","","","","",""
"","html-keyboard-response","156","594793","0.0-10.0-1.4","vthrokdv3a","many_one","0","direct_first","1","er06us26","0","20","1","1","3","1","","0","1","0","null","","","<img src = 'category3/CS6.png' width = '100%;'>","null","","","","","","","","","",""
"","html-keyboard-response","157","595044","0.0-10.0-2.4","vthrokdv3a","many_one","0","direct_first","1","er06us26","0","20","1","1","3","1","","0","1","0","null","","","<img src = 'targets/47.png' width = '100%;'>","null","","","","","","","","","",""
"","html-keyboard-response","158","596541","0.0-10.0-3.4","vthrokdv3a","many_one","0","direct_first","1","er06us26","0","20","1","1","3","1","","0","1","0","1494.155000007595","","","<img src = 'targets/mask.png' width = '100%;'>","75","pos","CS","CS","3","category3/CS6.png","","targets/47.png","indirect","1","4"
"","html-keyboard-response","159","598043","0.0-10.0-0.5","vthrokdv3a","many_one","0","direct_first","1","er06us26","0","20","1","1","3","1","","0","1","0","null","","","<div style=""font-size:60px;"">+</div>","null","","","","","","","","","",""
"","html-keyboard-response","160","598135","0.0-10.0-1.5","vthrokdv3a","many_one","0","direct_first","1","er06us26","0","20","1","1","3","1","","0","1","0","null","","","<img src = 'category4/CS5.png' width = '100%;'>","null","","","","","","","","","",""
"","html-keyboard-response","161","598389","0.0-10.0-2.5","vthrokdv3a","many_one","0","direct_first","1","er06us26","0","20","1","1","3","1","","0","1","0","null","","","<img src = 'targets/21.png' width = '100%;'>","null","","","","","","","","","",""
"","html-keyboard-response","162","599199","0.0-10.0-3.5","vthrokdv3a","many_one","0","direct_first","1","er06us26","0","20","1","1","3","1","","0","1","0","809.0850000007777","","","<img src = 'targets/mask.png' width = '100%;'>","68","pos","CS","CS","4","category4/CS5.png","","targets/21.png","indirect","0","5"
"","html-keyboard-response","163","600701","0.0-10.0-0.6","vthrokdv3a","many_one","0","direct_first","1","er06us26","0","20","1","1","3","1","","0","1","0","null","","","<div style=""font-size:60px;"">+</div>","null","","","","","","","","","",""
"","html-keyboard-response","164","600792","0.0-10.0-1.6","vthrokdv3a","many_one","0","direct_first","1","er06us26","0","20","1","1","3","1","","0","1","0","null","","","<img src = 'category3/CS7.png' width = '100%;'>","null","","","","","","","","","",""
"","html-keyboard-response","165","601046","0.0-10.0-2.6","vthrokdv3a","many_one","0","direct_first","1","er06us26","0","20","1","1","3","1","","0","1","0","null","","","<img src = 'targets/11.png' width = '100%;'>","null","","","","","","","","","",""
"","html-keyboard-response","166","601918","0.0-10.0-3.6","vthrokdv3a","many_one","0","direct_first","1","er06us26","0","20","1","1","3","1","","0","1","0","871.7200000101002","","","<img src = 'targets/mask.png' width = '100%;'>","68","pos","CS","CS","3","category3/CS7.png","","targets/11.png","indirect","0","6"
"","html-keyboard-response","167","603420","0.0-10.0-0.7","vthrokdv3a","many_one","0","direct_first","1","er06us26","0","20","1","1","3","1","","0","1","0","null","","","<div style=""font-size:60px;"">+</div>","null","","","","","","","","","",""
"","html-keyboard-response","168","603513","0.0-10.0-1.7","vthrokdv3a","many_one","0","direct_first","1","er06us26","0","20","1","1","3","1","","0","1","0","null","","","<img src = 'category1/CS8.png' width = '100%;'>","null","","","","","","","","","",""
"","html-keyboard-response","169","603765","0.0-10.0-2.7","vthrokdv3a","many_one","0","direct_first","1","er06us26","0","20","1","1","3","1","","0","1","0","null","","","<img src = 'targets/27.png' width = '100%;'>","null","","","","","","","","","",""
"","html-keyboard-response","170","604519","0.0-10.0-3.7","vthrokdv3a","many_one","0","direct_first","1","er06us26","0","20","1","1","3","1","","0","1","0","752.2600000083912","","","<img src = 'targets/mask.png' width = '100%;'>","68","neg","CS","CS","1","category1/CS8.png","","targets/27.png","indirect","0","7"
"","html-keyboard-response","171","606020","0.0-10.0-0.8","vthrokdv3a","many_one","0","direct_first","1","er06us26","0","20","1","1","3","1","","0","1","0","null","","","<div style=""font-size:60px;"">+</div>","null","","","","","","","","","",""
"","html-keyboard-response","172","606112","0.0-10.0-1.8","vthrokdv3a","many_one","0","direct_first","1","er06us26","0","20","1","1","3","1","","0","1","0","null","","","<img src = 'category3/CS3.png' width = '100%;'>","null","","","","","","","","","",""
"","html-keyboard-response","173","606365","0.0-10.0-2.8","vthrokdv3a","many_one","0","direct_first","1","er06us26","0","20","1","1","3","1","","0","1","0","null","","","<img src = 'targets/18.png' width = '100%;'>","null","","","","","","","","","",""
"","html-keyboard-response","174","607551","0.0-10.0-3.8","vthrokdv3a","many_one","0","direct_first","1","er06us26","0","20","1","1","3","1","","0","1","0","1185.0650000124006","","","<img src = 'targets/mask.png' width = '100%;'>","75","pos","CS","CS","3","category3/CS3.png","","targets/18.png","indirect","1","8"
"","html-keyboard-response","175","609053","0.0-10.0-0.9","vthrokdv3a","many_one","0","direct_first","1","er06us26","0","20","1","1","3","1","","0","1","0","null","","","<div style=""font-size:60px;"">+</div>","null","","","","","","","","","",""
"","html-keyboard-response","176","609144","0.0-10.0-1.9","vthrokdv3a","many_one","0","direct_first","1","er06us26","0","20","1","1","3","1","","0","1","0","null","","","<img src = 'category1/CS2.png' width = '100%;'>","null","","","","","","","","","",""
"","html-keyboard-response","177","609396","0.0-10.0-2.9","vthrokdv3a","many_one","0","direct_first","1","er06us26","0","20","1","1","3","1","","0","1","0","null","","","<img src = 'targets/2.png' width = '100%;'>","null","","","","","","","","","",""
"","html-keyboard-response","178","611339","0.0-10.0-3.9","vthrokdv3a","many_one","0","direct_first","1","er06us26","0","20","1","1","3","1","","0","1","0","1940.7149999897229","","","<img src = 'targets/mask.png' width = '100%;'>","68","neg","CS","CS","1","category1/CS2.png","","targets/2.png","indirect","0","9"
"","html-keyboard-response","179","612841","0.0-10.0-0.10","vthrokdv3a","many_one","0","direct_first","1","er06us26","0","20","1","1","3","1","","0","1","0","null","","","<div style=""font-size:60px;"">+</div>","null","","","","","","","","","",""
"","html-keyboard-response","180","612932","0.0-10.0-1.10","vthrokdv3a","many_one","0","direct_first","1","er06us26","0","20","1","1","3","1","","0","1","0","null","","","<img src = 'category3/CS9.png' width = '100%;'>","null","","","","","","","","","",""
"","html-keyboard-response","181","613184","0.0-10.0-2.10","vthrokdv3a","many_one","0","direct_first","1","er06us26","0","20","1","1","3","1","","0","1","0","null","","","<img src = 'targets/19.png' width = '100%;'>","null","","","","","","","","","",""
"","html-keyboard-response","182","613790","0.0-10.0-3.10","vthrokdv3a","many_one","0","direct_first","1","er06us26","0","20","1","1","3","1","","0","1","0","604.4499999989057","","","<img src = 'targets/mask.png' width = '100%;'>","75","pos","CS","CS","3","category3/CS9.png","","targets/19.png","indirect","1","10"
"","html-keyboard-response","183","615292","0.0-10.0-0.11","vthrokdv3a","many_one","0","direct_first","1","er06us26","0","20","1","1","3","1","","0","1","0","null","","","<div style=""font-size:60px;"">+</div>","null","","","","","","","","","",""
"","html-keyboard-response","184","615383","0.0-10.0-1.11","vthrokdv3a","many_one","0","direct_first","1","er06us26","0","20","1","1","3","1","","0","1","0","null","","","<img src = 'category4/CS3.png' width = '100%;'>","null","","","","","","","","","",""
"","html-keyboard-response","185","615636","0.0-10.0-2.11","vthrokdv3a","many_one","0","direct_first","1","er06us26","0","20","1","1","3","1","","0","1","0","null","","","<img src = 'targets/26.png' width = '100%;'>","null","","","","","","","","","",""
"","html-keyboard-response","186","616190","0.0-10.0-3.11","vthrokdv3a","many_one","0","direct_first","1","er06us26","0","20","1","1","3","1","","0","1","0","552.4850000074366","","","<img src = 'targets/mask.png' width = '100%;'>","75","pos","CS","CS","4","category4/CS3.png","","targets/26.png","indirect","1","11"
"","html-keyboard-response","187","617691","0.0-10.0-0.12","vthrokdv3a","many_one","0","direct_first","1","er06us26","0","20","1","1","3","1","","0","1","0","null","","","<div style=""font-size:60px;"">+</div>","null","","","","","","","","","",""
"","html-keyboard-response","188","617783","0.0-10.0-1.12","vthrokdv3a","many_one","0","direct_first","1","er06us26","0","20","1","1","3","1","","0","1","0","null","","","<img src = 'category4/CS8.png' width = '100%;'>","null","","","","","","","","","",""
"","html-keyboard-response","189","618036","0.0-10.0-2.12","vthrokdv3a","many_one","0","direct_first","1","er06us26","0","20","1","1","3","1","","0","1","0","null","","","<img src = 'targets/5.png' width = '100%;'>","null","","","","","","","","","",""
"","html-keyboard-response","190","618602","0.0-10.0-3.12","vthrokdv3a","many_one","0","direct_first","1","er06us26","0","20","1","1","3","1","","0","1","0","565.1050000014948","","","<img src = 'targets/mask.png' width = '100%;'>","68","pos","CS","CS","4","category4/CS8.png","","targets/5.png","indirect","0","12"
"","html-keyboard-response","191","620104","0.0-10.0-0.13","vthrokdv3a","many_one","0","direct_first","1","er06us26","0","20","1","1","3","1","","0","1","0","null","","","<div style=""font-size:60px;"">+</div>","null","","","","","","","","","",""
"","html-keyboard-response","192","620195","0.0-10.0-1.13","vthrokdv3a","many_one","0","direct_first","1","er06us26","0","20","1","1","3","1","","0","1","0","null","","","<img src = 'category4/CS4.png' width = '100%;'>","null","","","","","","","","","",""
"","html-keyboard-response","193","620447","0.0-10.0-2.13","vthrokdv3a","many_one","0","direct_first","1","er06us26","0","20","1","1","3","1","","0","1","0","null","","","<img src = 'targets/25.png' width = '100%;'>","null","","","","","","","","","",""
"","html-keyboard-response","194","620980","0.0-10.0-3.13","vthrokdv3a","many_one","0","direct_first","1","er06us26","0","20","1","1","3","1","","0","1","0","532.5250000023516","","","<img src = 'targets/mask.png' width = '100%;'>","75","pos","CS","CS","4","category4/CS4.png","","targets/25.png","indirect","1","13"
"","html-keyboard-response","195","622482","0.0-10.0-0.14","vthrokdv3a","many_one","0","direct_first","1","er06us26","0","20","1","1","3","1","","0","1","0","null","","","<div style=""font-size:60px;"">+</div>","null","","","","","","","","","",""
"","html-keyboard-response","196","622574","0.0-10.0-1.14","vthrokdv3a","many_one","0","direct_first","1","er06us26","0","20","1","1","3","1","","0","1","0","null","","","<img src = 'category1/CS7.png' width = '100%;'>","null","","","","","","","","","",""
"","html-keyboard-response","197","622827","0.0-10.0-2.14","vthrokdv3a","many_one","0","direct_first","1","er06us26","0","20","1","1","3","1","","0","1","0","null","","","<img src = 'targets/20.png' width = '100%;'>","null","","","","","","","","","",""
"","html-keyboard-response","198","623430","0.0-10.0-3.14","vthrokdv3a","many_one","0","direct_first","1","er06us26","0","20","1","1","3","1","","0","1","0","601.1900000012247","","","<img src = 'targets/mask.png' width = '100%;'>","75","neg","CS","CS","1","category1/CS7.png","","targets/20.png","indirect","1","14"
"","html-keyboard-response","199","624931","0.0-10.0-0.15","vthrokdv3a","many_one","0","direct_first","1","er06us26","0","20","1","1","3","1","","0","1","0","null","","","<div style=""font-size:60px;"">+</div>","null","","","","","","","","","",""
"","html-keyboard-response","200","625023","0.0-10.0-1.15","vthrokdv3a","many_one","0","direct_first","1","er06us26","0","20","1","1","3","1","","0","1","0","null","","","<img src = 'category2/CS8.png' width = '100%;'>","null","","","","","","","","","",""
"","html-keyboard-response","201","625275","0.0-10.0-2.15","vthrokdv3a","many_one","0","direct_first","1","er06us26","0","20","1","1","3","1","","0","1","0","null","","","<img src = 'targets/14.png' width = '100%;'>","null","","","","","","","","","",""
"","html-keyboard-response","202","625819","0.0-10.0-3.15","vthrokdv3a","many_one","0","direct_first","1","er06us26","0","20","1","1","3","1","","0","1","0","542.4449999991339","","","<img src = 'targets/mask.png' width = '100%;'>","68","neg","GS","GSold","2","category2/CS8.png","","targets/14.png","indirect","0","15"
"","html-keyboard-response","203","627321","0.0-10.0-0.16","vthrokdv3a","many_one","0","direct_first","1","er06us26","0","20","1","1","3","1","","0","1","0","null","","","<div style=""font-size:60px;"">+</div>","null","","","","","","","","","",""
"","html-keyboard-response","204","627412","0.0-10.0-1.16","vthrokdv3a","many_one","0","direct_first","1","er06us26","0","20","1","1","3","1","","0","1","0","null","","","<img src = 'category2/CS1.png' width = '100%;'>","null","","","","","","","","","",""
"","html-keyboard-response","205","627664","0.0-10.0-2.16","vthrokdv3a","many_one","0","direct_first","1","er06us26","0","20","1","1","3","1","","0","1","0","null","","","<img src = 'targets/4.png' width = '100%;'>","null","","","","","","","","","",""
"","html-keyboard-response","206","628430","0.0-10.0-3.16","vthrokdv3a","many_one","0","direct_first","1","er06us26","0","20","1","1","3","1","","0","1","0","765.1949999999488","","","<img src = 'targets/mask.png' width = '100%;'>","75","neg","CS","CS","2","category2/CS1.png","","targets/4.png","indirect","1","16"
"","html-keyboard-response","207","629932","0.0-10.0-0.17","vthrokdv3a","many_one","0","direct_first","1","er06us26","0","20","1","1","3","1","","0","1","0","null","","","<div style=""font-size:60px;"">+</div>","null","","","","","","","","","",""
"","html-keyboard-response","208","630024","0.0-10.0-1.17","vthrokdv3a","many_one","0","direct_first","1","er06us26","0","20","1","1","3","1","","0","1","0","null","","","<img src = 'category3/CS5.png' width = '100%;'>","null","","","","","","","","","",""
"","html-keyboard-response","209","630274","0.0-10.0-2.17","vthrokdv3a","many_one","0","direct_first","1","er06us26","0","20","1","1","3","1","","0","1","0","null","","","<img src = 'targets/46.png' width = '100%;'>","null","","","","","","","","","",""
"","html-keyboard-response","210","631402","0.0-10.0-3.17","vthrokdv3a","many_one","0","direct_first","1","er06us26","0","20","1","1","3","1","","0","1","0","1126.2149999965914","","","<img src = 'targets/mask.png' width = '100%;'>","75","pos","CS","CS","3","category3/CS5.png","","targets/46.png","indirect","1","17"
"","html-keyboard-response","211","632903","0.0-10.0-0.18","vthrokdv3a","many_one","0","direct_first","1","er06us26","0","20","1","1","3","1","","0","1","0","null","","","<div style=""font-size:60px;"">+</div>","null","","","","","","","","","",""
"","html-keyboard-response","212","632995","0.0-10.0-1.18","vthrokdv3a","many_one","0","direct_first","1","er06us26","0","20","1","1","3","1","","0","1","0","null","","","<img src = 'category2/CS7.png' width = '100%;'>","null","","","","","","","","","",""
"","html-keyboard-response","213","633247","0.0-10.0-2.18","vthrokdv3a","many_one","0","direct_first","1","er06us26","0","20","1","1","3","1","","0","1","0","null","","","<img src = 'targets/6.png' width = '100%;'>","null","","","","","","","","","",""
"","html-keyboard-response","214","633650","0.0-10.0-3.18","vthrokdv3a","many_one","0","direct_first","1","er06us26","0","20","1","1","3","1","","0","1","0","400.80000000307336","","","<img src = 'targets/mask.png' width = '100%;'>","68","neg","CS","CS","2","category2/CS7.png","","targets/6.png","indirect","0","18"
"","html-keyboard-response","215","635151","0.0-10.0-0.19","vthrokdv3a","many_one","0","direct_first","1","er06us26","0","20","1","1","3","1","","0","1","0","null","","","<div style=""font-size:60px;"">+</div>","null","","","","","","","","","",""
"","html-keyboard-response","216","635243","0.0-10.0-1.19","vthrokdv3a","many_one","0","direct_first","1","er06us26","0","20","1","1","3","1","","0","1","0","null","","","<img src = 'category2/CS9.png' width = '100%;'>","null","","","","","","","","","",""
"","html-keyboard-response","217","635496","0.0-10.0-2.19","vthrokdv3a","many_one","0","direct_first","1","er06us26","0","20","1","1","3","1","","0","1","0","null","","","<img src = 'targets/7.png' width = '100%;'>","null","","","","","","","","","",""
"","html-keyboard-response","218","635910","0.0-10.0-3.19","vthrokdv3a","many_one","0","direct_first","1","er06us26","0","20","1","1","3","1","","0","1","0","413.1349999952363","","","<img src = 'targets/mask.png' width = '100%;'>","68","neg","GS","GSold","2","category2/CS9.png","","targets/7.png","indirect","0","19"
"","html-keyboard-response","219","637412","0.0-10.0-0.20","vthrokdv3a","many_one","0","direct_first","1","er06us26","0","20","1","1","3","1","","0","1","0","null","","","<div style=""font-size:60px;"">+</div>","null","","","","","","","","","",""
"","html-keyboard-response","220","637503","0.0-10.0-1.20","vthrokdv3a","many_one","0","direct_first","1","er06us26","0","20","1","1","3","1","","0","1","0","null","","","<img src = 'category2/CS3.png' width = '100%;'>","null","","","","","","","","","",""
"","html-keyboard-response","221","637756","0.0-10.0-2.20","vthrokdv3a","many_one","0","direct_first","1","er06us26","0","20","1","1","3","1","","0","1","0","null","","","<img src = 'targets/22.png' width = '100%;'>","null","","","","","","","","","",""
"","html-keyboard-response","222","638700","0.0-10.0-3.20","vthrokdv3a","many_one","0","direct_first","1","er06us26","0","20","1","1","3","1","","0","1","0","942.7750000031665","","","<img src = 'targets/mask.png' width = '100%;'>","75","neg","CS","CS","2","category2/CS3.png","","targets/22.png","indirect","1","20"
"","html-keyboard-response","223","640202","0.0-10.0-0.21","vthrokdv3a","many_one","0","direct_first","1","er06us26","0","20","1","1","3","1","","0","1","0","null","","","<div style=""font-size:60px;"">+</div>","null","","","","","","","","","",""
"","html-keyboard-response","224","640294","0.0-10.0-1.21","vthrokdv3a","many_one","0","direct_first","1","er06us26","0","20","1","1","3","1","","0","1","0","null","","","<img src = 'category2/CS6.png' width = '100%;'>","null","","","","","","","","","",""
"","html-keyboard-response","225","640547","0.0-10.0-2.21","vthrokdv3a","many_one","0","direct_first","1","er06us26","0","20","1","1","3","1","","0","1","0","null","","","<img src = 'targets/13.png' width = '100%;'>","null","","","","","","","","","",""
"","html-keyboard-response","226","641340","0.0-10.0-3.21","vthrokdv3a","many_one","0","direct_first","1","er06us26","0","20","1","1","3","1","","0","1","0","791.5999999968335","","","<img src = 'targets/mask.png' width = '100%;'>","75","neg","CS","CS","2","category2/CS6.png","","targets/13.png","indirect","1","21"
"","html-keyboard-response","227","642842","0.0-10.0-0.22","vthrokdv3a","many_one","0","direct_first","1","er06us26","0","20","1","1","3","1","","0","1","0","null","","","<div style=""font-size:60px;"">+</div>","null","","","","","","","","","",""
"","html-keyboard-response","228","642934","0.0-10.0-1.22","vthrokdv3a","many_one","0","direct_first","1","er06us26","0","20","1","1","3","1","","0","1","0","null","","","<img src = 'category1/CS3.png' width = '100%;'>","null","","","","","","","","","",""
"","html-keyboard-response","229","643187","0.0-10.0-2.22","vthrokdv3a","many_one","0","direct_first","1","er06us26","0","20","1","1","3","1","","0","1","0","null","","","<img src = 'targets/10.png' width = '100%;'>","null","","","","","","","","","",""
"","html-keyboard-response","230","643482","0.0-10.0-3.22","vthrokdv3a","many_one","0","direct_first","1","er06us26","0","20","1","1","3","1","","0","1","0","293.7999999994645","","","<img src = 'targets/mask.png' width = '100%;'>","75","neg","CS","CS","1","category1/CS3.png","","targets/10.png","indirect","1","22"
"","html-keyboard-response","231","644985","0.0-10.0-0.23","vthrokdv3a","many_one","0","direct_first","1","er06us26","0","20","1","1","3","1","","0","1","0","null","","","<div style=""font-size:60px;"">+</div>","null","","","","","","","","","",""
"","html-keyboard-response","232","645076","0.0-10.0-1.23","vthrokdv3a","many_one","0","direct_first","1","er06us26","0","20","1","1","3","1","","0","1","0","null","","","<img src = 'category4/CS7.png' width = '100%;'>","null","","","","","","","","","",""
"","html-keyboard-response","233","645328","0.0-10.0-2.23","vthrokdv3a","many_one","0","direct_first","1","er06us26","0","20","1","1","3","1","","0","1","0","null","","","<img src = 'targets/42.png' width = '100%;'>","null","","","","","","","","","",""
"","html-keyboard-response","234","645860","0.0-10.0-3.23","vthrokdv3a","many_one","0","direct_first","1","er06us26","0","20","1","1","3","1","","0","1","0","531.0699999972712","","","<img src = 'targets/mask.png' width = '100%;'>","68","pos","CS","CS","4","category4/CS7.png","","targets/42.png","indirect","0","23"
"","survey-html-form","235","649238","0.0-11.0","vthrokdv3a","many_one","0","direct_first","1","er06us26","0","20","1","1","3","1","","0","1","0","2876.9800000009127","","{}","","","","","","","","","","","",""
"","html-keyboard-response","236","652240","0.0-12.0-0.0","vthrokdv3a","many_one","0","direct_first","1","er06us26","0","20","1","1","3","1","","0","1","0","null","","","<div style=""font-size:60px;"">+</div>","null","","","","","","","","","",""
"","html-keyboard-response","237","652331","0.0-12.0-1.0","vthrokdv3a","many_one","0","direct_first","1","er06us26","0","20","1","1","3","1","","0","1","0","null","","","<img src = 'category2/GS1.png' width = '100%;'>","null","","","","","","","","","",""
"","html-keyboard-response","238","652584","0.0-12.0-2.0","vthrokdv3a","many_one","0","direct_first","1","er06us26","0","20","1","1","3","1","","0","1","0","null","","","<img src = 'targets/30.png' width = '100%;'>","null","","","","","","","","","",""
"","html-keyboard-response","239","653480","0.0-12.0-3.0","vthrokdv3a","many_one","0","direct_first","1","er06us26","0","20","1","1","3","1","","0","1","0","894.3949999957113","","","<img src = 'targets/mask.png' width = '100%;'>","68","neg","GS","GSnew","2","category2/GS1.png","","targets/30.png","indirect","0","24"
"","html-keyboard-response","240","654981","0.0-12.0-0.1","vthrokdv3a","many_one","0","direct_first","1","er06us26","0","20","1","1","3","1","","0","1","0","null","","","<div style=""font-size:60px;"">+</div>","null","","","","","","","","","",""
"","html-keyboard-response","241","655074","0.0-12.0-1.1","vthrokdv3a","many_one","0","direct_first","1","er06us26","0","20","1","1","3","1","","0","1","0","null","","","<img src = 'category4/GS3.png' width = '100%;'>","null","","","","","","","","","",""
"","html-keyboard-response","242","655327","0.0-12.0-2.1","vthrokdv3a","many_one","0","direct_first","1","er06us26","0","20","1","1","3","1","","0","1","0","null","","","<img src = 'targets/17.png' width = '100%;'>","null","","","","","","","","","",""
"","html-keyboard-response","243","655822","0.0-12.0-3.1","vthrokdv3a","many_one","0","direct_first","1","er06us26","0","20","1","1","3","1","","0","1","0","493.87999999453314","","","<img src = 'targets/mask.png' width = '100%;'>","75","pos","GS","GSnew","4","category4/GS3.png","","targets/17.png","indirect","1","25"
"","html-keyboard-response","244","657324","0.0-12.0-0.2","vthrokdv3a","many_one","0","direct_first","1","er06us26","0","20","1","1","3","1","","0","1","0","null","","","<div style=""font-size:60px;"">+</div>","null","","","","","","","","","",""
"","html-keyboard-response","245","657416","0.0-12.0-1.2","vthrokdv3a","many_one","0","direct_first","1","er06us26","0","20","1","1","3","1","","0","1","0","null","","","<img src = 'category3/GS1.png' width = '100%;'>","null","","","","","","","","","",""
"","html-keyboard-response","246","657669","0.0-12.0-2.2","vthrokdv3a","many_one","0","direct_first","1","er06us26","0","20","1","1","3","1","","0","1","0","null","","","<img src = 'targets/34.png' width = '100%;'>","null","","","","","","","","","",""
"","html-keyboard-response","247","658090","0.0-12.0-3.2","vthrokdv3a","many_one","0","direct_first","1","er06us26","0","20","1","1","3","1","","0","1","0","419.82500000449363","","","<img src = 'targets/mask.png' width = '100%;'>","68","pos","GS","GSnew","3","category3/GS1.png","","targets/34.png","indirect","0","26"
"","html-keyboard-response","248","659592","0.0-12.0-0.3","vthrokdv3a","many_one","0","direct_first","1","er06us26","0","20","1","1","3","1","","0","1","0","null","","","<div style=""font-size:60px;"">+</div>","null","","","","","","","","","",""
"","html-keyboard-response","249","659683","0.0-12.0-1.3","vthrokdv3a","many_one","0","direct_first","1","er06us26","0","20","1","1","3","1","","0","1","0","null","","","<img src = 'category4/lin.png' width = '100%;'>","null","","","","","","","","","",""
"","html-keyboard-response","250","659936","0.0-12.0-2.3","vthrokdv3a","many_one","0","direct_first","1","er06us26","0","20","1","1","3","1","","0","1","0","null","","","<img src = 'targets/8.png' width = '100%;'>","null","","","","","","","","","",""
"","html-keyboard-response","251","660600","0.0-12.0-3.3","vthrokdv3a","many_one","0","direct_first","1","er06us26","0","20","1","1","3","1","","0","1","0","662.4199999932898","","","<img src = 'targets/mask.png' width = '100%;'>","75","pos","GS","abstract","4","category4/lin.png","","targets/8.png","indirect","1","27"
"","html-keyboard-response","252","662103","0.0-12.0-0.4","vthrokdv3a","many_one","0","direct_first","1","er06us26","0","20","1","1","3","1","","0","1","0","null","","","<div style=""font-size:60px;"">+</div>","null","","","","","","","","","",""
"","html-keyboard-response","253","662194","0.0-12.0-1.4","vthrokdv3a","many_one","0","direct_first","1","er06us26","0","20","1","1","3","1","","0","1","0","null","","","<img src = 'category1/ma.png' width = '100%;'>","null","","","","","","","","","",""
"","html-keyboard-response","254","662447","0.0-12.0-2.4","vthrokdv3a","many_one","0","direct_first","1","er06us26","0","20","1","1","3","1","","0","1","0","null","","","<img src = 'targets/3.png' width = '100%;'>","null","","","","","","","","","",""
"","html-keyboard-response","255","662840","0.0-12.0-3.4","vthrokdv3a","many_one","0","direct_first","1","er06us26","0","20","1","1","3","1","","0","1","0","392.0099999959348","","","<img src = 'targets/mask.png' width = '100%;'>","68","neg","GS","abstract","1","category1/ma.png","","targets/3.png","indirect","0","28"
"","html-keyboard-response","256","664342","0.0-12.0-0.5","vthrokdv3a","many_one","0","direct_first","1","er06us26","0","20","1","1","3","1","","0","1","0","null","","","<div style=""font-size:60px;"">+</div>","null","","","","","","","","","",""
"","html-keyboard-response","257","664433","0.0-12.0-1.5","vthrokdv3a","many_one","0","direct_first","1","er06us26","0","20","1","1","3","1","","0","1","0","null","","","<img src = 'category3/CS10.png' width = '100%;'>","null","","","","","","","","","",""
"","html-keyboard-response","258","664685","0.0-12.0-2.5","vthrokdv3a","many_one","0","direct_first","1","er06us26","0","20","1","1","3","1","","0","1","0","null","","","<img src = 'targets/40.png' width = '100%;'>","null","","","","","","","","","",""
"","html-keyboard-response","259","665010","0.0-12.0-3.5","vthrokdv3a","many_one","0","direct_first","1","er06us26","0","20","1","1","3","1","","0","1","0","324.07999999122694","","","<img src = 'targets/mask.png' width = '100%;'>","75","pos","GS","GSold","3","category3/CS10.png","","targets/40.png","indirect","1","29"
"","html-keyboard-response","260","666512","0.0-12.0-0.6","vthrokdv3a","many_one","0","direct_first","1","er06us26","0","20","1","1","3","1","","0","1","0","null","","","<div style=""font-size:60px;"">+</div>","null","","","","","","","","","",""
"","html-keyboard-response","261","666605","0.0-12.0-1.6","vthrokdv3a","many_one","0","direct_first","1","er06us26","0","20","1","1","3","1","","0","1","0","null","","","<img src = 'category2/GS2.png' width = '100%;'>","null","","","","","","","","","",""
"","html-keyboard-response","262","666858","0.0-12.0-2.6","vthrokdv3a","many_one","0","direct_first","1","er06us26","0","20","1","1","3","1","","0","1","0","null","","","<img src = 'targets/29.png' width = '100%;'>","null","","","","","","","","","",""
"","html-keyboard-response","263","667352","0.0-12.0-3.6","vthrokdv3a","many_one","0","direct_first","1","er06us26","0","20","1","1","3","1","","0","1","0","492.3200000048382","","","<img src = 'targets/mask.png' width = '100%;'>","68","neg","GS","GSnew","2","category2/GS2.png","","targets/29.png","indirect","0","30"
"","html-keyboard-response","264","668855","0.0-12.0-0.7","vthrokdv3a","many_one","0","direct_first","1","er06us26","0","20","1","1","3","1","","0","1","0","null","","","<div style=""font-size:60px;"">+</div>","null","","","","","","","","","",""
"","html-keyboard-response","265","668946","0.0-12.0-1.7","vthrokdv3a","many_one","0","direct_first","1","er06us26","0","20","1","1","3","1","","0","1","0","null","","","<img src = 'category1/GS3.png' width = '100%;'>","null","","","","","","","","","",""
"","html-keyboard-response","266","669199","0.0-12.0-2.7","vthrokdv3a","many_one","0","direct_first","1","er06us26","0","20","1","1","3","1","","0","1","0","null","","","<img src = 'targets/39.png' width = '100%;'>","null","","","","","","","","","",""
"","html-keyboard-response","267","669930","0.0-12.0-3.7","vthrokdv3a","many_one","0","direct_first","1","er06us26","0","20","1","1","3","1","","0","1","0","729.8500000033528","","","<img src = 'targets/mask.png' width = '100%;'>","68","neg","GS","GSnew","1","category1/GS3.png","","targets/39.png","indirect","0","31"
"","html-keyboard-response","268","671431","0.0-12.0-0.8","vthrokdv3a","many_one","0","direct_first","1","er06us26","0","20","1","1","3","1","","0","1","0","null","","","<div style=""font-size:60px;"">+</div>","null","","","","","","","","","",""
"","html-keyboard-response","269","671523","0.0-12.0-1.8","vthrokdv3a","many_one","0","direct_first","1","er06us26","0","20","1","1","3","1","","0","1","0","null","","","<img src = 'category2/GS3.png' width = '100%;'>","null","","","","","","","","","",""
"","html-keyboard-response","270","671776","0.0-12.0-2.8","vthrokdv3a","many_one","0","direct_first","1","er06us26","0","20","1","1","3","1","","0","1","0","null","","","<img src = 'targets/32.png' width = '100%;'>","null","","","","","","","","","",""
"","html-keyboard-response","271","673061","0.0-12.0-3.8","vthrokdv3a","many_one","0","direct_first","1","er06us26","0","20","1","1","3","1","","0","1","0","1283.6299999908078","","","<img src = 'targets/mask.png' width = '100%;'>","75","neg","GS","GSnew","2","category2/GS3.png","","targets/32.png","indirect","1","32"
"","html-keyboard-response","272","674563","0.0-12.0-0.9","vthrokdv3a","many_one","0","direct_first","1","er06us26","0","20","1","1","3","1","","0","1","0","null","","","<div style=""font-size:60px;"">+</div>","null","","","","","","","","","",""
"","html-keyboard-response","273","674655","0.0-12.0-1.9","vthrokdv3a","many_one","0","direct_first","1","er06us26","0","20","1","1","3","1","","0","1","0","null","","","<img src = 'category4/GS2.png' width = '100%;'>","null","","","","","","","","","",""
"","html-keyboard-response","274","674908","0.0-12.0-2.9","vthrokdv3a","many_one","0","direct_first","1","er06us26","0","20","1","1","3","1","","0","1","0","null","","","<img src = 'targets/37.png' width = '100%;'>","null","","","","","","","","","",""
"","html-keyboard-response","275","675251","0.0-12.0-3.9","vthrokdv3a","many_one","0","direct_first","1","er06us26","0","20","1","1","3","1","","0","1","0","341.3799999980256","","","<img src = 'targets/mask.png' width = '100%;'>","75","pos","GS","GSnew","4","category4/GS2.png","","targets/37.png","indirect","1","33"
"","html-keyboard-response","276","676752","0.0-12.0-0.10","vthrokdv3a","many_one","0","direct_first","1","er06us26","0","20","1","1","3","1","","0","1","0","null","","","<div style=""font-size:60px;"">+</div>","null","","","","","","","","","",""
"","html-keyboard-response","277","676844","0.0-12.0-1.10","vthrokdv3a","many_one","0","direct_first","1","er06us26","0","20","1","1","3","1","","0","1","0","null","","","<img src = 'category1/GS1.png' width = '100%;'>","null","","","","","","","","","",""
"","html-keyboard-response","278","677096","0.0-12.0-2.10","vthrokdv3a","many_one","0","direct_first","1","er06us26","0","20","1","1","3","1","","0","1","0","null","","","<img src = 'targets/12.png' width = '100%;'>","null","","","","","","","","","",""
"","html-keyboard-response","279","677510","0.0-12.0-3.10","vthrokdv3a","many_one","0","direct_first","1","er06us26","0","20","1","1","3","1","","0","1","0","412.8950000012992","","","<img src = 'targets/mask.png' width = '100%;'>","68","neg","GS","GSnew","1","category1/GS1.png","","targets/12.png","indirect","0","34"
"","html-keyboard-response","280","679012","0.0-12.0-0.11","vthrokdv3a","many_one","0","direct_first","1","er06us26","0","20","1","1","3","1","","0","1","0","null","","","<div style=""font-size:60px;"">+</div>","null","","","","","","","","","",""
"","html-keyboard-response","281","679104","0.0-12.0-1.11","vthrokdv3a","many_one","0","direct_first","1","er06us26","0","20","1","1","3","1","","0","1","0","null","","","<img src = 'category1/GS2.png' width = '100%;'>","null","","","","","","","","","",""
"","html-keyboard-response","282","679356","0.0-12.0-2.11","vthrokdv3a","many_one","0","direct_first","1","er06us26","0","20","1","1","3","1","","0","1","0","null","","","<img src = 'targets/28.png' width = '100%;'>","null","","","","","","","","","",""
"","html-keyboard-response","283","679970","0.0-12.0-3.11","vthrokdv3a","many_one","0","direct_first","1","er06us26","0","20","1","1","3","1","","0","1","0","612.7449999912642","","","<img src = 'targets/mask.png' width = '100%;'>","75","neg","GS","GSnew","1","category1/GS2.png","","targets/28.png","indirect","1","35"
"","html-keyboard-response","284","681473","0.0-12.0-0.12","vthrokdv3a","many_one","0","direct_first","1","er06us26","0","20","1","1","3","1","","0","1","0","null","","","<div style=""font-size:60px;"">+</div>","null","","","","","","","","","",""
"","html-keyboard-response","285","681565","0.0-12.0-1.12","vthrokdv3a","many_one","0","direct_first","1","er06us26","0","20","1","1","3","1","","0","1","0","null","","","<img src = 'category1/CS6.png' width = '100%;'>","null","","","","","","","","","",""
"","html-keyboard-response","286","681818","0.0-12.0-2.12","vthrokdv3a","many_one","0","direct_first","1","er06us26","0","20","1","1","3","1","","0","1","0","null","","","<img src = 'targets/15.png' width = '100%;'>","null","","","","","","","","","",""
"","html-keyboard-response","287","682411","0.0-12.0-3.12","vthrokdv3a","many_one","0","direct_first","1","er06us26","0","20","1","1","3","1","","0","1","0","591.8499999970663","","","<img src = 'targets/mask.png' width = '100%;'>","68","neg","GS","GSold","1","category1/CS6.png","","targets/15.png","indirect","0","36"
"","html-keyboard-response","288","683913","0.0-12.0-0.13","vthrokdv3a","many_one","0","direct_first","1","er06us26","0","20","1","1","3","1","","0","1","0","null","","","<div style=""font-size:60px;"">+</div>","null","","","","","","","","","",""
"","html-keyboard-response","289","684005","0.0-12.0-1.13","vthrokdv3a","many_one","0","direct_first","1","er06us26","0","20","1","1","3","1","","0","1","0","null","","","<img src = 'category3/CS8.png' width = '100%;'>","null","","","","","","","","","",""
"","html-keyboard-response","290","684258","0.0-12.0-2.13","vthrokdv3a","many_one","0","direct_first","1","er06us26","0","20","1","1","3","1","","0","1","0","null","","","<img src = 'targets/24.png' width = '100%;'>","null","","","","","","","","","",""
"","html-keyboard-response","291","684590","0.0-12.0-3.13","vthrokdv3a","many_one","0","direct_first","1","er06us26","0","20","1","1","3","1","","0","1","0","330.9000000008382","","","<img src = 'targets/mask.png' width = '100%;'>","75","pos","GS","GSold","3","category3/CS8.png","","targets/24.png","indirect","1","37"
"","html-keyboard-response","292","686092","0.0-12.0-0.14","vthrokdv3a","many_one","0","direct_first","1","er06us26","0","20","1","1","3","1","","0","1","0","null","","","<div style=""font-size:60px;"">+</div>","null","","","","","","","","","",""
"","html-keyboard-response","293","686183","0.0-12.0-1.14","vthrokdv3a","many_one","0","direct_first","1","er06us26","0","20","1","1","3","1","","0","1","0","null","","","<img src = 'category3/CS2.png' width = '100%;'>","null","","","","","","","","","",""
"","html-keyboard-response","294","686436","0.0-12.0-2.14","vthrokdv3a","many_one","0","direct_first","1","er06us26","0","20","1","1","3","1","","0","1","0","null","","","<img src = 'targets/45.png' width = '100%;'>","null","","","","","","","","","",""
"","html-keyboard-response","295","686620","0.0-12.0-3.14","vthrokdv3a","many_one","0","direct_first","1","er06us26","0","20","1","1","3","1","","0","1","0","182.6149999978952","","","<img src = 'targets/mask.png' width = '100%;'>","75","pos","GS","GSold","3","category3/CS2.png","","targets/45.png","indirect","1","38"
"","html-keyboard-response","296","688123","0.0-12.0-0.15","vthrokdv3a","many_one","0","direct_first","1","er06us26","0","20","1","1","3","1","","0","1","0","null","","","<div style=""font-size:60px;"">+</div>","null","","","","","","","","","",""
"","html-keyboard-response","297","688216","0.0-12.0-1.15","vthrokdv3a","many_one","0","direct_first","1","er06us26","0","20","1","1","3","1","","0","1","0","null","","","<img src = 'category4/CS2.png' width = '100%;'>","null","","","","","","","","","",""
"","html-keyboard-response","298","688468","0.0-12.0-2.15","vthrokdv3a","many_one","0","direct_first","1","er06us26","0","20","1","1","3","1","","0","1","0","null","","","<img src = 'targets/35.png' width = '100%;'>","null","","","","","","","","","",""
"","html-keyboard-response","299","688672","0.0-12.0-3.15","vthrokdv3a","many_one","0","direct_first","1","er06us26","0","20","1","1","3","1","","0","1","0","203.45499999530148","","","<img src = 'targets/mask.png' width = '100%;'>","75","pos","GS","GSold","4","category4/CS2.png","","targets/35.png","indirect","1","39"
"","html-keyboard-response","300","690174","0.0-12.0-0.16","vthrokdv3a","many_one","0","direct_first","1","er06us26","0","20","1","1","3","1","","0","1","0","null","","","<div style=""font-size:60px;"">+</div>","null","","","","","","","","","",""
"","html-keyboard-response","301","690265","0.0-12.0-1.16","vthrokdv3a","many_one","0","direct_first","1","er06us26","0","20","1","1","3","1","","0","1","0","null","","","<img src = 'category3/wang.png' width = '100%;'>","null","","","","","","","","","",""
"","html-keyboard-response","302","690520","0.0-12.0-2.16","vthrokdv3a","many_one","0","direct_first","1","er06us26","0","20","1","1","3","1","","0","1","0","null","","","<img src = 'targets/36.png' width = '100%;'>","null","","","","","","","","","",""
"","html-keyboard-response","303","690770","0.0-12.0-3.16","vthrokdv3a","many_one","0","direct_first","1","er06us26","0","20","1","1","3","1","","0","1","0","249.5550000021467","","","<img src = 'targets/mask.png' width = '100%;'>","75","pos","GS","abstract","3","category3/wang.png","","targets/36.png","indirect","1","40"
"","html-keyboard-response","304","692272","0.0-12.0-0.17","vthrokdv3a","many_one","0","direct_first","1","er06us26","0","20","1","1","3","1","","0","1","0","null","","","<div style=""font-size:60px;"">+</div>","null","","","","","","","","","",""
"","html-keyboard-response","305","692364","0.0-12.0-1.17","vthrokdv3a","many_one","0","direct_first","1","er06us26","0","20","1","1","3","1","","0","1","0","null","","","<img src = 'category1/CS9.png' width = '100%;'>","null","","","","","","","","","",""
"","html-keyboard-response","306","692616","0.0-12.0-2.17","vthrokdv3a","many_one","0","direct_first","1","er06us26","0","20","1","1","3","1","","0","1","0","null","","","<img src = 'targets/16.png' width = '100%;'>","null","","","","","","","","","",""
"","html-keyboard-response","307","693010","0.0-12.0-3.17","vthrokdv3a","many_one","0","direct_first","1","er06us26","0","20","1","1","3","1","","0","1","0","392.5300000119023","","","<img src = 'targets/mask.png' width = '100%;'>","68","neg","GS","GSold","1","category1/CS9.png","","targets/16.png","indirect","0","41"
"","html-keyboard-response","308","694512","0.0-12.0-0.18","vthrokdv3a","many_one","0","direct_first","1","er06us26","0","20","1","1","3","1","","0","1","0","null","","","<div style=""font-size:60px;"">+</div>","null","","","","","","","","","",""
"","html-keyboard-response","309","694604","0.0-12.0-1.18","vthrokdv3a","many_one","0","direct_first","1","er06us26","0","20","1","1","3","1","","0","1","0","null","","","<img src = 'category3/GS2.png' width = '100%;'>","null","","","","","","","","","",""
"","html-keyboard-response","310","694856","0.0-12.0-2.18","vthrokdv3a","many_one","0","direct_first","1","er06us26","0","20","1","1","3","1","","0","1","0","null","","","<img src = 'targets/38.png' width = '100%;'>","null","","","","","","","","","",""
"","html-keyboard-response","311","695251","0.0-12.0-3.18","vthrokdv3a","many_one","0","direct_first","1","er06us26","0","20","1","1","3","1","","0","1","0","392.76499999687076","","","<img src = 'targets/mask.png' width = '100%;'>","68","pos","GS","GSnew","3","category3/GS2.png","","targets/38.png","indirect","0","42"
"","html-keyboard-response","312","696753","0.0-12.0-0.19","vthrokdv3a","many_one","0","direct_first","1","er06us26","0","20","1","1","3","1","","0","1","0","null","","","<div style=""font-size:60px;"">+</div>","null","","","","","","","","","",""
"","html-keyboard-response","313","696845","0.0-12.0-1.19","vthrokdv3a","many_one","0","direct_first","1","er06us26","0","20","1","1","3","1","","0","1","0","null","","","<img src = 'category1/CS4.png' width = '100%;'>","null","","","","","","","","","",""
"","html-keyboard-response","314","697097","0.0-12.0-2.19","vthrokdv3a","many_one","0","direct_first","1","er06us26","0","20","1","1","3","1","","0","1","0","null","","","<img src = 'targets/44.png' width = '100%;'>","null","","","","","","","","","",""
"","html-keyboard-response","315","697391","0.0-12.0-3.19","vthrokdv3a","many_one","0","direct_first","1","er06us26","0","20","1","1","3","1","","0","1","0","292.90000000037253","","","<img src = 'targets/mask.png' width = '100%;'>","75","neg","GS","GSold","1","category1/CS4.png","","targets/44.png","indirect","1","43"
"","html-keyboard-response","316","698893","0.0-12.0-0.20","vthrokdv3a","many_one","0","direct_first","1","er06us26","0","20","1","1","3","1","","0","1","0","null","","","<div style=""font-size:60px;"">+</div>","null","","","","","","","","","",""
"","html-keyboard-response","317","698984","0.0-12.0-1.20","vthrokdv3a","many_one","0","direct_first","1","er06us26","0","20","1","1","3","1","","0","1","0","null","","","<img src = 'category4/CS9.png' width = '100%;'>","null","","","","","","","","","",""
"","html-keyboard-response","318","699236","0.0-12.0-2.20","vthrokdv3a","many_one","0","direct_first","1","er06us26","0","20","1","1","3","1","","0","1","0","null","","","<img src = 'targets/31.png' width = '100%;'>","null","","","","","","","","","",""
"","html-keyboard-response","319","699582","0.0-12.0-3.20","vthrokdv3a","many_one","0","direct_first","1","er06us26","0","20","1","1","3","1","","0","1","0","344.53500001109205","","","<img src = 'targets/mask.png' width = '100%;'>","75","pos","GS","GSold","4","category4/CS9.png","","targets/31.png","indirect","1","44"
"","html-keyboard-response","320","701084","0.0-12.0-0.21","vthrokdv3a","many_one","0","direct_first","1","er06us26","0","20","1","1","3","1","","0","1","0","null","","","<div style=""font-size:60px;"">+</div>","null","","","","","","","","","",""
"","html-keyboard-response","321","701177","0.0-12.0-1.21","vthrokdv3a","many_one","0","direct_first","1","er06us26","0","20","1","1","3","1","","0","1","0","null","","","<img src = 'category3/GS3.png' width = '100%;'>","null","","","","","","","","","",""
"","html-keyboard-response","322","701430","0.0-12.0-2.21","vthrokdv3a","many_one","0","direct_first","1","er06us26","0","20","1","1","3","1","","0","1","0","null","","","<img src = 'targets/33.png' width = '100%;'>","null","","","","","","","","","",""
"","html-keyboard-response","323","701930","0.0-12.0-3.21","vthrokdv3a","many_one","0","direct_first","1","er06us26","0","20","1","1","3","1","","0","1","0","499.36499999603257","","","<img src = 'targets/mask.png' width = '100%;'>","75","pos","GS","GSnew","3","category3/GS3.png","","targets/33.png","indirect","1","45"
"","html-keyboard-response","324","703433","0.0-12.0-0.22","vthrokdv3a","many_one","0","direct_first","1","er06us26","0","20","1","1","3","1","","0","1","0","null","","","<div style=""font-size:60px;"">+</div>","null","","","","","","","","","",""
"","html-keyboard-response","325","703525","0.0-12.0-1.22","vthrokdv3a","many_one","0","direct_first","1","er06us26","0","20","1","1","3","1","","0","1","0","null","","","<img src = 'category4/GS1.png' width = '100%;'>","null","","","","","","","","","",""
"","html-keyboard-response","326","703777","0.0-12.0-2.22","vthrokdv3a","many_one","0","direct_first","1","er06us26","0","20","1","1","3","1","","0","1","0","null","","","<img src = 'targets/23.png' width = '100%;'>","null","","","","","","","","","",""
"","html-keyboard-response","327","704110","0.0-12.0-3.22","vthrokdv3a","many_one","0","direct_first","1","er06us26","0","20","1","1","3","1","","0","1","0","332.06000000063796","","","<img src = 'targets/mask.png' width = '100%;'>","75","pos","GS","GSnew","4","category4/GS1.png","","targets/23.png","indirect","1","46"
