"success","trial_type","trial_index","time_elapsed","internal_node_id","subject","condition","condition_code","measure","measure_code","codeword","gender","age","education","chinese","fach","handedness","comment","hinschauen","ablenkung","gewissenhaft","rt","url","responses","stimulus","key_press","val","type","type_specific","category","cs_selected","target","indirect","task","nr_pres","response"
"true","fullscreen","0","4493","0.0-0.0","11rkr31uq3","one_one","1","indirect_first","0","ki04as07","0","20","1","1","3","1","","0","0","0","","","","","","","","","","","","","","",""
"","external-html","1","8975","0.0-1.0","11rkr31uq3","one_one","1","indirect_first","0","ki04as07","0","20","1","1","3","1","","0","0","0","4444.57500000135","text/information.html","","","","","","","","","","","","",""
"","external-html","2","33504","0.0-2.0","11rkr31uq3","one_one","1","indirect_first","0","ki04as07","0","20","1","1","3","1","","0","0","0","24486.705000017537","text/consent.html","","","","","","","","","","","","",""
"","survey-html-form","3","65143","0.0-3.0","11rkr31uq3","one_one","1","indirect_first","0","ki04as07","0","20","1","1","3","1","","0","0","0","31635.719999991124","","{""codeword_enter"":""ki04as07""}","","","","","","","","","","","",""
"","survey-html-form","4","77981","0.0-4.0","11rkr31uq3","one_one","1","indirect_first","0","ki04as07","0","20","1","1","3","1","","0","0","0","12834.174999996321","","{""age"":""20"",""education"":""1"",""subject"":""3"",""gender"":""0"",""handedness"":""1"",""chinese"":""1""}","","","","","","","","","","","",""
"","survey-html-form","5","102027","0.0-5.0","11rkr31uq3","one_one","1","indirect_first","0","ki04as07","0","20","1","1","3","1","","0","0","0","24043.97999998764","","{}","","","","","","","","","","","",""
"","html-keyboard-response","6","106036","0.0-6.0-0.0-0.0","11rkr31uq3","one_one","1","indirect_first","0","ki04as07","0","20","1","1","3","1","","0","0","0","null","","","<div class = 'row'><div class = 'column'><img src = 'category4/CS1.png' width = '70%;'></div><div class = 'column'><img src = 'usneg/9830.bmp' width = '100%;'></div></div>","null","neg","CS","CS","4","category4/CS1.png","","","","",""
"","html-keyboard-response","7","108549","0.0-6.0-0.0-0.1","11rkr31uq3","one_one","1","indirect_first","0","ki04as07","0","20","1","1","3","1","","0","0","0","null","","","<div class = 'row'><div class = 'column'><img src = 'category1/CS9.png' width = '70%;'></div><div class = 'column'><img src = 'usneg/9290.bmp' width = '100%;'></div></div>","null","neg","CS","CS","1","category1/CS9.png","","","","",""
"","html-keyboard-response","8","111062","0.0-6.0-0.0-0.2","11rkr31uq3","one_one","1","indirect_first","0","ki04as07","0","20","1","1","3","1","","0","0","0","null","","","<div class = 'row'><div class = 'column'><img src = 'uspos/5600.bmp' width = '100%;'></div><div class = 'column'><img src = 'category3/CS6.png' width = '70%;'></div></div>","null","pos","CS","CS","3","category3/CS6.png","","","","",""
"","html-keyboard-response","9","113575","0.0-6.0-0.0-0.3","11rkr31uq3","one_one","1","indirect_first","0","ki04as07","0","20","1","1","3","1","","0","0","0","null","","","<div class = 'row'><div class = 'column'><img src = 'category2/CS7.png' width = '70%;'></div><div class = 'column'><img src = 'uspos/2165.bmp' width = '100%;'></div></div>","null","pos","CS","CS","2","category2/CS7.png","","","","",""
"","html-keyboard-response","10","116087","0.0-6.0-0.0-0.4","11rkr31uq3","one_one","1","indirect_first","0","ki04as07","0","20","1","1","3","1","","0","0","0","null","","","<div class = 'row'><div class = 'column'><img src = 'category1/CS9.png' width = '70%;'></div><div class = 'column'><img src = 'usneg/9290.bmp' width = '100%;'></div></div>","null","neg","CS","CS","1","category1/CS9.png","","","","",""
"","html-keyboard-response","11","118597","0.0-6.0-0.0-0.5","11rkr31uq3","one_one","1","indirect_first","0","ki04as07","0","20","1","1","3","1","","0","0","0","null","","","<div class = 'row'><div class = 'column'><img src = 'uspos/5600.bmp' width = '100%;'></div><div class = 'column'><img src = 'category3/CS6.png' width = '70%;'></div></div>","null","pos","CS","CS","3","category3/CS6.png","","","","",""
"","html-keyboard-response","12","121104","0.0-6.0-0.0-0.6","11rkr31uq3","one_one","1","indirect_first","0","ki04as07","0","20","1","1","3","1","","0","0","0","null","","","<div class = 'row'><div class = 'column'><img src = 'category1/CS9.png' width = '70%;'></div><div class = 'column'><img src = 'usneg/9290.bmp' width = '100%;'></div></div>","null","neg","CS","CS","1","category1/CS9.png","","","","",""
"","html-keyboard-response","13","123616","0.0-6.0-0.0-0.7","11rkr31uq3","one_one","1","indirect_first","0","ki04as07","0","20","1","1","3","1","","0","0","0","null","","","<div class = 'row'><div class = 'column'><img src = 'category3/CS6.png' width = '70%;'></div><div class = 'column'><img src = 'uspos/5600.bmp' width = '100%;'></div></div>","null","pos","CS","CS","3","category3/CS6.png","","","","",""
"","html-keyboard-response","14","126129","0.0-6.0-0.0-0.8","11rkr31uq3","one_one","1","indirect_first","0","ki04as07","0","20","1","1","3","1","","0","0","0","null","","","<div class = 'row'><div class = 'column'><img src = 'category4/CS1.png' width = '70%;'></div><div class = 'column'><img src = 'usneg/9830.bmp' width = '100%;'></div></div>","null","neg","CS","CS","4","category4/CS1.png","","","","",""
"","html-keyboard-response","15","128638","0.0-6.0-0.0-0.9","11rkr31uq3","one_one","1","indirect_first","0","ki04as07","0","20","1","1","3","1","","0","0","0","null","","","<div class = 'row'><div class = 'column'><img src = 'category1/CS9.png' width = '70%;'></div><div class = 'column'><img src = 'usneg/9290.bmp' width = '100%;'></div></div>","null","neg","CS","CS","1","category1/CS9.png","","","","",""
"","html-keyboard-response","16","131152","0.0-6.0-0.0-0.10","11rkr31uq3","one_one","1","indirect_first","0","ki04as07","0","20","1","1","3","1","","0","0","0","null","","","<div class = 'row'><div class = 'column'><img src = 'usneg/9830.bmp' width = '100%;'></div><div class = 'column'><img src = 'category4/CS1.png' width = '70%;'></div></div>","null","neg","CS","CS","4","category4/CS1.png","","","","",""
"","html-keyboard-response","17","133664","0.0-6.0-0.0-0.11","11rkr31uq3","one_one","1","indirect_first","0","ki04as07","0","20","1","1","3","1","","0","0","0","null","","","<div class = 'row'><div class = 'column'><img src = 'uspos/2165.bmp' width = '100%;'></div><div class = 'column'><img src = 'category2/CS7.png' width = '70%;'></div></div>","null","pos","CS","CS","2","category2/CS7.png","","","","",""
"","html-keyboard-response","18","136177","0.0-6.0-0.0-0.12","11rkr31uq3","one_one","1","indirect_first","0","ki04as07","0","20","1","1","3","1","","0","0","0","null","","","<div class = 'row'><div class = 'column'><img src = 'category1/CS9.png' width = '70%;'></div><div class = 'column'><img src = 'usneg/9290.bmp' width = '100%;'></div></div>","null","neg","CS","CS","1","category1/CS9.png","","","","",""
"","html-keyboard-response","19","138687","0.0-6.0-0.0-0.13","11rkr31uq3","one_one","1","indirect_first","0","ki04as07","0","20","1","1","3","1","","0","0","0","null","","","<div class = 'row'><div class = 'column'><img src = 'category4/CS1.png' width = '70%;'></div><div class = 'column'><img src = 'usneg/9830.bmp' width = '100%;'></div></div>","null","neg","CS","CS","4","category4/CS1.png","","","","",""
"","html-keyboard-response","20","141200","0.0-6.0-0.0-0.14","11rkr31uq3","one_one","1","indirect_first","0","ki04as07","0","20","1","1","3","1","","0","0","0","null","","","<div class = 'row'><div class = 'column'><img src = 'category2/CS7.png' width = '70%;'></div><div class = 'column'><img src = 'uspos/2165.bmp' width = '100%;'></div></div>","null","pos","CS","CS","2","category2/CS7.png","","","","",""
"","html-keyboard-response","21","143711","0.0-6.0-0.0-0.15","11rkr31uq3","one_one","1","indirect_first","0","ki04as07","0","20","1","1","3","1","","0","0","0","null","","","<div class = 'row'><div class = 'column'><img src = 'category3/CS6.png' width = '70%;'></div><div class = 'column'><img src = 'uspos/5600.bmp' width = '100%;'></div></div>","null","pos","CS","CS","3","category3/CS6.png","","","","",""
"","html-keyboard-response","22","146224","0.0-6.0-0.0-0.16","11rkr31uq3","one_one","1","indirect_first","0","ki04as07","0","20","1","1","3","1","","0","0","0","null","","","<div class = 'row'><div class = 'column'><img src = 'uspos/2165.bmp' width = '100%;'></div><div class = 'column'><img src = 'category2/CS7.png' width = '70%;'></div></div>","null","pos","CS","CS","2","category2/CS7.png","","","","",""
"","html-keyboard-response","23","148737","0.0-6.0-0.0-0.17","11rkr31uq3","one_one","1","indirect_first","0","ki04as07","0","20","1","1","3","1","","0","0","0","null","","","<div class = 'row'><div class = 'column'><img src = 'usneg/9830.bmp' width = '100%;'></div><div class = 'column'><img src = 'category4/CS1.png' width = '70%;'></div></div>","null","neg","CS","CS","4","category4/CS1.png","","","","",""
"","html-keyboard-response","24","151249","0.0-6.0-0.0-0.18","11rkr31uq3","one_one","1","indirect_first","0","ki04as07","0","20","1","1","3","1","","0","0","0","null","","","<div class = 'row'><div class = 'column'><img src = 'category3/CS6.png' width = '70%;'></div><div class = 'column'><img src = 'uspos/5600.bmp' width = '100%;'></div></div>","null","pos","CS","CS","3","category3/CS6.png","","","","",""
"","html-keyboard-response","25","153761","0.0-6.0-0.0-0.19","11rkr31uq3","one_one","1","indirect_first","0","ki04as07","0","20","1","1","3","1","","0","0","0","null","","","<div class = 'row'><div class = 'column'><img src = 'uspos/2165.bmp' width = '100%;'></div><div class = 'column'><img src = 'category2/CS7.png' width = '70%;'></div></div>","null","pos","CS","CS","2","category2/CS7.png","","","","",""
"","survey-html-form","26","174822","0.0-6.0-1.0","11rkr31uq3","one_one","1","indirect_first","0","ki04as07","0","20","1","1","3","1","","0","0","0","20553.864999994403","","{}","","","","","","","","","","","",""
"","html-keyboard-response","27","178830","0.0-6.0-2.0-0.0","11rkr31uq3","one_one","1","indirect_first","0","ki04as07","0","20","1","1","3","1","","0","0","0","null","","","<div class = 'row'><div class = 'column'><img src = 'usneg/9290.bmp' width = '100%;'></div><div class = 'column'><img src = 'category1/CS9.png' width = '70%;'></div></div>","null","neg","CS","CS","1","category1/CS9.png","","","","",""
"","html-keyboard-response","28","181343","0.0-6.0-2.0-0.1","11rkr31uq3","one_one","1","indirect_first","0","ki04as07","0","20","1","1","3","1","","0","0","0","null","","","<div class = 'row'><div class = 'column'><img src = 'category4/CS1.png' width = '70%;'></div><div class = 'column'><img src = 'usneg/9830.bmp' width = '100%;'></div></div>","null","neg","CS","CS","4","category4/CS1.png","","","","",""
"","html-keyboard-response","29","183852","0.0-6.0-2.0-0.2","11rkr31uq3","one_one","1","indirect_first","0","ki04as07","0","20","1","1","3","1","","0","0","0","null","","","<div class = 'row'><div class = 'column'><img src = 'usneg/9290.bmp' width = '100%;'></div><div class = 'column'><img src = 'category1/CS9.png' width = '70%;'></div></div>","null","neg","CS","CS","1","category1/CS9.png","","","","",""
"","html-keyboard-response","30","186365","0.0-6.0-2.0-0.3","11rkr31uq3","one_one","1","indirect_first","0","ki04as07","0","20","1","1","3","1","","0","0","0","null","","","<div class = 'row'><div class = 'column'><img src = 'uspos/5600.bmp' width = '100%;'></div><div class = 'column'><img src = 'category3/CS6.png' width = '70%;'></div></div>","null","pos","CS","CS","3","category3/CS6.png","","","","",""
"","html-keyboard-response","31","188872","0.0-6.0-2.0-0.4","11rkr31uq3","one_one","1","indirect_first","0","ki04as07","0","20","1","1","3","1","","0","0","0","null","","","<div class = 'row'><div class = 'column'><img src = 'uspos/2165.bmp' width = '100%;'></div><div class = 'column'><img src = 'category2/CS7.png' width = '70%;'></div></div>","null","pos","CS","CS","2","category2/CS7.png","","","","",""
"","html-keyboard-response","32","191385","0.0-6.0-2.0-0.5","11rkr31uq3","one_one","1","indirect_first","0","ki04as07","0","20","1","1","3","1","","0","0","0","null","","","<div class = 'row'><div class = 'column'><img src = 'usneg/9830.bmp' width = '100%;'></div><div class = 'column'><img src = 'category4/CS1.png' width = '70%;'></div></div>","null","neg","CS","CS","4","category4/CS1.png","","","","",""
"","html-keyboard-response","33","193896","0.0-6.0-2.0-0.6","11rkr31uq3","one_one","1","indirect_first","0","ki04as07","0","20","1","1","3","1","","0","0","0","null","","","<div class = 'row'><div class = 'column'><img src = 'category3/CS6.png' width = '70%;'></div><div class = 'column'><img src = 'uspos/5600.bmp' width = '100%;'></div></div>","null","pos","CS","CS","3","category3/CS6.png","","","","",""
"","html-keyboard-response","34","196403","0.0-6.0-2.0-0.7","11rkr31uq3","one_one","1","indirect_first","0","ki04as07","0","20","1","1","3","1","","0","0","0","null","","","<div class = 'row'><div class = 'column'><img src = 'uspos/2165.bmp' width = '100%;'></div><div class = 'column'><img src = 'category2/CS7.png' width = '70%;'></div></div>","null","pos","CS","CS","2","category2/CS7.png","","","","",""
"","html-keyboard-response","35","198916","0.0-6.0-2.0-0.8","11rkr31uq3","one_one","1","indirect_first","0","ki04as07","0","20","1","1","3","1","","0","0","0","null","","","<div class = 'row'><div class = 'column'><img src = 'usneg/9290.bmp' width = '100%;'></div><div class = 'column'><img src = 'category1/CS9.png' width = '70%;'></div></div>","null","neg","CS","CS","1","category1/CS9.png","","","","",""
"","html-keyboard-response","36","201429","0.0-6.0-2.0-0.9","11rkr31uq3","one_one","1","indirect_first","0","ki04as07","0","20","1","1","3","1","","0","0","0","null","","","<div class = 'row'><div class = 'column'><img src = 'uspos/5600.bmp' width = '100%;'></div><div class = 'column'><img src = 'category3/CS6.png' width = '70%;'></div></div>","null","pos","CS","CS","3","category3/CS6.png","","","","",""
"","html-keyboard-response","37","203937","0.0-6.0-2.0-0.10","11rkr31uq3","one_one","1","indirect_first","0","ki04as07","0","20","1","1","3","1","","0","0","0","null","","","<div class = 'row'><div class = 'column'><img src = 'uspos/2165.bmp' width = '100%;'></div><div class = 'column'><img src = 'category2/CS7.png' width = '70%;'></div></div>","null","pos","CS","CS","2","category2/CS7.png","","","","",""
"","html-keyboard-response","38","206446","0.0-6.0-2.0-0.11","11rkr31uq3","one_one","1","indirect_first","0","ki04as07","0","20","1","1","3","1","","0","0","0","null","","","<div class = 'row'><div class = 'column'><img src = 'uspos/5600.bmp' width = '100%;'></div><div class = 'column'><img src = 'category3/CS6.png' width = '70%;'></div></div>","null","pos","CS","CS","3","category3/CS6.png","","","","",""
"","html-keyboard-response","39","208959","0.0-6.0-2.0-0.12","11rkr31uq3","one_one","1","indirect_first","0","ki04as07","0","20","1","1","3","1","","0","0","0","null","","","<div class = 'row'><div class = 'column'><img src = 'category2/CS7.png' width = '70%;'></div><div class = 'column'><img src = 'uspos/2165.bmp' width = '100%;'></div></div>","null","pos","CS","CS","2","category2/CS7.png","","","","",""
"","html-keyboard-response","40","211467","0.0-6.0-2.0-0.13","11rkr31uq3","one_one","1","indirect_first","0","ki04as07","0","20","1","1","3","1","","0","0","0","null","","","<div class = 'row'><div class = 'column'><img src = 'usneg/9830.bmp' width = '100%;'></div><div class = 'column'><img src = 'category4/CS1.png' width = '70%;'></div></div>","null","neg","CS","CS","4","category4/CS1.png","","","","",""
"","html-keyboard-response","41","213975","0.0-6.0-2.0-0.14","11rkr31uq3","one_one","1","indirect_first","0","ki04as07","0","20","1","1","3","1","","0","0","0","null","","","<div class = 'row'><div class = 'column'><img src = 'uspos/5600.bmp' width = '100%;'></div><div class = 'column'><img src = 'category3/CS6.png' width = '70%;'></div></div>","null","pos","CS","CS","3","category3/CS6.png","","","","",""
"","html-keyboard-response","42","216487","0.0-6.0-2.0-0.15","11rkr31uq3","one_one","1","indirect_first","0","ki04as07","0","20","1","1","3","1","","0","0","0","null","","","<div class = 'row'><div class = 'column'><img src = 'usneg/9830.bmp' width = '100%;'></div><div class = 'column'><img src = 'category4/CS1.png' width = '70%;'></div></div>","null","neg","CS","CS","4","category4/CS1.png","","","","",""
"","html-keyboard-response","43","218994","0.0-6.0-2.0-0.16","11rkr31uq3","one_one","1","indirect_first","0","ki04as07","0","20","1","1","3","1","","0","0","0","null","","","<div class = 'row'><div class = 'column'><img src = 'category1/CS9.png' width = '70%;'></div><div class = 'column'><img src = 'usneg/9290.bmp' width = '100%;'></div></div>","null","neg","CS","CS","1","category1/CS9.png","","","","",""
"","html-keyboard-response","44","221503","0.0-6.0-2.0-0.17","11rkr31uq3","one_one","1","indirect_first","0","ki04as07","0","20","1","1","3","1","","0","0","0","null","","","<div class = 'row'><div class = 'column'><img src = 'category4/CS1.png' width = '70%;'></div><div class = 'column'><img src = 'usneg/9830.bmp' width = '100%;'></div></div>","null","neg","CS","CS","4","category4/CS1.png","","","","",""
"","html-keyboard-response","45","224007","0.0-6.0-2.0-0.18","11rkr31uq3","one_one","1","indirect_first","0","ki04as07","0","20","1","1","3","1","","0","0","0","null","","","<div class = 'row'><div class = 'column'><img src = 'usneg/9290.bmp' width = '100%;'></div><div class = 'column'><img src = 'category1/CS9.png' width = '70%;'></div></div>","null","neg","CS","CS","1","category1/CS9.png","","","","",""
"","html-keyboard-response","46","226520","0.0-6.0-2.0-0.19","11rkr31uq3","one_one","1","indirect_first","0","ki04as07","0","20","1","1","3","1","","0","0","0","null","","","<div class = 'row'><div class = 'column'><img src = 'category2/CS7.png' width = '70%;'></div><div class = 'column'><img src = 'uspos/2165.bmp' width = '100%;'></div></div>","null","pos","CS","CS","2","category2/CS7.png","","","","",""
"","survey-html-form","47","231761","0.0-6.0-3.0","11rkr31uq3","one_one","1","indirect_first","0","ki04as07","0","20","1","1","3","1","","0","0","0","4734.020000003511","","{}","","","","","","","","","","","",""
"","html-keyboard-response","48","235773","0.0-6.0-4.0-0.0","11rkr31uq3","one_one","1","indirect_first","0","ki04as07","0","20","1","1","3","1","","0","0","0","null","","","<div class = 'row'><div class = 'column'><img src = 'usneg/9290.bmp' width = '100%;'></div><div class = 'column'><img src = 'category1/CS9.png' width = '70%;'></div></div>","null","neg","CS","CS","1","category1/CS9.png","","","","",""
"","html-keyboard-response","49","238278","0.0-6.0-4.0-0.1","11rkr31uq3","one_one","1","indirect_first","0","ki04as07","0","20","1","1","3","1","","0","0","0","null","","","<div class = 'row'><div class = 'column'><img src = 'category4/CS1.png' width = '70%;'></div><div class = 'column'><img src = 'usneg/9830.bmp' width = '100%;'></div></div>","null","neg","CS","CS","4","category4/CS1.png","","","","",""
"","html-keyboard-response","50","240792","0.0-6.0-4.0-0.2","11rkr31uq3","one_one","1","indirect_first","0","ki04as07","0","20","1","1","3","1","","0","0","0","null","","","<div class = 'row'><div class = 'column'><img src = 'uspos/2165.bmp' width = '100%;'></div><div class = 'column'><img src = 'category2/CS7.png' width = '70%;'></div></div>","null","pos","CS","CS","2","category2/CS7.png","","","","",""
"","html-keyboard-response","51","243299","0.0-6.0-4.0-0.3","11rkr31uq3","one_one","1","indirect_first","0","ki04as07","0","20","1","1","3","1","","0","0","0","null","","","<div class = 'row'><div class = 'column'><img src = 'uspos/5600.bmp' width = '100%;'></div><div class = 'column'><img src = 'category3/CS6.png' width = '70%;'></div></div>","null","pos","CS","CS","3","category3/CS6.png","","","","",""
"","html-keyboard-response","52","245804","0.0-6.0-4.0-0.4","11rkr31uq3","one_one","1","indirect_first","0","ki04as07","0","20","1","1","3","1","","0","0","0","null","","","<div class = 'row'><div class = 'column'><img src = 'category4/CS1.png' width = '70%;'></div><div class = 'column'><img src = 'usneg/9830.bmp' width = '100%;'></div></div>","null","neg","CS","CS","4","category4/CS1.png","","","","",""
"","html-keyboard-response","53","248317","0.0-6.0-4.0-0.5","11rkr31uq3","one_one","1","indirect_first","0","ki04as07","0","20","1","1","3","1","","0","0","0","null","","","<div class = 'row'><div class = 'column'><img src = 'category2/CS7.png' width = '70%;'></div><div class = 'column'><img src = 'uspos/2165.bmp' width = '100%;'></div></div>","null","pos","CS","CS","2","category2/CS7.png","","","","",""
"","html-keyboard-response","54","250826","0.0-6.0-4.0-0.6","11rkr31uq3","one_one","1","indirect_first","0","ki04as07","0","20","1","1","3","1","","0","0","0","null","","","<div class = 'row'><div class = 'column'><img src = 'category4/CS1.png' width = '70%;'></div><div class = 'column'><img src = 'usneg/9830.bmp' width = '100%;'></div></div>","null","neg","CS","CS","4","category4/CS1.png","","","","",""
"","html-keyboard-response","55","253334","0.0-6.0-4.0-0.7","11rkr31uq3","one_one","1","indirect_first","0","ki04as07","0","20","1","1","3","1","","0","0","0","null","","","<div class = 'row'><div class = 'column'><img src = 'category2/CS7.png' width = '70%;'></div><div class = 'column'><img src = 'uspos/2165.bmp' width = '100%;'></div></div>","null","pos","CS","CS","2","category2/CS7.png","","","","",""
"","html-keyboard-response","56","255845","0.0-6.0-4.0-0.8","11rkr31uq3","one_one","1","indirect_first","0","ki04as07","0","20","1","1","3","1","","0","0","0","null","","","<div class = 'row'><div class = 'column'><img src = 'category3/CS6.png' width = '70%;'></div><div class = 'column'><img src = 'uspos/5600.bmp' width = '100%;'></div></div>","null","pos","CS","CS","3","category3/CS6.png","","","","",""
"","html-keyboard-response","57","258349","0.0-6.0-4.0-0.9","11rkr31uq3","one_one","1","indirect_first","0","ki04as07","0","20","1","1","3","1","","0","0","0","null","","","<div class = 'row'><div class = 'column'><img src = 'usneg/9290.bmp' width = '100%;'></div><div class = 'column'><img src = 'category1/CS9.png' width = '70%;'></div></div>","null","neg","CS","CS","1","category1/CS9.png","","","","",""
"","html-keyboard-response","58","260856","0.0-6.0-4.0-0.10","11rkr31uq3","one_one","1","indirect_first","0","ki04as07","0","20","1","1","3","1","","0","0","0","null","","","<div class = 'row'><div class = 'column'><img src = 'usneg/9830.bmp' width = '100%;'></div><div class = 'column'><img src = 'category4/CS1.png' width = '70%;'></div></div>","null","neg","CS","CS","4","category4/CS1.png","","","","",""
"","html-keyboard-response","59","263361","0.0-6.0-4.0-0.11","11rkr31uq3","one_one","1","indirect_first","0","ki04as07","0","20","1","1","3","1","","0","0","0","null","","","<div class = 'row'><div class = 'column'><img src = 'category3/CS6.png' width = '70%;'></div><div class = 'column'><img src = 'uspos/5600.bmp' width = '100%;'></div></div>","null","pos","CS","CS","3","category3/CS6.png","","","","",""
"","html-keyboard-response","60","265868","0.0-6.0-4.0-0.12","11rkr31uq3","one_one","1","indirect_first","0","ki04as07","0","20","1","1","3","1","","0","0","0","null","","","<div class = 'row'><div class = 'column'><img src = 'usneg/9290.bmp' width = '100%;'></div><div class = 'column'><img src = 'category1/CS9.png' width = '70%;'></div></div>","null","neg","CS","CS","1","category1/CS9.png","","","","",""
"","html-keyboard-response","61","268381","0.0-6.0-4.0-0.13","11rkr31uq3","one_one","1","indirect_first","0","ki04as07","0","20","1","1","3","1","","0","0","0","null","","","<div class = 'row'><div class = 'column'><img src = 'category2/CS7.png' width = '70%;'></div><div class = 'column'><img src = 'uspos/2165.bmp' width = '100%;'></div></div>","null","pos","CS","CS","2","category2/CS7.png","","","","",""
"","html-keyboard-response","62","270889","0.0-6.0-4.0-0.14","11rkr31uq3","one_one","1","indirect_first","0","ki04as07","0","20","1","1","3","1","","0","0","0","null","","","<div class = 'row'><div class = 'column'><img src = 'uspos/5600.bmp' width = '100%;'></div><div class = 'column'><img src = 'category3/CS6.png' width = '70%;'></div></div>","null","pos","CS","CS","3","category3/CS6.png","","","","",""
"","html-keyboard-response","63","273402","0.0-6.0-4.0-0.15","11rkr31uq3","one_one","1","indirect_first","0","ki04as07","0","20","1","1","3","1","","0","0","0","null","","","<div class = 'row'><div class = 'column'><img src = 'usneg/9290.bmp' width = '100%;'></div><div class = 'column'><img src = 'category1/CS9.png' width = '70%;'></div></div>","null","neg","CS","CS","1","category1/CS9.png","","","","",""
"","html-keyboard-response","64","275912","0.0-6.0-4.0-0.16","11rkr31uq3","one_one","1","indirect_first","0","ki04as07","0","20","1","1","3","1","","0","0","0","null","","","<div class = 'row'><div class = 'column'><img src = 'category3/CS6.png' width = '70%;'></div><div class = 'column'><img src = 'uspos/5600.bmp' width = '100%;'></div></div>","null","pos","CS","CS","3","category3/CS6.png","","","","",""
"","html-keyboard-response","65","278422","0.0-6.0-4.0-0.17","11rkr31uq3","one_one","1","indirect_first","0","ki04as07","0","20","1","1","3","1","","0","0","0","null","","","<div class = 'row'><div class = 'column'><img src = 'usneg/9290.bmp' width = '100%;'></div><div class = 'column'><img src = 'category1/CS9.png' width = '70%;'></div></div>","null","neg","CS","CS","1","category1/CS9.png","","","","",""
"","html-keyboard-response","66","280934","0.0-6.0-4.0-0.18","11rkr31uq3","one_one","1","indirect_first","0","ki04as07","0","20","1","1","3","1","","0","0","0","null","","","<div class = 'row'><div class = 'column'><img src = 'category4/CS1.png' width = '70%;'></div><div class = 'column'><img src = 'usneg/9830.bmp' width = '100%;'></div></div>","null","neg","CS","CS","4","category4/CS1.png","","","","",""
"","html-keyboard-response","67","283442","0.0-6.0-4.0-0.19","11rkr31uq3","one_one","1","indirect_first","0","ki04as07","0","20","1","1","3","1","","0","0","0","null","","","<div class = 'row'><div class = 'column'><img src = 'category2/CS7.png' width = '70%;'></div><div class = 'column'><img src = 'uspos/2165.bmp' width = '100%;'></div></div>","null","pos","CS","CS","2","category2/CS7.png","","","","",""
"","survey-html-form","68","289060","0.0-6.0-5.0","11rkr31uq3","one_one","1","indirect_first","0","ki04as07","0","20","1","1","3","1","","0","0","0","5113.795000012033","","{}","","","","","","","","","","","",""
"","html-keyboard-response","69","293074","0.0-6.0-6.0-0.0","11rkr31uq3","one_one","1","indirect_first","0","ki04as07","0","20","1","1","3","1","","0","0","0","null","","","<div class = 'row'><div class = 'column'><img src = 'uspos/5600.bmp' width = '100%;'></div><div class = 'column'><img src = 'category3/CS6.png' width = '70%;'></div></div>","null","pos","CS","CS","3","category3/CS6.png","","","","",""
"","html-keyboard-response","70","295576","0.0-6.0-6.0-0.1","11rkr31uq3","one_one","1","indirect_first","0","ki04as07","0","20","1","1","3","1","","0","0","0","null","","","<div class = 'row'><div class = 'column'><img src = 'usneg/9830.bmp' width = '100%;'></div><div class = 'column'><img src = 'category4/CS1.png' width = '70%;'></div></div>","null","neg","CS","CS","4","category4/CS1.png","","","","",""
"","html-keyboard-response","71","298089","0.0-6.0-6.0-0.2","11rkr31uq3","one_one","1","indirect_first","0","ki04as07","0","20","1","1","3","1","","0","0","0","null","","","<div class = 'row'><div class = 'column'><img src = 'category1/CS9.png' width = '70%;'></div><div class = 'column'><img src = 'usneg/9290.bmp' width = '100%;'></div></div>","null","neg","CS","CS","1","category1/CS9.png","","","","",""
"","html-keyboard-response","72","300598","0.0-6.0-6.0-0.3","11rkr31uq3","one_one","1","indirect_first","0","ki04as07","0","20","1","1","3","1","","0","0","0","null","","","<div class = 'row'><div class = 'column'><img src = 'category2/CS7.png' width = '70%;'></div><div class = 'column'><img src = 'uspos/2165.bmp' width = '100%;'></div></div>","null","pos","CS","CS","2","category2/CS7.png","","","","",""
"","html-keyboard-response","73","303103","0.0-6.0-6.0-0.4","11rkr31uq3","one_one","1","indirect_first","0","ki04as07","0","20","1","1","3","1","","0","0","0","null","","","<div class = 'row'><div class = 'column'><img src = 'usneg/9830.bmp' width = '100%;'></div><div class = 'column'><img src = 'category4/CS1.png' width = '70%;'></div></div>","null","neg","CS","CS","4","category4/CS1.png","","","","",""
"","html-keyboard-response","74","305615","0.0-6.0-6.0-0.5","11rkr31uq3","one_one","1","indirect_first","0","ki04as07","0","20","1","1","3","1","","0","0","0","null","","","<div class = 'row'><div class = 'column'><img src = 'uspos/5600.bmp' width = '100%;'></div><div class = 'column'><img src = 'category3/CS6.png' width = '70%;'></div></div>","null","pos","CS","CS","3","category3/CS6.png","","","","",""
"","html-keyboard-response","75","308126","0.0-6.0-6.0-0.6","11rkr31uq3","one_one","1","indirect_first","0","ki04as07","0","20","1","1","3","1","","0","0","0","null","","","<div class = 'row'><div class = 'column'><img src = 'uspos/2165.bmp' width = '100%;'></div><div class = 'column'><img src = 'category2/CS7.png' width = '70%;'></div></div>","null","pos","CS","CS","2","category2/CS7.png","","","","",""
"","html-keyboard-response","76","310639","0.0-6.0-6.0-0.7","11rkr31uq3","one_one","1","indirect_first","0","ki04as07","0","20","1","1","3","1","","0","0","0","null","","","<div class = 'row'><div class = 'column'><img src = 'category1/CS9.png' width = '70%;'></div><div class = 'column'><img src = 'usneg/9290.bmp' width = '100%;'></div></div>","null","neg","CS","CS","1","category1/CS9.png","","","","",""
"","html-keyboard-response","77","313152","0.0-6.0-6.0-0.8","11rkr31uq3","one_one","1","indirect_first","0","ki04as07","0","20","1","1","3","1","","0","0","0","null","","","<div class = 'row'><div class = 'column'><img src = 'category3/CS6.png' width = '70%;'></div><div class = 'column'><img src = 'uspos/5600.bmp' width = '100%;'></div></div>","null","pos","CS","CS","3","category3/CS6.png","","","","",""
"","html-keyboard-response","78","315660","0.0-6.0-6.0-0.9","11rkr31uq3","one_one","1","indirect_first","0","ki04as07","0","20","1","1","3","1","","0","0","0","null","","","<div class = 'row'><div class = 'column'><img src = 'category4/CS1.png' width = '70%;'></div><div class = 'column'><img src = 'usneg/9830.bmp' width = '100%;'></div></div>","null","neg","CS","CS","4","category4/CS1.png","","","","",""
"","html-keyboard-response","79","318173","0.0-6.0-6.0-0.10","11rkr31uq3","one_one","1","indirect_first","0","ki04as07","0","20","1","1","3","1","","0","0","0","null","","","<div class = 'row'><div class = 'column'><img src = 'category1/CS9.png' width = '70%;'></div><div class = 'column'><img src = 'usneg/9290.bmp' width = '100%;'></div></div>","null","neg","CS","CS","1","category1/CS9.png","","","","",""
"","html-keyboard-response","80","320687","0.0-6.0-6.0-0.11","11rkr31uq3","one_one","1","indirect_first","0","ki04as07","0","20","1","1","3","1","","0","0","0","null","","","<div class = 'row'><div class = 'column'><img src = 'uspos/5600.bmp' width = '100%;'></div><div class = 'column'><img src = 'category3/CS6.png' width = '70%;'></div></div>","null","pos","CS","CS","3","category3/CS6.png","","","","",""
"","html-keyboard-response","81","323200","0.0-6.0-6.0-0.12","11rkr31uq3","one_one","1","indirect_first","0","ki04as07","0","20","1","1","3","1","","0","0","0","null","","","<div class = 'row'><div class = 'column'><img src = 'uspos/2165.bmp' width = '100%;'></div><div class = 'column'><img src = 'category2/CS7.png' width = '70%;'></div></div>","null","pos","CS","CS","2","category2/CS7.png","","","","",""
"","html-keyboard-response","82","325708","0.0-6.0-6.0-0.13","11rkr31uq3","one_one","1","indirect_first","0","ki04as07","0","20","1","1","3","1","","0","0","0","null","","","<div class = 'row'><div class = 'column'><img src = 'category1/CS9.png' width = '70%;'></div><div class = 'column'><img src = 'usneg/9290.bmp' width = '100%;'></div></div>","null","neg","CS","CS","1","category1/CS9.png","","","","",""
"","html-keyboard-response","83","328221","0.0-6.0-6.0-0.14","11rkr31uq3","one_one","1","indirect_first","0","ki04as07","0","20","1","1","3","1","","0","0","0","null","","","<div class = 'row'><div class = 'column'><img src = 'category2/CS7.png' width = '70%;'></div><div class = 'column'><img src = 'uspos/2165.bmp' width = '100%;'></div></div>","null","pos","CS","CS","2","category2/CS7.png","","","","",""
"","html-keyboard-response","84","330735","0.0-6.0-6.0-0.15","11rkr31uq3","one_one","1","indirect_first","0","ki04as07","0","20","1","1","3","1","","0","0","0","null","","","<div class = 'row'><div class = 'column'><img src = 'category4/CS1.png' width = '70%;'></div><div class = 'column'><img src = 'usneg/9830.bmp' width = '100%;'></div></div>","null","neg","CS","CS","4","category4/CS1.png","","","","",""
"","html-keyboard-response","85","333244","0.0-6.0-6.0-0.16","11rkr31uq3","one_one","1","indirect_first","0","ki04as07","0","20","1","1","3","1","","0","0","0","null","","","<div class = 'row'><div class = 'column'><img src = 'usneg/9290.bmp' width = '100%;'></div><div class = 'column'><img src = 'category1/CS9.png' width = '70%;'></div></div>","null","neg","CS","CS","1","category1/CS9.png","","","","",""
"","html-keyboard-response","86","335750","0.0-6.0-6.0-0.17","11rkr31uq3","one_one","1","indirect_first","0","ki04as07","0","20","1","1","3","1","","0","0","0","null","","","<div class = 'row'><div class = 'column'><img src = 'uspos/2165.bmp' width = '100%;'></div><div class = 'column'><img src = 'category2/CS7.png' width = '70%;'></div></div>","null","pos","CS","CS","2","category2/CS7.png","","","","",""
"","html-keyboard-response","87","338264","0.0-6.0-6.0-0.18","11rkr31uq3","one_one","1","indirect_first","0","ki04as07","0","20","1","1","3","1","","0","0","0","null","","","<div class = 'row'><div class = 'column'><img src = 'uspos/5600.bmp' width = '100%;'></div><div class = 'column'><img src = 'category3/CS6.png' width = '70%;'></div></div>","null","pos","CS","CS","3","category3/CS6.png","","","","",""
"","html-keyboard-response","88","340771","0.0-6.0-6.0-0.19","11rkr31uq3","one_one","1","indirect_first","0","ki04as07","0","20","1","1","3","1","","0","0","0","null","","","<div class = 'row'><div class = 'column'><img src = 'usneg/9830.bmp' width = '100%;'></div><div class = 'column'><img src = 'category4/CS1.png' width = '70%;'></div></div>","null","neg","CS","CS","4","category4/CS1.png","","","","",""
"","html-keyboard-response","89","365444","0.0-7.0","11rkr31uq3","one_one","1","indirect_first","0","ki04as07","0","20","1","1","3","1","","0","0","0","24169.549999991432","","","<p>Sie sehen nun die chinesischen Zeichen nur ganz kurz. Danach sehen Sie die jeweilige Aussprache der Zeichen als Silbe auf dem Bildschrim. Ihre Aufgabe ist es, für jede Silbe anzugeben, ob diese etwas angenehmes, oder unangenehmes bedeuten könnte. Verlassen Sie sich hier vor allem auf Ihre Intuition.<br><br>Die Zeichen werden nur zur Orientierung dargestellt, beachten Sie sie deshalb nicht. Konzentrieren Sie sich vor allem auf die Silben. <br>Reagieren Sie mit folgenden zwei Tasten: <br><br><b>'D' </b> wenn die Silbe etwas <b>unangenehmes</b> bedeuten könnte. <br><b>'K'</b> wenn die Silbe etwas <b>angenehmes</b> bedeuten könnte. <br><br>Bitte legen Sie nun den Zeigefinger der linken Hand auf die Taste 'D' und den Zeigefinger der rechten Hand auf die Taste 'K'. <br>Reagieren Sie auf jede Silbe so schnell wie möglich. Uns interessiert Ihre spontane Reaktion. <br> <br> <br>Drücken Sie 'D' oder 'K', um die nächste Aufgabe zu starten. </p>","75","","","","","","","","","",""
"","html-keyboard-response","90","368454","0.0-8.0-0.0","11rkr31uq3","one_one","1","indirect_first","0","ki04as07","0","20","1","1","3","1","","0","0","0","null","","","<div style=""font-size:60px;"">+</div>","null","","","","","","","","","",""
"","html-keyboard-response","91","368546","0.0-8.0-1.0","11rkr31uq3","one_one","1","indirect_first","0","ki04as07","0","20","1","1","3","1","","0","0","0","null","","","<img src = 'category3/CS3.png' width = '100%;'>","null","","","","","","","","","",""
"","html-keyboard-response","92","368805","0.0-8.0-2.0","11rkr31uq3","one_one","1","indirect_first","0","ki04as07","0","20","1","1","3","1","","0","0","0","null","","","<img src = 'targets/20.png' width = '100%;'>","null","","","","","","","","","",""
"","html-keyboard-response","93","370286","0.0-8.0-3.0","11rkr31uq3","one_one","1","indirect_first","0","ki04as07","0","20","1","1","3","1","","0","0","0","1479.9699999857694","","","<img src = 'targets/mask.png' width = '100%;'>","68","pos","GS","GSold","3","category3/CS3.png","targets/20.png","0","indirect","0",""
"","html-keyboard-response","94","371796","0.0-8.0-0.1","11rkr31uq3","one_one","1","indirect_first","0","ki04as07","0","20","1","1","3","1","","0","0","0","null","","","<div style=""font-size:60px;"">+</div>","null","","","","","","","","","",""
"","html-keyboard-response","95","371889","0.0-8.0-1.1","11rkr31uq3","one_one","1","indirect_first","0","ki04as07","0","20","1","1","3","1","","0","0","0","null","","","<img src = 'category1/CS8.png' width = '100%;'>","null","","","","","","","","","",""
"","html-keyboard-response","96","372146","0.0-8.0-2.1","11rkr31uq3","one_one","1","indirect_first","0","ki04as07","0","20","1","1","3","1","","0","0","0","null","","","<img src = 'targets/37.png' width = '100%;'>","null","","","","","","","","","",""
"","html-keyboard-response","97","374108","0.0-8.0-3.1","11rkr31uq3","one_one","1","indirect_first","0","ki04as07","0","20","1","1","3","1","","0","0","0","1960.0449999852572","","","<img src = 'targets/mask.png' width = '100%;'>","75","neg","GS","GSold","1","category1/CS8.png","targets/37.png","1","indirect","1",""
"","html-keyboard-response","98","375619","0.0-8.0-0.2","11rkr31uq3","one_one","1","indirect_first","0","ki04as07","0","20","1","1","3","1","","0","0","0","null","","","<div style=""font-size:60px;"">+</div>","null","","","","","","","","","",""
"","html-keyboard-response","99","375714","0.0-8.0-1.2","11rkr31uq3","one_one","1","indirect_first","0","ki04as07","0","20","1","1","3","1","","0","0","0","null","","","<img src = 'category4/CS4.png' width = '100%;'>","null","","","","","","","","","",""
"","html-keyboard-response","100","375976","0.0-8.0-2.2","11rkr31uq3","one_one","1","indirect_first","0","ki04as07","0","20","1","1","3","1","","0","0","0","null","","","<img src = 'targets/33.png' width = '100%;'>","null","","","","","","","","","",""
"","html-keyboard-response","101","377995","0.0-8.0-3.2","11rkr31uq3","one_one","1","indirect_first","0","ki04as07","0","20","1","1","3","1","","0","0","0","2017.5300000119023","","","<img src = 'targets/mask.png' width = '100%;'>","75","neg","GS","GSold","4","category4/CS4.png","targets/33.png","1","indirect","2",""
"","html-keyboard-response","102","379507","0.0-8.0-0.3","11rkr31uq3","one_one","1","indirect_first","0","ki04as07","0","20","1","1","3","1","","0","0","0","null","","","<div style=""font-size:60px;"">+</div>","null","","","","","","","","","",""
"","html-keyboard-response","103","379603","0.0-8.0-1.3","11rkr31uq3","one_one","1","indirect_first","0","ki04as07","0","20","1","1","3","1","","0","0","0","null","","","<img src = 'category1/CS4.png' width = '100%;'>","null","","","","","","","","","",""
"","html-keyboard-response","104","379861","0.0-8.0-2.3","11rkr31uq3","one_one","1","indirect_first","0","ki04as07","0","20","1","1","3","1","","0","0","0","null","","","<img src = 'targets/22.png' width = '100%;'>","null","","","","","","","","","",""
"","html-keyboard-response","105","381055","0.0-8.0-3.3","11rkr31uq3","one_one","1","indirect_first","0","ki04as07","0","20","1","1","3","1","","0","0","0","1192.6150000072084","","","<img src = 'targets/mask.png' width = '100%;'>","75","neg","GS","GSold","1","category1/CS4.png","targets/22.png","1","indirect","3",""
"","html-keyboard-response","106","382566","0.0-8.0-0.4","11rkr31uq3","one_one","1","indirect_first","0","ki04as07","0","20","1","1","3","1","","0","0","0","null","","","<div style=""font-size:60px;"">+</div>","null","","","","","","","","","",""
"","html-keyboard-response","107","382661","0.0-8.0-1.4","11rkr31uq3","one_one","1","indirect_first","0","ki04as07","0","20","1","1","3","1","","0","0","0","null","","","<img src = 'category3/CS1.png' width = '100%;'>","null","","","","","","","","","",""
"","html-keyboard-response","108","382923","0.0-8.0-2.4","11rkr31uq3","one_one","1","indirect_first","0","ki04as07","0","20","1","1","3","1","","0","0","0","null","","","<img src = 'targets/45.png' width = '100%;'>","null","","","","","","","","","",""
"","html-keyboard-response","109","383912","0.0-8.0-3.4","11rkr31uq3","one_one","1","indirect_first","0","ki04as07","0","20","1","1","3","1","","0","0","0","987.9200000141282","","","<img src = 'targets/mask.png' width = '100%;'>","68","pos","GS","GSold","3","category3/CS1.png","targets/45.png","0","indirect","4",""
"","html-keyboard-response","110","385421","0.0-8.0-0.5","11rkr31uq3","one_one","1","indirect_first","0","ki04as07","0","20","1","1","3","1","","0","0","0","null","","","<div style=""font-size:60px;"">+</div>","null","","","","","","","","","",""
"","html-keyboard-response","111","385512","0.0-8.0-1.5","11rkr31uq3","one_one","1","indirect_first","0","ki04as07","0","20","1","1","3","1","","0","0","0","null","","","<img src = 'category2/CS7.png' width = '100%;'>","null","","","","","","","","","",""
"","html-keyboard-response","112","385769","0.0-8.0-2.5","11rkr31uq3","one_one","1","indirect_first","0","ki04as07","0","20","1","1","3","1","","0","0","0","null","","","<img src = 'targets/13.png' width = '100%;'>","null","","","","","","","","","",""
"","html-keyboard-response","113","386592","0.0-8.0-3.5","11rkr31uq3","one_one","1","indirect_first","0","ki04as07","0","20","1","1","3","1","","0","0","0","821.139999985462","","","<img src = 'targets/mask.png' width = '100%;'>","75","pos","CS","CS","2","category2/CS7.png","targets/13.png","1","indirect","5",""
"","html-keyboard-response","114","388102","0.0-8.0-0.6","11rkr31uq3","one_one","1","indirect_first","0","ki04as07","0","20","1","1","3","1","","0","0","0","null","","","<div style=""font-size:60px;"">+</div>","null","","","","","","","","","",""
"","html-keyboard-response","115","388198","0.0-8.0-1.6","11rkr31uq3","one_one","1","indirect_first","0","ki04as07","0","20","1","1","3","1","","0","0","0","null","","","<img src = 'category4/CS1.png' width = '100%;'>","null","","","","","","","","","",""
"","html-keyboard-response","116","388459","0.0-8.0-2.6","11rkr31uq3","one_one","1","indirect_first","0","ki04as07","0","20","1","1","3","1","","0","0","0","null","","","<img src = 'targets/6.png' width = '100%;'>","null","","","","","","","","","",""
"","html-keyboard-response","117","389389","0.0-8.0-3.6","11rkr31uq3","one_one","1","indirect_first","0","ki04as07","0","20","1","1","3","1","","0","0","0","929.1400000220165","","","<img src = 'targets/mask.png' width = '100%;'>","68","neg","CS","CS","4","category4/CS1.png","targets/6.png","0","indirect","6",""
"","html-keyboard-response","118","390895","0.0-8.0-0.7","11rkr31uq3","one_one","1","indirect_first","0","ki04as07","0","20","1","1","3","1","","0","0","0","null","","","<div style=""font-size:60px;"">+</div>","null","","","","","","","","","",""
"","html-keyboard-response","119","390991","0.0-8.0-1.7","11rkr31uq3","one_one","1","indirect_first","0","ki04as07","0","20","1","1","3","1","","0","0","0","null","","","<img src = 'category4/CS5.png' width = '100%;'>","null","","","","","","","","","",""
"","html-keyboard-response","120","391254","0.0-8.0-2.7","11rkr31uq3","one_one","1","indirect_first","0","ki04as07","0","20","1","1","3","1","","0","0","0","null","","","<img src = 'targets/19.png' width = '100%;'>","null","","","","","","","","","",""
"","html-keyboard-response","121","392599","0.0-8.0-3.7","11rkr31uq3","one_one","1","indirect_first","0","ki04as07","0","20","1","1","3","1","","0","0","0","1344.3550000083633","","","<img src = 'targets/mask.png' width = '100%;'>","68","neg","GS","GSold","4","category4/CS5.png","targets/19.png","0","indirect","7",""
"","html-keyboard-response","122","394109","0.0-8.0-0.8","11rkr31uq3","one_one","1","indirect_first","0","ki04as07","0","20","1","1","3","1","","0","0","0","null","","","<div style=""font-size:60px;"">+</div>","null","","","","","","","","","",""
"","html-keyboard-response","123","394204","0.0-8.0-1.8","11rkr31uq3","one_one","1","indirect_first","0","ki04as07","0","20","1","1","3","1","","0","0","0","null","","","<img src = 'category2/CS5.png' width = '100%;'>","null","","","","","","","","","",""
"","html-keyboard-response","124","394459","0.0-8.0-2.8","11rkr31uq3","one_one","1","indirect_first","0","ki04as07","0","20","1","1","3","1","","0","0","0","null","","","<img src = 'targets/25.png' width = '100%;'>","null","","","","","","","","","",""
"","html-keyboard-response","125","395569","0.0-8.0-3.8","11rkr31uq3","one_one","1","indirect_first","0","ki04as07","0","20","1","1","3","1","","0","0","0","1108.3099999814294","","","<img src = 'targets/mask.png' width = '100%;'>","68","pos","GS","GSold","2","category2/CS5.png","targets/25.png","0","indirect","8",""
"","html-keyboard-response","126","397076","0.0-8.0-0.9","11rkr31uq3","one_one","1","indirect_first","0","ki04as07","0","20","1","1","3","1","","0","0","0","null","","","<div style=""font-size:60px;"">+</div>","null","","","","","","","","","",""
"","html-keyboard-response","127","397172","0.0-8.0-1.9","11rkr31uq3","one_one","1","indirect_first","0","ki04as07","0","20","1","1","3","1","","0","0","0","null","","","<img src = 'category1/CS9.png' width = '100%;'>","null","","","","","","","","","",""
"","html-keyboard-response","128","397431","0.0-8.0-2.9","11rkr31uq3","one_one","1","indirect_first","0","ki04as07","0","20","1","1","3","1","","0","0","0","null","","","<img src = 'targets/42.png' width = '100%;'>","null","","","","","","","","","",""
"","html-keyboard-response","129","398238","0.0-8.0-3.9","11rkr31uq3","one_one","1","indirect_first","0","ki04as07","0","20","1","1","3","1","","0","0","0","805.9550000180025","","","<img src = 'targets/mask.png' width = '100%;'>","75","neg","CS","CS","1","category1/CS9.png","targets/42.png","1","indirect","9",""
"","html-keyboard-response","130","399750","0.0-8.0-0.10","11rkr31uq3","one_one","1","indirect_first","0","ki04as07","0","20","1","1","3","1","","0","0","0","null","","","<div style=""font-size:60px;"">+</div>","null","","","","","","","","","",""
"","html-keyboard-response","131","399842","0.0-8.0-1.10","11rkr31uq3","one_one","1","indirect_first","0","ki04as07","0","20","1","1","3","1","","0","0","0","null","","","<img src = 'category2/CS3.png' width = '100%;'>","null","","","","","","","","","",""
"","html-keyboard-response","132","400099","0.0-8.0-2.10","11rkr31uq3","one_one","1","indirect_first","0","ki04as07","0","20","1","1","3","1","","0","0","0","null","","","<img src = 'targets/44.png' width = '100%;'>","null","","","","","","","","","",""
"","html-keyboard-response","133","401416","0.0-8.0-3.10","11rkr31uq3","one_one","1","indirect_first","0","ki04as07","0","20","1","1","3","1","","0","0","0","1315.6250000174623","","","<img src = 'targets/mask.png' width = '100%;'>","68","pos","GS","GSold","2","category2/CS3.png","targets/44.png","0","indirect","10",""
"","html-keyboard-response","134","402926","0.0-8.0-0.11","11rkr31uq3","one_one","1","indirect_first","0","ki04as07","0","20","1","1","3","1","","0","0","0","null","","","<div style=""font-size:60px;"">+</div>","null","","","","","","","","","",""
"","html-keyboard-response","135","403022","0.0-8.0-1.11","11rkr31uq3","one_one","1","indirect_first","0","ki04as07","0","20","1","1","3","1","","0","0","0","null","","","<img src = 'category2/CS8.png' width = '100%;'>","null","","","","","","","","","",""
"","html-keyboard-response","136","403281","0.0-8.0-2.11","11rkr31uq3","one_one","1","indirect_first","0","ki04as07","0","20","1","1","3","1","","0","0","0","null","","","<img src = 'targets/24.png' width = '100%;'>","null","","","","","","","","","",""
"","html-keyboard-response","137","404379","0.0-8.0-3.11","11rkr31uq3","one_one","1","indirect_first","0","ki04as07","0","20","1","1","3","1","","0","0","0","1096.8350000039209","","","<img src = 'targets/mask.png' width = '100%;'>","75","pos","GS","GSold","2","category2/CS8.png","targets/24.png","1","indirect","11",""
"","html-keyboard-response","138","405885","0.0-8.0-0.12","11rkr31uq3","one_one","1","indirect_first","0","ki04as07","0","20","1","1","3","1","","0","0","0","null","","","<div style=""font-size:60px;"">+</div>","null","","","","","","","","","",""
"","html-keyboard-response","139","405979","0.0-8.0-1.12","11rkr31uq3","one_one","1","indirect_first","0","ki04as07","0","20","1","1","3","1","","0","0","0","null","","","<img src = 'category3/CS9.png' width = '100%;'>","null","","","","","","","","","",""
"","html-keyboard-response","140","406241","0.0-8.0-2.12","11rkr31uq3","one_one","1","indirect_first","0","ki04as07","0","20","1","1","3","1","","0","0","0","null","","","<img src = 'targets/47.png' width = '100%;'>","null","","","","","","","","","",""
"","html-keyboard-response","141","408051","0.0-8.0-3.12","11rkr31uq3","one_one","1","indirect_first","0","ki04as07","0","20","1","1","3","1","","0","0","0","1808.6199999961536","","","<img src = 'targets/mask.png' width = '100%;'>","75","pos","GS","GSold","3","category3/CS9.png","targets/47.png","1","indirect","12",""
"","html-keyboard-response","142","409562","0.0-8.0-0.13","11rkr31uq3","one_one","1","indirect_first","0","ki04as07","0","20","1","1","3","1","","0","0","0","null","","","<div style=""font-size:60px;"">+</div>","null","","","","","","","","","",""
"","html-keyboard-response","143","409655","0.0-8.0-1.13","11rkr31uq3","one_one","1","indirect_first","0","ki04as07","0","20","1","1","3","1","","0","0","0","null","","","<img src = 'category1/CS10.png' width = '100%;'>","null","","","","","","","","","",""
"","html-keyboard-response","144","409913","0.0-8.0-2.13","11rkr31uq3","one_one","1","indirect_first","0","ki04as07","0","20","1","1","3","1","","0","0","0","null","","","<img src = 'targets/41.png' width = '100%;'>","null","","","","","","","","","",""
"","html-keyboard-response","145","410732","0.0-8.0-3.13","11rkr31uq3","one_one","1","indirect_first","0","ki04as07","0","20","1","1","3","1","","0","0","0","817.1849999926053","","","<img src = 'targets/mask.png' width = '100%;'>","68","neg","GS","GSold","1","category1/CS10.png","targets/41.png","0","indirect","13",""
"","html-keyboard-response","146","412242","0.0-8.0-0.14","11rkr31uq3","one_one","1","indirect_first","0","ki04as07","0","20","1","1","3","1","","0","0","0","null","","","<div style=""font-size:60px;"">+</div>","null","","","","","","","","","",""
"","html-keyboard-response","147","412338","0.0-8.0-1.14","11rkr31uq3","one_one","1","indirect_first","0","ki04as07","0","20","1","1","3","1","","0","0","0","null","","","<img src = 'category4/CS10.png' width = '100%;'>","null","","","","","","","","","",""
"","html-keyboard-response","148","412596","0.0-8.0-2.14","11rkr31uq3","one_one","1","indirect_first","0","ki04as07","0","20","1","1","3","1","","0","0","0","null","","","<img src = 'targets/38.png' width = '100%;'>","null","","","","","","","","","",""
"","html-keyboard-response","149","413781","0.0-8.0-3.14","11rkr31uq3","one_one","1","indirect_first","0","ki04as07","0","20","1","1","3","1","","0","0","0","1183.6100000073202","","","<img src = 'targets/mask.png' width = '100%;'>","68","neg","GS","GSold","4","category4/CS10.png","targets/38.png","0","indirect","14",""
"","html-keyboard-response","150","415287","0.0-8.0-0.15","11rkr31uq3","one_one","1","indirect_first","0","ki04as07","0","20","1","1","3","1","","0","0","0","null","","","<div style=""font-size:60px;"">+</div>","null","","","","","","","","","",""
"","html-keyboard-response","151","415383","0.0-8.0-1.15","11rkr31uq3","one_one","1","indirect_first","0","ki04as07","0","20","1","1","3","1","","0","0","0","null","","","<img src = 'category3/CS6.png' width = '100%;'>","null","","","","","","","","","",""
"","html-keyboard-response","152","415643","0.0-8.0-2.15","11rkr31uq3","one_one","1","indirect_first","0","ki04as07","0","20","1","1","3","1","","0","0","0","null","","","<img src = 'targets/1.png' width = '100%;'>","null","","","","","","","","","",""
"","html-keyboard-response","153","416721","0.0-8.0-3.15","11rkr31uq3","one_one","1","indirect_first","0","ki04as07","0","20","1","1","3","1","","0","0","0","1076.039999985369","","","<img src = 'targets/mask.png' width = '100%;'>","75","pos","CS","CS","3","category3/CS6.png","targets/1.png","1","indirect","15",""
"","survey-html-form","154","419297","0.0-9.0","11rkr31uq3","one_one","1","indirect_first","0","ki04as07","0","20","1","1","3","1","","0","0","0","2071.7299999960233","","{}","","","","","","","","","","","",""
"","html-keyboard-response","155","422304","0.0-10.0-0.0","11rkr31uq3","one_one","1","indirect_first","0","ki04as07","0","20","1","1","3","1","","0","0","0","null","","","<div style=""font-size:60px;"">+</div>","null","","","","","","","","","",""
"","html-keyboard-response","156","422397","0.0-10.0-1.0","11rkr31uq3","one_one","1","indirect_first","0","ki04as07","0","20","1","1","3","1","","0","0","0","null","","","<img src = 'category4/GS3.png' width = '100%;'>","null","","","","","","","","","",""
"","html-keyboard-response","157","422658","0.0-10.0-2.0","11rkr31uq3","one_one","1","indirect_first","0","ki04as07","0","20","1","1","3","1","","0","0","0","null","","","<img src = 'targets/21.png' width = '100%;'>","null","","","","","","","","","",""
"","html-keyboard-response","158","424777","0.0-10.0-3.0","11rkr31uq3","one_one","1","indirect_first","0","ki04as07","0","20","1","1","3","1","","0","0","0","2117.599999997765","","","<img src = 'targets/mask.png' width = '100%;'>","75","neg","GS","GSnew","4","category4/GS3.png","targets/21.png","1","indirect","16",""
"","html-keyboard-response","159","426281","0.0-10.0-0.1","11rkr31uq3","one_one","1","indirect_first","0","ki04as07","0","20","1","1","3","1","","0","0","0","null","","","<div style=""font-size:60px;"">+</div>","null","","","","","","","","","",""
"","html-keyboard-response","160","426372","0.0-10.0-1.1","11rkr31uq3","one_one","1","indirect_first","0","ki04as07","0","20","1","1","3","1","","0","0","0","null","","","<img src = 'category2/men.png' width = '100%;'>","null","","","","","","","","","",""
"","html-keyboard-response","161","426634","0.0-10.0-2.1","11rkr31uq3","one_one","1","indirect_first","0","ki04as07","0","20","1","1","3","1","","0","0","0","null","","","<img src = 'targets/14.png' width = '100%;'>","null","","","","","","","","","",""
"","html-keyboard-response","162","427457","0.0-10.0-3.1","11rkr31uq3","one_one","1","indirect_first","0","ki04as07","0","20","1","1","3","1","","0","0","0","821.6350000002421","","","<img src = 'targets/mask.png' width = '100%;'>","75","pos","GS","abstract","2","category2/men.png","targets/14.png","1","indirect","17",""
"","html-keyboard-response","163","428963","0.0-10.0-0.2","11rkr31uq3","one_one","1","indirect_first","0","ki04as07","0","20","1","1","3","1","","0","0","0","null","","","<div style=""font-size:60px;"">+</div>","null","","","","","","","","","",""
"","html-keyboard-response","164","429056","0.0-10.0-1.2","11rkr31uq3","one_one","1","indirect_first","0","ki04as07","0","20","1","1","3","1","","0","0","0","null","","","<img src = 'category4/GS2.png' width = '100%;'>","null","","","","","","","","","",""
"","html-keyboard-response","165","429314","0.0-10.0-2.2","11rkr31uq3","one_one","1","indirect_first","0","ki04as07","0","20","1","1","3","1","","0","0","0","null","","","<img src = 'targets/30.png' width = '100%;'>","null","","","","","","","","","",""
"","html-keyboard-response","166","430097","0.0-10.0-3.2","11rkr31uq3","one_one","1","indirect_first","0","ki04as07","0","20","1","1","3","1","","0","0","0","782.1399999957066","","","<img src = 'targets/mask.png' width = '100%;'>","68","neg","GS","GSnew","4","category4/GS2.png","targets/30.png","0","indirect","18",""
"","html-keyboard-response","167","431609","0.0-10.0-0.3","11rkr31uq3","one_one","1","indirect_first","0","ki04as07","0","20","1","1","3","1","","0","0","0","null","","","<div style=""font-size:60px;"">+</div>","null","","","","","","","","","",""
"","html-keyboard-response","168","431701","0.0-10.0-1.3","11rkr31uq3","one_one","1","indirect_first","0","ki04as07","0","20","1","1","3","1","","0","0","0","null","","","<img src = 'category2/GS3.png' width = '100%;'>","null","","","","","","","","","",""
"","html-keyboard-response","169","431962","0.0-10.0-2.3","11rkr31uq3","one_one","1","indirect_first","0","ki04as07","0","20","1","1","3","1","","0","0","0","null","","","<img src = 'targets/16.png' width = '100%;'>","null","","","","","","","","","",""
"","html-keyboard-response","170","432749","0.0-10.0-3.3","11rkr31uq3","one_one","1","indirect_first","0","ki04as07","0","20","1","1","3","1","","0","0","0","786.3150000048336","","","<img src = 'targets/mask.png' width = '100%;'>","75","pos","GS","GSnew","2","category2/GS3.png","targets/16.png","1","indirect","19",""
"","html-keyboard-response","171","434252","0.0-10.0-0.4","11rkr31uq3","one_one","1","indirect_first","0","ki04as07","0","20","1","1","3","1","","0","0","0","null","","","<div style=""font-size:60px;"">+</div>","null","","","","","","","","","",""
"","html-keyboard-response","172","434346","0.0-10.0-1.4","11rkr31uq3","one_one","1","indirect_first","0","ki04as07","0","20","1","1","3","1","","0","0","0","null","","","<img src = 'category1/GS3.png' width = '100%;'>","null","","","","","","","","","",""
"","html-keyboard-response","173","434607","0.0-10.0-2.4","11rkr31uq3","one_one","1","indirect_first","0","ki04as07","0","20","1","1","3","1","","0","0","0","null","","","<img src = 'targets/36.png' width = '100%;'>","null","","","","","","","","","",""
"","html-keyboard-response","174","435512","0.0-10.0-3.4","11rkr31uq3","one_one","1","indirect_first","0","ki04as07","0","20","1","1","3","1","","0","0","0","904.3050000036601","","","<img src = 'targets/mask.png' width = '100%;'>","75","neg","GS","GSnew","1","category1/GS3.png","targets/36.png","1","indirect","20",""
"","html-keyboard-response","175","437023","0.0-10.0-0.5","11rkr31uq3","one_one","1","indirect_first","0","ki04as07","0","20","1","1","3","1","","0","0","0","null","","","<div style=""font-size:60px;"">+</div>","null","","","","","","","","","",""
"","html-keyboard-response","176","437120","0.0-10.0-1.5","11rkr31uq3","one_one","1","indirect_first","0","ki04as07","0","20","1","1","3","1","","0","0","0","null","","","<img src = 'category3/GS3.png' width = '100%;'>","null","","","","","","","","","",""
"","html-keyboard-response","177","437379","0.0-10.0-2.5","11rkr31uq3","one_one","1","indirect_first","0","ki04as07","0","20","1","1","3","1","","0","0","0","null","","","<img src = 'targets/28.png' width = '100%;'>","null","","","","","","","","","",""
"","html-keyboard-response","178","438361","0.0-10.0-3.5","11rkr31uq3","one_one","1","indirect_first","0","ki04as07","0","20","1","1","3","1","","0","0","0","980.8750000083819","","","<img src = 'targets/mask.png' width = '100%;'>","68","pos","GS","GSnew","3","category3/GS3.png","targets/28.png","0","indirect","21",""
"","html-keyboard-response","179","439871","0.0-10.0-0.6","11rkr31uq3","one_one","1","indirect_first","0","ki04as07","0","20","1","1","3","1","","0","0","0","null","","","<div style=""font-size:60px;"">+</div>","null","","","","","","","","","",""
"","html-keyboard-response","180","439968","0.0-10.0-1.6","11rkr31uq3","one_one","1","indirect_first","0","ki04as07","0","20","1","1","3","1","","0","0","0","null","","","<img src = 'category1/GS2.png' width = '100%;'>","null","","","","","","","","","",""
"","html-keyboard-response","181","440227","0.0-10.0-2.6","11rkr31uq3","one_one","1","indirect_first","0","ki04as07","0","20","1","1","3","1","","0","0","0","null","","","<img src = 'targets/34.png' width = '100%;'>","null","","","","","","","","","",""
"","html-keyboard-response","182","440696","0.0-10.0-3.6","11rkr31uq3","one_one","1","indirect_first","0","ki04as07","0","20","1","1","3","1","","0","0","0","467.27500000270084","","","<img src = 'targets/mask.png' width = '100%;'>","75","neg","GS","GSnew","1","category1/GS2.png","targets/34.png","1","indirect","22",""
"","html-keyboard-response","183","442202","0.0-10.0-0.7","11rkr31uq3","one_one","1","indirect_first","0","ki04as07","0","20","1","1","3","1","","0","0","0","null","","","<div style=""font-size:60px;"">+</div>","null","","","","","","","","","",""
"","html-keyboard-response","184","442294","0.0-10.0-1.7","11rkr31uq3","one_one","1","indirect_first","0","ki04as07","0","20","1","1","3","1","","0","0","0","null","","","<img src = 'category3/GS2.png' width = '100%;'>","null","","","","","","","","","",""
"","html-keyboard-response","185","442553","0.0-10.0-2.7","11rkr31uq3","one_one","1","indirect_first","0","ki04as07","0","20","1","1","3","1","","0","0","0","null","","","<img src = 'targets/11.png' width = '100%;'>","null","","","","","","","","","",""
"","html-keyboard-response","186","443862","0.0-10.0-3.7","11rkr31uq3","one_one","1","indirect_first","0","ki04as07","0","20","1","1","3","1","","0","0","0","1307.8450000029989","","","<img src = 'targets/mask.png' width = '100%;'>","68","pos","GS","GSnew","3","category3/GS2.png","targets/11.png","0","indirect","23",""
"","html-keyboard-response","187","445370","0.0-10.0-0.8","11rkr31uq3","one_one","1","indirect_first","0","ki04as07","0","20","1","1","3","1","","0","0","0","null","","","<div style=""font-size:60px;"">+</div>","null","","","","","","","","","",""
"","html-keyboard-response","188","445464","0.0-10.0-1.8","11rkr31uq3","one_one","1","indirect_first","0","ki04as07","0","20","1","1","3","1","","0","0","0","null","","","<img src = 'category1/ma.png' width = '100%;'>","null","","","","","","","","","",""
"","html-keyboard-response","189","445722","0.0-10.0-2.8","11rkr31uq3","one_one","1","indirect_first","0","ki04as07","0","20","1","1","3","1","","0","0","0","null","","","<img src = 'targets/18.png' width = '100%;'>","null","","","","","","","","","",""
"","html-keyboard-response","190","446425","0.0-10.0-3.8","11rkr31uq3","one_one","1","indirect_first","0","ki04as07","0","20","1","1","3","1","","0","0","0","701.5200000023469","","","<img src = 'targets/mask.png' width = '100%;'>","68","neg","GS","abstract","1","category1/ma.png","targets/18.png","0","indirect","24",""
"","html-keyboard-response","191","447935","0.0-10.0-0.9","11rkr31uq3","one_one","1","indirect_first","0","ki04as07","0","20","1","1","3","1","","0","0","0","null","","","<div style=""font-size:60px;"">+</div>","null","","","","","","","","","",""
"","html-keyboard-response","192","448028","0.0-10.0-1.9","11rkr31uq3","one_one","1","indirect_first","0","ki04as07","0","20","1","1","3","1","","0","0","0","null","","","<img src = 'category4/lin.png' width = '100%;'>","null","","","","","","","","","",""
"","html-keyboard-response","193","448289","0.0-10.0-2.9","11rkr31uq3","one_one","1","indirect_first","0","ki04as07","0","20","1","1","3","1","","0","0","0","null","","","<img src = 'targets/35.png' width = '100%;'>","null","","","","","","","","","",""
"","html-keyboard-response","194","449616","0.0-10.0-3.9","11rkr31uq3","one_one","1","indirect_first","0","ki04as07","0","20","1","1","3","1","","0","0","0","1325.8199999982025","","","<img src = 'targets/mask.png' width = '100%;'>","68","neg","GS","abstract","4","category4/lin.png","targets/35.png","0","indirect","25",""
"","html-keyboard-response","195","451125","0.0-10.0-0.10","11rkr31uq3","one_one","1","indirect_first","0","ki04as07","0","20","1","1","3","1","","0","0","0","null","","","<div style=""font-size:60px;"">+</div>","null","","","","","","","","","",""
"","html-keyboard-response","196","451216","0.0-10.0-1.10","11rkr31uq3","one_one","1","indirect_first","0","ki04as07","0","20","1","1","3","1","","0","0","0","null","","","<img src = 'category4/GS1.png' width = '100%;'>","null","","","","","","","","","",""
"","html-keyboard-response","197","451478","0.0-10.0-2.10","11rkr31uq3","one_one","1","indirect_first","0","ki04as07","0","20","1","1","3","1","","0","0","0","null","","","<img src = 'targets/27.png' width = '100%;'>","null","","","","","","","","","",""
"","html-keyboard-response","198","452180","0.0-10.0-3.10","11rkr31uq3","one_one","1","indirect_first","0","ki04as07","0","20","1","1","3","1","","0","0","0","700.2949999878183","","","<img src = 'targets/mask.png' width = '100%;'>","75","neg","GS","GSnew","4","category4/GS1.png","targets/27.png","1","indirect","26",""
"","html-keyboard-response","199","453687","0.0-10.0-0.11","11rkr31uq3","one_one","1","indirect_first","0","ki04as07","0","20","1","1","3","1","","0","0","0","null","","","<div style=""font-size:60px;"">+</div>","null","","","","","","","","","",""
"","html-keyboard-response","200","453781","0.0-10.0-1.11","11rkr31uq3","one_one","1","indirect_first","0","ki04as07","0","20","1","1","3","1","","0","0","0","null","","","<img src = 'category3/wang.png' width = '100%;'>","null","","","","","","","","","",""
"","html-keyboard-response","201","454040","0.0-10.0-2.11","11rkr31uq3","one_one","1","indirect_first","0","ki04as07","0","20","1","1","3","1","","0","0","0","null","","","<img src = 'targets/3.png' width = '100%;'>","null","","","","","","","","","",""
"","html-keyboard-response","202","454718","0.0-10.0-3.11","11rkr31uq3","one_one","1","indirect_first","0","ki04as07","0","20","1","1","3","1","","0","0","0","676.579999999376","","","<img src = 'targets/mask.png' width = '100%;'>","68","pos","GS","abstract","3","category3/wang.png","targets/3.png","0","indirect","27",""
"","html-keyboard-response","203","456229","0.0-10.0-0.12","11rkr31uq3","one_one","1","indirect_first","0","ki04as07","0","20","1","1","3","1","","0","0","0","null","","","<div style=""font-size:60px;"">+</div>","null","","","","","","","","","",""
"","html-keyboard-response","204","456320","0.0-10.0-1.12","11rkr31uq3","one_one","1","indirect_first","0","ki04as07","0","20","1","1","3","1","","0","0","0","null","","","<img src = 'category3/GS1.png' width = '100%;'>","null","","","","","","","","","",""
"","html-keyboard-response","205","456574","0.0-10.0-2.12","11rkr31uq3","one_one","1","indirect_first","0","ki04as07","0","20","1","1","3","1","","0","0","0","null","","","<img src = 'targets/4.png' width = '100%;'>","null","","","","","","","","","",""
"","html-keyboard-response","206","457579","0.0-10.0-3.12","11rkr31uq3","one_one","1","indirect_first","0","ki04as07","0","20","1","1","3","1","","0","0","0","1004.0399999998044","","","<img src = 'targets/mask.png' width = '100%;'>","75","pos","GS","GSnew","3","category3/GS1.png","targets/4.png","1","indirect","28",""
"","html-keyboard-response","207","459091","0.0-10.0-0.13","11rkr31uq3","one_one","1","indirect_first","0","ki04as07","0","20","1","1","3","1","","0","0","0","null","","","<div style=""font-size:60px;"">+</div>","null","","","","","","","","","",""
"","html-keyboard-response","208","459187","0.0-10.0-1.13","11rkr31uq3","one_one","1","indirect_first","0","ki04as07","0","20","1","1","3","1","","0","0","0","null","","","<img src = 'category2/GS2.png' width = '100%;'>","null","","","","","","","","","",""
"","html-keyboard-response","209","459442","0.0-10.0-2.13","11rkr31uq3","one_one","1","indirect_first","0","ki04as07","0","20","1","1","3","1","","0","0","0","null","","","<img src = 'targets/48.png' width = '100%;'>","null","","","","","","","","","",""
"","html-keyboard-response","210","460128","0.0-10.0-3.13","11rkr31uq3","one_one","1","indirect_first","0","ki04as07","0","20","1","1","3","1","","0","0","0","684.8400000017136","","","<img src = 'targets/mask.png' width = '100%;'>","68","pos","GS","GSnew","2","category2/GS2.png","targets/48.png","0","indirect","29",""
"","html-keyboard-response","211","461635","0.0-10.0-0.14","11rkr31uq3","one_one","1","indirect_first","0","ki04as07","0","20","1","1","3","1","","0","0","0","null","","","<div style=""font-size:60px;"">+</div>","null","","","","","","","","","",""
"","html-keyboard-response","212","461727","0.0-10.0-1.14","11rkr31uq3","one_one","1","indirect_first","0","ki04as07","0","20","1","1","3","1","","0","0","0","null","","","<img src = 'category1/GS1.png' width = '100%;'>","null","","","","","","","","","",""
"","html-keyboard-response","213","461986","0.0-10.0-2.14","11rkr31uq3","one_one","1","indirect_first","0","ki04as07","0","20","1","1","3","1","","0","0","0","null","","","<img src = 'targets/31.png' width = '100%;'>","null","","","","","","","","","",""
"","html-keyboard-response","214","462814","0.0-10.0-3.14","11rkr31uq3","one_one","1","indirect_first","0","ki04as07","0","20","1","1","3","1","","0","0","0","826.1300000012852","","","<img src = 'targets/mask.png' width = '100%;'>","75","neg","GS","GSnew","1","category1/GS1.png","targets/31.png","1","indirect","30",""
"","html-keyboard-response","215","464321","0.0-10.0-0.15","11rkr31uq3","one_one","1","indirect_first","0","ki04as07","0","20","1","1","3","1","","0","0","0","null","","","<div style=""font-size:60px;"">+</div>","null","","","","","","","","","",""
"","html-keyboard-response","216","464412","0.0-10.0-1.15","11rkr31uq3","one_one","1","indirect_first","0","ki04as07","0","20","1","1","3","1","","0","0","0","null","","","<img src = 'category2/GS1.png' width = '100%;'>","null","","","","","","","","","",""
"","html-keyboard-response","217","464670","0.0-10.0-2.15","11rkr31uq3","one_one","1","indirect_first","0","ki04as07","0","20","1","1","3","1","","0","0","0","null","","","<img src = 'targets/46.png' width = '100%;'>","null","","","","","","","","","",""
"","html-keyboard-response","218","469647","0.0-10.0-3.15","11rkr31uq3","one_one","1","indirect_first","0","ki04as07","0","20","1","1","3","1","","0","0","0","4975.415000022622","","","<img src = 'targets/mask.png' width = '100%;'>","68","pos","GS","GSnew","2","category2/GS1.png","targets/46.png","0","indirect","31",""
"","survey-html-form","219","479825","0.0-11.0","11rkr31uq3","one_one","1","indirect_first","0","ki04as07","0","20","1","1","3","1","","0","0","0","9672.105000005104","","{}","","","","","","","","","","","",""
"","image-slider-response","220","486867","0.0-12.0-0.0","11rkr31uq3","one_one","1","indirect_first","0","ki04as07","0","20","1","1","3","1","","0","0","0","5033.489999972517","","","","","pos","GS","abstract","3","category3/wang.png","targets/3.png","","direct","","100"
"","image-slider-response","221","488615","0.0-12.0-0.1","11rkr31uq3","one_one","1","indirect_first","0","ki04as07","0","20","1","1","3","1","","0","0","0","1746.1100000073202","","","","","neg","GS","abstract","1","category1/ma.png","targets/18.png","","direct","","-27"
"","image-slider-response","222","493355","0.0-12.0-0.2","11rkr31uq3","one_one","1","indirect_first","0","ki04as07","0","20","1","1","3","1","","0","0","0","4737.940000020899","","","","","pos","GS","GSnew","2","category2/GS3.png","targets/16.png","","direct","","47"
"","image-slider-response","223","500003","0.0-12.0-0.3","11rkr31uq3","one_one","1","indirect_first","0","ki04as07","0","20","1","1","3","1","","0","0","0","6646.889999974519","","","","","neg","GS","abstract","4","category4/lin.png","targets/35.png","","direct","","-4"
"","image-slider-response","224","502347","0.0-12.0-0.4","11rkr31uq3","one_one","1","indirect_first","0","ki04as07","0","20","1","1","3","1","","0","0","0","2341.85000002617","","","","","pos","GS","GSnew","3","category3/GS2.png","targets/11.png","","direct","","41"
"","image-slider-response","225","505549","0.0-12.0-0.5","11rkr31uq3","one_one","1","indirect_first","0","ki04as07","0","20","1","1","3","1","","0","0","0","3200.489999988349","","","","","neg","GS","GSnew","4","category4/GS3.png","targets/21.png","","direct","","-30"
"","image-slider-response","226","508792","0.0-12.0-0.6","11rkr31uq3","one_one","1","indirect_first","0","ki04as07","0","20","1","1","3","1","","0","0","0","3241.5499999769963","","","","","pos","CS","CS","2","category2/CS7.png","targets/13.png","","direct","","-73"
"","image-slider-response","227","511128","0.0-12.0-0.7","11rkr31uq3","one_one","1","indirect_first","0","ki04as07","0","20","1","1","3","1","","0","0","0","2334.499999997206","","","","","neg","GS","GSnew","1","category1/GS3.png","targets/36.png","","direct","","-15"
"","image-slider-response","228","514600","0.0-12.0-0.8","11rkr31uq3","one_one","1","indirect_first","0","ki04as07","0","20","1","1","3","1","","0","0","0","3469.920000003185","","","","","neg","GS","GSnew","4","category4/GS1.png","targets/27.png","","direct","","40"
"","image-slider-response","229","516691","0.0-12.0-0.9","11rkr31uq3","one_one","1","indirect_first","0","ki04as07","0","20","1","1","3","1","","0","0","0","2089.6150000044145","","","","","pos","GS","GSnew","2","category2/GS1.png","targets/46.png","","direct","","-81"
"","image-slider-response","230","518326","0.0-12.0-0.10","11rkr31uq3","one_one","1","indirect_first","0","ki04as07","0","20","1","1","3","1","","0","0","0","1633.1449999997858","","","","","pos","GS","GSold","2","category2/CS3.png","targets/44.png","","direct","","-32"
"","image-slider-response","231","520514","0.0-12.0-0.11","11rkr31uq3","one_one","1","indirect_first","0","ki04as07","0","20","1","1","3","1","","0","0","0","2186.870000005001","","","","","neg","GS","GSnew","1","category1/GS1.png","targets/31.png","","direct","","-80"
"","image-slider-response","232","523212","0.0-12.0-0.12","11rkr31uq3","one_one","1","indirect_first","0","ki04as07","0","20","1","1","3","1","","0","0","0","2695.644999999786","","","","","neg","CS","CS","1","category1/CS9.png","targets/42.png","","direct","","-48"
"","image-slider-response","233","525311","0.0-12.0-0.13","11rkr31uq3","one_one","1","indirect_first","0","ki04as07","0","20","1","1","3","1","","0","0","0","2097.9200000001583","","","","","neg","GS","GSold","4","category4/CS10.png","targets/38.png","","direct","","-83"
"","image-slider-response","234","528127","0.0-12.0-0.14","11rkr31uq3","one_one","1","indirect_first","0","ki04as07","0","20","1","1","3","1","","0","0","0","2815.024999988964","","","","","neg","GS","GSnew","4","category4/GS2.png","targets/30.png","","direct","","48"
"","image-slider-response","235","530891","0.0-12.0-0.15","11rkr31uq3","one_one","1","indirect_first","0","ki04as07","0","20","1","1","3","1","","0","0","0","2761.1350000079256","","","","","neg","GS","GSold","1","category1/CS8.png","targets/37.png","","direct","","-70"
"","image-slider-response","236","532727","0.0-12.0-0.16","11rkr31uq3","one_one","1","indirect_first","0","ki04as07","0","20","1","1","3","1","","0","0","0","1835.0849999987986","","","","","pos","GS","GSold","2","category2/CS8.png","targets/24.png","","direct","","-53"
"","image-slider-response","237","534827","0.0-12.0-0.17","11rkr31uq3","one_one","1","indirect_first","0","ki04as07","0","20","1","1","3","1","","0","0","0","2097.7949999796692","","","","","pos","GS","GSnew","3","category3/GS3.png","targets/28.png","","direct","","100"
"","image-slider-response","238","537293","0.0-12.0-0.18","11rkr31uq3","one_one","1","indirect_first","0","ki04as07","0","20","1","1","3","1","","0","0","0","2465.204999985872","","","","","neg","GS","GSold","1","category1/CS10.png","targets/41.png","","direct","","34"
"","image-slider-response","239","539695","0.0-12.0-0.19","11rkr31uq3","one_one","1","indirect_first","0","ki04as07","0","20","1","1","3","1","","0","0","0","2400.1599999901373","","","","","pos","GS","GSnew","2","category2/GS2.png","targets/48.png","","direct","","-47"
"","image-slider-response","240","543127","0.0-12.0-0.20","11rkr31uq3","one_one","1","indirect_first","0","ki04as07","0","20","1","1","3","1","","0","0","0","3430.705000006128","","","","","neg","GS","GSold","4","category4/CS4.png","targets/33.png","","direct","","31"
"","image-slider-response","241","545234","0.0-12.0-0.21","11rkr31uq3","one_one","1","indirect_first","0","ki04as07","0","20","1","1","3","1","","0","0","0","2105.2199999976438","","","","","pos","GS","GSold","3","category3/CS1.png","targets/45.png","","direct","","-74"
"","image-slider-response","242","555583","0.0-12.0-0.22","11rkr31uq3","one_one","1","indirect_first","0","ki04as07","0","20","1","1","3","1","","0","0","0","10347.48500000569","","","","","neg","GS","GSold","4","category4/CS5.png","targets/19.png","","direct","","0"
"","image-slider-response","243","557781","0.0-12.0-0.23","11rkr31uq3","one_one","1","indirect_first","0","ki04as07","0","20","1","1","3","1","","0","0","0","2196.6749999846797","","","","","neg","GS","GSnew","1","category1/GS2.png","targets/34.png","","direct","","-69"
"","image-slider-response","244","559896","0.0-12.0-0.24","11rkr31uq3","one_one","1","indirect_first","0","ki04as07","0","20","1","1","3","1","","0","0","0","2114.050000003772","","","","","pos","GS","abstract","2","category2/men.png","targets/14.png","","direct","","60"
"","image-slider-response","245","561988","0.0-12.0-0.25","11rkr31uq3","one_one","1","indirect_first","0","ki04as07","0","20","1","1","3","1","","0","0","0","2090.620000002673","","","","","pos","GS","GSold","3","category3/CS9.png","targets/47.png","","direct","","11"
"","image-slider-response","246","564642","0.0-12.0-0.26","11rkr31uq3","one_one","1","indirect_first","0","ki04as07","0","20","1","1","3","1","","0","0","0","2652.215000009164","","","","","neg","CS","CS","4","category4/CS1.png","targets/6.png","","direct","","69"
"","image-slider-response","247","566277","0.0-12.0-0.27","11rkr31uq3","one_one","1","indirect_first","0","ki04as07","0","20","1","1","3","1","","0","0","0","1633.189999993192","","","","","pos","CS","CS","3","category3/CS6.png","targets/1.png","","direct","","-51"
"","image-slider-response","248","567853","0.0-12.0-0.28","11rkr31uq3","one_one","1","indirect_first","0","ki04as07","0","20","1","1","3","1","","0","0","0","1574.4650000124238","","","","","pos","GS","GSnew","3","category3/GS1.png","targets/4.png","","direct","","-46"
"","image-slider-response","249","570172","0.0-12.0-0.29","11rkr31uq3","one_one","1","indirect_first","0","ki04as07","0","20","1","1","3","1","","0","0","0","2318.219999986468","","","","","pos","GS","GSold","3","category3/CS3.png","targets/20.png","","direct","","36"
"","image-slider-response","250","572492","0.0-12.0-0.30","11rkr31uq3","one_one","1","indirect_first","0","ki04as07","0","20","1","1","3","1","","0","0","0","2318.4349999937695","","","","","neg","GS","GSold","1","category1/CS4.png","targets/22.png","","direct","","-100"
"","image-slider-response","251","574265","0.0-12.0-0.31","11rkr31uq3","one_one","1","indirect_first","0","ki04as07","0","20","1","1","3","1","","0","0","0","1771.1899999994785","","","","","pos","GS","GSold","2","category2/CS5.png","targets/25.png","","direct","","-63"
"","survey-html-form","252","578365","0.0-13.0","11rkr31uq3","one_one","1","indirect_first","0","ki04as07","0","20","1","1","3","1","","0","0","0","4099.1700000013225","","{}","","","","","","","","","","","",""
"","image-slider-response","253","583855","0.0-14.0-0.0","11rkr31uq3","one_one","1","indirect_first","0","ki04as07","0","20","1","1","3","1","","0","0","0","4483.055000018794","","","","","pos","All","all","2","category2/men_all.png","","","all","","40"
"","image-slider-response","254","586641","0.0-14.0-0.1","11rkr31uq3","one_one","1","indirect_first","0","ki04as07","0","20","1","1","3","1","","0","0","0","2784.110000007786","","","","","neg","All","all","4","category4/lin_all.png","","","all","","34"
"","image-slider-response","255","589663","0.0-14.0-0.2","11rkr31uq3","one_one","1","indirect_first","0","ki04as07","0","20","1","1","3","1","","0","0","0","3020.3850000107195","","","","","neg","All","all","1","category1/ma_all.png","","","all","","-50"
"","image-slider-response","256","592178","0.0-14.0-0.3","11rkr31uq3","one_one","1","indirect_first","0","ki04as07","0","20","1","1","3","1","","0","0","0","2513.7899999972433","","","","","pos","All","all","3","category3/wang_all.png","","","all","","100"
"","survey-text","257","594442","0.0-15.0","11rkr31uq3","one_one","1","indirect_first","0","ki04as07","0","20","1","1","3","1","","0","0","0","2255.4649999947287","","{""comment"":""""}","","","","","","","","","","","",""
"","survey-html-form","258","605935","0.0-16.0","11rkr31uq3","one_one","1","indirect_first","0","ki04as07","0","20","1","1","3","1","","0","0","0","11489.964999986114","","{""hinschauen"":""0"",""ablenkung"":""0"",""gewissenhaft"":""0""}","","","","","","","","","","","",""
