"success","trial_type","trial_index","time_elapsed","internal_node_id","subject","condition","condition_code","measure","measure_code","codeword","gender","age","education","chinese","fach","handedness","comment","hinschauen","ablenkung","gewissenhaft","rt","url","responses","stimulus","key_press","val","type","type_specific","category","cs_selected","response","target","task","indirect","nr_pres"
"true","fullscreen","0","4336","0.0-0.0","xz0v1fmlou","one_one","1","direct_first","1","ER05ER24","0","21","1","1","3","1","","0","0","0","","","","","","","","","","","","","","",""
"","external-html","1","28948","0.0-1.0","xz0v1fmlou","one_one","1","direct_first","1","ER05ER24","0","21","1","1","3","1","","0","0","0","24564.26499999361","text/information.html","","","","","","","","","","","","",""
"","external-html","2","38899","0.0-2.0","xz0v1fmlou","one_one","1","direct_first","1","ER05ER24","0","21","1","1","3","1","","0","0","0","9859.995000006165","text/consent.html","","","","","","","","","","","","",""
"","survey-html-form","3","89245","0.0-3.0","xz0v1fmlou","one_one","1","direct_first","1","ER05ER24","0","21","1","1","3","1","","0","0","0","50341.02500003064","","{""codeword_enter"":""ER05ER24""}","","","","","","","","","","","",""
"","survey-html-form","4","110507","0.0-4.0","xz0v1fmlou","one_one","1","direct_first","1","ER05ER24","0","21","1","1","3","1","","0","0","0","21255.850000015926","","{""age"":""21"",""education"":""1"",""subject"":""3"",""gender"":""0"",""handedness"":""1"",""chinese"":""1""}","","","","","","","","","","","",""
"","survey-html-form","5","119305","0.0-5.0","xz0v1fmlou","one_one","1","direct_first","1","ER05ER24","0","21","1","1","3","1","","0","0","0","8792.929999995977","","{}","","","","","","","","","","","",""
"","html-keyboard-response","6","123315","0.0-6.0-0.0-0.0","xz0v1fmlou","one_one","1","direct_first","1","ER05ER24","0","21","1","1","3","1","","0","0","0","null","","","<div class = 'row'><div class = 'column'><img src = 'category3/CS8.png' width = '70%;'></div><div class = 'column'><img src = 'uspos/8190.bmp' width = '100%;'></div></div>","null","pos","CS","CS","3","category3/CS8.png","","","","",""
"","html-keyboard-response","7","125822","0.0-6.0-0.0-0.1","xz0v1fmlou","one_one","1","direct_first","1","ER05ER24","0","21","1","1","3","1","","0","0","0","null","","","<div class = 'row'><div class = 'column'><img src = 'usneg/9330.bmp' width = '100%;'></div><div class = 'column'><img src = 'category1/CS9.png' width = '70%;'></div></div>","null","neg","CS","CS","1","category1/CS9.png","","","","",""
"","html-keyboard-response","8","128328","0.0-6.0-0.0-0.2","xz0v1fmlou","one_one","1","direct_first","1","ER05ER24","0","21","1","1","3","1","","0","0","0","null","","","<div class = 'row'><div class = 'column'><img src = 'category2/CS4.png' width = '70%;'></div><div class = 'column'><img src = 'usneg/9220.bmp' width = '100%;'></div></div>","null","neg","CS","CS","2","category2/CS4.png","","","","",""
"","html-keyboard-response","9","130836","0.0-6.0-0.0-0.3","xz0v1fmlou","one_one","1","direct_first","1","ER05ER24","0","21","1","1","3","1","","0","0","0","null","","","<div class = 'row'><div class = 'column'><img src = 'usneg/9330.bmp' width = '100%;'></div><div class = 'column'><img src = 'category1/CS9.png' width = '70%;'></div></div>","null","neg","CS","CS","1","category1/CS9.png","","","","",""
"","html-keyboard-response","10","133342","0.0-6.0-0.0-0.4","xz0v1fmlou","one_one","1","direct_first","1","ER05ER24","0","21","1","1","3","1","","0","0","0","null","","","<div class = 'row'><div class = 'column'><img src = 'category4/CS9.png' width = '70%;'></div><div class = 'column'><img src = 'uspos/5621.bmp' width = '100%;'></div></div>","null","pos","CS","CS","4","category4/CS9.png","","","","",""
"","html-keyboard-response","11","135848","0.0-6.0-0.0-0.5","xz0v1fmlou","one_one","1","direct_first","1","ER05ER24","0","21","1","1","3","1","","0","0","0","null","","","<div class = 'row'><div class = 'column'><img src = 'usneg/9330.bmp' width = '100%;'></div><div class = 'column'><img src = 'category1/CS9.png' width = '70%;'></div></div>","null","neg","CS","CS","1","category1/CS9.png","","","","",""
"","html-keyboard-response","12","138354","0.0-6.0-0.0-0.6","xz0v1fmlou","one_one","1","direct_first","1","ER05ER24","0","21","1","1","3","1","","0","0","0","null","","","<div class = 'row'><div class = 'column'><img src = 'category4/CS9.png' width = '70%;'></div><div class = 'column'><img src = 'uspos/5621.bmp' width = '100%;'></div></div>","null","pos","CS","CS","4","category4/CS9.png","","","","",""
"","html-keyboard-response","13","140861","0.0-6.0-0.0-0.7","xz0v1fmlou","one_one","1","direct_first","1","ER05ER24","0","21","1","1","3","1","","0","0","0","null","","","<div class = 'row'><div class = 'column'><img src = 'category2/CS4.png' width = '70%;'></div><div class = 'column'><img src = 'usneg/9220.bmp' width = '100%;'></div></div>","null","neg","CS","CS","2","category2/CS4.png","","","","",""
"","html-keyboard-response","14","143368","0.0-6.0-0.0-0.8","xz0v1fmlou","one_one","1","direct_first","1","ER05ER24","0","21","1","1","3","1","","0","0","0","null","","","<div class = 'row'><div class = 'column'><img src = 'uspos/5621.bmp' width = '100%;'></div><div class = 'column'><img src = 'category4/CS9.png' width = '70%;'></div></div>","null","pos","CS","CS","4","category4/CS9.png","","","","",""
"","html-keyboard-response","15","145873","0.0-6.0-0.0-0.9","xz0v1fmlou","one_one","1","direct_first","1","ER05ER24","0","21","1","1","3","1","","0","0","0","null","","","<div class = 'row'><div class = 'column'><img src = 'category1/CS9.png' width = '70%;'></div><div class = 'column'><img src = 'usneg/9330.bmp' width = '100%;'></div></div>","null","neg","CS","CS","1","category1/CS9.png","","","","",""
"","html-keyboard-response","16","148380","0.0-6.0-0.0-0.10","xz0v1fmlou","one_one","1","direct_first","1","ER05ER24","0","21","1","1","3","1","","0","0","0","null","","","<div class = 'row'><div class = 'column'><img src = 'uspos/8190.bmp' width = '100%;'></div><div class = 'column'><img src = 'category3/CS8.png' width = '70%;'></div></div>","null","pos","CS","CS","3","category3/CS8.png","","","","",""
"","html-keyboard-response","17","150887","0.0-6.0-0.0-0.11","xz0v1fmlou","one_one","1","direct_first","1","ER05ER24","0","21","1","1","3","1","","0","0","0","null","","","<div class = 'row'><div class = 'column'><img src = 'usneg/9330.bmp' width = '100%;'></div><div class = 'column'><img src = 'category1/CS9.png' width = '70%;'></div></div>","null","neg","CS","CS","1","category1/CS9.png","","","","",""
"","html-keyboard-response","18","153394","0.0-6.0-0.0-0.12","xz0v1fmlou","one_one","1","direct_first","1","ER05ER24","0","21","1","1","3","1","","0","0","0","null","","","<div class = 'row'><div class = 'column'><img src = 'category2/CS4.png' width = '70%;'></div><div class = 'column'><img src = 'usneg/9220.bmp' width = '100%;'></div></div>","null","neg","CS","CS","2","category2/CS4.png","","","","",""
"","html-keyboard-response","19","155900","0.0-6.0-0.0-0.13","xz0v1fmlou","one_one","1","direct_first","1","ER05ER24","0","21","1","1","3","1","","0","0","0","null","","","<div class = 'row'><div class = 'column'><img src = 'category4/CS9.png' width = '70%;'></div><div class = 'column'><img src = 'uspos/5621.bmp' width = '100%;'></div></div>","null","pos","CS","CS","4","category4/CS9.png","","","","",""
"","html-keyboard-response","20","158405","0.0-6.0-0.0-0.14","xz0v1fmlou","one_one","1","direct_first","1","ER05ER24","0","21","1","1","3","1","","0","0","0","null","","","<div class = 'row'><div class = 'column'><img src = 'category3/CS8.png' width = '70%;'></div><div class = 'column'><img src = 'uspos/8190.bmp' width = '100%;'></div></div>","null","pos","CS","CS","3","category3/CS8.png","","","","",""
"","html-keyboard-response","21","160911","0.0-6.0-0.0-0.15","xz0v1fmlou","one_one","1","direct_first","1","ER05ER24","0","21","1","1","3","1","","0","0","0","null","","","<div class = 'row'><div class = 'column'><img src = 'category2/CS4.png' width = '70%;'></div><div class = 'column'><img src = 'usneg/9220.bmp' width = '100%;'></div></div>","null","neg","CS","CS","2","category2/CS4.png","","","","",""
"","html-keyboard-response","22","163416","0.0-6.0-0.0-0.16","xz0v1fmlou","one_one","1","direct_first","1","ER05ER24","0","21","1","1","3","1","","0","0","0","null","","","<div class = 'row'><div class = 'column'><img src = 'uspos/8190.bmp' width = '100%;'></div><div class = 'column'><img src = 'category3/CS8.png' width = '70%;'></div></div>","null","pos","CS","CS","3","category3/CS8.png","","","","",""
"","html-keyboard-response","23","165921","0.0-6.0-0.0-0.17","xz0v1fmlou","one_one","1","direct_first","1","ER05ER24","0","21","1","1","3","1","","0","0","0","null","","","<div class = 'row'><div class = 'column'><img src = 'uspos/5621.bmp' width = '100%;'></div><div class = 'column'><img src = 'category4/CS9.png' width = '70%;'></div></div>","null","pos","CS","CS","4","category4/CS9.png","","","","",""
"","html-keyboard-response","24","168429","0.0-6.0-0.0-0.18","xz0v1fmlou","one_one","1","direct_first","1","ER05ER24","0","21","1","1","3","1","","0","0","0","null","","","<div class = 'row'><div class = 'column'><img src = 'usneg/9220.bmp' width = '100%;'></div><div class = 'column'><img src = 'category2/CS4.png' width = '70%;'></div></div>","null","neg","CS","CS","2","category2/CS4.png","","","","",""
"","html-keyboard-response","25","170935","0.0-6.0-0.0-0.19","xz0v1fmlou","one_one","1","direct_first","1","ER05ER24","0","21","1","1","3","1","","0","0","0","null","","","<div class = 'row'><div class = 'column'><img src = 'category3/CS8.png' width = '70%;'></div><div class = 'column'><img src = 'uspos/8190.bmp' width = '100%;'></div></div>","null","pos","CS","CS","3","category3/CS8.png","","","","",""
"","survey-html-form","26","176235","0.0-6.0-1.0","xz0v1fmlou","one_one","1","direct_first","1","ER05ER24","0","21","1","1","3","1","","0","0","0","4796.744999999646","","{}","","","","","","","","","","","",""
"","html-keyboard-response","27","180243","0.0-6.0-2.0-0.0","xz0v1fmlou","one_one","1","direct_first","1","ER05ER24","0","21","1","1","3","1","","0","0","0","null","","","<div class = 'row'><div class = 'column'><img src = 'usneg/9330.bmp' width = '100%;'></div><div class = 'column'><img src = 'category1/CS9.png' width = '70%;'></div></div>","null","neg","CS","CS","1","category1/CS9.png","","","","",""
"","html-keyboard-response","28","182750","0.0-6.0-2.0-0.1","xz0v1fmlou","one_one","1","direct_first","1","ER05ER24","0","21","1","1","3","1","","0","0","0","null","","","<div class = 'row'><div class = 'column'><img src = 'category4/CS9.png' width = '70%;'></div><div class = 'column'><img src = 'uspos/5621.bmp' width = '100%;'></div></div>","null","pos","CS","CS","4","category4/CS9.png","","","","",""
"","html-keyboard-response","29","185255","0.0-6.0-2.0-0.2","xz0v1fmlou","one_one","1","direct_first","1","ER05ER24","0","21","1","1","3","1","","0","0","0","null","","","<div class = 'row'><div class = 'column'><img src = 'category1/CS9.png' width = '70%;'></div><div class = 'column'><img src = 'usneg/9330.bmp' width = '100%;'></div></div>","null","neg","CS","CS","1","category1/CS9.png","","","","",""
"","html-keyboard-response","30","187761","0.0-6.0-2.0-0.3","xz0v1fmlou","one_one","1","direct_first","1","ER05ER24","0","21","1","1","3","1","","0","0","0","null","","","<div class = 'row'><div class = 'column'><img src = 'category3/CS8.png' width = '70%;'></div><div class = 'column'><img src = 'uspos/8190.bmp' width = '100%;'></div></div>","null","pos","CS","CS","3","category3/CS8.png","","","","",""
"","html-keyboard-response","31","190268","0.0-6.0-2.0-0.4","xz0v1fmlou","one_one","1","direct_first","1","ER05ER24","0","21","1","1","3","1","","0","0","0","null","","","<div class = 'row'><div class = 'column'><img src = 'category2/CS4.png' width = '70%;'></div><div class = 'column'><img src = 'usneg/9220.bmp' width = '100%;'></div></div>","null","neg","CS","CS","2","category2/CS4.png","","","","",""
"","html-keyboard-response","32","192774","0.0-6.0-2.0-0.5","xz0v1fmlou","one_one","1","direct_first","1","ER05ER24","0","21","1","1","3","1","","0","0","0","null","","","<div class = 'row'><div class = 'column'><img src = 'uspos/5621.bmp' width = '100%;'></div><div class = 'column'><img src = 'category4/CS9.png' width = '70%;'></div></div>","null","pos","CS","CS","4","category4/CS9.png","","","","",""
"","html-keyboard-response","33","195282","0.0-6.0-2.0-0.6","xz0v1fmlou","one_one","1","direct_first","1","ER05ER24","0","21","1","1","3","1","","0","0","0","null","","","<div class = 'row'><div class = 'column'><img src = 'category2/CS4.png' width = '70%;'></div><div class = 'column'><img src = 'usneg/9220.bmp' width = '100%;'></div></div>","null","neg","CS","CS","2","category2/CS4.png","","","","",""
"","html-keyboard-response","34","197789","0.0-6.0-2.0-0.7","xz0v1fmlou","one_one","1","direct_first","1","ER05ER24","0","21","1","1","3","1","","0","0","0","null","","","<div class = 'row'><div class = 'column'><img src = 'uspos/8190.bmp' width = '100%;'></div><div class = 'column'><img src = 'category3/CS8.png' width = '70%;'></div></div>","null","pos","CS","CS","3","category3/CS8.png","","","","",""
"","html-keyboard-response","35","200297","0.0-6.0-2.0-0.8","xz0v1fmlou","one_one","1","direct_first","1","ER05ER24","0","21","1","1","3","1","","0","0","0","null","","","<div class = 'row'><div class = 'column'><img src = 'usneg/9330.bmp' width = '100%;'></div><div class = 'column'><img src = 'category1/CS9.png' width = '70%;'></div></div>","null","neg","CS","CS","1","category1/CS9.png","","","","",""
"","html-keyboard-response","36","202804","0.0-6.0-2.0-0.9","xz0v1fmlou","one_one","1","direct_first","1","ER05ER24","0","21","1","1","3","1","","0","0","0","null","","","<div class = 'row'><div class = 'column'><img src = 'category2/CS4.png' width = '70%;'></div><div class = 'column'><img src = 'usneg/9220.bmp' width = '100%;'></div></div>","null","neg","CS","CS","2","category2/CS4.png","","","","",""
"","html-keyboard-response","37","205311","0.0-6.0-2.0-0.10","xz0v1fmlou","one_one","1","direct_first","1","ER05ER24","0","21","1","1","3","1","","0","0","0","null","","","<div class = 'row'><div class = 'column'><img src = 'category4/CS9.png' width = '70%;'></div><div class = 'column'><img src = 'uspos/5621.bmp' width = '100%;'></div></div>","null","pos","CS","CS","4","category4/CS9.png","","","","",""
"","html-keyboard-response","38","207817","0.0-6.0-2.0-0.11","xz0v1fmlou","one_one","1","direct_first","1","ER05ER24","0","21","1","1","3","1","","0","0","0","null","","","<div class = 'row'><div class = 'column'><img src = 'category3/CS8.png' width = '70%;'></div><div class = 'column'><img src = 'uspos/8190.bmp' width = '100%;'></div></div>","null","pos","CS","CS","3","category3/CS8.png","","","","",""
"","html-keyboard-response","39","210325","0.0-6.0-2.0-0.12","xz0v1fmlou","one_one","1","direct_first","1","ER05ER24","0","21","1","1","3","1","","0","0","0","null","","","<div class = 'row'><div class = 'column'><img src = 'category1/CS9.png' width = '70%;'></div><div class = 'column'><img src = 'usneg/9330.bmp' width = '100%;'></div></div>","null","neg","CS","CS","1","category1/CS9.png","","","","",""
"","html-keyboard-response","40","212831","0.0-6.0-2.0-0.13","xz0v1fmlou","one_one","1","direct_first","1","ER05ER24","0","21","1","1","3","1","","0","0","0","null","","","<div class = 'row'><div class = 'column'><img src = 'uspos/8190.bmp' width = '100%;'></div><div class = 'column'><img src = 'category3/CS8.png' width = '70%;'></div></div>","null","pos","CS","CS","3","category3/CS8.png","","","","",""
"","html-keyboard-response","41","215337","0.0-6.0-2.0-0.14","xz0v1fmlou","one_one","1","direct_first","1","ER05ER24","0","21","1","1","3","1","","0","0","0","null","","","<div class = 'row'><div class = 'column'><img src = 'category2/CS4.png' width = '70%;'></div><div class = 'column'><img src = 'usneg/9220.bmp' width = '100%;'></div></div>","null","neg","CS","CS","2","category2/CS4.png","","","","",""
"","html-keyboard-response","42","217843","0.0-6.0-2.0-0.15","xz0v1fmlou","one_one","1","direct_first","1","ER05ER24","0","21","1","1","3","1","","0","0","0","null","","","<div class = 'row'><div class = 'column'><img src = 'category1/CS9.png' width = '70%;'></div><div class = 'column'><img src = 'usneg/9330.bmp' width = '100%;'></div></div>","null","neg","CS","CS","1","category1/CS9.png","","","","",""
"","html-keyboard-response","43","220350","0.0-6.0-2.0-0.16","xz0v1fmlou","one_one","1","direct_first","1","ER05ER24","0","21","1","1","3","1","","0","0","0","null","","","<div class = 'row'><div class = 'column'><img src = 'uspos/5621.bmp' width = '100%;'></div><div class = 'column'><img src = 'category4/CS9.png' width = '70%;'></div></div>","null","pos","CS","CS","4","category4/CS9.png","","","","",""
"","html-keyboard-response","44","222858","0.0-6.0-2.0-0.17","xz0v1fmlou","one_one","1","direct_first","1","ER05ER24","0","21","1","1","3","1","","0","0","0","null","","","<div class = 'row'><div class = 'column'><img src = 'uspos/8190.bmp' width = '100%;'></div><div class = 'column'><img src = 'category3/CS8.png' width = '70%;'></div></div>","null","pos","CS","CS","3","category3/CS8.png","","","","",""
"","html-keyboard-response","45","225363","0.0-6.0-2.0-0.18","xz0v1fmlou","one_one","1","direct_first","1","ER05ER24","0","21","1","1","3","1","","0","0","0","null","","","<div class = 'row'><div class = 'column'><img src = 'usneg/9220.bmp' width = '100%;'></div><div class = 'column'><img src = 'category2/CS4.png' width = '70%;'></div></div>","null","neg","CS","CS","2","category2/CS4.png","","","","",""
"","html-keyboard-response","46","227872","0.0-6.0-2.0-0.19","xz0v1fmlou","one_one","1","direct_first","1","ER05ER24","0","21","1","1","3","1","","0","0","0","null","","","<div class = 'row'><div class = 'column'><img src = 'uspos/5621.bmp' width = '100%;'></div><div class = 'column'><img src = 'category4/CS9.png' width = '70%;'></div></div>","null","pos","CS","CS","4","category4/CS9.png","","","","",""
"","survey-html-form","47","230525","0.0-6.0-3.0","xz0v1fmlou","one_one","1","direct_first","1","ER05ER24","0","21","1","1","3","1","","0","0","0","2148.830000020098","","{}","","","","","","","","","","","",""
"","html-keyboard-response","48","234532","0.0-6.0-4.0-0.0","xz0v1fmlou","one_one","1","direct_first","1","ER05ER24","0","21","1","1","3","1","","0","0","0","null","","","<div class = 'row'><div class = 'column'><img src = 'category3/CS8.png' width = '70%;'></div><div class = 'column'><img src = 'uspos/8190.bmp' width = '100%;'></div></div>","null","pos","CS","CS","3","category3/CS8.png","","","","",""
"","html-keyboard-response","49","237038","0.0-6.0-4.0-0.1","xz0v1fmlou","one_one","1","direct_first","1","ER05ER24","0","21","1","1","3","1","","0","0","0","null","","","<div class = 'row'><div class = 'column'><img src = 'category1/CS9.png' width = '70%;'></div><div class = 'column'><img src = 'usneg/9330.bmp' width = '100%;'></div></div>","null","neg","CS","CS","1","category1/CS9.png","","","","",""
"","html-keyboard-response","50","239546","0.0-6.0-4.0-0.2","xz0v1fmlou","one_one","1","direct_first","1","ER05ER24","0","21","1","1","3","1","","0","0","0","null","","","<div class = 'row'><div class = 'column'><img src = 'uspos/5621.bmp' width = '100%;'></div><div class = 'column'><img src = 'category4/CS9.png' width = '70%;'></div></div>","null","pos","CS","CS","4","category4/CS9.png","","","","",""
"","html-keyboard-response","51","242051","0.0-6.0-4.0-0.3","xz0v1fmlou","one_one","1","direct_first","1","ER05ER24","0","21","1","1","3","1","","0","0","0","null","","","<div class = 'row'><div class = 'column'><img src = 'usneg/9220.bmp' width = '100%;'></div><div class = 'column'><img src = 'category2/CS4.png' width = '70%;'></div></div>","null","neg","CS","CS","2","category2/CS4.png","","","","",""
"","html-keyboard-response","52","244559","0.0-6.0-4.0-0.4","xz0v1fmlou","one_one","1","direct_first","1","ER05ER24","0","21","1","1","3","1","","0","0","0","null","","","<div class = 'row'><div class = 'column'><img src = 'category4/CS9.png' width = '70%;'></div><div class = 'column'><img src = 'uspos/5621.bmp' width = '100%;'></div></div>","null","pos","CS","CS","4","category4/CS9.png","","","","",""
"","html-keyboard-response","53","247066","0.0-6.0-4.0-0.5","xz0v1fmlou","one_one","1","direct_first","1","ER05ER24","0","21","1","1","3","1","","0","0","0","null","","","<div class = 'row'><div class = 'column'><img src = 'category1/CS9.png' width = '70%;'></div><div class = 'column'><img src = 'usneg/9330.bmp' width = '100%;'></div></div>","null","neg","CS","CS","1","category1/CS9.png","","","","",""
"","html-keyboard-response","54","249570","0.0-6.0-4.0-0.6","xz0v1fmlou","one_one","1","direct_first","1","ER05ER24","0","21","1","1","3","1","","0","0","0","null","","","<div class = 'row'><div class = 'column'><img src = 'category2/CS4.png' width = '70%;'></div><div class = 'column'><img src = 'usneg/9220.bmp' width = '100%;'></div></div>","null","neg","CS","CS","2","category2/CS4.png","","","","",""
"","html-keyboard-response","55","252077","0.0-6.0-4.0-0.7","xz0v1fmlou","one_one","1","direct_first","1","ER05ER24","0","21","1","1","3","1","","0","0","0","null","","","<div class = 'row'><div class = 'column'><img src = 'category3/CS8.png' width = '70%;'></div><div class = 'column'><img src = 'uspos/8190.bmp' width = '100%;'></div></div>","null","pos","CS","CS","3","category3/CS8.png","","","","",""
"","html-keyboard-response","56","254582","0.0-6.0-4.0-0.8","xz0v1fmlou","one_one","1","direct_first","1","ER05ER24","0","21","1","1","3","1","","0","0","0","null","","","<div class = 'row'><div class = 'column'><img src = 'usneg/9220.bmp' width = '100%;'></div><div class = 'column'><img src = 'category2/CS4.png' width = '70%;'></div></div>","null","neg","CS","CS","2","category2/CS4.png","","","","",""
"","html-keyboard-response","57","257090","0.0-6.0-4.0-0.9","xz0v1fmlou","one_one","1","direct_first","1","ER05ER24","0","21","1","1","3","1","","0","0","0","null","","","<div class = 'row'><div class = 'column'><img src = 'category4/CS9.png' width = '70%;'></div><div class = 'column'><img src = 'uspos/5621.bmp' width = '100%;'></div></div>","null","pos","CS","CS","4","category4/CS9.png","","","","",""
"","html-keyboard-response","58","259596","0.0-6.0-4.0-0.10","xz0v1fmlou","one_one","1","direct_first","1","ER05ER24","0","21","1","1","3","1","","0","0","0","null","","","<div class = 'row'><div class = 'column'><img src = 'usneg/9330.bmp' width = '100%;'></div><div class = 'column'><img src = 'category1/CS9.png' width = '70%;'></div></div>","null","neg","CS","CS","1","category1/CS9.png","","","","",""
"","html-keyboard-response","59","262102","0.0-6.0-4.0-0.11","xz0v1fmlou","one_one","1","direct_first","1","ER05ER24","0","21","1","1","3","1","","0","0","0","null","","","<div class = 'row'><div class = 'column'><img src = 'uspos/8190.bmp' width = '100%;'></div><div class = 'column'><img src = 'category3/CS8.png' width = '70%;'></div></div>","null","pos","CS","CS","3","category3/CS8.png","","","","",""
"","html-keyboard-response","60","264608","0.0-6.0-4.0-0.12","xz0v1fmlou","one_one","1","direct_first","1","ER05ER24","0","21","1","1","3","1","","0","0","0","null","","","<div class = 'row'><div class = 'column'><img src = 'uspos/5621.bmp' width = '100%;'></div><div class = 'column'><img src = 'category4/CS9.png' width = '70%;'></div></div>","null","pos","CS","CS","4","category4/CS9.png","","","","",""
"","html-keyboard-response","61","267119","0.0-6.0-4.0-0.13","xz0v1fmlou","one_one","1","direct_first","1","ER05ER24","0","21","1","1","3","1","","0","0","0","null","","","<div class = 'row'><div class = 'column'><img src = 'uspos/8190.bmp' width = '100%;'></div><div class = 'column'><img src = 'category3/CS8.png' width = '70%;'></div></div>","null","pos","CS","CS","3","category3/CS8.png","","","","",""
"","html-keyboard-response","62","269625","0.0-6.0-4.0-0.14","xz0v1fmlou","one_one","1","direct_first","1","ER05ER24","0","21","1","1","3","1","","0","0","0","null","","","<div class = 'row'><div class = 'column'><img src = 'category4/CS9.png' width = '70%;'></div><div class = 'column'><img src = 'uspos/5621.bmp' width = '100%;'></div></div>","null","pos","CS","CS","4","category4/CS9.png","","","","",""
"","html-keyboard-response","63","272133","0.0-6.0-4.0-0.15","xz0v1fmlou","one_one","1","direct_first","1","ER05ER24","0","21","1","1","3","1","","0","0","0","null","","","<div class = 'row'><div class = 'column'><img src = 'uspos/8190.bmp' width = '100%;'></div><div class = 'column'><img src = 'category3/CS8.png' width = '70%;'></div></div>","null","pos","CS","CS","3","category3/CS8.png","","","","",""
"","html-keyboard-response","64","274645","0.0-6.0-4.0-0.16","xz0v1fmlou","one_one","1","direct_first","1","ER05ER24","0","21","1","1","3","1","","0","0","0","null","","","<div class = 'row'><div class = 'column'><img src = 'usneg/9220.bmp' width = '100%;'></div><div class = 'column'><img src = 'category2/CS4.png' width = '70%;'></div></div>","null","neg","CS","CS","2","category2/CS4.png","","","","",""
"","html-keyboard-response","65","277151","0.0-6.0-4.0-0.17","xz0v1fmlou","one_one","1","direct_first","1","ER05ER24","0","21","1","1","3","1","","0","0","0","null","","","<div class = 'row'><div class = 'column'><img src = 'usneg/9330.bmp' width = '100%;'></div><div class = 'column'><img src = 'category1/CS9.png' width = '70%;'></div></div>","null","neg","CS","CS","1","category1/CS9.png","","","","",""
"","html-keyboard-response","66","279658","0.0-6.0-4.0-0.18","xz0v1fmlou","one_one","1","direct_first","1","ER05ER24","0","21","1","1","3","1","","0","0","0","null","","","<div class = 'row'><div class = 'column'><img src = 'usneg/9220.bmp' width = '100%;'></div><div class = 'column'><img src = 'category2/CS4.png' width = '70%;'></div></div>","null","neg","CS","CS","2","category2/CS4.png","","","","",""
"","html-keyboard-response","67","282165","0.0-6.0-4.0-0.19","xz0v1fmlou","one_one","1","direct_first","1","ER05ER24","0","21","1","1","3","1","","0","0","0","null","","","<div class = 'row'><div class = 'column'><img src = 'usneg/9330.bmp' width = '100%;'></div><div class = 'column'><img src = 'category1/CS9.png' width = '70%;'></div></div>","null","neg","CS","CS","1","category1/CS9.png","","","","",""
"","survey-html-form","68","287011","0.0-6.0-5.0","xz0v1fmlou","one_one","1","direct_first","1","ER05ER24","0","21","1","1","3","1","","0","0","0","4342.329999955837","","{}","","","","","","","","","","","",""
"","html-keyboard-response","69","291020","0.0-6.0-6.0-0.0","xz0v1fmlou","one_one","1","direct_first","1","ER05ER24","0","21","1","1","3","1","","0","0","0","null","","","<div class = 'row'><div class = 'column'><img src = 'uspos/5621.bmp' width = '100%;'></div><div class = 'column'><img src = 'category4/CS9.png' width = '70%;'></div></div>","null","pos","CS","CS","4","category4/CS9.png","","","","",""
"","html-keyboard-response","70","293525","0.0-6.0-6.0-0.1","xz0v1fmlou","one_one","1","direct_first","1","ER05ER24","0","21","1","1","3","1","","0","0","0","null","","","<div class = 'row'><div class = 'column'><img src = 'category1/CS9.png' width = '70%;'></div><div class = 'column'><img src = 'usneg/9330.bmp' width = '100%;'></div></div>","null","neg","CS","CS","1","category1/CS9.png","","","","",""
"","html-keyboard-response","71","296030","0.0-6.0-6.0-0.2","xz0v1fmlou","one_one","1","direct_first","1","ER05ER24","0","21","1","1","3","1","","0","0","0","null","","","<div class = 'row'><div class = 'column'><img src = 'category3/CS8.png' width = '70%;'></div><div class = 'column'><img src = 'uspos/8190.bmp' width = '100%;'></div></div>","null","pos","CS","CS","3","category3/CS8.png","","","","",""
"","html-keyboard-response","72","298535","0.0-6.0-6.0-0.3","xz0v1fmlou","one_one","1","direct_first","1","ER05ER24","0","21","1","1","3","1","","0","0","0","null","","","<div class = 'row'><div class = 'column'><img src = 'usneg/9220.bmp' width = '100%;'></div><div class = 'column'><img src = 'category2/CS4.png' width = '70%;'></div></div>","null","neg","CS","CS","2","category2/CS4.png","","","","",""
"","html-keyboard-response","73","301042","0.0-6.0-6.0-0.4","xz0v1fmlou","one_one","1","direct_first","1","ER05ER24","0","21","1","1","3","1","","0","0","0","null","","","<div class = 'row'><div class = 'column'><img src = 'category4/CS9.png' width = '70%;'></div><div class = 'column'><img src = 'uspos/5621.bmp' width = '100%;'></div></div>","null","pos","CS","CS","4","category4/CS9.png","","","","",""
"","html-keyboard-response","74","303546","0.0-6.0-6.0-0.5","xz0v1fmlou","one_one","1","direct_first","1","ER05ER24","0","21","1","1","3","1","","0","0","0","null","","","<div class = 'row'><div class = 'column'><img src = 'category2/CS4.png' width = '70%;'></div><div class = 'column'><img src = 'usneg/9220.bmp' width = '100%;'></div></div>","null","neg","CS","CS","2","category2/CS4.png","","","","",""
"","html-keyboard-response","75","306053","0.0-6.0-6.0-0.6","xz0v1fmlou","one_one","1","direct_first","1","ER05ER24","0","21","1","1","3","1","","0","0","0","null","","","<div class = 'row'><div class = 'column'><img src = 'uspos/5621.bmp' width = '100%;'></div><div class = 'column'><img src = 'category4/CS9.png' width = '70%;'></div></div>","null","pos","CS","CS","4","category4/CS9.png","","","","",""
"","html-keyboard-response","76","308557","0.0-6.0-6.0-0.7","xz0v1fmlou","one_one","1","direct_first","1","ER05ER24","0","21","1","1","3","1","","0","0","0","null","","","<div class = 'row'><div class = 'column'><img src = 'category3/CS8.png' width = '70%;'></div><div class = 'column'><img src = 'uspos/8190.bmp' width = '100%;'></div></div>","null","pos","CS","CS","3","category3/CS8.png","","","","",""
"","html-keyboard-response","77","311063","0.0-6.0-6.0-0.8","xz0v1fmlou","one_one","1","direct_first","1","ER05ER24","0","21","1","1","3","1","","0","0","0","null","","","<div class = 'row'><div class = 'column'><img src = 'usneg/9220.bmp' width = '100%;'></div><div class = 'column'><img src = 'category2/CS4.png' width = '70%;'></div></div>","null","neg","CS","CS","2","category2/CS4.png","","","","",""
"","html-keyboard-response","78","313571","0.0-6.0-6.0-0.9","xz0v1fmlou","one_one","1","direct_first","1","ER05ER24","0","21","1","1","3","1","","0","0","0","null","","","<div class = 'row'><div class = 'column'><img src = 'usneg/9330.bmp' width = '100%;'></div><div class = 'column'><img src = 'category1/CS9.png' width = '70%;'></div></div>","null","neg","CS","CS","1","category1/CS9.png","","","","",""
"","html-keyboard-response","79","316076","0.0-6.0-6.0-0.10","xz0v1fmlou","one_one","1","direct_first","1","ER05ER24","0","21","1","1","3","1","","0","0","0","null","","","<div class = 'row'><div class = 'column'><img src = 'uspos/8190.bmp' width = '100%;'></div><div class = 'column'><img src = 'category3/CS8.png' width = '70%;'></div></div>","null","pos","CS","CS","3","category3/CS8.png","","","","",""
"","html-keyboard-response","80","318581","0.0-6.0-6.0-0.11","xz0v1fmlou","one_one","1","direct_first","1","ER05ER24","0","21","1","1","3","1","","0","0","0","null","","","<div class = 'row'><div class = 'column'><img src = 'category1/CS9.png' width = '70%;'></div><div class = 'column'><img src = 'usneg/9330.bmp' width = '100%;'></div></div>","null","neg","CS","CS","1","category1/CS9.png","","","","",""
"","html-keyboard-response","81","321088","0.0-6.0-6.0-0.12","xz0v1fmlou","one_one","1","direct_first","1","ER05ER24","0","21","1","1","3","1","","0","0","0","null","","","<div class = 'row'><div class = 'column'><img src = 'category4/CS9.png' width = '70%;'></div><div class = 'column'><img src = 'uspos/5621.bmp' width = '100%;'></div></div>","null","pos","CS","CS","4","category4/CS9.png","","","","",""
"","html-keyboard-response","82","323595","0.0-6.0-6.0-0.13","xz0v1fmlou","one_one","1","direct_first","1","ER05ER24","0","21","1","1","3","1","","0","0","0","null","","","<div class = 'row'><div class = 'column'><img src = 'uspos/8190.bmp' width = '100%;'></div><div class = 'column'><img src = 'category3/CS8.png' width = '70%;'></div></div>","null","pos","CS","CS","3","category3/CS8.png","","","","",""
"","html-keyboard-response","83","326100","0.0-6.0-6.0-0.14","xz0v1fmlou","one_one","1","direct_first","1","ER05ER24","0","21","1","1","3","1","","0","0","0","null","","","<div class = 'row'><div class = 'column'><img src = 'usneg/9330.bmp' width = '100%;'></div><div class = 'column'><img src = 'category1/CS9.png' width = '70%;'></div></div>","null","neg","CS","CS","1","category1/CS9.png","","","","",""
"","html-keyboard-response","84","328606","0.0-6.0-6.0-0.15","xz0v1fmlou","one_one","1","direct_first","1","ER05ER24","0","21","1","1","3","1","","0","0","0","null","","","<div class = 'row'><div class = 'column'><img src = 'usneg/9220.bmp' width = '100%;'></div><div class = 'column'><img src = 'category2/CS4.png' width = '70%;'></div></div>","null","neg","CS","CS","2","category2/CS4.png","","","","",""
"","html-keyboard-response","85","331114","0.0-6.0-6.0-0.16","xz0v1fmlou","one_one","1","direct_first","1","ER05ER24","0","21","1","1","3","1","","0","0","0","null","","","<div class = 'row'><div class = 'column'><img src = 'category4/CS9.png' width = '70%;'></div><div class = 'column'><img src = 'uspos/5621.bmp' width = '100%;'></div></div>","null","pos","CS","CS","4","category4/CS9.png","","","","",""
"","html-keyboard-response","86","333620","0.0-6.0-6.0-0.17","xz0v1fmlou","one_one","1","direct_first","1","ER05ER24","0","21","1","1","3","1","","0","0","0","null","","","<div class = 'row'><div class = 'column'><img src = 'usneg/9220.bmp' width = '100%;'></div><div class = 'column'><img src = 'category2/CS4.png' width = '70%;'></div></div>","null","neg","CS","CS","2","category2/CS4.png","","","","",""
"","html-keyboard-response","87","336126","0.0-6.0-6.0-0.18","xz0v1fmlou","one_one","1","direct_first","1","ER05ER24","0","21","1","1","3","1","","0","0","0","null","","","<div class = 'row'><div class = 'column'><img src = 'usneg/9330.bmp' width = '100%;'></div><div class = 'column'><img src = 'category1/CS9.png' width = '70%;'></div></div>","null","neg","CS","CS","1","category1/CS9.png","","","","",""
"","html-keyboard-response","88","338634","0.0-6.0-6.0-0.19","xz0v1fmlou","one_one","1","direct_first","1","ER05ER24","0","21","1","1","3","1","","0","0","0","null","","","<div class = 'row'><div class = 'column'><img src = 'uspos/8190.bmp' width = '100%;'></div><div class = 'column'><img src = 'category3/CS8.png' width = '70%;'></div></div>","null","pos","CS","CS","3","category3/CS8.png","","","","",""
"","survey-html-form","89","468903","0.0-7.0","xz0v1fmlou","one_one","1","direct_first","1","ER05ER24","0","21","1","1","3","1","","0","0","0","129765.50999999745","","{}","","","","","","","","","","","",""
"","image-slider-response","90","483666","0.0-8.0-0.0","xz0v1fmlou","one_one","1","direct_first","1","ER05ER24","0","21","1","1","3","1","","0","0","0","12756.359999999404","","","","","neg","GS","GSnew","1","category1/GS3.png","-50","targets/15.png","direct","",""
"","image-slider-response","91","488794","0.0-8.0-0.1","xz0v1fmlou","one_one","1","direct_first","1","ER05ER24","0","21","1","1","3","1","","0","0","0","5124.485000036657","","","","","pos","CS","CS","4","category4/CS9.png","-31","targets/10.png","direct","",""
"","image-slider-response","92","495152","0.0-8.0-0.2","xz0v1fmlou","one_one","1","direct_first","1","ER05ER24","0","21","1","1","3","1","","0","0","0","6354.814999969676","","","","","pos","GS","GSnew","4","category4/GS3.png","30","targets/24.png","direct","",""
"","image-slider-response","93","498470","0.0-8.0-0.3","xz0v1fmlou","one_one","1","direct_first","1","ER05ER24","0","21","1","1","3","1","","0","0","0","3315.409999981057","","","","","neg","GS","GSnew","2","category2/GS3.png","-42","targets/33.png","direct","",""
"","image-slider-response","94","501933","0.0-8.0-0.4","xz0v1fmlou","one_one","1","direct_first","1","ER05ER24","0","21","1","1","3","1","","0","0","0","3460.235000005923","","","","","neg","GS","GSold","1","category1/CS5.png","-36","targets/4.png","direct","",""
"","image-slider-response","95","506421","0.0-8.0-0.5","xz0v1fmlou","one_one","1","direct_first","1","ER05ER24","0","21","1","1","3","1","","0","0","0","4484.379999979865","","","","","pos","GS","GSold","4","category4/CS7.png","-56","targets/41.png","direct","",""
"","image-slider-response","96","509366","0.0-8.0-0.6","xz0v1fmlou","one_one","1","direct_first","1","ER05ER24","0","21","1","1","3","1","","0","0","0","2942.125000001397","","","","","pos","GS","abstract","4","category4/lin.png","39","targets/18.png","direct","",""
"","image-slider-response","97","513109","0.0-8.0-0.7","xz0v1fmlou","one_one","1","direct_first","1","ER05ER24","0","21","1","1","3","1","","0","0","0","3740.0800000177696","","","","","neg","CS","CS","2","category2/CS4.png","-87","targets/47.png","direct","",""
"","image-slider-response","98","532506","0.0-8.0-0.8","xz0v1fmlou","one_one","1","direct_first","1","ER05ER24","0","21","1","1","3","1","","0","0","0","19390.89999999851","","","","","neg","GS","GSold","2","category2/CS8.png","-83","targets/48.png","direct","",""
"","image-slider-response","99","536711","0.0-8.0-0.9","xz0v1fmlou","one_one","1","direct_first","1","ER05ER24","0","21","1","1","3","1","","0","0","0","4202.030000044033","","","","","neg","GS","GSold","1","category1/CS4.png","-36","targets/16.png","direct","",""
"","image-slider-response","100","541518","0.0-8.0-0.10","xz0v1fmlou","one_one","1","direct_first","1","ER05ER24","0","21","1","1","3","1","","0","0","0","4803.970000008121","","","","","pos","GS","GSnew","4","category4/GS2.png","-33","targets/29.png","direct","",""
"","image-slider-response","101","546606","0.0-8.0-0.11","xz0v1fmlou","one_one","1","direct_first","1","ER05ER24","0","21","1","1","3","1","","0","0","0","5084.365000016987","","","","","pos","GS","GSold","3","category3/CS7.png","52","targets/34.png","direct","",""
"","image-slider-response","102","550430","0.0-8.0-0.12","xz0v1fmlou","one_one","1","direct_first","1","ER05ER24","0","21","1","1","3","1","","0","0","0","3819.855000008829","","","","","pos","GS","abstract","3","category3/wang.png","63","targets/38.png","direct","",""
"","image-slider-response","103","553966","0.0-8.0-0.13","xz0v1fmlou","one_one","1","direct_first","1","ER05ER24","0","21","1","1","3","1","","0","0","0","3533.430000010412","","","","","neg","GS","GSold","1","category1/CS6.png","-30","targets/11.png","direct","",""
"","image-slider-response","104","556694","0.0-8.0-0.14","xz0v1fmlou","one_one","1","direct_first","1","ER05ER24","0","21","1","1","3","1","","0","0","0","2725.075000023935","","","","","neg","GS","GSnew","1","category1/GS2.png","-59","targets/39.png","direct","",""
"","image-slider-response","105","565048","0.0-8.0-0.15","xz0v1fmlou","one_one","1","direct_first","1","ER05ER24","0","21","1","1","3","1","","0","0","0","8350.764999981038","","","","","neg","GS","GSold","2","category2/CS10.png","41","targets/12.png","direct","",""
"","image-slider-response","106","568004","0.0-8.0-0.16","xz0v1fmlou","one_one","1","direct_first","1","ER05ER24","0","21","1","1","3","1","","0","0","0","2952.385000011418","","","","","pos","GS","GSold","3","category3/CS5.png","70","targets/3.png","direct","",""
"","image-slider-response","107","571943","0.0-8.0-0.17","xz0v1fmlou","one_one","1","direct_first","1","ER05ER24","0","21","1","1","3","1","","0","0","0","3936.3549999543466","","","","","pos","GS","GSold","3","category3/CS3.png","67","targets/8.png","direct","",""
"","image-slider-response","108","576460","0.0-8.0-0.18","xz0v1fmlou","one_one","1","direct_first","1","ER05ER24","0","21","1","1","3","1","","0","0","0","4514.020000002347","","","","","pos","GS","GSnew","3","category3/GS3.png","51","targets/27.png","direct","",""
"","image-slider-response","109","580296","0.0-8.0-0.19","xz0v1fmlou","one_one","1","direct_first","1","ER05ER24","0","21","1","1","3","1","","0","0","0","3832.46499998495","","","","","pos","CS","CS","3","category3/CS8.png","79","targets/23.png","direct","",""
"","image-slider-response","110","585910","0.0-8.0-0.20","xz0v1fmlou","one_one","1","direct_first","1","ER05ER24","0","21","1","1","3","1","","0","0","0","5611.459999985527","","","","","neg","GS","GSnew","2","category2/GS2.png","-63","targets/45.png","direct","",""
"","image-slider-response","111","590767","0.0-8.0-0.21","xz0v1fmlou","one_one","1","direct_first","1","ER05ER24","0","21","1","1","3","1","","0","0","0","4855.129999981727","","","","","neg","GS","GSold","2","category2/CS1.png","9","targets/31.png","direct","",""
"","image-slider-response","112","595254","0.0-8.0-0.22","xz0v1fmlou","one_one","1","direct_first","1","ER05ER24","0","21","1","1","3","1","","0","0","0","4482.239999982994","","","","","pos","GS","GSnew","3","category3/GS2.png","-11","targets/7.png","direct","",""
"","image-slider-response","113","599275","0.0-8.0-0.23","xz0v1fmlou","one_one","1","direct_first","1","ER05ER24","0","21","1","1","3","1","","0","0","0","4017.5750000053085","","","","","pos","GS","GSold","4","category4/CS3.png","-26","targets/43.png","direct","",""
"","image-slider-response","114","602614","0.0-8.0-0.24","xz0v1fmlou","one_one","1","direct_first","1","ER05ER24","0","21","1","1","3","1","","0","0","0","3335.6999999959953","","","","","neg","CS","CS","1","category1/CS9.png","-60","targets/9.png","direct","",""
"","image-slider-response","115","605715","0.0-8.0-0.25","xz0v1fmlou","one_one","1","direct_first","1","ER05ER24","0","21","1","1","3","1","","0","0","0","3098.9799999515526","","","","","pos","GS","GSnew","3","category3/GS1.png","-88","targets/37.png","direct","",""
"","image-slider-response","116","609095","0.0-8.0-0.26","xz0v1fmlou","one_one","1","direct_first","1","ER05ER24","0","21","1","1","3","1","","0","0","0","3377.600000007078","","","","","neg","GS","abstract","1","category1/ma.png","-77","targets/42.png","direct","",""
"","image-slider-response","117","612920","0.0-8.0-0.27","xz0v1fmlou","one_one","1","direct_first","1","ER05ER24","0","21","1","1","3","1","","0","0","0","3822.43500003824","","","","","neg","GS","abstract","2","category2/men.png","-26","targets/6.png","direct","",""
"","image-slider-response","118","616074","0.0-8.0-0.28","xz0v1fmlou","one_one","1","direct_first","1","ER05ER24","0","21","1","1","3","1","","0","0","0","3150.2699999837205","","","","","pos","GS","GSnew","4","category4/GS1.png","-23","targets/30.png","direct","",""
"","image-slider-response","119","620881","0.0-8.0-0.29","xz0v1fmlou","one_one","1","direct_first","1","ER05ER24","0","21","1","1","3","1","","0","0","0","4803.809999953955","","","","","neg","GS","GSnew","1","category1/GS1.png","-60","targets/19.png","direct","",""
"","image-slider-response","120","624322","0.0-8.0-0.30","xz0v1fmlou","one_one","1","direct_first","1","ER05ER24","0","21","1","1","3","1","","0","0","0","3436.3550000125542","","","","","pos","GS","GSold","4","category4/CS2.png","-36","targets/17.png","direct","",""
"","image-slider-response","121","627889","0.0-8.0-0.31","xz0v1fmlou","one_one","1","direct_first","1","ER05ER24","0","21","1","1","3","1","","0","0","0","3563.829999999143","","","","","neg","GS","GSnew","2","category2/GS1.png","-78","targets/26.png","direct","",""
"","html-keyboard-response","122","670586","0.0-9.0","xz0v1fmlou","one_one","1","direct_first","1","ER05ER24","0","21","1","1","3","1","","0","0","0","42694.790000037756","","","<p>Sie sehen nun die chinesischen Zeichen nur ganz kurz. Danach sehen Sie die jeweilige Aussprache der Zeichen als Silbe auf dem Bildschrim. Ihre Aufgabe ist es, für jede Silbe anzugeben, ob diese etwas angenehmes, oder unangenehmes bedeuten könnte. Verlassen Sie sich hier vor allem auf Ihre Intuition.<br><br>Die Zeichen werden nur zur Orientierung dargestellt, beachten Sie sie deshalb nicht. Konzentrieren Sie sich vor allem auf die Silben. <br>Reagieren Sie mit folgenden zwei Tasten: <br><br><b>'D' </b> wenn die Silbe etwas <b>unangenehmes</b> bedeuten könnte. <br><b>'K'</b> wenn die Silbe etwas <b>angenehmes</b> bedeuten könnte. <br><br>Bitte legen Sie nun den Zeigefinger der linken Hand auf die Taste 'D' und den Zeigefinger der rechten Hand auf die Taste 'K'. <br>Reagieren Sie auf jede Silbe so schnell wie möglich. Uns interessiert Ihre spontane Reaktion. <br> <br> <br>Drücken Sie 'D' oder 'K', um die nächste Aufgabe zu starten. </p>","68","","","","","","","","","",""
"","html-keyboard-response","123","673590","0.0-10.0-0.0","xz0v1fmlou","one_one","1","direct_first","1","ER05ER24","0","21","1","1","3","1","","0","0","0","null","","","<div style=""font-size:60px;"">+</div>","null","","","","","","","","","",""
"","html-keyboard-response","124","673683","0.0-10.0-1.0","xz0v1fmlou","one_one","1","direct_first","1","ER05ER24","0","21","1","1","3","1","","0","0","0","null","","","<img src = 'category1/CS9.png' width = '100%;'>","null","","","","","","","","","",""
"","html-keyboard-response","125","673937","0.0-10.0-2.0","xz0v1fmlou","one_one","1","direct_first","1","ER05ER24","0","21","1","1","3","1","","0","0","0","null","","","<img src = 'targets/9.png' width = '100%;'>","null","","","","","","","","","",""
"","html-keyboard-response","126","681302","0.0-10.0-3.0","xz0v1fmlou","one_one","1","direct_first","1","ER05ER24","0","21","1","1","3","1","","0","0","0","7362.375000026077","","","<img src = 'targets/mask.png' width = '100%;'>","68","neg","CS","CS","1","category1/CS9.png","","targets/9.png","indirect","0","0"
"","html-keyboard-response","127","682809","0.0-10.0-0.1","xz0v1fmlou","one_one","1","direct_first","1","ER05ER24","0","21","1","1","3","1","","0","0","0","null","","","<div style=""font-size:60px;"">+</div>","null","","","","","","","","","",""
"","html-keyboard-response","128","682902","0.0-10.0-1.1","xz0v1fmlou","one_one","1","direct_first","1","ER05ER24","0","21","1","1","3","1","","0","0","0","null","","","<img src = 'category3/CS5.png' width = '100%;'>","null","","","","","","","","","",""
"","html-keyboard-response","129","683154","0.0-10.0-2.1","xz0v1fmlou","one_one","1","direct_first","1","ER05ER24","0","21","1","1","3","1","","0","0","0","null","","","<img src = 'targets/3.png' width = '100%;'>","null","","","","","","","","","",""
"","html-keyboard-response","130","687769","0.0-10.0-3.1","xz0v1fmlou","one_one","1","direct_first","1","ER05ER24","0","21","1","1","3","1","","0","0","0","4612.135000003036","","","<img src = 'targets/mask.png' width = '100%;'>","75","pos","GS","GSold","3","category3/CS5.png","","targets/3.png","indirect","1","1"
"","html-keyboard-response","131","689276","0.0-10.0-0.2","xz0v1fmlou","one_one","1","direct_first","1","ER05ER24","0","21","1","1","3","1","","0","0","0","null","","","<div style=""font-size:60px;"">+</div>","null","","","","","","","","","",""
"","html-keyboard-response","132","689368","0.0-10.0-1.2","xz0v1fmlou","one_one","1","direct_first","1","ER05ER24","0","21","1","1","3","1","","0","0","0","null","","","<img src = 'category4/CS9.png' width = '100%;'>","null","","","","","","","","","",""
"","html-keyboard-response","133","689622","0.0-10.0-2.2","xz0v1fmlou","one_one","1","direct_first","1","ER05ER24","0","21","1","1","3","1","","0","0","0","null","","","<img src = 'targets/10.png' width = '100%;'>","null","","","","","","","","","",""
"","html-keyboard-response","134","691751","0.0-10.0-3.2","xz0v1fmlou","one_one","1","direct_first","1","ER05ER24","0","21","1","1","3","1","","0","0","0","2125.4249999765307","","","<img src = 'targets/mask.png' width = '100%;'>","68","pos","CS","CS","4","category4/CS9.png","","targets/10.png","indirect","0","2"
"","html-keyboard-response","135","693254","0.0-10.0-0.3","xz0v1fmlou","one_one","1","direct_first","1","ER05ER24","0","21","1","1","3","1","","0","0","0","null","","","<div style=""font-size:60px;"">+</div>","null","","","","","","","","","",""
"","html-keyboard-response","136","693347","0.0-10.0-1.3","xz0v1fmlou","one_one","1","direct_first","1","ER05ER24","0","21","1","1","3","1","","0","0","0","null","","","<img src = 'category3/CS7.png' width = '100%;'>","null","","","","","","","","","",""
"","html-keyboard-response","137","693603","0.0-10.0-2.3","xz0v1fmlou","one_one","1","direct_first","1","ER05ER24","0","21","1","1","3","1","","0","0","0","null","","","<img src = 'targets/34.png' width = '100%;'>","null","","","","","","","","","",""
"","html-keyboard-response","138","695550","0.0-10.0-3.3","xz0v1fmlou","one_one","1","direct_first","1","ER05ER24","0","21","1","1","3","1","","0","0","0","1944.8449999908917","","","<img src = 'targets/mask.png' width = '100%;'>","68","pos","GS","GSold","3","category3/CS7.png","","targets/34.png","indirect","0","3"
"","html-keyboard-response","139","697054","0.0-10.0-0.4","xz0v1fmlou","one_one","1","direct_first","1","ER05ER24","0","21","1","1","3","1","","0","0","0","null","","","<div style=""font-size:60px;"">+</div>","null","","","","","","","","","",""
"","html-keyboard-response","140","697146","0.0-10.0-1.4","xz0v1fmlou","one_one","1","direct_first","1","ER05ER24","0","21","1","1","3","1","","0","0","0","null","","","<img src = 'category2/CS8.png' width = '100%;'>","null","","","","","","","","","",""
"","html-keyboard-response","141","697405","0.0-10.0-2.4","xz0v1fmlou","one_one","1","direct_first","1","ER05ER24","0","21","1","1","3","1","","0","0","0","null","","","<img src = 'targets/48.png' width = '100%;'>","null","","","","","","","","","",""
"","html-keyboard-response","142","698654","0.0-10.0-3.4","xz0v1fmlou","one_one","1","direct_first","1","ER05ER24","0","21","1","1","3","1","","0","0","0","1245.8149999729358","","","<img src = 'targets/mask.png' width = '100%;'>","68","neg","GS","GSold","2","category2/CS8.png","","targets/48.png","indirect","0","4"
"","html-keyboard-response","143","700158","0.0-10.0-0.5","xz0v1fmlou","one_one","1","direct_first","1","ER05ER24","0","21","1","1","3","1","","0","0","0","null","","","<div style=""font-size:60px;"">+</div>","null","","","","","","","","","",""
"","html-keyboard-response","144","700251","0.0-10.0-1.5","xz0v1fmlou","one_one","1","direct_first","1","ER05ER24","0","21","1","1","3","1","","0","0","0","null","","","<img src = 'category1/CS4.png' width = '100%;'>","null","","","","","","","","","",""
"","html-keyboard-response","145","700505","0.0-10.0-2.5","xz0v1fmlou","one_one","1","direct_first","1","ER05ER24","0","21","1","1","3","1","","0","0","0","null","","","<img src = 'targets/16.png' width = '100%;'>","null","","","","","","","","","",""
"","html-keyboard-response","146","701499","0.0-10.0-3.5","xz0v1fmlou","one_one","1","direct_first","1","ER05ER24","0","21","1","1","3","1","","0","0","0","991.4150000549853","","","<img src = 'targets/mask.png' width = '100%;'>","75","neg","GS","GSold","1","category1/CS4.png","","targets/16.png","indirect","1","5"
"","html-keyboard-response","147","703004","0.0-10.0-0.6","xz0v1fmlou","one_one","1","direct_first","1","ER05ER24","0","21","1","1","3","1","","0","0","0","null","","","<div style=""font-size:60px;"">+</div>","null","","","","","","","","","",""
"","html-keyboard-response","148","703097","0.0-10.0-1.6","xz0v1fmlou","one_one","1","direct_first","1","ER05ER24","0","21","1","1","3","1","","0","0","0","null","","","<img src = 'category3/CS8.png' width = '100%;'>","null","","","","","","","","","",""
"","html-keyboard-response","149","703350","0.0-10.0-2.6","xz0v1fmlou","one_one","1","direct_first","1","ER05ER24","0","21","1","1","3","1","","0","0","0","null","","","<img src = 'targets/23.png' width = '100%;'>","null","","","","","","","","","",""
"","html-keyboard-response","150","704964","0.0-10.0-3.6","xz0v1fmlou","one_one","1","direct_first","1","ER05ER24","0","21","1","1","3","1","","0","0","0","1611.6599999950267","","","<img src = 'targets/mask.png' width = '100%;'>","68","pos","CS","CS","3","category3/CS8.png","","targets/23.png","indirect","0","6"
"","html-keyboard-response","151","706467","0.0-10.0-0.7","xz0v1fmlou","one_one","1","direct_first","1","ER05ER24","0","21","1","1","3","1","","0","0","0","null","","","<div style=""font-size:60px;"">+</div>","null","","","","","","","","","",""
"","html-keyboard-response","152","706561","0.0-10.0-1.7","xz0v1fmlou","one_one","1","direct_first","1","ER05ER24","0","21","1","1","3","1","","0","0","0","null","","","<img src = 'category4/CS3.png' width = '100%;'>","null","","","","","","","","","",""
"","html-keyboard-response","153","706814","0.0-10.0-2.7","xz0v1fmlou","one_one","1","direct_first","1","ER05ER24","0","21","1","1","3","1","","0","0","0","null","","","<img src = 'targets/43.png' width = '100%;'>","null","","","","","","","","","",""
"","html-keyboard-response","154","707799","0.0-10.0-3.7","xz0v1fmlou","one_one","1","direct_first","1","ER05ER24","0","21","1","1","3","1","","0","0","0","980.3600000450388","","","<img src = 'targets/mask.png' width = '100%;'>","75","pos","GS","GSold","4","category4/CS3.png","","targets/43.png","indirect","1","7"
"","html-keyboard-response","155","709302","0.0-10.0-0.8","xz0v1fmlou","one_one","1","direct_first","1","ER05ER24","0","21","1","1","3","1","","0","0","0","null","","","<div style=""font-size:60px;"">+</div>","null","","","","","","","","","",""
"","html-keyboard-response","156","709395","0.0-10.0-1.8","xz0v1fmlou","one_one","1","direct_first","1","ER05ER24","0","21","1","1","3","1","","0","0","0","null","","","<img src = 'category2/CS4.png' width = '100%;'>","null","","","","","","","","","",""
"","html-keyboard-response","157","709650","0.0-10.0-2.8","xz0v1fmlou","one_one","1","direct_first","1","ER05ER24","0","21","1","1","3","1","","0","0","0","null","","","<img src = 'targets/47.png' width = '100%;'>","null","","","","","","","","","",""
"","html-keyboard-response","158","710726","0.0-10.0-3.8","xz0v1fmlou","one_one","1","direct_first","1","ER05ER24","0","21","1","1","3","1","","0","0","0","1073.5899999854155","","","<img src = 'targets/mask.png' width = '100%;'>","75","neg","CS","CS","2","category2/CS4.png","","targets/47.png","indirect","1","8"
"","html-keyboard-response","159","712230","0.0-10.0-0.9","xz0v1fmlou","one_one","1","direct_first","1","ER05ER24","0","21","1","1","3","1","","0","0","0","null","","","<div style=""font-size:60px;"">+</div>","null","","","","","","","","","",""
"","html-keyboard-response","160","712322","0.0-10.0-1.9","xz0v1fmlou","one_one","1","direct_first","1","ER05ER24","0","21","1","1","3","1","","0","0","0","null","","","<img src = 'category2/CS1.png' width = '100%;'>","null","","","","","","","","","",""
"","html-keyboard-response","161","712575","0.0-10.0-2.9","xz0v1fmlou","one_one","1","direct_first","1","ER05ER24","0","21","1","1","3","1","","0","0","0","null","","","<img src = 'targets/31.png' width = '100%;'>","null","","","","","","","","","",""
"","html-keyboard-response","162","713821","0.0-10.0-3.9","xz0v1fmlou","one_one","1","direct_first","1","ER05ER24","0","21","1","1","3","1","","0","0","0","1243.4350000112318","","","<img src = 'targets/mask.png' width = '100%;'>","68","neg","GS","GSold","2","category2/CS1.png","","targets/31.png","indirect","0","9"
"","html-keyboard-response","163","715324","0.0-10.0-0.10","xz0v1fmlou","one_one","1","direct_first","1","ER05ER24","0","21","1","1","3","1","","0","0","0","null","","","<div style=""font-size:60px;"">+</div>","null","","","","","","","","","",""
"","html-keyboard-response","164","715416","0.0-10.0-1.10","xz0v1fmlou","one_one","1","direct_first","1","ER05ER24","0","21","1","1","3","1","","0","0","0","null","","","<img src = 'category4/CS2.png' width = '100%;'>","null","","","","","","","","","",""
"","html-keyboard-response","165","715670","0.0-10.0-2.10","xz0v1fmlou","one_one","1","direct_first","1","ER05ER24","0","21","1","1","3","1","","0","0","0","null","","","<img src = 'targets/17.png' width = '100%;'>","null","","","","","","","","","",""
"","html-keyboard-response","166","716828","0.0-10.0-3.10","xz0v1fmlou","one_one","1","direct_first","1","ER05ER24","0","21","1","1","3","1","","0","0","0","1155.815000005532","","","<img src = 'targets/mask.png' width = '100%;'>","75","pos","GS","GSold","4","category4/CS2.png","","targets/17.png","indirect","1","10"
"","html-keyboard-response","167","718333","0.0-10.0-0.11","xz0v1fmlou","one_one","1","direct_first","1","ER05ER24","0","21","1","1","3","1","","0","0","0","null","","","<div style=""font-size:60px;"">+</div>","null","","","","","","","","","",""
"","html-keyboard-response","168","718425","0.0-10.0-1.11","xz0v1fmlou","one_one","1","direct_first","1","ER05ER24","0","21","1","1","3","1","","0","0","0","null","","","<img src = 'category1/CS6.png' width = '100%;'>","null","","","","","","","","","",""
"","html-keyboard-response","169","718679","0.0-10.0-2.11","xz0v1fmlou","one_one","1","direct_first","1","ER05ER24","0","21","1","1","3","1","","0","0","0","null","","","<img src = 'targets/11.png' width = '100%;'>","null","","","","","","","","","",""
"","html-keyboard-response","170","719548","0.0-10.0-3.11","xz0v1fmlou","one_one","1","direct_first","1","ER05ER24","0","21","1","1","3","1","","0","0","0","866.7950000381097","","","<img src = 'targets/mask.png' width = '100%;'>","68","neg","GS","GSold","1","category1/CS6.png","","targets/11.png","indirect","0","11"
"","html-keyboard-response","171","721053","0.0-10.0-0.12","xz0v1fmlou","one_one","1","direct_first","1","ER05ER24","0","21","1","1","3","1","","0","0","0","null","","","<div style=""font-size:60px;"">+</div>","null","","","","","","","","","",""
"","html-keyboard-response","172","721146","0.0-10.0-1.12","xz0v1fmlou","one_one","1","direct_first","1","ER05ER24","0","21","1","1","3","1","","0","0","0","null","","","<img src = 'category1/CS5.png' width = '100%;'>","null","","","","","","","","","",""
"","html-keyboard-response","173","721399","0.0-10.0-2.12","xz0v1fmlou","one_one","1","direct_first","1","ER05ER24","0","21","1","1","3","1","","0","0","0","null","","","<img src = 'targets/4.png' width = '100%;'>","null","","","","","","","","","",""
"","html-keyboard-response","174","722790","0.0-10.0-3.12","xz0v1fmlou","one_one","1","direct_first","1","ER05ER24","0","21","1","1","3","1","","0","0","0","1387.514999951236","","","<img src = 'targets/mask.png' width = '100%;'>","68","neg","GS","GSold","1","category1/CS5.png","","targets/4.png","indirect","0","12"
"","html-keyboard-response","175","724295","0.0-10.0-0.13","xz0v1fmlou","one_one","1","direct_first","1","ER05ER24","0","21","1","1","3","1","","0","0","0","null","","","<div style=""font-size:60px;"">+</div>","null","","","","","","","","","",""
"","html-keyboard-response","176","724387","0.0-10.0-1.13","xz0v1fmlou","one_one","1","direct_first","1","ER05ER24","0","21","1","1","3","1","","0","0","0","null","","","<img src = 'category3/CS3.png' width = '100%;'>","null","","","","","","","","","",""
"","html-keyboard-response","177","724639","0.0-10.0-2.13","xz0v1fmlou","one_one","1","direct_first","1","ER05ER24","0","21","1","1","3","1","","0","0","0","null","","","<img src = 'targets/8.png' width = '100%;'>","null","","","","","","","","","",""
"","html-keyboard-response","178","725652","0.0-10.0-3.13","xz0v1fmlou","one_one","1","direct_first","1","ER05ER24","0","21","1","1","3","1","","0","0","0","1008.815000008326","","","<img src = 'targets/mask.png' width = '100%;'>","75","pos","GS","GSold","3","category3/CS3.png","","targets/8.png","indirect","1","13"
"","html-keyboard-response","179","727155","0.0-10.0-0.14","xz0v1fmlou","one_one","1","direct_first","1","ER05ER24","0","21","1","1","3","1","","0","0","0","null","","","<div style=""font-size:60px;"">+</div>","null","","","","","","","","","",""
"","html-keyboard-response","180","727248","0.0-10.0-1.14","xz0v1fmlou","one_one","1","direct_first","1","ER05ER24","0","21","1","1","3","1","","0","0","0","null","","","<img src = 'category4/CS7.png' width = '100%;'>","null","","","","","","","","","",""
"","html-keyboard-response","181","727502","0.0-10.0-2.14","xz0v1fmlou","one_one","1","direct_first","1","ER05ER24","0","21","1","1","3","1","","0","0","0","null","","","<img src = 'targets/41.png' width = '100%;'>","null","","","","","","","","","",""
"","html-keyboard-response","182","728143","0.0-10.0-3.14","xz0v1fmlou","one_one","1","direct_first","1","ER05ER24","0","21","1","1","3","1","","0","0","0","638.2449999800883","","","<img src = 'targets/mask.png' width = '100%;'>","68","pos","GS","GSold","4","category4/CS7.png","","targets/41.png","indirect","0","14"
"","html-keyboard-response","183","729648","0.0-10.0-0.15","xz0v1fmlou","one_one","1","direct_first","1","ER05ER24","0","21","1","1","3","1","","0","0","0","null","","","<div style=""font-size:60px;"">+</div>","null","","","","","","","","","",""
"","html-keyboard-response","184","729741","0.0-10.0-1.15","xz0v1fmlou","one_one","1","direct_first","1","ER05ER24","0","21","1","1","3","1","","0","0","0","null","","","<img src = 'category2/CS10.png' width = '100%;'>","null","","","","","","","","","",""
"","html-keyboard-response","185","729995","0.0-10.0-2.15","xz0v1fmlou","one_one","1","direct_first","1","ER05ER24","0","21","1","1","3","1","","0","0","0","null","","","<img src = 'targets/12.png' width = '100%;'>","null","","","","","","","","","",""
"","html-keyboard-response","186","731035","0.0-10.0-3.15","xz0v1fmlou","one_one","1","direct_first","1","ER05ER24","0","21","1","1","3","1","","0","0","0","1037.4299999675713","","","<img src = 'targets/mask.png' width = '100%;'>","75","neg","GS","GSold","2","category2/CS10.png","","targets/12.png","indirect","1","15"
"","survey-html-form","187","734448","0.0-11.0","xz0v1fmlou","one_one","1","direct_first","1","ER05ER24","0","21","1","1","3","1","","0","0","0","2909.4049999839626","","{}","","","","","","","","","","","",""
"","html-keyboard-response","188","737453","0.0-12.0-0.0","xz0v1fmlou","one_one","1","direct_first","1","ER05ER24","0","21","1","1","3","1","","0","0","0","null","","","<div style=""font-size:60px;"">+</div>","null","","","","","","","","","",""
"","html-keyboard-response","189","737546","0.0-12.0-1.0","xz0v1fmlou","one_one","1","direct_first","1","ER05ER24","0","21","1","1","3","1","","0","0","0","null","","","<img src = 'category2/men.png' width = '100%;'>","null","","","","","","","","","",""
"","html-keyboard-response","190","737800","0.0-12.0-2.0","xz0v1fmlou","one_one","1","direct_first","1","ER05ER24","0","21","1","1","3","1","","0","0","0","null","","","<img src = 'targets/6.png' width = '100%;'>","null","","","","","","","","","",""
"","html-keyboard-response","191","739448","0.0-12.0-3.0","xz0v1fmlou","one_one","1","direct_first","1","ER05ER24","0","21","1","1","3","1","","0","0","0","1643.9600000157952","","","<img src = 'targets/mask.png' width = '100%;'>","68","neg","GS","abstract","2","category2/men.png","","targets/6.png","indirect","0","16"
"","html-keyboard-response","192","740951","0.0-12.0-0.1","xz0v1fmlou","one_one","1","direct_first","1","ER05ER24","0","21","1","1","3","1","","0","0","0","null","","","<div style=""font-size:60px;"">+</div>","null","","","","","","","","","",""
"","html-keyboard-response","193","741044","0.0-12.0-1.1","xz0v1fmlou","one_one","1","direct_first","1","ER05ER24","0","21","1","1","3","1","","0","0","0","null","","","<img src = 'category3/GS3.png' width = '100%;'>","null","","","","","","","","","",""
"","html-keyboard-response","194","741298","0.0-12.0-2.1","xz0v1fmlou","one_one","1","direct_first","1","ER05ER24","0","21","1","1","3","1","","0","0","0","null","","","<img src = 'targets/27.png' width = '100%;'>","null","","","","","","","","","",""
"","html-keyboard-response","195","742901","0.0-12.0-3.1","xz0v1fmlou","one_one","1","direct_first","1","ER05ER24","0","21","1","1","3","1","","0","0","0","1600.8400000282563","","","<img src = 'targets/mask.png' width = '100%;'>","68","pos","GS","GSnew","3","category3/GS3.png","","targets/27.png","indirect","0","17"
"","html-keyboard-response","196","744405","0.0-12.0-0.2","xz0v1fmlou","one_one","1","direct_first","1","ER05ER24","0","21","1","1","3","1","","0","0","0","null","","","<div style=""font-size:60px;"">+</div>","null","","","","","","","","","",""
"","html-keyboard-response","197","744498","0.0-12.0-1.2","xz0v1fmlou","one_one","1","direct_first","1","ER05ER24","0","21","1","1","3","1","","0","0","0","null","","","<img src = 'category1/GS1.png' width = '100%;'>","null","","","","","","","","","",""
"","html-keyboard-response","198","744751","0.0-12.0-2.2","xz0v1fmlou","one_one","1","direct_first","1","ER05ER24","0","21","1","1","3","1","","0","0","0","null","","","<img src = 'targets/19.png' width = '100%;'>","null","","","","","","","","","",""
"","html-keyboard-response","199","745585","0.0-12.0-3.2","xz0v1fmlou","one_one","1","direct_first","1","ER05ER24","0","21","1","1","3","1","","0","0","0","830.6950000114739","","","<img src = 'targets/mask.png' width = '100%;'>","75","neg","GS","GSnew","1","category1/GS1.png","","targets/19.png","indirect","1","18"
"","html-keyboard-response","200","747089","0.0-12.0-0.3","xz0v1fmlou","one_one","1","direct_first","1","ER05ER24","0","21","1","1","3","1","","0","0","0","null","","","<div style=""font-size:60px;"">+</div>","null","","","","","","","","","",""
"","html-keyboard-response","201","747181","0.0-12.0-1.3","xz0v1fmlou","one_one","1","direct_first","1","ER05ER24","0","21","1","1","3","1","","0","0","0","null","","","<img src = 'category4/GS3.png' width = '100%;'>","null","","","","","","","","","",""
"","html-keyboard-response","202","747434","0.0-12.0-2.3","xz0v1fmlou","one_one","1","direct_first","1","ER05ER24","0","21","1","1","3","1","","0","0","0","null","","","<img src = 'targets/24.png' width = '100%;'>","null","","","","","","","","","",""
"","html-keyboard-response","203","748615","0.0-12.0-3.3","xz0v1fmlou","one_one","1","direct_first","1","ER05ER24","0","21","1","1","3","1","","0","0","0","1178.5500000114553","","","<img src = 'targets/mask.png' width = '100%;'>","68","pos","GS","GSnew","4","category4/GS3.png","","targets/24.png","indirect","0","19"
"","html-keyboard-response","204","750120","0.0-12.0-0.4","xz0v1fmlou","one_one","1","direct_first","1","ER05ER24","0","21","1","1","3","1","","0","0","0","null","","","<div style=""font-size:60px;"">+</div>","null","","","","","","","","","",""
"","html-keyboard-response","205","750214","0.0-12.0-1.4","xz0v1fmlou","one_one","1","direct_first","1","ER05ER24","0","21","1","1","3","1","","0","0","0","null","","","<img src = 'category2/GS3.png' width = '100%;'>","null","","","","","","","","","",""
"","html-keyboard-response","206","750468","0.0-12.0-2.4","xz0v1fmlou","one_one","1","direct_first","1","ER05ER24","0","21","1","1","3","1","","0","0","0","null","","","<img src = 'targets/33.png' width = '100%;'>","null","","","","","","","","","",""
"","html-keyboard-response","207","751799","0.0-12.0-3.4","xz0v1fmlou","one_one","1","direct_first","1","ER05ER24","0","21","1","1","3","1","","0","0","0","1327.9749999637716","","","<img src = 'targets/mask.png' width = '100%;'>","75","neg","GS","GSnew","2","category2/GS3.png","","targets/33.png","indirect","1","20"
"","html-keyboard-response","208","753302","0.0-12.0-0.5","xz0v1fmlou","one_one","1","direct_first","1","ER05ER24","0","21","1","1","3","1","","0","0","0","null","","","<div style=""font-size:60px;"">+</div>","null","","","","","","","","","",""
"","html-keyboard-response","209","753395","0.0-12.0-1.5","xz0v1fmlou","one_one","1","direct_first","1","ER05ER24","0","21","1","1","3","1","","0","0","0","null","","","<img src = 'category2/GS2.png' width = '100%;'>","null","","","","","","","","","",""
"","html-keyboard-response","210","753648","0.0-12.0-2.5","xz0v1fmlou","one_one","1","direct_first","1","ER05ER24","0","21","1","1","3","1","","0","0","0","null","","","<img src = 'targets/45.png' width = '100%;'>","null","","","","","","","","","",""
"","html-keyboard-response","211","754928","0.0-12.0-3.5","xz0v1fmlou","one_one","1","direct_first","1","ER05ER24","0","21","1","1","3","1","","0","0","0","1277.654999983497","","","<img src = 'targets/mask.png' width = '100%;'>","68","neg","GS","GSnew","2","category2/GS2.png","","targets/45.png","indirect","0","21"
"","html-keyboard-response","212","756440","0.0-12.0-0.6","xz0v1fmlou","one_one","1","direct_first","1","ER05ER24","0","21","1","1","3","1","","0","0","0","null","","","<div style=""font-size:60px;"">+</div>","null","","","","","","","","","",""
"","html-keyboard-response","213","756533","0.0-12.0-1.6","xz0v1fmlou","one_one","1","direct_first","1","ER05ER24","0","21","1","1","3","1","","0","0","0","null","","","<img src = 'category3/GS2.png' width = '100%;'>","null","","","","","","","","","",""
"","html-keyboard-response","214","756787","0.0-12.0-2.6","xz0v1fmlou","one_one","1","direct_first","1","ER05ER24","0","21","1","1","3","1","","0","0","0","null","","","<img src = 'targets/7.png' width = '100%;'>","null","","","","","","","","","",""
"","html-keyboard-response","215","757585","0.0-12.0-3.6","xz0v1fmlou","one_one","1","direct_first","1","ER05ER24","0","21","1","1","3","1","","0","0","0","794.9999999837019","","","<img src = 'targets/mask.png' width = '100%;'>","68","pos","GS","GSnew","3","category3/GS2.png","","targets/7.png","indirect","0","22"
"","html-keyboard-response","216","759087","0.0-12.0-0.7","xz0v1fmlou","one_one","1","direct_first","1","ER05ER24","0","21","1","1","3","1","","0","0","0","null","","","<div style=""font-size:60px;"">+</div>","null","","","","","","","","","",""
"","html-keyboard-response","217","759181","0.0-12.0-1.7","xz0v1fmlou","one_one","1","direct_first","1","ER05ER24","0","21","1","1","3","1","","0","0","0","null","","","<img src = 'category2/GS1.png' width = '100%;'>","null","","","","","","","","","",""
"","html-keyboard-response","218","759435","0.0-12.0-2.7","xz0v1fmlou","one_one","1","direct_first","1","ER05ER24","0","21","1","1","3","1","","0","0","0","null","","","<img src = 'targets/26.png' width = '100%;'>","null","","","","","","","","","",""
"","html-keyboard-response","219","761949","0.0-12.0-3.7","xz0v1fmlou","one_one","1","direct_first","1","ER05ER24","0","21","1","1","3","1","","0","0","0","2511.3450000062585","","","<img src = 'targets/mask.png' width = '100%;'>","75","neg","GS","GSnew","2","category2/GS1.png","","targets/26.png","indirect","1","23"
"","html-keyboard-response","220","763453","0.0-12.0-0.8","xz0v1fmlou","one_one","1","direct_first","1","ER05ER24","0","21","1","1","3","1","","0","0","0","null","","","<div style=""font-size:60px;"">+</div>","null","","","","","","","","","",""
"","html-keyboard-response","221","763546","0.0-12.0-1.8","xz0v1fmlou","one_one","1","direct_first","1","ER05ER24","0","21","1","1","3","1","","0","0","0","null","","","<img src = 'category4/lin.png' width = '100%;'>","null","","","","","","","","","",""
"","html-keyboard-response","222","763801","0.0-12.0-2.8","xz0v1fmlou","one_one","1","direct_first","1","ER05ER24","0","21","1","1","3","1","","0","0","0","null","","","<img src = 'targets/18.png' width = '100%;'>","null","","","","","","","","","",""
"","html-keyboard-response","223","767430","0.0-12.0-3.8","xz0v1fmlou","one_one","1","direct_first","1","ER05ER24","0","21","1","1","3","1","","0","0","0","3625.2000000094995","","","<img src = 'targets/mask.png' width = '100%;'>","68","pos","GS","abstract","4","category4/lin.png","","targets/18.png","indirect","0","24"
"","html-keyboard-response","224","768935","0.0-12.0-0.9","xz0v1fmlou","one_one","1","direct_first","1","ER05ER24","0","21","1","1","3","1","","0","0","0","null","","","<div style=""font-size:60px;"">+</div>","null","","","","","","","","","",""
"","html-keyboard-response","225","769027","0.0-12.0-1.9","xz0v1fmlou","one_one","1","direct_first","1","ER05ER24","0","21","1","1","3","1","","0","0","0","null","","","<img src = 'category1/ma.png' width = '100%;'>","null","","","","","","","","","",""
"","html-keyboard-response","226","769280","0.0-12.0-2.9","xz0v1fmlou","one_one","1","direct_first","1","ER05ER24","0","21","1","1","3","1","","0","0","0","null","","","<img src = 'targets/42.png' width = '100%;'>","null","","","","","","","","","",""
"","html-keyboard-response","227","770093","0.0-12.0-3.9","xz0v1fmlou","one_one","1","direct_first","1","ER05ER24","0","21","1","1","3","1","","0","0","0","809.1149999527261","","","<img src = 'targets/mask.png' width = '100%;'>","75","neg","GS","abstract","1","category1/ma.png","","targets/42.png","indirect","1","25"
"","html-keyboard-response","228","771596","0.0-12.0-0.10","xz0v1fmlou","one_one","1","direct_first","1","ER05ER24","0","21","1","1","3","1","","0","0","0","null","","","<div style=""font-size:60px;"">+</div>","null","","","","","","","","","",""
"","html-keyboard-response","229","771689","0.0-12.0-1.10","xz0v1fmlou","one_one","1","direct_first","1","ER05ER24","0","21","1","1","3","1","","0","0","0","null","","","<img src = 'category1/GS3.png' width = '100%;'>","null","","","","","","","","","",""
"","html-keyboard-response","230","771942","0.0-12.0-2.10","xz0v1fmlou","one_one","1","direct_first","1","ER05ER24","0","21","1","1","3","1","","0","0","0","null","","","<img src = 'targets/15.png' width = '100%;'>","null","","","","","","","","","",""
"","html-keyboard-response","231","773139","0.0-12.0-3.10","xz0v1fmlou","one_one","1","direct_first","1","ER05ER24","0","21","1","1","3","1","","0","0","0","1194.4399999920279","","","<img src = 'targets/mask.png' width = '100%;'>","75","neg","GS","GSnew","1","category1/GS3.png","","targets/15.png","indirect","1","26"
"","html-keyboard-response","232","774643","0.0-12.0-0.11","xz0v1fmlou","one_one","1","direct_first","1","ER05ER24","0","21","1","1","3","1","","0","0","0","null","","","<div style=""font-size:60px;"">+</div>","null","","","","","","","","","",""
"","html-keyboard-response","233","774735","0.0-12.0-1.11","xz0v1fmlou","one_one","1","direct_first","1","ER05ER24","0","21","1","1","3","1","","0","0","0","null","","","<img src = 'category3/GS1.png' width = '100%;'>","null","","","","","","","","","",""
"","html-keyboard-response","234","774990","0.0-12.0-2.11","xz0v1fmlou","one_one","1","direct_first","1","ER05ER24","0","21","1","1","3","1","","0","0","0","null","","","<img src = 'targets/37.png' width = '100%;'>","null","","","","","","","","","",""
"","html-keyboard-response","235","776064","0.0-12.0-3.11","xz0v1fmlou","one_one","1","direct_first","1","ER05ER24","0","21","1","1","3","1","","0","0","0","1072.3199999774806","","","<img src = 'targets/mask.png' width = '100%;'>","68","pos","GS","GSnew","3","category3/GS1.png","","targets/37.png","indirect","0","27"
"","html-keyboard-response","236","777567","0.0-12.0-0.12","xz0v1fmlou","one_one","1","direct_first","1","ER05ER24","0","21","1","1","3","1","","0","0","0","null","","","<div style=""font-size:60px;"">+</div>","null","","","","","","","","","",""
"","html-keyboard-response","237","777660","0.0-12.0-1.12","xz0v1fmlou","one_one","1","direct_first","1","ER05ER24","0","21","1","1","3","1","","0","0","0","null","","","<img src = 'category4/GS2.png' width = '100%;'>","null","","","","","","","","","",""
"","html-keyboard-response","238","777914","0.0-12.0-2.12","xz0v1fmlou","one_one","1","direct_first","1","ER05ER24","0","21","1","1","3","1","","0","0","0","null","","","<img src = 'targets/29.png' width = '100%;'>","null","","","","","","","","","",""
"","html-keyboard-response","239","779128","0.0-12.0-3.12","xz0v1fmlou","one_one","1","direct_first","1","ER05ER24","0","21","1","1","3","1","","0","0","0","1211.4450000226498","","","<img src = 'targets/mask.png' width = '100%;'>","75","pos","GS","GSnew","4","category4/GS2.png","","targets/29.png","indirect","1","28"
"","html-keyboard-response","240","780631","0.0-12.0-0.13","xz0v1fmlou","one_one","1","direct_first","1","ER05ER24","0","21","1","1","3","1","","0","0","0","null","","","<div style=""font-size:60px;"">+</div>","null","","","","","","","","","",""
"","html-keyboard-response","241","780724","0.0-12.0-1.13","xz0v1fmlou","one_one","1","direct_first","1","ER05ER24","0","21","1","1","3","1","","0","0","0","null","","","<img src = 'category3/wang.png' width = '100%;'>","null","","","","","","","","","",""
"","html-keyboard-response","242","780977","0.0-12.0-2.13","xz0v1fmlou","one_one","1","direct_first","1","ER05ER24","0","21","1","1","3","1","","0","0","0","null","","","<img src = 'targets/38.png' width = '100%;'>","null","","","","","","","","","",""
"","html-keyboard-response","243","782266","0.0-12.0-3.13","xz0v1fmlou","one_one","1","direct_first","1","ER05ER24","0","21","1","1","3","1","","0","0","0","1286.4999999874271","","","<img src = 'targets/mask.png' width = '100%;'>","75","pos","GS","abstract","3","category3/wang.png","","targets/38.png","indirect","1","29"
"","html-keyboard-response","244","783769","0.0-12.0-0.14","xz0v1fmlou","one_one","1","direct_first","1","ER05ER24","0","21","1","1","3","1","","0","0","0","null","","","<div style=""font-size:60px;"">+</div>","null","","","","","","","","","",""
"","html-keyboard-response","245","783862","0.0-12.0-1.14","xz0v1fmlou","one_one","1","direct_first","1","ER05ER24","0","21","1","1","3","1","","0","0","0","null","","","<img src = 'category4/GS1.png' width = '100%;'>","null","","","","","","","","","",""
"","html-keyboard-response","246","784114","0.0-12.0-2.14","xz0v1fmlou","one_one","1","direct_first","1","ER05ER24","0","21","1","1","3","1","","0","0","0","null","","","<img src = 'targets/30.png' width = '100%;'>","null","","","","","","","","","",""
"","html-keyboard-response","247","785050","0.0-12.0-3.14","xz0v1fmlou","one_one","1","direct_first","1","ER05ER24","0","21","1","1","3","1","","0","0","0","932.8399999649264","","","<img src = 'targets/mask.png' width = '100%;'>","68","pos","GS","GSnew","4","category4/GS1.png","","targets/30.png","indirect","0","30"
"","html-keyboard-response","248","786553","0.0-12.0-0.15","xz0v1fmlou","one_one","1","direct_first","1","ER05ER24","0","21","1","1","3","1","","0","0","0","null","","","<div style=""font-size:60px;"">+</div>","null","","","","","","","","","",""
"","html-keyboard-response","249","786646","0.0-12.0-1.15","xz0v1fmlou","one_one","1","direct_first","1","ER05ER24","0","21","1","1","3","1","","0","0","0","null","","","<img src = 'category1/GS2.png' width = '100%;'>","null","","","","","","","","","",""
"","html-keyboard-response","250","786899","0.0-12.0-2.15","xz0v1fmlou","one_one","1","direct_first","1","ER05ER24","0","21","1","1","3","1","","0","0","0","null","","","<img src = 'targets/39.png' width = '100%;'>","null","","","","","","","","","",""
"","html-keyboard-response","251","787742","0.0-12.0-3.15","xz0v1fmlou","one_one","1","direct_first","1","ER05ER24","0","21","1","1","3","1","","0","0","0","840.120000008028","","","<img src = 'targets/mask.png' width = '100%;'>","68","neg","GS","GSnew","1","category1/GS2.png","","targets/39.png","indirect","0","31"
"","survey-html-form","252","793538","0.0-13.0","xz0v1fmlou","one_one","1","direct_first","1","ER05ER24","0","21","1","1","3","1","","0","0","0","5293.279999983497","","{}","","","","","","","","","","","",""
"","image-slider-response","253","800441","0.0-14.0-0.0","xz0v1fmlou","one_one","1","direct_first","1","ER05ER24","0","21","1","1","3","1","","0","0","0","5898.74500001315","","","","","pos","All","all","4","category4/lin_all.png","49","","all","",""
"","image-slider-response","254","803604","0.0-14.0-0.1","xz0v1fmlou","one_one","1","direct_first","1","ER05ER24","0","21","1","1","3","1","","0","0","0","3158.0200000316836","","","","","neg","All","all","2","category2/men_all.png","44","","all","",""
"","image-slider-response","255","807789","0.0-14.0-0.2","xz0v1fmlou","one_one","1","direct_first","1","ER05ER24","0","21","1","1","3","1","","0","0","0","4182.110000052489","","","","","neg","All","all","1","category1/ma_all.png","-37","","all","",""
"","image-slider-response","256","812750","0.0-14.0-0.3","xz0v1fmlou","one_one","1","direct_first","1","ER05ER24","0","21","1","1","3","1","","0","0","0","4958.084999991115","","","","","pos","All","all","3","category3/wang_all.png","30","","all","",""
"","survey-text","257","828367","0.0-15.0","xz0v1fmlou","one_one","1","direct_first","1","ER05ER24","0","21","1","1","3","1","","0","0","0","15529.360000044107","","{""comment"":""""}","","","","","","","","","","","",""
"","survey-html-form","258","845234","0.0-16.0","xz0v1fmlou","one_one","1","direct_first","1","ER05ER24","0","21","1","1","3","1","","0","0","0","16861.44000000786","","{""hinschauen"":""0"",""ablenkung"":""0"",""gewissenhaft"":""0""}","","","","","","","","","","","",""
