"success","trial_type","trial_index","time_elapsed","internal_node_id","subject","condition","condition_code","measure","measure_code","codeword","gender","age","education","chinese","fach","handedness","comment","hinschauen","ablenkung","gewissenhaft","rt","url","responses","stimulus","key_press","val","type","type_specific","category","cs_selected","target","indirect","task","nr_pres","response"
"true","fullscreen","0","11933","0.0-0.0","nxaxm2lljf","one_one","1","indirect_first","0","oß08ch13","1","24","1","1","3","1","","0","1","0","","","","","","","","","","","","","","",""
"","external-html","1","75905","0.0-1.0","nxaxm2lljf","one_one","1","indirect_first","0","oß08ch13","1","24","1","1","3","1","","0","1","0","63849","text/information.html","","","","","","","","","","","","",""
"","external-html","2","84881","0.0-2.0","nxaxm2lljf","one_one","1","indirect_first","0","oß08ch13","1","24","1","1","3","1","","0","1","0","8839","text/consent.html","","","","","","","","","","","","",""
"","survey-html-form","3","162595","0.0-3.0","nxaxm2lljf","one_one","1","indirect_first","0","oß08ch13","1","24","1","1","3","1","","0","1","0","77705","","{""codeword_enter"":""oß08ch13""}","","","","","","","","","","","",""
"","survey-html-form","4","184280","0.0-4.0","nxaxm2lljf","one_one","1","indirect_first","0","oß08ch13","1","24","1","1","3","1","","0","1","0","21669","","{""age"":""24"",""education"":""1"",""subject"":""3"",""gender"":""1"",""handedness"":""1"",""chinese"":""1""}","","","","","","","","","","","",""
"","survey-html-form","5","199653","0.0-5.0","nxaxm2lljf","one_one","1","indirect_first","0","oß08ch13","1","24","1","1","3","1","","0","1","0","15355","","{}","","","","","","","","","","","",""
"","html-keyboard-response","6","203682","0.0-6.0-0.0-0.0","nxaxm2lljf","one_one","1","indirect_first","0","oß08ch13","1","24","1","1","3","1","","0","1","0","null","","","<div class = 'row'><div class = 'column'><img src = 'category1/CS5.png' width = '70%;'></div><div class = 'column'><img src = 'usneg/6212.bmp' width = '100%;'></div></div>","null","neg","CS","CS","1","category1/CS5.png","","","","",""
"","html-keyboard-response","7","206211","0.0-6.0-0.0-0.1","nxaxm2lljf","one_one","1","indirect_first","0","oß08ch13","1","24","1","1","3","1","","0","1","0","null","","","<div class = 'row'><div class = 'column'><img src = 'category3/CS6.png' width = '70%;'></div><div class = 'column'><img src = 'uspos/2340.bmp' width = '100%;'></div></div>","null","pos","CS","CS","3","category3/CS6.png","","","","",""
"","html-keyboard-response","8","208746","0.0-6.0-0.0-0.2","nxaxm2lljf","one_one","1","indirect_first","0","oß08ch13","1","24","1","1","3","1","","0","1","0","null","","","<div class = 'row'><div class = 'column'><img src = 'uspos/1340.bmp' width = '100%;'></div><div class = 'column'><img src = 'category4/CS6.png' width = '70%;'></div></div>","null","pos","CS","CS","4","category4/CS6.png","","","","",""
"","html-keyboard-response","9","211278","0.0-6.0-0.0-0.3","nxaxm2lljf","one_one","1","indirect_first","0","oß08ch13","1","24","1","1","3","1","","0","1","0","null","","","<div class = 'row'><div class = 'column'><img src = 'usneg/6212.bmp' width = '100%;'></div><div class = 'column'><img src = 'category1/CS5.png' width = '70%;'></div></div>","null","neg","CS","CS","1","category1/CS5.png","","","","",""
"","html-keyboard-response","10","213809","0.0-6.0-0.0-0.4","nxaxm2lljf","one_one","1","indirect_first","0","oß08ch13","1","24","1","1","3","1","","0","1","0","null","","","<div class = 'row'><div class = 'column'><img src = 'uspos/1340.bmp' width = '100%;'></div><div class = 'column'><img src = 'category4/CS6.png' width = '70%;'></div></div>","null","pos","CS","CS","4","category4/CS6.png","","","","",""
"","html-keyboard-response","11","216339","0.0-6.0-0.0-0.5","nxaxm2lljf","one_one","1","indirect_first","0","oß08ch13","1","24","1","1","3","1","","0","1","0","null","","","<div class = 'row'><div class = 'column'><img src = 'uspos/2340.bmp' width = '100%;'></div><div class = 'column'><img src = 'category3/CS6.png' width = '70%;'></div></div>","null","pos","CS","CS","3","category3/CS6.png","","","","",""
"","html-keyboard-response","12","218872","0.0-6.0-0.0-0.6","nxaxm2lljf","one_one","1","indirect_first","0","oß08ch13","1","24","1","1","3","1","","0","1","0","null","","","<div class = 'row'><div class = 'column'><img src = 'category2/CS2.png' width = '70%;'></div><div class = 'column'><img src = 'usneg/9421.bmp' width = '100%;'></div></div>","null","neg","CS","CS","2","category2/CS2.png","","","","",""
"","html-keyboard-response","13","221404","0.0-6.0-0.0-0.7","nxaxm2lljf","one_one","1","indirect_first","0","oß08ch13","1","24","1","1","3","1","","0","1","0","null","","","<div class = 'row'><div class = 'column'><img src = 'category1/CS5.png' width = '70%;'></div><div class = 'column'><img src = 'usneg/6212.bmp' width = '100%;'></div></div>","null","neg","CS","CS","1","category1/CS5.png","","","","",""
"","html-keyboard-response","14","223937","0.0-6.0-0.0-0.8","nxaxm2lljf","one_one","1","indirect_first","0","oß08ch13","1","24","1","1","3","1","","0","1","0","null","","","<div class = 'row'><div class = 'column'><img src = 'category2/CS2.png' width = '70%;'></div><div class = 'column'><img src = 'usneg/9421.bmp' width = '100%;'></div></div>","null","neg","CS","CS","2","category2/CS2.png","","","","",""
"","html-keyboard-response","15","226468","0.0-6.0-0.0-0.9","nxaxm2lljf","one_one","1","indirect_first","0","oß08ch13","1","24","1","1","3","1","","0","1","0","null","","","<div class = 'row'><div class = 'column'><img src = 'uspos/1340.bmp' width = '100%;'></div><div class = 'column'><img src = 'category4/CS6.png' width = '70%;'></div></div>","null","pos","CS","CS","4","category4/CS6.png","","","","",""
"","html-keyboard-response","16","229000","0.0-6.0-0.0-0.10","nxaxm2lljf","one_one","1","indirect_first","0","oß08ch13","1","24","1","1","3","1","","0","1","0","null","","","<div class = 'row'><div class = 'column'><img src = 'usneg/9421.bmp' width = '100%;'></div><div class = 'column'><img src = 'category2/CS2.png' width = '70%;'></div></div>","null","neg","CS","CS","2","category2/CS2.png","","","","",""
"","html-keyboard-response","17","231532","0.0-6.0-0.0-0.11","nxaxm2lljf","one_one","1","indirect_first","0","oß08ch13","1","24","1","1","3","1","","0","1","0","null","","","<div class = 'row'><div class = 'column'><img src = 'uspos/2340.bmp' width = '100%;'></div><div class = 'column'><img src = 'category3/CS6.png' width = '70%;'></div></div>","null","pos","CS","CS","3","category3/CS6.png","","","","",""
"","html-keyboard-response","18","234066","0.0-6.0-0.0-0.12","nxaxm2lljf","one_one","1","indirect_first","0","oß08ch13","1","24","1","1","3","1","","0","1","0","null","","","<div class = 'row'><div class = 'column'><img src = 'category1/CS5.png' width = '70%;'></div><div class = 'column'><img src = 'usneg/6212.bmp' width = '100%;'></div></div>","null","neg","CS","CS","1","category1/CS5.png","","","","",""
"","html-keyboard-response","19","236597","0.0-6.0-0.0-0.13","nxaxm2lljf","one_one","1","indirect_first","0","oß08ch13","1","24","1","1","3","1","","0","1","0","null","","","<div class = 'row'><div class = 'column'><img src = 'category3/CS6.png' width = '70%;'></div><div class = 'column'><img src = 'uspos/2340.bmp' width = '100%;'></div></div>","null","pos","CS","CS","3","category3/CS6.png","","","","",""
"","html-keyboard-response","20","239129","0.0-6.0-0.0-0.14","nxaxm2lljf","one_one","1","indirect_first","0","oß08ch13","1","24","1","1","3","1","","0","1","0","null","","","<div class = 'row'><div class = 'column'><img src = 'category1/CS5.png' width = '70%;'></div><div class = 'column'><img src = 'usneg/6212.bmp' width = '100%;'></div></div>","null","neg","CS","CS","1","category1/CS5.png","","","","",""
"","html-keyboard-response","21","241658","0.0-6.0-0.0-0.15","nxaxm2lljf","one_one","1","indirect_first","0","oß08ch13","1","24","1","1","3","1","","0","1","0","null","","","<div class = 'row'><div class = 'column'><img src = 'category4/CS6.png' width = '70%;'></div><div class = 'column'><img src = 'uspos/1340.bmp' width = '100%;'></div></div>","null","pos","CS","CS","4","category4/CS6.png","","","","",""
"","html-keyboard-response","22","244192","0.0-6.0-0.0-0.16","nxaxm2lljf","one_one","1","indirect_first","0","oß08ch13","1","24","1","1","3","1","","0","1","0","null","","","<div class = 'row'><div class = 'column'><img src = 'uspos/2340.bmp' width = '100%;'></div><div class = 'column'><img src = 'category3/CS6.png' width = '70%;'></div></div>","null","pos","CS","CS","3","category3/CS6.png","","","","",""
"","html-keyboard-response","23","246725","0.0-6.0-0.0-0.17","nxaxm2lljf","one_one","1","indirect_first","0","oß08ch13","1","24","1","1","3","1","","0","1","0","null","","","<div class = 'row'><div class = 'column'><img src = 'category2/CS2.png' width = '70%;'></div><div class = 'column'><img src = 'usneg/9421.bmp' width = '100%;'></div></div>","null","neg","CS","CS","2","category2/CS2.png","","","","",""
"","html-keyboard-response","24","249257","0.0-6.0-0.0-0.18","nxaxm2lljf","one_one","1","indirect_first","0","oß08ch13","1","24","1","1","3","1","","0","1","0","null","","","<div class = 'row'><div class = 'column'><img src = 'category4/CS6.png' width = '70%;'></div><div class = 'column'><img src = 'uspos/1340.bmp' width = '100%;'></div></div>","null","pos","CS","CS","4","category4/CS6.png","","","","",""
"","html-keyboard-response","25","251789","0.0-6.0-0.0-0.19","nxaxm2lljf","one_one","1","indirect_first","0","oß08ch13","1","24","1","1","3","1","","0","1","0","null","","","<div class = 'row'><div class = 'column'><img src = 'usneg/9421.bmp' width = '100%;'></div><div class = 'column'><img src = 'category2/CS2.png' width = '70%;'></div></div>","null","neg","CS","CS","2","category2/CS2.png","","","","",""
"","survey-html-form","26","254612","0.0-6.0-1.0","nxaxm2lljf","one_one","1","indirect_first","0","oß08ch13","1","24","1","1","3","1","","0","1","0","2305","","{}","","","","","","","","","","","",""
"","html-keyboard-response","27","258636","0.0-6.0-2.0-0.0","nxaxm2lljf","one_one","1","indirect_first","0","oß08ch13","1","24","1","1","3","1","","0","1","0","null","","","<div class = 'row'><div class = 'column'><img src = 'uspos/2340.bmp' width = '100%;'></div><div class = 'column'><img src = 'category3/CS6.png' width = '70%;'></div></div>","null","pos","CS","CS","3","category3/CS6.png","","","","",""
"","html-keyboard-response","28","261167","0.0-6.0-2.0-0.1","nxaxm2lljf","one_one","1","indirect_first","0","oß08ch13","1","24","1","1","3","1","","0","1","0","null","","","<div class = 'row'><div class = 'column'><img src = 'uspos/1340.bmp' width = '100%;'></div><div class = 'column'><img src = 'category4/CS6.png' width = '70%;'></div></div>","null","pos","CS","CS","4","category4/CS6.png","","","","",""
"","html-keyboard-response","29","263699","0.0-6.0-2.0-0.2","nxaxm2lljf","one_one","1","indirect_first","0","oß08ch13","1","24","1","1","3","1","","0","1","0","null","","","<div class = 'row'><div class = 'column'><img src = 'usneg/9421.bmp' width = '100%;'></div><div class = 'column'><img src = 'category2/CS2.png' width = '70%;'></div></div>","null","neg","CS","CS","2","category2/CS2.png","","","","",""
"","html-keyboard-response","30","266232","0.0-6.0-2.0-0.3","nxaxm2lljf","one_one","1","indirect_first","0","oß08ch13","1","24","1","1","3","1","","0","1","0","null","","","<div class = 'row'><div class = 'column'><img src = 'category3/CS6.png' width = '70%;'></div><div class = 'column'><img src = 'uspos/2340.bmp' width = '100%;'></div></div>","null","pos","CS","CS","3","category3/CS6.png","","","","",""
"","html-keyboard-response","31","268763","0.0-6.0-2.0-0.4","nxaxm2lljf","one_one","1","indirect_first","0","oß08ch13","1","24","1","1","3","1","","0","1","0","null","","","<div class = 'row'><div class = 'column'><img src = 'usneg/6212.bmp' width = '100%;'></div><div class = 'column'><img src = 'category1/CS5.png' width = '70%;'></div></div>","null","neg","CS","CS","1","category1/CS5.png","","","","",""
"","html-keyboard-response","32","271294","0.0-6.0-2.0-0.5","nxaxm2lljf","one_one","1","indirect_first","0","oß08ch13","1","24","1","1","3","1","","0","1","0","null","","","<div class = 'row'><div class = 'column'><img src = 'category2/CS2.png' width = '70%;'></div><div class = 'column'><img src = 'usneg/9421.bmp' width = '100%;'></div></div>","null","neg","CS","CS","2","category2/CS2.png","","","","",""
"","html-keyboard-response","33","273827","0.0-6.0-2.0-0.6","nxaxm2lljf","one_one","1","indirect_first","0","oß08ch13","1","24","1","1","3","1","","0","1","0","null","","","<div class = 'row'><div class = 'column'><img src = 'uspos/1340.bmp' width = '100%;'></div><div class = 'column'><img src = 'category4/CS6.png' width = '70%;'></div></div>","null","pos","CS","CS","4","category4/CS6.png","","","","",""
"","html-keyboard-response","34","276360","0.0-6.0-2.0-0.7","nxaxm2lljf","one_one","1","indirect_first","0","oß08ch13","1","24","1","1","3","1","","0","1","0","null","","","<div class = 'row'><div class = 'column'><img src = 'category3/CS6.png' width = '70%;'></div><div class = 'column'><img src = 'uspos/2340.bmp' width = '100%;'></div></div>","null","pos","CS","CS","3","category3/CS6.png","","","","",""
"","html-keyboard-response","35","278891","0.0-6.0-2.0-0.8","nxaxm2lljf","one_one","1","indirect_first","0","oß08ch13","1","24","1","1","3","1","","0","1","0","null","","","<div class = 'row'><div class = 'column'><img src = 'category4/CS6.png' width = '70%;'></div><div class = 'column'><img src = 'uspos/1340.bmp' width = '100%;'></div></div>","null","pos","CS","CS","4","category4/CS6.png","","","","",""
"","html-keyboard-response","36","281423","0.0-6.0-2.0-0.9","nxaxm2lljf","one_one","1","indirect_first","0","oß08ch13","1","24","1","1","3","1","","0","1","0","null","","","<div class = 'row'><div class = 'column'><img src = 'category2/CS2.png' width = '70%;'></div><div class = 'column'><img src = 'usneg/9421.bmp' width = '100%;'></div></div>","null","neg","CS","CS","2","category2/CS2.png","","","","",""
"","html-keyboard-response","37","283955","0.0-6.0-2.0-0.10","nxaxm2lljf","one_one","1","indirect_first","0","oß08ch13","1","24","1","1","3","1","","0","1","0","null","","","<div class = 'row'><div class = 'column'><img src = 'uspos/1340.bmp' width = '100%;'></div><div class = 'column'><img src = 'category4/CS6.png' width = '70%;'></div></div>","null","pos","CS","CS","4","category4/CS6.png","","","","",""
"","html-keyboard-response","38","286488","0.0-6.0-2.0-0.11","nxaxm2lljf","one_one","1","indirect_first","0","oß08ch13","1","24","1","1","3","1","","0","1","0","null","","","<div class = 'row'><div class = 'column'><img src = 'uspos/2340.bmp' width = '100%;'></div><div class = 'column'><img src = 'category3/CS6.png' width = '70%;'></div></div>","null","pos","CS","CS","3","category3/CS6.png","","","","",""
"","html-keyboard-response","39","289020","0.0-6.0-2.0-0.12","nxaxm2lljf","one_one","1","indirect_first","0","oß08ch13","1","24","1","1","3","1","","0","1","0","null","","","<div class = 'row'><div class = 'column'><img src = 'category1/CS5.png' width = '70%;'></div><div class = 'column'><img src = 'usneg/6212.bmp' width = '100%;'></div></div>","null","neg","CS","CS","1","category1/CS5.png","","","","",""
"","html-keyboard-response","40","291551","0.0-6.0-2.0-0.13","nxaxm2lljf","one_one","1","indirect_first","0","oß08ch13","1","24","1","1","3","1","","0","1","0","null","","","<div class = 'row'><div class = 'column'><img src = 'category2/CS2.png' width = '70%;'></div><div class = 'column'><img src = 'usneg/9421.bmp' width = '100%;'></div></div>","null","neg","CS","CS","2","category2/CS2.png","","","","",""
"","html-keyboard-response","41","294083","0.0-6.0-2.0-0.14","nxaxm2lljf","one_one","1","indirect_first","0","oß08ch13","1","24","1","1","3","1","","0","1","0","null","","","<div class = 'row'><div class = 'column'><img src = 'usneg/6212.bmp' width = '100%;'></div><div class = 'column'><img src = 'category1/CS5.png' width = '70%;'></div></div>","null","neg","CS","CS","1","category1/CS5.png","","","","",""
"","html-keyboard-response","42","296615","0.0-6.0-2.0-0.15","nxaxm2lljf","one_one","1","indirect_first","0","oß08ch13","1","24","1","1","3","1","","0","1","0","null","","","<div class = 'row'><div class = 'column'><img src = 'uspos/1340.bmp' width = '100%;'></div><div class = 'column'><img src = 'category4/CS6.png' width = '70%;'></div></div>","null","pos","CS","CS","4","category4/CS6.png","","","","",""
"","html-keyboard-response","43","299145","0.0-6.0-2.0-0.16","nxaxm2lljf","one_one","1","indirect_first","0","oß08ch13","1","24","1","1","3","1","","0","1","0","null","","","<div class = 'row'><div class = 'column'><img src = 'uspos/2340.bmp' width = '100%;'></div><div class = 'column'><img src = 'category3/CS6.png' width = '70%;'></div></div>","null","pos","CS","CS","3","category3/CS6.png","","","","",""
"","html-keyboard-response","44","301679","0.0-6.0-2.0-0.17","nxaxm2lljf","one_one","1","indirect_first","0","oß08ch13","1","24","1","1","3","1","","0","1","0","null","","","<div class = 'row'><div class = 'column'><img src = 'category1/CS5.png' width = '70%;'></div><div class = 'column'><img src = 'usneg/6212.bmp' width = '100%;'></div></div>","null","neg","CS","CS","1","category1/CS5.png","","","","",""
"","html-keyboard-response","45","304211","0.0-6.0-2.0-0.18","nxaxm2lljf","one_one","1","indirect_first","0","oß08ch13","1","24","1","1","3","1","","0","1","0","null","","","<div class = 'row'><div class = 'column'><img src = 'usneg/9421.bmp' width = '100%;'></div><div class = 'column'><img src = 'category2/CS2.png' width = '70%;'></div></div>","null","neg","CS","CS","2","category2/CS2.png","","","","",""
"","html-keyboard-response","46","306744","0.0-6.0-2.0-0.19","nxaxm2lljf","one_one","1","indirect_first","0","oß08ch13","1","24","1","1","3","1","","0","1","0","null","","","<div class = 'row'><div class = 'column'><img src = 'category1/CS5.png' width = '70%;'></div><div class = 'column'><img src = 'usneg/6212.bmp' width = '100%;'></div></div>","null","neg","CS","CS","1","category1/CS5.png","","","","",""
"","survey-html-form","47","311128","0.0-6.0-3.0","nxaxm2lljf","one_one","1","indirect_first","0","oß08ch13","1","24","1","1","3","1","","0","1","0","3868","","{}","","","","","","","","","","","",""
"","html-keyboard-response","48","315156","0.0-6.0-4.0-0.0","nxaxm2lljf","one_one","1","indirect_first","0","oß08ch13","1","24","1","1","3","1","","0","1","0","null","","","<div class = 'row'><div class = 'column'><img src = 'category3/CS6.png' width = '70%;'></div><div class = 'column'><img src = 'uspos/2340.bmp' width = '100%;'></div></div>","null","pos","CS","CS","3","category3/CS6.png","","","","",""
"","html-keyboard-response","49","317687","0.0-6.0-4.0-0.1","nxaxm2lljf","one_one","1","indirect_first","0","oß08ch13","1","24","1","1","3","1","","0","1","0","null","","","<div class = 'row'><div class = 'column'><img src = 'category4/CS6.png' width = '70%;'></div><div class = 'column'><img src = 'uspos/1340.bmp' width = '100%;'></div></div>","null","pos","CS","CS","4","category4/CS6.png","","","","",""
"","html-keyboard-response","50","320219","0.0-6.0-4.0-0.2","nxaxm2lljf","one_one","1","indirect_first","0","oß08ch13","1","24","1","1","3","1","","0","1","0","null","","","<div class = 'row'><div class = 'column'><img src = 'usneg/6212.bmp' width = '100%;'></div><div class = 'column'><img src = 'category1/CS5.png' width = '70%;'></div></div>","null","neg","CS","CS","1","category1/CS5.png","","","","",""
"","html-keyboard-response","51","322750","0.0-6.0-4.0-0.3","nxaxm2lljf","one_one","1","indirect_first","0","oß08ch13","1","24","1","1","3","1","","0","1","0","null","","","<div class = 'row'><div class = 'column'><img src = 'category4/CS6.png' width = '70%;'></div><div class = 'column'><img src = 'uspos/1340.bmp' width = '100%;'></div></div>","null","pos","CS","CS","4","category4/CS6.png","","","","",""
"","html-keyboard-response","52","325267","0.0-6.0-4.0-0.4","nxaxm2lljf","one_one","1","indirect_first","0","oß08ch13","1","24","1","1","3","1","","0","1","0","null","","","<div class = 'row'><div class = 'column'><img src = 'usneg/6212.bmp' width = '100%;'></div><div class = 'column'><img src = 'category1/CS5.png' width = '70%;'></div></div>","null","neg","CS","CS","1","category1/CS5.png","","","","",""
"","html-keyboard-response","53","327798","0.0-6.0-4.0-0.5","nxaxm2lljf","one_one","1","indirect_first","0","oß08ch13","1","24","1","1","3","1","","0","1","0","null","","","<div class = 'row'><div class = 'column'><img src = 'usneg/9421.bmp' width = '100%;'></div><div class = 'column'><img src = 'category2/CS2.png' width = '70%;'></div></div>","null","neg","CS","CS","2","category2/CS2.png","","","","",""
"","html-keyboard-response","54","330325","0.0-6.0-4.0-0.6","nxaxm2lljf","one_one","1","indirect_first","0","oß08ch13","1","24","1","1","3","1","","0","1","0","null","","","<div class = 'row'><div class = 'column'><img src = 'category3/CS6.png' width = '70%;'></div><div class = 'column'><img src = 'uspos/2340.bmp' width = '100%;'></div></div>","null","pos","CS","CS","3","category3/CS6.png","","","","",""
"","html-keyboard-response","55","332848","0.0-6.0-4.0-0.7","nxaxm2lljf","one_one","1","indirect_first","0","oß08ch13","1","24","1","1","3","1","","0","1","0","null","","","<div class = 'row'><div class = 'column'><img src = 'category2/CS2.png' width = '70%;'></div><div class = 'column'><img src = 'usneg/9421.bmp' width = '100%;'></div></div>","null","neg","CS","CS","2","category2/CS2.png","","","","",""
"","html-keyboard-response","56","335378","0.0-6.0-4.0-0.8","nxaxm2lljf","one_one","1","indirect_first","0","oß08ch13","1","24","1","1","3","1","","0","1","0","null","","","<div class = 'row'><div class = 'column'><img src = 'usneg/6212.bmp' width = '100%;'></div><div class = 'column'><img src = 'category1/CS5.png' width = '70%;'></div></div>","null","neg","CS","CS","1","category1/CS5.png","","","","",""
"","html-keyboard-response","57","337909","0.0-6.0-4.0-0.9","nxaxm2lljf","one_one","1","indirect_first","0","oß08ch13","1","24","1","1","3","1","","0","1","0","null","","","<div class = 'row'><div class = 'column'><img src = 'uspos/1340.bmp' width = '100%;'></div><div class = 'column'><img src = 'category4/CS6.png' width = '70%;'></div></div>","null","pos","CS","CS","4","category4/CS6.png","","","","",""
"","html-keyboard-response","58","340442","0.0-6.0-4.0-0.10","nxaxm2lljf","one_one","1","indirect_first","0","oß08ch13","1","24","1","1","3","1","","0","1","0","null","","","<div class = 'row'><div class = 'column'><img src = 'uspos/2340.bmp' width = '100%;'></div><div class = 'column'><img src = 'category3/CS6.png' width = '70%;'></div></div>","null","pos","CS","CS","3","category3/CS6.png","","","","",""
"","html-keyboard-response","59","342975","0.0-6.0-4.0-0.11","nxaxm2lljf","one_one","1","indirect_first","0","oß08ch13","1","24","1","1","3","1","","0","1","0","null","","","<div class = 'row'><div class = 'column'><img src = 'uspos/1340.bmp' width = '100%;'></div><div class = 'column'><img src = 'category4/CS6.png' width = '70%;'></div></div>","null","pos","CS","CS","4","category4/CS6.png","","","","",""
"","html-keyboard-response","60","345507","0.0-6.0-4.0-0.12","nxaxm2lljf","one_one","1","indirect_first","0","oß08ch13","1","24","1","1","3","1","","0","1","0","null","","","<div class = 'row'><div class = 'column'><img src = 'category3/CS6.png' width = '70%;'></div><div class = 'column'><img src = 'uspos/2340.bmp' width = '100%;'></div></div>","null","pos","CS","CS","3","category3/CS6.png","","","","",""
"","html-keyboard-response","61","348037","0.0-6.0-4.0-0.13","nxaxm2lljf","one_one","1","indirect_first","0","oß08ch13","1","24","1","1","3","1","","0","1","0","null","","","<div class = 'row'><div class = 'column'><img src = 'category4/CS6.png' width = '70%;'></div><div class = 'column'><img src = 'uspos/1340.bmp' width = '100%;'></div></div>","null","pos","CS","CS","4","category4/CS6.png","","","","",""
"","html-keyboard-response","62","350570","0.0-6.0-4.0-0.14","nxaxm2lljf","one_one","1","indirect_first","0","oß08ch13","1","24","1","1","3","1","","0","1","0","null","","","<div class = 'row'><div class = 'column'><img src = 'category1/CS5.png' width = '70%;'></div><div class = 'column'><img src = 'usneg/6212.bmp' width = '100%;'></div></div>","null","neg","CS","CS","1","category1/CS5.png","","","","",""
"","html-keyboard-response","63","353102","0.0-6.0-4.0-0.15","nxaxm2lljf","one_one","1","indirect_first","0","oß08ch13","1","24","1","1","3","1","","0","1","0","null","","","<div class = 'row'><div class = 'column'><img src = 'usneg/9421.bmp' width = '100%;'></div><div class = 'column'><img src = 'category2/CS2.png' width = '70%;'></div></div>","null","neg","CS","CS","2","category2/CS2.png","","","","",""
"","html-keyboard-response","64","355634","0.0-6.0-4.0-0.16","nxaxm2lljf","one_one","1","indirect_first","0","oß08ch13","1","24","1","1","3","1","","0","1","0","null","","","<div class = 'row'><div class = 'column'><img src = 'category3/CS6.png' width = '70%;'></div><div class = 'column'><img src = 'uspos/2340.bmp' width = '100%;'></div></div>","null","pos","CS","CS","3","category3/CS6.png","","","","",""
"","html-keyboard-response","65","358168","0.0-6.0-4.0-0.17","nxaxm2lljf","one_one","1","indirect_first","0","oß08ch13","1","24","1","1","3","1","","0","1","0","null","","","<div class = 'row'><div class = 'column'><img src = 'usneg/9421.bmp' width = '100%;'></div><div class = 'column'><img src = 'category2/CS2.png' width = '70%;'></div></div>","null","neg","CS","CS","2","category2/CS2.png","","","","",""
"","html-keyboard-response","66","360698","0.0-6.0-4.0-0.18","nxaxm2lljf","one_one","1","indirect_first","0","oß08ch13","1","24","1","1","3","1","","0","1","0","null","","","<div class = 'row'><div class = 'column'><img src = 'usneg/6212.bmp' width = '100%;'></div><div class = 'column'><img src = 'category1/CS5.png' width = '70%;'></div></div>","null","neg","CS","CS","1","category1/CS5.png","","","","",""
"","html-keyboard-response","67","363231","0.0-6.0-4.0-0.19","nxaxm2lljf","one_one","1","indirect_first","0","oß08ch13","1","24","1","1","3","1","","0","1","0","null","","","<div class = 'row'><div class = 'column'><img src = 'usneg/9421.bmp' width = '100%;'></div><div class = 'column'><img src = 'category2/CS2.png' width = '70%;'></div></div>","null","neg","CS","CS","2","category2/CS2.png","","","","",""
"","survey-html-form","68","365183","0.0-6.0-5.0","nxaxm2lljf","one_one","1","indirect_first","0","oß08ch13","1","24","1","1","3","1","","0","1","0","1436","","{}","","","","","","","","","","","",""
"","html-keyboard-response","69","369207","0.0-6.0-6.0-0.0","nxaxm2lljf","one_one","1","indirect_first","0","oß08ch13","1","24","1","1","3","1","","0","1","0","null","","","<div class = 'row'><div class = 'column'><img src = 'category1/CS5.png' width = '70%;'></div><div class = 'column'><img src = 'usneg/6212.bmp' width = '100%;'></div></div>","null","neg","CS","CS","1","category1/CS5.png","","","","",""
"","html-keyboard-response","70","371726","0.0-6.0-6.0-0.1","nxaxm2lljf","one_one","1","indirect_first","0","oß08ch13","1","24","1","1","3","1","","0","1","0","null","","","<div class = 'row'><div class = 'column'><img src = 'uspos/2340.bmp' width = '100%;'></div><div class = 'column'><img src = 'category3/CS6.png' width = '70%;'></div></div>","null","pos","CS","CS","3","category3/CS6.png","","","","",""
"","html-keyboard-response","71","374258","0.0-6.0-6.0-0.2","nxaxm2lljf","one_one","1","indirect_first","0","oß08ch13","1","24","1","1","3","1","","0","1","0","null","","","<div class = 'row'><div class = 'column'><img src = 'category4/CS6.png' width = '70%;'></div><div class = 'column'><img src = 'uspos/1340.bmp' width = '100%;'></div></div>","null","pos","CS","CS","4","category4/CS6.png","","","","",""
"","html-keyboard-response","72","376790","0.0-6.0-6.0-0.3","nxaxm2lljf","one_one","1","indirect_first","0","oß08ch13","1","24","1","1","3","1","","0","1","0","null","","","<div class = 'row'><div class = 'column'><img src = 'category2/CS2.png' width = '70%;'></div><div class = 'column'><img src = 'usneg/9421.bmp' width = '100%;'></div></div>","null","neg","CS","CS","2","category2/CS2.png","","","","",""
"","html-keyboard-response","73","379321","0.0-6.0-6.0-0.4","nxaxm2lljf","one_one","1","indirect_first","0","oß08ch13","1","24","1","1","3","1","","0","1","0","null","","","<div class = 'row'><div class = 'column'><img src = 'usneg/6212.bmp' width = '100%;'></div><div class = 'column'><img src = 'category1/CS5.png' width = '70%;'></div></div>","null","neg","CS","CS","1","category1/CS5.png","","","","",""
"","html-keyboard-response","74","381853","0.0-6.0-6.0-0.5","nxaxm2lljf","one_one","1","indirect_first","0","oß08ch13","1","24","1","1","3","1","","0","1","0","null","","","<div class = 'row'><div class = 'column'><img src = 'category2/CS2.png' width = '70%;'></div><div class = 'column'><img src = 'usneg/9421.bmp' width = '100%;'></div></div>","null","neg","CS","CS","2","category2/CS2.png","","","","",""
"","html-keyboard-response","75","384389","0.0-6.0-6.0-0.6","nxaxm2lljf","one_one","1","indirect_first","0","oß08ch13","1","24","1","1","3","1","","0","1","0","null","","","<div class = 'row'><div class = 'column'><img src = 'uspos/2340.bmp' width = '100%;'></div><div class = 'column'><img src = 'category3/CS6.png' width = '70%;'></div></div>","null","pos","CS","CS","3","category3/CS6.png","","","","",""
"","html-keyboard-response","76","386917","0.0-6.0-6.0-0.7","nxaxm2lljf","one_one","1","indirect_first","0","oß08ch13","1","24","1","1","3","1","","0","1","0","null","","","<div class = 'row'><div class = 'column'><img src = 'usneg/6212.bmp' width = '100%;'></div><div class = 'column'><img src = 'category1/CS5.png' width = '70%;'></div></div>","null","neg","CS","CS","1","category1/CS5.png","","","","",""
"","html-keyboard-response","77","389449","0.0-6.0-6.0-0.8","nxaxm2lljf","one_one","1","indirect_first","0","oß08ch13","1","24","1","1","3","1","","0","1","0","null","","","<div class = 'row'><div class = 'column'><img src = 'category3/CS6.png' width = '70%;'></div><div class = 'column'><img src = 'uspos/2340.bmp' width = '100%;'></div></div>","null","pos","CS","CS","3","category3/CS6.png","","","","",""
"","html-keyboard-response","78","391982","0.0-6.0-6.0-0.9","nxaxm2lljf","one_one","1","indirect_first","0","oß08ch13","1","24","1","1","3","1","","0","1","0","null","","","<div class = 'row'><div class = 'column'><img src = 'category1/CS5.png' width = '70%;'></div><div class = 'column'><img src = 'usneg/6212.bmp' width = '100%;'></div></div>","null","neg","CS","CS","1","category1/CS5.png","","","","",""
"","html-keyboard-response","79","394514","0.0-6.0-6.0-0.10","nxaxm2lljf","one_one","1","indirect_first","0","oß08ch13","1","24","1","1","3","1","","0","1","0","null","","","<div class = 'row'><div class = 'column'><img src = 'category3/CS6.png' width = '70%;'></div><div class = 'column'><img src = 'uspos/2340.bmp' width = '100%;'></div></div>","null","pos","CS","CS","3","category3/CS6.png","","","","",""
"","html-keyboard-response","80","397046","0.0-6.0-6.0-0.11","nxaxm2lljf","one_one","1","indirect_first","0","oß08ch13","1","24","1","1","3","1","","0","1","0","null","","","<div class = 'row'><div class = 'column'><img src = 'category4/CS6.png' width = '70%;'></div><div class = 'column'><img src = 'uspos/1340.bmp' width = '100%;'></div></div>","null","pos","CS","CS","4","category4/CS6.png","","","","",""
"","html-keyboard-response","81","399578","0.0-6.0-6.0-0.12","nxaxm2lljf","one_one","1","indirect_first","0","oß08ch13","1","24","1","1","3","1","","0","1","0","null","","","<div class = 'row'><div class = 'column'><img src = 'category2/CS2.png' width = '70%;'></div><div class = 'column'><img src = 'usneg/9421.bmp' width = '100%;'></div></div>","null","neg","CS","CS","2","category2/CS2.png","","","","",""
"","html-keyboard-response","82","402109","0.0-6.0-6.0-0.13","nxaxm2lljf","one_one","1","indirect_first","0","oß08ch13","1","24","1","1","3","1","","0","1","0","null","","","<div class = 'row'><div class = 'column'><img src = 'uspos/1340.bmp' width = '100%;'></div><div class = 'column'><img src = 'category4/CS6.png' width = '70%;'></div></div>","null","pos","CS","CS","4","category4/CS6.png","","","","",""
"","html-keyboard-response","83","404642","0.0-6.0-6.0-0.14","nxaxm2lljf","one_one","1","indirect_first","0","oß08ch13","1","24","1","1","3","1","","0","1","0","null","","","<div class = 'row'><div class = 'column'><img src = 'usneg/9421.bmp' width = '100%;'></div><div class = 'column'><img src = 'category2/CS2.png' width = '70%;'></div></div>","null","neg","CS","CS","2","category2/CS2.png","","","","",""
"","html-keyboard-response","84","407176","0.0-6.0-6.0-0.15","nxaxm2lljf","one_one","1","indirect_first","0","oß08ch13","1","24","1","1","3","1","","0","1","0","null","","","<div class = 'row'><div class = 'column'><img src = 'uspos/1340.bmp' width = '100%;'></div><div class = 'column'><img src = 'category4/CS6.png' width = '70%;'></div></div>","null","pos","CS","CS","4","category4/CS6.png","","","","",""
"","html-keyboard-response","85","409697","0.0-6.0-6.0-0.16","nxaxm2lljf","one_one","1","indirect_first","0","oß08ch13","1","24","1","1","3","1","","0","1","0","null","","","<div class = 'row'><div class = 'column'><img src = 'category1/CS5.png' width = '70%;'></div><div class = 'column'><img src = 'usneg/6212.bmp' width = '100%;'></div></div>","null","neg","CS","CS","1","category1/CS5.png","","","","",""
"","html-keyboard-response","86","412222","0.0-6.0-6.0-0.17","nxaxm2lljf","one_one","1","indirect_first","0","oß08ch13","1","24","1","1","3","1","","0","1","0","null","","","<div class = 'row'><div class = 'column'><img src = 'uspos/2340.bmp' width = '100%;'></div><div class = 'column'><img src = 'category3/CS6.png' width = '70%;'></div></div>","null","pos","CS","CS","3","category3/CS6.png","","","","",""
"","html-keyboard-response","87","414753","0.0-6.0-6.0-0.18","nxaxm2lljf","one_one","1","indirect_first","0","oß08ch13","1","24","1","1","3","1","","0","1","0","null","","","<div class = 'row'><div class = 'column'><img src = 'uspos/1340.bmp' width = '100%;'></div><div class = 'column'><img src = 'category4/CS6.png' width = '70%;'></div></div>","null","pos","CS","CS","4","category4/CS6.png","","","","",""
"","html-keyboard-response","88","417286","0.0-6.0-6.0-0.19","nxaxm2lljf","one_one","1","indirect_first","0","oß08ch13","1","24","1","1","3","1","","0","1","0","null","","","<div class = 'row'><div class = 'column'><img src = 'category2/CS2.png' width = '70%;'></div><div class = 'column'><img src = 'usneg/9421.bmp' width = '100%;'></div></div>","null","neg","CS","CS","2","category2/CS2.png","","","","",""
"","html-keyboard-response","89","447963","0.0-7.0","nxaxm2lljf","one_one","1","indirect_first","0","oß08ch13","1","24","1","1","3","1","","0","1","0","30158","","","<p>Sie sehen nun die chinesischen Zeichen nur ganz kurz. Danach sehen Sie die jeweilige Aussprache der Zeichen als Silbe auf dem Bildschrim. Ihre Aufgabe ist es, für jede Silbe anzugeben, ob diese etwas angenehmes, oder unangenehmes bedeuten könnte. Verlassen Sie sich hier vor allem auf Ihre Intuition.<br><br>Die Zeichen werden nur zur Orientierung dargestellt, beachten Sie sie deshalb nicht. Konzentrieren Sie sich vor allem auf die Silben. <br>Reagieren Sie mit folgenden zwei Tasten: <br><br><b>'D' </b> wenn die Silbe etwas <b>unangenehmes</b> bedeuten könnte. <br><b>'K'</b> wenn die Silbe etwas <b>angenehmes</b> bedeuten könnte. <br><br>Bitte legen Sie nun den Zeigefinger der linken Hand auf die Taste 'D' und den Zeigefinger der rechten Hand auf die Taste 'K'. <br>Reagieren Sie auf jede Silbe so schnell wie möglich. Uns interessiert Ihre spontane Reaktion. <br> <br> <br>Drücken Sie 'D' oder 'K', um die nächste Aufgabe zu starten. </p>","68","","","","","","","","","",""
"","html-keyboard-response","90","450985","0.0-8.0-0.0","nxaxm2lljf","one_one","1","indirect_first","0","oß08ch13","1","24","1","1","3","1","","0","1","0","null","","","<div style=""font-size:60px;"">+</div>","null","","","","","","","","","",""
"","html-keyboard-response","91","451084","0.0-8.0-1.0","nxaxm2lljf","one_one","1","indirect_first","0","oß08ch13","1","24","1","1","3","1","","0","1","0","null","","","<img src = 'category1/CS7.png' width = '100%;'>","null","","","","","","","","","",""
"","html-keyboard-response","92","451357","0.0-8.0-2.0","nxaxm2lljf","one_one","1","indirect_first","0","oß08ch13","1","24","1","1","3","1","","0","1","0","null","","","<img src = 'targets/14.png' width = '100%;'>","null","","","","","","","","","",""
"","html-keyboard-response","93","453000","0.0-8.0-3.0","nxaxm2lljf","one_one","1","indirect_first","0","oß08ch13","1","24","1","1","3","1","","0","1","0","1642","","","<img src = 'targets/mask.png' width = '100%;'>","68","neg","GS","GSold","1","category1/CS7.png","targets/14.png","0","indirect","0",""
"","html-keyboard-response","94","454532","0.0-8.0-0.1","nxaxm2lljf","one_one","1","indirect_first","0","oß08ch13","1","24","1","1","3","1","","0","1","0","null","","","<div style=""font-size:60px;"">+</div>","null","","","","","","","","","",""
"","html-keyboard-response","95","454633","0.0-8.0-1.1","nxaxm2lljf","one_one","1","indirect_first","0","oß08ch13","1","24","1","1","3","1","","0","1","0","null","","","<img src = 'category1/CS4.png' width = '100%;'>","null","","","","","","","","","",""
"","html-keyboard-response","96","454899","0.0-8.0-2.1","nxaxm2lljf","one_one","1","indirect_first","0","oß08ch13","1","24","1","1","3","1","","0","1","0","null","","","<img src = 'targets/42.png' width = '100%;'>","null","","","","","","","","","",""
"","html-keyboard-response","97","455808","0.0-8.0-3.1","nxaxm2lljf","one_one","1","indirect_first","0","oß08ch13","1","24","1","1","3","1","","0","1","0","907","","","<img src = 'targets/mask.png' width = '100%;'>","75","neg","GS","GSold","1","category1/CS4.png","targets/42.png","1","indirect","1",""
"","html-keyboard-response","98","457333","0.0-8.0-0.2","nxaxm2lljf","one_one","1","indirect_first","0","oß08ch13","1","24","1","1","3","1","","0","1","0","null","","","<div style=""font-size:60px;"">+</div>","null","","","","","","","","","",""
"","html-keyboard-response","99","457431","0.0-8.0-1.2","nxaxm2lljf","one_one","1","indirect_first","0","oß08ch13","1","24","1","1","3","1","","0","1","0","null","","","<img src = 'category3/CS1.png' width = '100%;'>","null","","","","","","","","","",""
"","html-keyboard-response","100","457698","0.0-8.0-2.2","nxaxm2lljf","one_one","1","indirect_first","0","oß08ch13","1","24","1","1","3","1","","0","1","0","null","","","<img src = 'targets/48.png' width = '100%;'>","null","","","","","","","","","",""
"","html-keyboard-response","101","459883","0.0-8.0-3.2","nxaxm2lljf","one_one","1","indirect_first","0","oß08ch13","1","24","1","1","3","1","","0","1","0","2182","","","<img src = 'targets/mask.png' width = '100%;'>","68","pos","GS","GSold","3","category3/CS1.png","targets/48.png","0","indirect","2",""
"","html-keyboard-response","102","461411","0.0-8.0-0.3","nxaxm2lljf","one_one","1","indirect_first","0","oß08ch13","1","24","1","1","3","1","","0","1","0","null","","","<div style=""font-size:60px;"">+</div>","null","","","","","","","","","",""
"","html-keyboard-response","103","461513","0.0-8.0-1.3","nxaxm2lljf","one_one","1","indirect_first","0","oß08ch13","1","24","1","1","3","1","","0","1","0","null","","","<img src = 'category4/CS6.png' width = '100%;'>","null","","","","","","","","","",""
"","html-keyboard-response","104","461779","0.0-8.0-2.3","nxaxm2lljf","one_one","1","indirect_first","0","oß08ch13","1","24","1","1","3","1","","0","1","0","null","","","<img src = 'targets/4.png' width = '100%;'>","null","","","","","","","","","",""
"","html-keyboard-response","105","462608","0.0-8.0-3.3","nxaxm2lljf","one_one","1","indirect_first","0","oß08ch13","1","24","1","1","3","1","","0","1","0","827","","","<img src = 'targets/mask.png' width = '100%;'>","75","pos","CS","CS","4","category4/CS6.png","targets/4.png","1","indirect","3",""
"","html-keyboard-response","106","464125","0.0-8.0-0.4","nxaxm2lljf","one_one","1","indirect_first","0","oß08ch13","1","24","1","1","3","1","","0","1","0","null","","","<div style=""font-size:60px;"">+</div>","null","","","","","","","","","",""
"","html-keyboard-response","107","464227","0.0-8.0-1.4","nxaxm2lljf","one_one","1","indirect_first","0","oß08ch13","1","24","1","1","3","1","","0","1","0","null","","","<img src = 'category4/CS4.png' width = '100%;'>","null","","","","","","","","","",""
"","html-keyboard-response","108","464496","0.0-8.0-2.4","nxaxm2lljf","one_one","1","indirect_first","0","oß08ch13","1","24","1","1","3","1","","0","1","0","null","","","<img src = 'targets/25.png' width = '100%;'>","null","","","","","","","","","",""
"","html-keyboard-response","109","465430","0.0-8.0-3.4","nxaxm2lljf","one_one","1","indirect_first","0","oß08ch13","1","24","1","1","3","1","","0","1","0","932","","","<img src = 'targets/mask.png' width = '100%;'>","68","pos","GS","GSold","4","category4/CS4.png","targets/25.png","0","indirect","4",""
"","html-keyboard-response","110","466958","0.0-8.0-0.5","nxaxm2lljf","one_one","1","indirect_first","0","oß08ch13","1","24","1","1","3","1","","0","1","0","null","","","<div style=""font-size:60px;"">+</div>","null","","","","","","","","","",""
"","html-keyboard-response","111","467057","0.0-8.0-1.5","nxaxm2lljf","one_one","1","indirect_first","0","oß08ch13","1","24","1","1","3","1","","0","1","0","null","","","<img src = 'category4/CS5.png' width = '100%;'>","null","","","","","","","","","",""
"","html-keyboard-response","112","467326","0.0-8.0-2.5","nxaxm2lljf","one_one","1","indirect_first","0","oß08ch13","1","24","1","1","3","1","","0","1","0","null","","","<img src = 'targets/39.png' width = '100%;'>","null","","","","","","","","","",""
"","html-keyboard-response","113","468125","0.0-8.0-3.5","nxaxm2lljf","one_one","1","indirect_first","0","oß08ch13","1","24","1","1","3","1","","0","1","0","795","","","<img src = 'targets/mask.png' width = '100%;'>","68","pos","GS","GSold","4","category4/CS5.png","targets/39.png","0","indirect","5",""
"","html-keyboard-response","114","469657","0.0-8.0-0.6","nxaxm2lljf","one_one","1","indirect_first","0","oß08ch13","1","24","1","1","3","1","","0","1","0","null","","","<div style=""font-size:60px;"">+</div>","null","","","","","","","","","",""
"","html-keyboard-response","115","469758","0.0-8.0-1.6","nxaxm2lljf","one_one","1","indirect_first","0","oß08ch13","1","24","1","1","3","1","","0","1","0","null","","","<img src = 'category1/CS5.png' width = '100%;'>","null","","","","","","","","","",""
"","html-keyboard-response","116","470019","0.0-8.0-2.6","nxaxm2lljf","one_one","1","indirect_first","0","oß08ch13","1","24","1","1","3","1","","0","1","0","null","","","<img src = 'targets/8.png' width = '100%;'>","null","","","","","","","","","",""
"","html-keyboard-response","117","471676","0.0-8.0-3.6","nxaxm2lljf","one_one","1","indirect_first","0","oß08ch13","1","24","1","1","3","1","","0","1","0","1655","","","<img src = 'targets/mask.png' width = '100%;'>","68","neg","CS","CS","1","category1/CS5.png","targets/8.png","0","indirect","6",""
"","html-keyboard-response","118","473207","0.0-8.0-0.7","nxaxm2lljf","one_one","1","indirect_first","0","oß08ch13","1","24","1","1","3","1","","0","1","0","null","","","<div style=""font-size:60px;"">+</div>","null","","","","","","","","","",""
"","html-keyboard-response","119","473307","0.0-8.0-1.7","nxaxm2lljf","one_one","1","indirect_first","0","oß08ch13","1","24","1","1","3","1","","0","1","0","null","","","<img src = 'category3/CS6.png' width = '100%;'>","null","","","","","","","","","",""
"","html-keyboard-response","120","473573","0.0-8.0-2.7","nxaxm2lljf","one_one","1","indirect_first","0","oß08ch13","1","24","1","1","3","1","","0","1","0","null","","","<img src = 'targets/46.png' width = '100%;'>","null","","","","","","","","","",""
"","html-keyboard-response","121","474771","0.0-8.0-3.7","nxaxm2lljf","one_one","1","indirect_first","0","oß08ch13","1","24","1","1","3","1","","0","1","0","1196","","","<img src = 'targets/mask.png' width = '100%;'>","68","pos","CS","CS","3","category3/CS6.png","targets/46.png","0","indirect","7",""
"","html-keyboard-response","122","476304","0.0-8.0-0.8","nxaxm2lljf","one_one","1","indirect_first","0","oß08ch13","1","24","1","1","3","1","","0","1","0","null","","","<div style=""font-size:60px;"">+</div>","null","","","","","","","","","",""
"","html-keyboard-response","123","476405","0.0-8.0-1.8","nxaxm2lljf","one_one","1","indirect_first","0","oß08ch13","1","24","1","1","3","1","","0","1","0","null","","","<img src = 'category4/CS2.png' width = '100%;'>","null","","","","","","","","","",""
"","html-keyboard-response","124","476672","0.0-8.0-2.8","nxaxm2lljf","one_one","1","indirect_first","0","oß08ch13","1","24","1","1","3","1","","0","1","0","null","","","<img src = 'targets/26.png' width = '100%;'>","null","","","","","","","","","",""
"","html-keyboard-response","125","478896","0.0-8.0-3.8","nxaxm2lljf","one_one","1","indirect_first","0","oß08ch13","1","24","1","1","3","1","","0","1","0","2220","","","<img src = 'targets/mask.png' width = '100%;'>","75","pos","GS","GSold","4","category4/CS2.png","targets/26.png","1","indirect","8",""
"","html-keyboard-response","126","480419","0.0-8.0-0.9","nxaxm2lljf","one_one","1","indirect_first","0","oß08ch13","1","24","1","1","3","1","","0","1","0","null","","","<div style=""font-size:60px;"">+</div>","null","","","","","","","","","",""
"","html-keyboard-response","127","480517","0.0-8.0-1.9","nxaxm2lljf","one_one","1","indirect_first","0","oß08ch13","1","24","1","1","3","1","","0","1","0","null","","","<img src = 'category3/CS3.png' width = '100%;'>","null","","","","","","","","","",""
"","html-keyboard-response","128","480786","0.0-8.0-2.9","nxaxm2lljf","one_one","1","indirect_first","0","oß08ch13","1","24","1","1","3","1","","0","1","0","null","","","<img src = 'targets/5.png' width = '100%;'>","null","","","","","","","","","",""
"","html-keyboard-response","129","481859","0.0-8.0-3.9","nxaxm2lljf","one_one","1","indirect_first","0","oß08ch13","1","24","1","1","3","1","","0","1","0","1070","","","<img src = 'targets/mask.png' width = '100%;'>","68","pos","GS","GSold","3","category3/CS3.png","targets/5.png","0","indirect","9",""
"","html-keyboard-response","130","483384","0.0-8.0-0.10","nxaxm2lljf","one_one","1","indirect_first","0","oß08ch13","1","24","1","1","3","1","","0","1","0","null","","","<div style=""font-size:60px;"">+</div>","null","","","","","","","","","",""
"","html-keyboard-response","131","483486","0.0-8.0-1.10","nxaxm2lljf","one_one","1","indirect_first","0","oß08ch13","1","24","1","1","3","1","","0","1","0","null","","","<img src = 'category1/CS10.png' width = '100%;'>","null","","","","","","","","","",""
"","html-keyboard-response","132","483749","0.0-8.0-2.10","nxaxm2lljf","one_one","1","indirect_first","0","oß08ch13","1","24","1","1","3","1","","0","1","0","null","","","<img src = 'targets/10.png' width = '100%;'>","null","","","","","","","","","",""
"","html-keyboard-response","133","484740","0.0-8.0-3.10","nxaxm2lljf","one_one","1","indirect_first","0","oß08ch13","1","24","1","1","3","1","","0","1","0","989","","","<img src = 'targets/mask.png' width = '100%;'>","68","neg","GS","GSold","1","category1/CS10.png","targets/10.png","0","indirect","10",""
"","html-keyboard-response","134","486263","0.0-8.0-0.11","nxaxm2lljf","one_one","1","indirect_first","0","oß08ch13","1","24","1","1","3","1","","0","1","0","null","","","<div style=""font-size:60px;"">+</div>","null","","","","","","","","","",""
"","html-keyboard-response","135","486366","0.0-8.0-1.11","nxaxm2lljf","one_one","1","indirect_first","0","oß08ch13","1","24","1","1","3","1","","0","1","0","null","","","<img src = 'category2/CS2.png' width = '100%;'>","null","","","","","","","","","",""
"","html-keyboard-response","136","486632","0.0-8.0-2.11","nxaxm2lljf","one_one","1","indirect_first","0","oß08ch13","1","24","1","1","3","1","","0","1","0","null","","","<img src = 'targets/32.png' width = '100%;'>","null","","","","","","","","","",""
"","html-keyboard-response","137","487261","0.0-8.0-3.11","nxaxm2lljf","one_one","1","indirect_first","0","oß08ch13","1","24","1","1","3","1","","0","1","0","626","","","<img src = 'targets/mask.png' width = '100%;'>","75","neg","CS","CS","2","category2/CS2.png","targets/32.png","1","indirect","11",""
"","html-keyboard-response","138","488781","0.0-8.0-0.12","nxaxm2lljf","one_one","1","indirect_first","0","oß08ch13","1","24","1","1","3","1","","0","1","0","null","","","<div style=""font-size:60px;"">+</div>","null","","","","","","","","","",""
"","html-keyboard-response","139","488881","0.0-8.0-1.12","nxaxm2lljf","one_one","1","indirect_first","0","oß08ch13","1","24","1","1","3","1","","0","1","0","null","","","<img src = 'category3/CS4.png' width = '100%;'>","null","","","","","","","","","",""
"","html-keyboard-response","140","489145","0.0-8.0-2.12","nxaxm2lljf","one_one","1","indirect_first","0","oß08ch13","1","24","1","1","3","1","","0","1","0","null","","","<img src = 'targets/2.png' width = '100%;'>","null","","","","","","","","","",""
"","html-keyboard-response","141","490986","0.0-8.0-3.12","nxaxm2lljf","one_one","1","indirect_first","0","oß08ch13","1","24","1","1","3","1","","0","1","0","1839","","","<img src = 'targets/mask.png' width = '100%;'>","68","pos","GS","GSold","3","category3/CS4.png","targets/2.png","0","indirect","12",""
"","html-keyboard-response","142","492512","0.0-8.0-0.13","nxaxm2lljf","one_one","1","indirect_first","0","oß08ch13","1","24","1","1","3","1","","0","1","0","null","","","<div style=""font-size:60px;"">+</div>","null","","","","","","","","","",""
"","html-keyboard-response","143","492613","0.0-8.0-1.13","nxaxm2lljf","one_one","1","indirect_first","0","oß08ch13","1","24","1","1","3","1","","0","1","0","null","","","<img src = 'category2/CS3.png' width = '100%;'>","null","","","","","","","","","",""
"","html-keyboard-response","144","492879","0.0-8.0-2.13","nxaxm2lljf","one_one","1","indirect_first","0","oß08ch13","1","24","1","1","3","1","","0","1","0","null","","","<img src = 'targets/17.png' width = '100%;'>","null","","","","","","","","","",""
"","html-keyboard-response","145","493507","0.0-8.0-3.13","nxaxm2lljf","one_one","1","indirect_first","0","oß08ch13","1","24","1","1","3","1","","0","1","0","626","","","<img src = 'targets/mask.png' width = '100%;'>","75","neg","GS","GSold","2","category2/CS3.png","targets/17.png","1","indirect","13",""
"","html-keyboard-response","146","495029","0.0-8.0-0.14","nxaxm2lljf","one_one","1","indirect_first","0","oß08ch13","1","24","1","1","3","1","","0","1","0","null","","","<div style=""font-size:60px;"">+</div>","null","","","","","","","","","",""
"","html-keyboard-response","147","495129","0.0-8.0-1.14","nxaxm2lljf","one_one","1","indirect_first","0","oß08ch13","1","24","1","1","3","1","","0","1","0","null","","","<img src = 'category2/CS6.png' width = '100%;'>","null","","","","","","","","","",""
"","html-keyboard-response","148","495396","0.0-8.0-2.14","nxaxm2lljf","one_one","1","indirect_first","0","oß08ch13","1","24","1","1","3","1","","0","1","0","null","","","<img src = 'targets/3.png' width = '100%;'>","null","","","","","","","","","",""
"","html-keyboard-response","149","496123","0.0-8.0-3.14","nxaxm2lljf","one_one","1","indirect_first","0","oß08ch13","1","24","1","1","3","1","","0","1","0","723","","","<img src = 'targets/mask.png' width = '100%;'>","75","neg","GS","GSold","2","category2/CS6.png","targets/3.png","1","indirect","14",""
"","html-keyboard-response","150","497643","0.0-8.0-0.15","nxaxm2lljf","one_one","1","indirect_first","0","oß08ch13","1","24","1","1","3","1","","0","1","0","null","","","<div style=""font-size:60px;"">+</div>","null","","","","","","","","","",""
"","html-keyboard-response","151","497745","0.0-8.0-1.15","nxaxm2lljf","one_one","1","indirect_first","0","oß08ch13","1","24","1","1","3","1","","0","1","0","null","","","<img src = 'category2/CS1.png' width = '100%;'>","null","","","","","","","","","",""
"","html-keyboard-response","152","498009","0.0-8.0-2.15","nxaxm2lljf","one_one","1","indirect_first","0","oß08ch13","1","24","1","1","3","1","","0","1","0","null","","","<img src = 'targets/24.png' width = '100%;'>","null","","","","","","","","","",""
"","html-keyboard-response","153","498664","0.0-8.0-3.15","nxaxm2lljf","one_one","1","indirect_first","0","oß08ch13","1","24","1","1","3","1","","0","1","0","653","","","<img src = 'targets/mask.png' width = '100%;'>","75","neg","GS","GSold","2","category2/CS1.png","targets/24.png","1","indirect","15",""
"","survey-html-form","154","503729","0.0-9.0","nxaxm2lljf","one_one","1","indirect_first","0","oß08ch13","1","24","1","1","3","1","","0","1","0","4550","","{}","","","","","","","","","","","",""
"","html-keyboard-response","155","506757","0.0-10.0-0.0","nxaxm2lljf","one_one","1","indirect_first","0","oß08ch13","1","24","1","1","3","1","","0","1","0","null","","","<div style=""font-size:60px;"">+</div>","null","","","","","","","","","",""
"","html-keyboard-response","156","506856","0.0-10.0-1.0","nxaxm2lljf","one_one","1","indirect_first","0","oß08ch13","1","24","1","1","3","1","","0","1","0","null","","","<img src = 'category2/GS3.png' width = '100%;'>","null","","","","","","","","","",""
"","html-keyboard-response","157","507122","0.0-10.0-2.0","nxaxm2lljf","one_one","1","indirect_first","0","oß08ch13","1","24","1","1","3","1","","0","1","0","null","","","<img src = 'targets/35.png' width = '100%;'>","null","","","","","","","","","",""
"","html-keyboard-response","158","507892","0.0-10.0-3.0","nxaxm2lljf","one_one","1","indirect_first","0","oß08ch13","1","24","1","1","3","1","","0","1","0","768","","","<img src = 'targets/mask.png' width = '100%;'>","68","neg","GS","GSnew","2","category2/GS3.png","targets/35.png","0","indirect","16",""
"","html-keyboard-response","159","509419","0.0-10.0-0.1","nxaxm2lljf","one_one","1","indirect_first","0","oß08ch13","1","24","1","1","3","1","","0","1","0","null","","","<div style=""font-size:60px;"">+</div>","null","","","","","","","","","",""
"","html-keyboard-response","160","509520","0.0-10.0-1.1","nxaxm2lljf","one_one","1","indirect_first","0","oß08ch13","1","24","1","1","3","1","","0","1","0","null","","","<img src = 'category4/GS3.png' width = '100%;'>","null","","","","","","","","","",""
"","html-keyboard-response","161","509788","0.0-10.0-2.1","nxaxm2lljf","one_one","1","indirect_first","0","oß08ch13","1","24","1","1","3","1","","0","1","0","null","","","<img src = 'targets/37.png' width = '100%;'>","null","","","","","","","","","",""
"","html-keyboard-response","162","512138","0.0-10.0-3.1","nxaxm2lljf","one_one","1","indirect_first","0","oß08ch13","1","24","1","1","3","1","","0","1","0","2347","","","<img src = 'targets/mask.png' width = '100%;'>","75","pos","GS","GSnew","4","category4/GS3.png","targets/37.png","1","indirect","17",""
"","html-keyboard-response","163","513668","0.0-10.0-0.2","nxaxm2lljf","one_one","1","indirect_first","0","oß08ch13","1","24","1","1","3","1","","0","1","0","null","","","<div style=""font-size:60px;"">+</div>","null","","","","","","","","","",""
"","html-keyboard-response","164","513767","0.0-10.0-1.2","nxaxm2lljf","one_one","1","indirect_first","0","oß08ch13","1","24","1","1","3","1","","0","1","0","null","","","<img src = 'category3/wang.png' width = '100%;'>","null","","","","","","","","","",""
"","html-keyboard-response","165","514035","0.0-10.0-2.2","nxaxm2lljf","one_one","1","indirect_first","0","oß08ch13","1","24","1","1","3","1","","0","1","0","null","","","<img src = 'targets/18.png' width = '100%;'>","null","","","","","","","","","",""
"","html-keyboard-response","166","515190","0.0-10.0-3.2","nxaxm2lljf","one_one","1","indirect_first","0","oß08ch13","1","24","1","1","3","1","","0","1","0","1151","","","<img src = 'targets/mask.png' width = '100%;'>","75","pos","GS","abstract","3","category3/wang.png","targets/18.png","1","indirect","18",""
"","html-keyboard-response","167","516717","0.0-10.0-0.3","nxaxm2lljf","one_one","1","indirect_first","0","oß08ch13","1","24","1","1","3","1","","0","1","0","null","","","<div style=""font-size:60px;"">+</div>","null","","","","","","","","","",""
"","html-keyboard-response","168","516817","0.0-10.0-1.3","nxaxm2lljf","one_one","1","indirect_first","0","oß08ch13","1","24","1","1","3","1","","0","1","0","null","","","<img src = 'category3/GS1.png' width = '100%;'>","null","","","","","","","","","",""
"","html-keyboard-response","169","517084","0.0-10.0-2.3","nxaxm2lljf","one_one","1","indirect_first","0","oß08ch13","1","24","1","1","3","1","","0","1","0","null","","","<img src = 'targets/6.png' width = '100%;'>","null","","","","","","","","","",""
"","html-keyboard-response","170","517645","0.0-10.0-3.3","nxaxm2lljf","one_one","1","indirect_first","0","oß08ch13","1","24","1","1","3","1","","0","1","0","558","","","<img src = 'targets/mask.png' width = '100%;'>","68","pos","GS","GSnew","3","category3/GS1.png","targets/6.png","0","indirect","19",""
"","html-keyboard-response","171","519167","0.0-10.0-0.4","nxaxm2lljf","one_one","1","indirect_first","0","oß08ch13","1","24","1","1","3","1","","0","1","0","null","","","<div style=""font-size:60px;"">+</div>","null","","","","","","","","","",""
"","html-keyboard-response","172","519267","0.0-10.0-1.4","nxaxm2lljf","one_one","1","indirect_first","0","oß08ch13","1","24","1","1","3","1","","0","1","0","null","","","<img src = 'category2/men.png' width = '100%;'>","null","","","","","","","","","",""
"","html-keyboard-response","173","519532","0.0-10.0-2.4","nxaxm2lljf","one_one","1","indirect_first","0","oß08ch13","1","24","1","1","3","1","","0","1","0","null","","","<img src = 'targets/30.png' width = '100%;'>","null","","","","","","","","","",""
"","html-keyboard-response","174","520777","0.0-10.0-3.4","nxaxm2lljf","one_one","1","indirect_first","0","oß08ch13","1","24","1","1","3","1","","0","1","0","1243","","","<img src = 'targets/mask.png' width = '100%;'>","68","neg","GS","abstract","2","category2/men.png","targets/30.png","0","indirect","20",""
"","html-keyboard-response","175","522285","0.0-10.0-0.5","nxaxm2lljf","one_one","1","indirect_first","0","oß08ch13","1","24","1","1","3","1","","0","1","0","null","","","<div style=""font-size:60px;"">+</div>","null","","","","","","","","","",""
"","html-keyboard-response","176","522381","0.0-10.0-1.5","nxaxm2lljf","one_one","1","indirect_first","0","oß08ch13","1","24","1","1","3","1","","0","1","0","null","","","<img src = 'category3/GS2.png' width = '100%;'>","null","","","","","","","","","",""
"","html-keyboard-response","177","522648","0.0-10.0-2.5","nxaxm2lljf","one_one","1","indirect_first","0","oß08ch13","1","24","1","1","3","1","","0","1","0","null","","","<img src = 'targets/20.png' width = '100%;'>","null","","","","","","","","","",""
"","html-keyboard-response","178","524064","0.0-10.0-3.5","nxaxm2lljf","one_one","1","indirect_first","0","oß08ch13","1","24","1","1","3","1","","0","1","0","1413","","","<img src = 'targets/mask.png' width = '100%;'>","68","pos","GS","GSnew","3","category3/GS2.png","targets/20.png","0","indirect","21",""
"","html-keyboard-response","179","525596","0.0-10.0-0.6","nxaxm2lljf","one_one","1","indirect_first","0","oß08ch13","1","24","1","1","3","1","","0","1","0","null","","","<div style=""font-size:60px;"">+</div>","null","","","","","","","","","",""
"","html-keyboard-response","180","525697","0.0-10.0-1.6","nxaxm2lljf","one_one","1","indirect_first","0","oß08ch13","1","24","1","1","3","1","","0","1","0","null","","","<img src = 'category4/GS1.png' width = '100%;'>","null","","","","","","","","","",""
"","html-keyboard-response","181","525957","0.0-10.0-2.6","nxaxm2lljf","one_one","1","indirect_first","0","oß08ch13","1","24","1","1","3","1","","0","1","0","null","","","<img src = 'targets/9.png' width = '100%;'>","null","","","","","","","","","",""
"","html-keyboard-response","182","526709","0.0-10.0-3.6","nxaxm2lljf","one_one","1","indirect_first","0","oß08ch13","1","24","1","1","3","1","","0","1","0","751","","","<img src = 'targets/mask.png' width = '100%;'>","68","pos","GS","GSnew","4","category4/GS1.png","targets/9.png","0","indirect","22",""
"","html-keyboard-response","183","528246","0.0-10.0-0.7","nxaxm2lljf","one_one","1","indirect_first","0","oß08ch13","1","24","1","1","3","1","","0","1","0","null","","","<div style=""font-size:60px;"">+</div>","null","","","","","","","","","",""
"","html-keyboard-response","184","528344","0.0-10.0-1.7","nxaxm2lljf","one_one","1","indirect_first","0","oß08ch13","1","24","1","1","3","1","","0","1","0","null","","","<img src = 'category1/GS1.png' width = '100%;'>","null","","","","","","","","","",""
"","html-keyboard-response","185","528611","0.0-10.0-2.7","nxaxm2lljf","one_one","1","indirect_first","0","oß08ch13","1","24","1","1","3","1","","0","1","0","null","","","<img src = 'targets/19.png' width = '100%;'>","null","","","","","","","","","",""
"","html-keyboard-response","186","529497","0.0-10.0-3.7","nxaxm2lljf","one_one","1","indirect_first","0","oß08ch13","1","24","1","1","3","1","","0","1","0","884","","","<img src = 'targets/mask.png' width = '100%;'>","68","neg","GS","GSnew","1","category1/GS1.png","targets/19.png","0","indirect","23",""
"","html-keyboard-response","187","531027","0.0-10.0-0.8","nxaxm2lljf","one_one","1","indirect_first","0","oß08ch13","1","24","1","1","3","1","","0","1","0","null","","","<div style=""font-size:60px;"">+</div>","null","","","","","","","","","",""
"","html-keyboard-response","188","531128","0.0-10.0-1.8","nxaxm2lljf","one_one","1","indirect_first","0","oß08ch13","1","24","1","1","3","1","","0","1","0","null","","","<img src = 'category1/GS2.png' width = '100%;'>","null","","","","","","","","","",""
"","html-keyboard-response","189","531393","0.0-10.0-2.8","nxaxm2lljf","one_one","1","indirect_first","0","oß08ch13","1","24","1","1","3","1","","0","1","0","null","","","<img src = 'targets/43.png' width = '100%;'>","null","","","","","","","","","",""
"","html-keyboard-response","190","532405","0.0-10.0-3.8","nxaxm2lljf","one_one","1","indirect_first","0","oß08ch13","1","24","1","1","3","1","","0","1","0","1011","","","<img src = 'targets/mask.png' width = '100%;'>","75","neg","GS","GSnew","1","category1/GS2.png","targets/43.png","1","indirect","24",""
"","html-keyboard-response","191","533941","0.0-10.0-0.9","nxaxm2lljf","one_one","1","indirect_first","0","oß08ch13","1","24","1","1","3","1","","0","1","0","null","","","<div style=""font-size:60px;"">+</div>","null","","","","","","","","","",""
"","html-keyboard-response","192","534041","0.0-10.0-1.9","nxaxm2lljf","one_one","1","indirect_first","0","oß08ch13","1","24","1","1","3","1","","0","1","0","null","","","<img src = 'category3/GS3.png' width = '100%;'>","null","","","","","","","","","",""
"","html-keyboard-response","193","534308","0.0-10.0-2.9","nxaxm2lljf","one_one","1","indirect_first","0","oß08ch13","1","24","1","1","3","1","","0","1","0","null","","","<img src = 'targets/1.png' width = '100%;'>","null","","","","","","","","","",""
"","html-keyboard-response","194","535044","0.0-10.0-3.9","nxaxm2lljf","one_one","1","indirect_first","0","oß08ch13","1","24","1","1","3","1","","0","1","0","733","","","<img src = 'targets/mask.png' width = '100%;'>","68","pos","GS","GSnew","3","category3/GS3.png","targets/1.png","0","indirect","25",""
"","html-keyboard-response","195","536573","0.0-10.0-0.10","nxaxm2lljf","one_one","1","indirect_first","0","oß08ch13","1","24","1","1","3","1","","0","1","0","null","","","<div style=""font-size:60px;"">+</div>","null","","","","","","","","","",""
"","html-keyboard-response","196","536668","0.0-10.0-1.10","nxaxm2lljf","one_one","1","indirect_first","0","oß08ch13","1","24","1","1","3","1","","0","1","0","null","","","<img src = 'category4/lin.png' width = '100%;'>","null","","","","","","","","","",""
"","html-keyboard-response","197","536939","0.0-10.0-2.10","nxaxm2lljf","one_one","1","indirect_first","0","oß08ch13","1","24","1","1","3","1","","0","1","0","null","","","<img src = 'targets/36.png' width = '100%;'>","null","","","","","","","","","",""
"","html-keyboard-response","198","537997","0.0-10.0-3.10","nxaxm2lljf","one_one","1","indirect_first","0","oß08ch13","1","24","1","1","3","1","","0","1","0","1056","","","<img src = 'targets/mask.png' width = '100%;'>","75","pos","GS","abstract","4","category4/lin.png","targets/36.png","1","indirect","26",""
"","html-keyboard-response","199","539523","0.0-10.0-0.11","nxaxm2lljf","one_one","1","indirect_first","0","oß08ch13","1","24","1","1","3","1","","0","1","0","null","","","<div style=""font-size:60px;"">+</div>","null","","","","","","","","","",""
"","html-keyboard-response","200","539621","0.0-10.0-1.11","nxaxm2lljf","one_one","1","indirect_first","0","oß08ch13","1","24","1","1","3","1","","0","1","0","null","","","<img src = 'category2/GS2.png' width = '100%;'>","null","","","","","","","","","",""
"","html-keyboard-response","201","539888","0.0-10.0-2.11","nxaxm2lljf","one_one","1","indirect_first","0","oß08ch13","1","24","1","1","3","1","","0","1","0","null","","","<img src = 'targets/23.png' width = '100%;'>","null","","","","","","","","","",""
"","html-keyboard-response","202","540627","0.0-10.0-3.11","nxaxm2lljf","one_one","1","indirect_first","0","oß08ch13","1","24","1","1","3","1","","0","1","0","736","","","<img src = 'targets/mask.png' width = '100%;'>","68","neg","GS","GSnew","2","category2/GS2.png","targets/23.png","0","indirect","27",""
"","html-keyboard-response","203","542154","0.0-10.0-0.12","nxaxm2lljf","one_one","1","indirect_first","0","oß08ch13","1","24","1","1","3","1","","0","1","0","null","","","<div style=""font-size:60px;"">+</div>","null","","","","","","","","","",""
"","html-keyboard-response","204","542254","0.0-10.0-1.12","nxaxm2lljf","one_one","1","indirect_first","0","oß08ch13","1","24","1","1","3","1","","0","1","0","null","","","<img src = 'category2/GS1.png' width = '100%;'>","null","","","","","","","","","",""
"","html-keyboard-response","205","542520","0.0-10.0-2.12","nxaxm2lljf","one_one","1","indirect_first","0","oß08ch13","1","24","1","1","3","1","","0","1","0","null","","","<img src = 'targets/45.png' width = '100%;'>","null","","","","","","","","","",""
"","html-keyboard-response","206","543210","0.0-10.0-3.12","nxaxm2lljf","one_one","1","indirect_first","0","oß08ch13","1","24","1","1","3","1","","0","1","0","687","","","<img src = 'targets/mask.png' width = '100%;'>","68","neg","GS","GSnew","2","category2/GS1.png","targets/45.png","0","indirect","28",""
"","html-keyboard-response","207","544737","0.0-10.0-0.13","nxaxm2lljf","one_one","1","indirect_first","0","oß08ch13","1","24","1","1","3","1","","0","1","0","null","","","<div style=""font-size:60px;"">+</div>","null","","","","","","","","","",""
"","html-keyboard-response","208","544836","0.0-10.0-1.13","nxaxm2lljf","one_one","1","indirect_first","0","oß08ch13","1","24","1","1","3","1","","0","1","0","null","","","<img src = 'category1/ma.png' width = '100%;'>","null","","","","","","","","","",""
"","html-keyboard-response","209","545102","0.0-10.0-2.13","nxaxm2lljf","one_one","1","indirect_first","0","oß08ch13","1","24","1","1","3","1","","0","1","0","null","","","<img src = 'targets/38.png' width = '100%;'>","null","","","","","","","","","",""
"","html-keyboard-response","210","545947","0.0-10.0-3.13","nxaxm2lljf","one_one","1","indirect_first","0","oß08ch13","1","24","1","1","3","1","","0","1","0","841","","","<img src = 'targets/mask.png' width = '100%;'>","75","neg","GS","abstract","1","category1/ma.png","targets/38.png","1","indirect","29",""
"","html-keyboard-response","211","547468","0.0-10.0-0.14","nxaxm2lljf","one_one","1","indirect_first","0","oß08ch13","1","24","1","1","3","1","","0","1","0","null","","","<div style=""font-size:60px;"">+</div>","null","","","","","","","","","",""
"","html-keyboard-response","212","547568","0.0-10.0-1.14","nxaxm2lljf","one_one","1","indirect_first","0","oß08ch13","1","24","1","1","3","1","","0","1","0","null","","","<img src = 'category1/GS3.png' width = '100%;'>","null","","","","","","","","","",""
"","html-keyboard-response","213","547835","0.0-10.0-2.14","nxaxm2lljf","one_one","1","indirect_first","0","oß08ch13","1","24","1","1","3","1","","0","1","0","null","","","<img src = 'targets/34.png' width = '100%;'>","null","","","","","","","","","",""
"","html-keyboard-response","214","548492","0.0-10.0-3.14","nxaxm2lljf","one_one","1","indirect_first","0","oß08ch13","1","24","1","1","3","1","","0","1","0","655","","","<img src = 'targets/mask.png' width = '100%;'>","68","neg","GS","GSnew","1","category1/GS3.png","targets/34.png","0","indirect","30",""
"","html-keyboard-response","215","550017","0.0-10.0-0.15","nxaxm2lljf","one_one","1","indirect_first","0","oß08ch13","1","24","1","1","3","1","","0","1","0","null","","","<div style=""font-size:60px;"">+</div>","null","","","","","","","","","",""
"","html-keyboard-response","216","550116","0.0-10.0-1.15","nxaxm2lljf","one_one","1","indirect_first","0","oß08ch13","1","24","1","1","3","1","","0","1","0","null","","","<img src = 'category4/GS2.png' width = '100%;'>","null","","","","","","","","","",""
"","html-keyboard-response","217","550395","0.0-10.0-2.15","nxaxm2lljf","one_one","1","indirect_first","0","oß08ch13","1","24","1","1","3","1","","0","1","0","null","","","<img src = 'targets/44.png' width = '100%;'>","null","","","","","","","","","",""
"","html-keyboard-response","218","550823","0.0-10.0-3.15","nxaxm2lljf","one_one","1","indirect_first","0","oß08ch13","1","24","1","1","3","1","","0","1","0","423","","","<img src = 'targets/mask.png' width = '100%;'>","68","pos","GS","GSnew","4","category4/GS2.png","targets/44.png","0","indirect","31",""
"","survey-html-form","219","559408","0.0-11.0","nxaxm2lljf","one_one","1","indirect_first","0","oß08ch13","1","24","1","1","3","1","","0","1","0","8074","","{}","","","","","","","","","","","",""
"","image-slider-response","220","568676","0.0-12.0-0.0","nxaxm2lljf","one_one","1","indirect_first","0","oß08ch13","1","24","1","1","3","1","","0","1","0","7229","","","","","pos","GS","GSold","3","category3/CS3.png","targets/5.png","","direct","","32"
"","image-slider-response","221","576761","0.0-12.0-0.1","nxaxm2lljf","one_one","1","indirect_first","0","oß08ch13","1","24","1","1","3","1","","0","1","0","8074","","","","","neg","GS","GSold","1","category1/CS7.png","targets/14.png","","direct","","-26"
"","image-slider-response","222","582012","0.0-12.0-0.2","nxaxm2lljf","one_one","1","indirect_first","0","oß08ch13","1","24","1","1","3","1","","0","1","0","5234","","","","","neg","GS","GSold","1","category1/CS4.png","targets/42.png","","direct","","-15"
"","image-slider-response","223","585593","0.0-12.0-0.3","nxaxm2lljf","one_one","1","indirect_first","0","oß08ch13","1","24","1","1","3","1","","0","1","0","3564","","","","","pos","GS","GSnew","4","category4/GS2.png","targets/44.png","","direct","","-63"
"","image-slider-response","224","588503","0.0-12.0-0.4","nxaxm2lljf","one_one","1","indirect_first","0","oß08ch13","1","24","1","1","3","1","","0","1","0","2893","","","","","neg","CS","CS","2","category2/CS2.png","targets/32.png","","direct","","-100"
"","image-slider-response","225","597914","0.0-12.0-0.5","nxaxm2lljf","one_one","1","indirect_first","0","oß08ch13","1","24","1","1","3","1","","0","1","0","9397","","","","","pos","GS","GSold","4","category4/CS4.png","targets/25.png","","direct","","27"
"","image-slider-response","226","601843","0.0-12.0-0.6","nxaxm2lljf","one_one","1","indirect_first","0","oß08ch13","1","24","1","1","3","1","","0","1","0","3917","","","","","pos","GS","GSold","3","category3/CS1.png","targets/48.png","","direct","","25"
"","image-slider-response","227","605307","0.0-12.0-0.7","nxaxm2lljf","one_one","1","indirect_first","0","oß08ch13","1","24","1","1","3","1","","0","1","0","3452","","","","","neg","GS","GSnew","2","category2/GS1.png","targets/45.png","","direct","","-63"
"","image-slider-response","228","610658","0.0-12.0-0.8","nxaxm2lljf","one_one","1","indirect_first","0","oß08ch13","1","24","1","1","3","1","","0","1","0","5338","","","","","neg","GS","GSold","1","category1/CS10.png","targets/10.png","","direct","","-2"
"","image-slider-response","229","616051","0.0-12.0-0.9","nxaxm2lljf","one_one","1","indirect_first","0","oß08ch13","1","24","1","1","3","1","","0","1","0","5379","","","","","neg","CS","CS","1","category1/CS5.png","targets/8.png","","direct","","-100"
"","image-slider-response","230","620335","0.0-12.0-0.10","nxaxm2lljf","one_one","1","indirect_first","0","oß08ch13","1","24","1","1","3","1","","0","1","0","4274","","","","","pos","GS","GSnew","3","category3/GS2.png","targets/20.png","","direct","","29"
"","image-slider-response","231","623842","0.0-12.0-0.11","nxaxm2lljf","one_one","1","indirect_first","0","oß08ch13","1","24","1","1","3","1","","0","1","0","3491","","","","","neg","GS","abstract","1","category1/ma.png","targets/38.png","","direct","","25"
"","image-slider-response","232","629719","0.0-12.0-0.12","nxaxm2lljf","one_one","1","indirect_first","0","oß08ch13","1","24","1","1","3","1","","0","1","0","5862","","","","","neg","GS","GSnew","2","category2/GS3.png","targets/35.png","","direct","","-34"
"","image-slider-response","233","633562","0.0-12.0-0.13","nxaxm2lljf","one_one","1","indirect_first","0","oß08ch13","1","24","1","1","3","1","","0","1","0","3825","","","","","neg","GS","GSold","2","category2/CS3.png","targets/17.png","","direct","","-60"
"","image-slider-response","234","636861","0.0-12.0-0.14","nxaxm2lljf","one_one","1","indirect_first","0","oß08ch13","1","24","1","1","3","1","","0","1","0","3282","","","","","pos","GS","GSold","4","category4/CS5.png","targets/39.png","","direct","","37"
"","image-slider-response","235","640655","0.0-12.0-0.15","nxaxm2lljf","one_one","1","indirect_first","0","oß08ch13","1","24","1","1","3","1","","0","1","0","3780","","","","","neg","GS","GSnew","1","category1/GS1.png","targets/19.png","","direct","","2"
"","image-slider-response","236","643826","0.0-12.0-0.16","nxaxm2lljf","one_one","1","indirect_first","0","oß08ch13","1","24","1","1","3","1","","0","1","0","3159","","","","","pos","GS","GSold","3","category3/CS4.png","targets/2.png","","direct","","68"
"","image-slider-response","237","649141","0.0-12.0-0.17","nxaxm2lljf","one_one","1","indirect_first","0","oß08ch13","1","24","1","1","3","1","","0","1","0","5301","","","","","neg","GS","GSnew","1","category1/GS3.png","targets/34.png","","direct","","21"
"","image-slider-response","238","653959","0.0-12.0-0.18","nxaxm2lljf","one_one","1","indirect_first","0","oß08ch13","1","24","1","1","3","1","","0","1","0","4805","","","","","pos","GS","GSnew","4","category4/GS1.png","targets/9.png","","direct","","30"
"","image-slider-response","239","658155","0.0-12.0-0.19","nxaxm2lljf","one_one","1","indirect_first","0","oß08ch13","1","24","1","1","3","1","","0","1","0","4183","","","","","pos","GS","abstract","4","category4/lin.png","targets/36.png","","direct","","35"
"","image-slider-response","240","661320","0.0-12.0-0.20","nxaxm2lljf","one_one","1","indirect_first","0","oß08ch13","1","24","1","1","3","1","","0","1","0","3152","","","","","pos","CS","CS","4","category4/CS6.png","targets/4.png","","direct","","55"
"","image-slider-response","241","665267","0.0-12.0-0.21","nxaxm2lljf","one_one","1","indirect_first","0","oß08ch13","1","24","1","1","3","1","","0","1","0","3937","","","","","pos","GS","GSnew","3","category3/GS1.png","targets/6.png","","direct","","22"
"","image-slider-response","242","669265","0.0-12.0-0.22","nxaxm2lljf","one_one","1","indirect_first","0","oß08ch13","1","24","1","1","3","1","","0","1","0","3982","","","","","pos","CS","CS","3","category3/CS6.png","targets/46.png","","direct","","100"
"","image-slider-response","243","674202","0.0-12.0-0.23","nxaxm2lljf","one_one","1","indirect_first","0","oß08ch13","1","24","1","1","3","1","","0","1","0","4920","","","","","pos","GS","GSnew","4","category4/GS3.png","targets/37.png","","direct","","13"
"","image-slider-response","244","677160","0.0-12.0-0.24","nxaxm2lljf","one_one","1","indirect_first","0","oß08ch13","1","24","1","1","3","1","","0","1","0","2946","","","","","pos","GS","abstract","3","category3/wang.png","targets/18.png","","direct","","55"
"","image-slider-response","245","680686","0.0-12.0-0.25","nxaxm2lljf","one_one","1","indirect_first","0","oß08ch13","1","24","1","1","3","1","","0","1","0","3514","","","","","neg","GS","GSold","2","category2/CS1.png","targets/24.png","","direct","","-80"
"","image-slider-response","246","684839","0.0-12.0-0.26","nxaxm2lljf","one_one","1","indirect_first","0","oß08ch13","1","24","1","1","3","1","","0","1","0","4138","","","","","neg","GS","abstract","2","category2/men.png","targets/30.png","","direct","","-77"
"","image-slider-response","247","688140","0.0-12.0-0.27","nxaxm2lljf","one_one","1","indirect_first","0","oß08ch13","1","24","1","1","3","1","","0","1","0","3286","","","","","neg","GS","GSnew","1","category1/GS2.png","targets/43.png","","direct","","18"
"","image-slider-response","248","691133","0.0-12.0-0.28","nxaxm2lljf","one_one","1","indirect_first","0","oß08ch13","1","24","1","1","3","1","","0","1","0","2983","","","","","pos","GS","GSnew","3","category3/GS3.png","targets/1.png","","direct","","62"
"","image-slider-response","249","695128","0.0-12.0-0.29","nxaxm2lljf","one_one","1","indirect_first","0","oß08ch13","1","24","1","1","3","1","","0","1","0","3979","","","","","neg","GS","GSold","2","category2/CS6.png","targets/3.png","","direct","","-88"
"","image-slider-response","250","698945","0.0-12.0-0.30","nxaxm2lljf","one_one","1","indirect_first","0","oß08ch13","1","24","1","1","3","1","","0","1","0","3807","","","","","neg","GS","GSnew","2","category2/GS2.png","targets/23.png","","direct","","-36"
"","image-slider-response","251","702740","0.0-12.0-0.31","nxaxm2lljf","one_one","1","indirect_first","0","oß08ch13","1","24","1","1","3","1","","0","1","0","3788","","","","","pos","GS","GSold","4","category4/CS2.png","targets/26.png","","direct","","90"
"","survey-html-form","252","707742","0.0-13.0","nxaxm2lljf","one_one","1","indirect_first","0","oß08ch13","1","24","1","1","3","1","","0","1","0","4995","","{}","","","","","","","","","","","",""
"","image-slider-response","253","714111","0.0-14.0-0.0","nxaxm2lljf","one_one","1","indirect_first","0","oß08ch13","1","24","1","1","3","1","","0","1","0","5352","","","","","neg","All","all","2","category2/men_all.png","","","all","","-100"
"","image-slider-response","254","717881","0.0-14.0-0.1","nxaxm2lljf","one_one","1","indirect_first","0","oß08ch13","1","24","1","1","3","1","","0","1","0","3754","","","","","pos","All","all","3","category3/wang_all.png","","","all","","100"
"","image-slider-response","255","722649","0.0-14.0-0.2","nxaxm2lljf","one_one","1","indirect_first","0","oß08ch13","1","24","1","1","3","1","","0","1","0","4753","","","","","pos","All","all","4","category4/lin_all.png","","","all","","72"
"","image-slider-response","256","727555","0.0-14.0-0.3","nxaxm2lljf","one_one","1","indirect_first","0","oß08ch13","1","24","1","1","3","1","","0","1","0","4891","","","","","neg","All","all","1","category1/ma_all.png","","","all","","-68"
"","survey-text","257","730777","0.0-15.0","nxaxm2lljf","one_one","1","indirect_first","0","oß08ch13","1","24","1","1","3","1","","0","1","0","3186","","{""comment"":""""}","","","","","","","","","","","",""
"","survey-html-form","258","739902","0.0-16.0","nxaxm2lljf","one_one","1","indirect_first","0","oß08ch13","1","24","1","1","3","1","","0","1","0","9113","","{""hinschauen"":""0"",""ablenkung"":""1"",""gewissenhaft"":""0""}","","","","","","","","","","","",""
