"success","trial_type","trial_index","time_elapsed","internal_node_id","subject","condition","condition_code","measure","measure_code","codeword","gender","age","education","chinese","fach","handedness","comment","hinschauen","ablenkung","gewissenhaft","rt","url","responses","stimulus","key_press","val","type","type_specific","category","cs_selected","target","indirect","task","nr_pres","response"
"true","fullscreen","0","7806","0.0-0.0","26btee9n2n","many_one","0","indirect_first","0","ök06ef23","0","24","1","1","3","1","","0","1","0","","","","","","","","","","","","","","",""
"","external-html","1","57520","0.0-1.0","26btee9n2n","many_one","0","indirect_first","0","ök06ef23","0","24","1","1","3","1","","0","1","0","49619.68499980867","text/information.html","","","","","","","","","","","","",""
"","external-html","2","67224","0.0-2.0","26btee9n2n","many_one","0","indirect_first","0","ök06ef23","0","24","1","1","3","1","","0","1","0","9609.114999882877","text/consent.html","","","","","","","","","","","","",""
"","survey-html-form","3","138018","0.0-3.0","26btee9n2n","many_one","0","indirect_first","0","ök06ef23","0","24","1","1","3","1","","0","1","0","70783.08000043035","","{""codeword_enter"":""ök06ef23""}","","","","","","","","","","","",""
"","survey-html-form","4","157328","0.0-4.0","26btee9n2n","many_one","0","indirect_first","0","ök06ef23","0","24","1","1","3","1","","0","1","0","19290.380000136793","","{""age"":""24"",""education"":""1"",""subject"":""3"",""gender"":""0"",""handedness"":""1"",""chinese"":""1""}","","","","","","","","","","","",""
"","survey-html-form","5","176209","0.0-5.0","26btee9n2n","many_one","0","indirect_first","0","ök06ef23","0","24","1","1","3","1","","0","1","0","18873.320000246167","","{}","","","","","","","","","","","",""
"","html-keyboard-response","6","180261","0.0-6.0-0.0-0.0","26btee9n2n","many_one","0","indirect_first","0","ök06ef23","0","24","1","1","3","1","","0","1","0","null","","","<div class = 'row'><div class = 'column'><img src = 'usneg/2750.bmp' width = '100%;'></div><div class = 'column'><img src = 'category4/CS10.png' width = '70%;'></div></div>","null","neg","CS","CS","4","category4/CS10.png","","","","",""
"","html-keyboard-response","7","182788","0.0-6.0-0.0-0.1","26btee9n2n","many_one","0","indirect_first","0","ök06ef23","0","24","1","1","3","1","","0","1","0","null","","","<div class = 'row'><div class = 'column'><img src = 'usneg/6838.bmp' width = '100%;'></div><div class = 'column'><img src = 'category3/CS10.png' width = '70%;'></div></div>","null","neg","CS","CS","3","category3/CS10.png","","","","",""
"","html-keyboard-response","8","185321","0.0-6.0-0.0-0.2","26btee9n2n","many_one","0","indirect_first","0","ök06ef23","0","24","1","1","3","1","","0","1","0","null","","","<div class = 'row'><div class = 'column'><img src = 'uspos/8190.bmp' width = '100%;'></div><div class = 'column'><img src = 'category1/CS2.png' width = '70%;'></div></div>","null","pos","CS","CS","1","category1/CS2.png","","","","",""
"","html-keyboard-response","9","187837","0.0-6.0-0.0-0.3","26btee9n2n","many_one","0","indirect_first","0","ök06ef23","0","24","1","1","3","1","","0","1","0","null","","","<div class = 'row'><div class = 'column'><img src = 'uspos/2530.bmp' width = '100%;'></div><div class = 'column'><img src = 'category1/CS1.png' width = '70%;'></div></div>","null","pos","CS","CS","1","category1/CS1.png","","","","",""
"","html-keyboard-response","10","190355","0.0-6.0-0.0-0.4","26btee9n2n","many_one","0","indirect_first","0","ök06ef23","0","24","1","1","3","1","","0","1","0","null","","","<div class = 'row'><div class = 'column'><img src = 'category4/CS4.png' width = '70%;'></div><div class = 'column'><img src = 'usneg/2141.bmp' width = '100%;'></div></div>","null","neg","CS","CS","4","category4/CS4.png","","","","",""
"","html-keyboard-response","11","192873","0.0-6.0-0.0-0.5","26btee9n2n","many_one","0","indirect_first","0","ök06ef23","0","24","1","1","3","1","","0","1","0","null","","","<div class = 'row'><div class = 'column'><img src = 'category1/CS4.png' width = '70%;'></div><div class = 'column'><img src = 'uspos/2057.bmp' width = '100%;'></div></div>","null","pos","CS","CS","1","category1/CS4.png","","","","",""
"","html-keyboard-response","12","195404","0.0-6.0-0.0-0.6","26btee9n2n","many_one","0","indirect_first","0","ök06ef23","0","24","1","1","3","1","","0","1","0","null","","","<div class = 'row'><div class = 'column'><img src = 'category2/CS10.png' width = '70%;'></div><div class = 'column'><img src = 'uspos/4625.bmp' width = '100%;'></div></div>","null","pos","CS","CS","2","category2/CS10.png","","","","",""
"","html-keyboard-response","13","197913","0.0-6.0-0.0-0.7","26btee9n2n","many_one","0","indirect_first","0","ök06ef23","0","24","1","1","3","1","","0","1","0","null","","","<div class = 'row'><div class = 'column'><img src = 'category3/CS2.png' width = '70%;'></div><div class = 'column'><img src = 'usneg/9561.bmp' width = '100%;'></div></div>","null","neg","CS","CS","3","category3/CS2.png","","","","",""
"","html-keyboard-response","14","200426","0.0-6.0-0.0-0.8","26btee9n2n","many_one","0","indirect_first","0","ök06ef23","0","24","1","1","3","1","","0","1","0","null","","","<div class = 'row'><div class = 'column'><img src = 'category2/CS5.png' width = '70%;'></div><div class = 'column'><img src = 'uspos/8080.bmp' width = '100%;'></div></div>","null","pos","CS","CS","2","category2/CS5.png","","","","",""
"","html-keyboard-response","15","202957","0.0-6.0-0.0-0.9","26btee9n2n","many_one","0","indirect_first","0","ök06ef23","0","24","1","1","3","1","","0","1","0","null","","","<div class = 'row'><div class = 'column'><img src = 'category1/CS9.png' width = '70%;'></div><div class = 'column'><img src = 'uspos/2165.bmp' width = '100%;'></div></div>","null","pos","CS","CS","1","category1/CS9.png","","","","",""
"","html-keyboard-response","16","205482","0.0-6.0-0.0-0.10","26btee9n2n","many_one","0","indirect_first","0","ök06ef23","0","24","1","1","3","1","","0","1","0","null","","","<div class = 'row'><div class = 'column'><img src = 'category4/CS7.png' width = '70%;'></div><div class = 'column'><img src = 'usneg/9421.bmp' width = '100%;'></div></div>","null","neg","CS","CS","4","category4/CS7.png","","","","",""
"","html-keyboard-response","17","207999","0.0-6.0-0.0-0.11","26btee9n2n","many_one","0","indirect_first","0","ök06ef23","0","24","1","1","3","1","","0","1","0","null","","","<div class = 'row'><div class = 'column'><img src = 'usneg/9520.bmp' width = '100%;'></div><div class = 'column'><img src = 'category4/CS8.png' width = '70%;'></div></div>","null","neg","CS","CS","4","category4/CS8.png","","","","",""
"","html-keyboard-response","18","210519","0.0-6.0-0.0-0.12","26btee9n2n","many_one","0","indirect_first","0","ök06ef23","0","24","1","1","3","1","","0","1","0","null","","","<div class = 'row'><div class = 'column'><img src = 'usneg/9340.bmp' width = '100%;'></div><div class = 'column'><img src = 'category3/CS8.png' width = '70%;'></div></div>","null","neg","CS","CS","3","category3/CS8.png","","","","",""
"","html-keyboard-response","19","213027","0.0-6.0-0.0-0.13","26btee9n2n","many_one","0","indirect_first","0","ök06ef23","0","24","1","1","3","1","","0","1","0","null","","","<div class = 'row'><div class = 'column'><img src = 'category2/CS2.png' width = '70%;'></div><div class = 'column'><img src = 'uspos/2160.bmp' width = '100%;'></div></div>","null","pos","CS","CS","2","category2/CS2.png","","","","",""
"","html-keyboard-response","20","215558","0.0-6.0-0.0-0.14","26btee9n2n","many_one","0","indirect_first","0","ök06ef23","0","24","1","1","3","1","","0","1","0","null","","","<div class = 'row'><div class = 'column'><img src = 'category2/CS4.png' width = '70%;'></div><div class = 'column'><img src = 'uspos/2341.bmp' width = '100%;'></div></div>","null","pos","CS","CS","2","category2/CS4.png","","","","",""
"","html-keyboard-response","21","218064","0.0-6.0-0.0-0.15","26btee9n2n","many_one","0","indirect_first","0","ök06ef23","0","24","1","1","3","1","","0","1","0","null","","","<div class = 'row'><div class = 'column'><img src = 'category3/CS9.png' width = '70%;'></div><div class = 'column'><img src = 'usneg/6570.1.bmp' width = '100%;'></div></div>","null","neg","CS","CS","3","category3/CS9.png","","","","",""
"","html-keyboard-response","22","220592","0.0-6.0-0.0-0.16","26btee9n2n","many_one","0","indirect_first","0","ök06ef23","0","24","1","1","3","1","","0","1","0","null","","","<div class = 'row'><div class = 'column'><img src = 'uspos/2340.bmp' width = '100%;'></div><div class = 'column'><img src = 'category2/CS1.png' width = '70%;'></div></div>","null","pos","CS","CS","2","category2/CS1.png","","","","",""
"","html-keyboard-response","23","223115","0.0-6.0-0.0-0.17","26btee9n2n","many_one","0","indirect_first","0","ök06ef23","0","24","1","1","3","1","","0","1","0","null","","","<div class = 'row'><div class = 'column'><img src = 'usneg/3300.bmp' width = '100%;'></div><div class = 'column'><img src = 'category3/CS5.png' width = '70%;'></div></div>","null","neg","CS","CS","3","category3/CS5.png","","","","",""
"","html-keyboard-response","24","225641","0.0-6.0-0.0-0.18","26btee9n2n","many_one","0","indirect_first","0","ök06ef23","0","24","1","1","3","1","","0","1","0","null","","","<div class = 'row'><div class = 'column'><img src = 'usneg/6212.bmp' width = '100%;'></div><div class = 'column'><img src = 'category4/CS1.png' width = '70%;'></div></div>","null","neg","CS","CS","4","category4/CS1.png","","","","",""
"","html-keyboard-response","25","228160","0.0-6.0-0.0-0.19","26btee9n2n","many_one","0","indirect_first","0","ök06ef23","0","24","1","1","3","1","","0","1","0","null","","","<div class = 'row'><div class = 'column'><img src = 'category1/CS10.png' width = '70%;'></div><div class = 'column'><img src = 'uspos/1440.bmp' width = '100%;'></div></div>","null","pos","CS","CS","1","category1/CS10.png","","","","",""
"","survey-html-form","26","265010","0.0-6.0-1.0","26btee9n2n","many_one","0","indirect_first","0","ök06ef23","0","24","1","1","3","1","","0","1","0","36344.82500003651","","{}","","","","","","","","","","","",""
"","html-keyboard-response","27","269036","0.0-6.0-2.0-0.0","26btee9n2n","many_one","0","indirect_first","0","ök06ef23","0","24","1","1","3","1","","0","1","0","null","","","<div class = 'row'><div class = 'column'><img src = 'usneg/6212.bmp' width = '100%;'></div><div class = 'column'><img src = 'category4/CS1.png' width = '70%;'></div></div>","null","neg","CS","CS","4","category4/CS1.png","","","","",""
"","html-keyboard-response","28","271558","0.0-6.0-2.0-0.1","26btee9n2n","many_one","0","indirect_first","0","ök06ef23","0","24","1","1","3","1","","0","1","0","null","","","<div class = 'row'><div class = 'column'><img src = 'category4/CS4.png' width = '70%;'></div><div class = 'column'><img src = 'usneg/2141.bmp' width = '100%;'></div></div>","null","neg","CS","CS","4","category4/CS4.png","","","","",""
"","html-keyboard-response","29","274069","0.0-6.0-2.0-0.2","26btee9n2n","many_one","0","indirect_first","0","ök06ef23","0","24","1","1","3","1","","0","1","0","null","","","<div class = 'row'><div class = 'column'><img src = 'usneg/9421.bmp' width = '100%;'></div><div class = 'column'><img src = 'category4/CS7.png' width = '70%;'></div></div>","null","neg","CS","CS","4","category4/CS7.png","","","","",""
"","html-keyboard-response","30","276588","0.0-6.0-2.0-0.3","26btee9n2n","many_one","0","indirect_first","0","ök06ef23","0","24","1","1","3","1","","0","1","0","null","","","<div class = 'row'><div class = 'column'><img src = 'uspos/8190.bmp' width = '100%;'></div><div class = 'column'><img src = 'category1/CS2.png' width = '70%;'></div></div>","null","pos","CS","CS","1","category1/CS2.png","","","","",""
"","html-keyboard-response","31","279109","0.0-6.0-2.0-0.4","26btee9n2n","many_one","0","indirect_first","0","ök06ef23","0","24","1","1","3","1","","0","1","0","null","","","<div class = 'row'><div class = 'column'><img src = 'category3/CS10.png' width = '70%;'></div><div class = 'column'><img src = 'usneg/6838.bmp' width = '100%;'></div></div>","null","neg","CS","CS","3","category3/CS10.png","","","","",""
"","html-keyboard-response","32","281632","0.0-6.0-2.0-0.5","26btee9n2n","many_one","0","indirect_first","0","ök06ef23","0","24","1","1","3","1","","0","1","0","null","","","<div class = 'row'><div class = 'column'><img src = 'uspos/2165.bmp' width = '100%;'></div><div class = 'column'><img src = 'category1/CS9.png' width = '70%;'></div></div>","null","pos","CS","CS","1","category1/CS9.png","","","","",""
"","html-keyboard-response","33","284143","0.0-6.0-2.0-0.6","26btee9n2n","many_one","0","indirect_first","0","ök06ef23","0","24","1","1","3","1","","0","1","0","null","","","<div class = 'row'><div class = 'column'><img src = 'uspos/2530.bmp' width = '100%;'></div><div class = 'column'><img src = 'category1/CS1.png' width = '70%;'></div></div>","null","pos","CS","CS","1","category1/CS1.png","","","","",""
"","html-keyboard-response","34","286657","0.0-6.0-2.0-0.7","26btee9n2n","many_one","0","indirect_first","0","ök06ef23","0","24","1","1","3","1","","0","1","0","null","","","<div class = 'row'><div class = 'column'><img src = 'category2/CS2.png' width = '70%;'></div><div class = 'column'><img src = 'uspos/2160.bmp' width = '100%;'></div></div>","null","pos","CS","CS","2","category2/CS2.png","","","","",""
"","html-keyboard-response","35","289179","0.0-6.0-2.0-0.8","26btee9n2n","many_one","0","indirect_first","0","ök06ef23","0","24","1","1","3","1","","0","1","0","null","","","<div class = 'row'><div class = 'column'><img src = 'category4/CS10.png' width = '70%;'></div><div class = 'column'><img src = 'usneg/2750.bmp' width = '100%;'></div></div>","null","neg","CS","CS","4","category4/CS10.png","","","","",""
"","html-keyboard-response","36","291692","0.0-6.0-2.0-0.9","26btee9n2n","many_one","0","indirect_first","0","ök06ef23","0","24","1","1","3","1","","0","1","0","null","","","<div class = 'row'><div class = 'column'><img src = 'category3/CS5.png' width = '70%;'></div><div class = 'column'><img src = 'usneg/3300.bmp' width = '100%;'></div></div>","null","neg","CS","CS","3","category3/CS5.png","","","","",""
"","html-keyboard-response","37","294208","0.0-6.0-2.0-0.10","26btee9n2n","many_one","0","indirect_first","0","ök06ef23","0","24","1","1","3","1","","0","1","0","null","","","<div class = 'row'><div class = 'column'><img src = 'category2/CS4.png' width = '70%;'></div><div class = 'column'><img src = 'uspos/2341.bmp' width = '100%;'></div></div>","null","pos","CS","CS","2","category2/CS4.png","","","","",""
"","html-keyboard-response","38","296745","0.0-6.0-2.0-0.11","26btee9n2n","many_one","0","indirect_first","0","ök06ef23","0","24","1","1","3","1","","0","1","0","null","","","<div class = 'row'><div class = 'column'><img src = 'category2/CS10.png' width = '70%;'></div><div class = 'column'><img src = 'uspos/4625.bmp' width = '100%;'></div></div>","null","pos","CS","CS","2","category2/CS10.png","","","","",""
"","html-keyboard-response","39","299261","0.0-6.0-2.0-0.12","26btee9n2n","many_one","0","indirect_first","0","ök06ef23","0","24","1","1","3","1","","0","1","0","null","","","<div class = 'row'><div class = 'column'><img src = 'uspos/2057.bmp' width = '100%;'></div><div class = 'column'><img src = 'category1/CS4.png' width = '70%;'></div></div>","null","pos","CS","CS","1","category1/CS4.png","","","","",""
"","html-keyboard-response","40","301777","0.0-6.0-2.0-0.13","26btee9n2n","many_one","0","indirect_first","0","ök06ef23","0","24","1","1","3","1","","0","1","0","null","","","<div class = 'row'><div class = 'column'><img src = 'usneg/9520.bmp' width = '100%;'></div><div class = 'column'><img src = 'category4/CS8.png' width = '70%;'></div></div>","null","neg","CS","CS","4","category4/CS8.png","","","","",""
"","html-keyboard-response","41","304295","0.0-6.0-2.0-0.14","26btee9n2n","many_one","0","indirect_first","0","ök06ef23","0","24","1","1","3","1","","0","1","0","null","","","<div class = 'row'><div class = 'column'><img src = 'uspos/8080.bmp' width = '100%;'></div><div class = 'column'><img src = 'category2/CS5.png' width = '70%;'></div></div>","null","pos","CS","CS","2","category2/CS5.png","","","","",""
"","html-keyboard-response","42","306810","0.0-6.0-2.0-0.15","26btee9n2n","many_one","0","indirect_first","0","ök06ef23","0","24","1","1","3","1","","0","1","0","null","","","<div class = 'row'><div class = 'column'><img src = 'category2/CS1.png' width = '70%;'></div><div class = 'column'><img src = 'uspos/2340.bmp' width = '100%;'></div></div>","null","pos","CS","CS","2","category2/CS1.png","","","","",""
"","html-keyboard-response","43","309328","0.0-6.0-2.0-0.16","26btee9n2n","many_one","0","indirect_first","0","ök06ef23","0","24","1","1","3","1","","0","1","0","null","","","<div class = 'row'><div class = 'column'><img src = 'category3/CS8.png' width = '70%;'></div><div class = 'column'><img src = 'usneg/9340.bmp' width = '100%;'></div></div>","null","neg","CS","CS","3","category3/CS8.png","","","","",""
"","html-keyboard-response","44","311856","0.0-6.0-2.0-0.17","26btee9n2n","many_one","0","indirect_first","0","ök06ef23","0","24","1","1","3","1","","0","1","0","null","","","<div class = 'row'><div class = 'column'><img src = 'category3/CS2.png' width = '70%;'></div><div class = 'column'><img src = 'usneg/9561.bmp' width = '100%;'></div></div>","null","neg","CS","CS","3","category3/CS2.png","","","","",""
"","html-keyboard-response","45","314372","0.0-6.0-2.0-0.18","26btee9n2n","many_one","0","indirect_first","0","ök06ef23","0","24","1","1","3","1","","0","1","0","null","","","<div class = 'row'><div class = 'column'><img src = 'usneg/6570.1.bmp' width = '100%;'></div><div class = 'column'><img src = 'category3/CS9.png' width = '70%;'></div></div>","null","neg","CS","CS","3","category3/CS9.png","","","","",""
"","html-keyboard-response","46","316888","0.0-6.0-2.0-0.19","26btee9n2n","many_one","0","indirect_first","0","ök06ef23","0","24","1","1","3","1","","0","1","0","null","","","<div class = 'row'><div class = 'column'><img src = 'uspos/1440.bmp' width = '100%;'></div><div class = 'column'><img src = 'category1/CS10.png' width = '70%;'></div></div>","null","pos","CS","CS","1","category1/CS10.png","","","","",""
"","survey-html-form","47","323758","0.0-6.0-3.0","26btee9n2n","many_one","0","indirect_first","0","ök06ef23","0","24","1","1","3","1","","0","1","0","6360.2200001478195","","{}","","","","","","","","","","","",""
"","html-keyboard-response","48","327783","0.0-6.0-4.0-0.0","26btee9n2n","many_one","0","indirect_first","0","ök06ef23","0","24","1","1","3","1","","0","1","0","null","","","<div class = 'row'><div class = 'column'><img src = 'usneg/2141.bmp' width = '100%;'></div><div class = 'column'><img src = 'category4/CS4.png' width = '70%;'></div></div>","null","neg","CS","CS","4","category4/CS4.png","","","","",""
"","html-keyboard-response","49","330304","0.0-6.0-4.0-0.1","26btee9n2n","many_one","0","indirect_first","0","ök06ef23","0","24","1","1","3","1","","0","1","0","null","","","<div class = 'row'><div class = 'column'><img src = 'category4/CS1.png' width = '70%;'></div><div class = 'column'><img src = 'usneg/6212.bmp' width = '100%;'></div></div>","null","neg","CS","CS","4","category4/CS1.png","","","","",""
"","html-keyboard-response","50","332817","0.0-6.0-4.0-0.2","26btee9n2n","many_one","0","indirect_first","0","ök06ef23","0","24","1","1","3","1","","0","1","0","null","","","<div class = 'row'><div class = 'column'><img src = 'category2/CS5.png' width = '70%;'></div><div class = 'column'><img src = 'uspos/8080.bmp' width = '100%;'></div></div>","null","pos","CS","CS","2","category2/CS5.png","","","","",""
"","html-keyboard-response","51","335342","0.0-6.0-4.0-0.3","26btee9n2n","many_one","0","indirect_first","0","ök06ef23","0","24","1","1","3","1","","0","1","0","null","","","<div class = 'row'><div class = 'column'><img src = 'category1/CS2.png' width = '70%;'></div><div class = 'column'><img src = 'uspos/8190.bmp' width = '100%;'></div></div>","null","pos","CS","CS","1","category1/CS2.png","","","","",""
"","html-keyboard-response","52","337869","0.0-6.0-4.0-0.4","26btee9n2n","many_one","0","indirect_first","0","ök06ef23","0","24","1","1","3","1","","0","1","0","null","","","<div class = 'row'><div class = 'column'><img src = 'usneg/3300.bmp' width = '100%;'></div><div class = 'column'><img src = 'category3/CS5.png' width = '70%;'></div></div>","null","neg","CS","CS","3","category3/CS5.png","","","","",""
"","html-keyboard-response","53","340387","0.0-6.0-4.0-0.5","26btee9n2n","many_one","0","indirect_first","0","ök06ef23","0","24","1","1","3","1","","0","1","0","null","","","<div class = 'row'><div class = 'column'><img src = 'category4/CS7.png' width = '70%;'></div><div class = 'column'><img src = 'usneg/9421.bmp' width = '100%;'></div></div>","null","neg","CS","CS","4","category4/CS7.png","","","","",""
"","html-keyboard-response","54","342903","0.0-6.0-4.0-0.6","26btee9n2n","many_one","0","indirect_first","0","ök06ef23","0","24","1","1","3","1","","0","1","0","null","","","<div class = 'row'><div class = 'column'><img src = 'uspos/2340.bmp' width = '100%;'></div><div class = 'column'><img src = 'category2/CS1.png' width = '70%;'></div></div>","null","pos","CS","CS","2","category2/CS1.png","","","","",""
"","html-keyboard-response","55","345410","0.0-6.0-4.0-0.7","26btee9n2n","many_one","0","indirect_first","0","ök06ef23","0","24","1","1","3","1","","0","1","0","null","","","<div class = 'row'><div class = 'column'><img src = 'usneg/2750.bmp' width = '100%;'></div><div class = 'column'><img src = 'category4/CS10.png' width = '70%;'></div></div>","null","neg","CS","CS","4","category4/CS10.png","","","","",""
"","html-keyboard-response","56","347938","0.0-6.0-4.0-0.8","26btee9n2n","many_one","0","indirect_first","0","ök06ef23","0","24","1","1","3","1","","0","1","0","null","","","<div class = 'row'><div class = 'column'><img src = 'category1/CS4.png' width = '70%;'></div><div class = 'column'><img src = 'uspos/2057.bmp' width = '100%;'></div></div>","null","pos","CS","CS","1","category1/CS4.png","","","","",""
"","html-keyboard-response","57","350445","0.0-6.0-4.0-0.9","26btee9n2n","many_one","0","indirect_first","0","ök06ef23","0","24","1","1","3","1","","0","1","0","null","","","<div class = 'row'><div class = 'column'><img src = 'uspos/2341.bmp' width = '100%;'></div><div class = 'column'><img src = 'category2/CS4.png' width = '70%;'></div></div>","null","pos","CS","CS","2","category2/CS4.png","","","","",""
"","html-keyboard-response","58","352966","0.0-6.0-4.0-0.10","26btee9n2n","many_one","0","indirect_first","0","ök06ef23","0","24","1","1","3","1","","0","1","0","null","","","<div class = 'row'><div class = 'column'><img src = 'category3/CS10.png' width = '70%;'></div><div class = 'column'><img src = 'usneg/6838.bmp' width = '100%;'></div></div>","null","neg","CS","CS","3","category3/CS10.png","","","","",""
"","html-keyboard-response","59","355477","0.0-6.0-4.0-0.11","26btee9n2n","many_one","0","indirect_first","0","ök06ef23","0","24","1","1","3","1","","0","1","0","null","","","<div class = 'row'><div class = 'column'><img src = 'uspos/2165.bmp' width = '100%;'></div><div class = 'column'><img src = 'category1/CS9.png' width = '70%;'></div></div>","null","pos","CS","CS","1","category1/CS9.png","","","","",""
"","html-keyboard-response","60","358005","0.0-6.0-4.0-0.12","26btee9n2n","many_one","0","indirect_first","0","ök06ef23","0","24","1","1","3","1","","0","1","0","null","","","<div class = 'row'><div class = 'column'><img src = 'category2/CS10.png' width = '70%;'></div><div class = 'column'><img src = 'uspos/4625.bmp' width = '100%;'></div></div>","null","pos","CS","CS","2","category2/CS10.png","","","","",""
"","html-keyboard-response","61","360539","0.0-6.0-4.0-0.13","26btee9n2n","many_one","0","indirect_first","0","ök06ef23","0","24","1","1","3","1","","0","1","0","null","","","<div class = 'row'><div class = 'column'><img src = 'uspos/1440.bmp' width = '100%;'></div><div class = 'column'><img src = 'category1/CS10.png' width = '70%;'></div></div>","null","pos","CS","CS","1","category1/CS10.png","","","","",""
"","html-keyboard-response","62","363065","0.0-6.0-4.0-0.14","26btee9n2n","many_one","0","indirect_first","0","ök06ef23","0","24","1","1","3","1","","0","1","0","null","","","<div class = 'row'><div class = 'column'><img src = 'category4/CS8.png' width = '70%;'></div><div class = 'column'><img src = 'usneg/9520.bmp' width = '100%;'></div></div>","null","neg","CS","CS","4","category4/CS8.png","","","","",""
"","html-keyboard-response","63","365595","0.0-6.0-4.0-0.15","26btee9n2n","many_one","0","indirect_first","0","ök06ef23","0","24","1","1","3","1","","0","1","0","null","","","<div class = 'row'><div class = 'column'><img src = 'category3/CS9.png' width = '70%;'></div><div class = 'column'><img src = 'usneg/6570.1.bmp' width = '100%;'></div></div>","null","neg","CS","CS","3","category3/CS9.png","","","","",""
"","html-keyboard-response","64","368123","0.0-6.0-4.0-0.16","26btee9n2n","many_one","0","indirect_first","0","ök06ef23","0","24","1","1","3","1","","0","1","0","null","","","<div class = 'row'><div class = 'column'><img src = 'category3/CS2.png' width = '70%;'></div><div class = 'column'><img src = 'usneg/9561.bmp' width = '100%;'></div></div>","null","neg","CS","CS","3","category3/CS2.png","","","","",""
"","html-keyboard-response","65","370658","0.0-6.0-4.0-0.17","26btee9n2n","many_one","0","indirect_first","0","ök06ef23","0","24","1","1","3","1","","0","1","0","null","","","<div class = 'row'><div class = 'column'><img src = 'category3/CS8.png' width = '70%;'></div><div class = 'column'><img src = 'usneg/9340.bmp' width = '100%;'></div></div>","null","neg","CS","CS","3","category3/CS8.png","","","","",""
"","html-keyboard-response","66","373182","0.0-6.0-4.0-0.18","26btee9n2n","many_one","0","indirect_first","0","ök06ef23","0","24","1","1","3","1","","0","1","0","null","","","<div class = 'row'><div class = 'column'><img src = 'uspos/2530.bmp' width = '100%;'></div><div class = 'column'><img src = 'category1/CS1.png' width = '70%;'></div></div>","null","pos","CS","CS","1","category1/CS1.png","","","","",""
"","html-keyboard-response","67","375702","0.0-6.0-4.0-0.19","26btee9n2n","many_one","0","indirect_first","0","ök06ef23","0","24","1","1","3","1","","0","1","0","null","","","<div class = 'row'><div class = 'column'><img src = 'uspos/2160.bmp' width = '100%;'></div><div class = 'column'><img src = 'category2/CS2.png' width = '70%;'></div></div>","null","pos","CS","CS","2","category2/CS2.png","","","","",""
"","survey-html-form","68","380538","0.0-6.0-5.0","26btee9n2n","many_one","0","indirect_first","0","ök06ef23","0","24","1","1","3","1","","0","1","0","4332.0399997755885","","{}","","","","","","","","","","","",""
"","html-keyboard-response","69","384575","0.0-6.0-6.0-0.0","26btee9n2n","many_one","0","indirect_first","0","ök06ef23","0","24","1","1","3","1","","0","1","0","null","","","<div class = 'row'><div class = 'column'><img src = 'category2/CS4.png' width = '70%;'></div><div class = 'column'><img src = 'uspos/2341.bmp' width = '100%;'></div></div>","null","pos","CS","CS","2","category2/CS4.png","","","","",""
"","html-keyboard-response","70","387091","0.0-6.0-6.0-0.1","26btee9n2n","many_one","0","indirect_first","0","ök06ef23","0","24","1","1","3","1","","0","1","0","null","","","<div class = 'row'><div class = 'column'><img src = 'uspos/4625.bmp' width = '100%;'></div><div class = 'column'><img src = 'category2/CS10.png' width = '70%;'></div></div>","null","pos","CS","CS","2","category2/CS10.png","","","","",""
"","html-keyboard-response","71","389605","0.0-6.0-6.0-0.2","26btee9n2n","many_one","0","indirect_first","0","ök06ef23","0","24","1","1","3","1","","0","1","0","null","","","<div class = 'row'><div class = 'column'><img src = 'usneg/2141.bmp' width = '100%;'></div><div class = 'column'><img src = 'category4/CS4.png' width = '70%;'></div></div>","null","neg","CS","CS","4","category4/CS4.png","","","","",""
"","html-keyboard-response","72","392119","0.0-6.0-6.0-0.3","26btee9n2n","many_one","0","indirect_first","0","ök06ef23","0","24","1","1","3","1","","0","1","0","null","","","<div class = 'row'><div class = 'column'><img src = 'category3/CS8.png' width = '70%;'></div><div class = 'column'><img src = 'usneg/9340.bmp' width = '100%;'></div></div>","null","neg","CS","CS","3","category3/CS8.png","","","","",""
"","html-keyboard-response","73","394629","0.0-6.0-6.0-0.4","26btee9n2n","many_one","0","indirect_first","0","ök06ef23","0","24","1","1","3","1","","0","1","0","null","","","<div class = 'row'><div class = 'column'><img src = 'category1/CS9.png' width = '70%;'></div><div class = 'column'><img src = 'uspos/2165.bmp' width = '100%;'></div></div>","null","pos","CS","CS","1","category1/CS9.png","","","","",""
"","html-keyboard-response","74","397146","0.0-6.0-6.0-0.5","26btee9n2n","many_one","0","indirect_first","0","ök06ef23","0","24","1","1","3","1","","0","1","0","null","","","<div class = 'row'><div class = 'column'><img src = 'category1/CS10.png' width = '70%;'></div><div class = 'column'><img src = 'uspos/1440.bmp' width = '100%;'></div></div>","null","pos","CS","CS","1","category1/CS10.png","","","","",""
"","html-keyboard-response","75","399657","0.0-6.0-6.0-0.6","26btee9n2n","many_one","0","indirect_first","0","ök06ef23","0","24","1","1","3","1","","0","1","0","null","","","<div class = 'row'><div class = 'column'><img src = 'category3/CS2.png' width = '70%;'></div><div class = 'column'><img src = 'usneg/9561.bmp' width = '100%;'></div></div>","null","neg","CS","CS","3","category3/CS2.png","","","","",""
"","html-keyboard-response","76","402180","0.0-6.0-6.0-0.7","26btee9n2n","many_one","0","indirect_first","0","ök06ef23","0","24","1","1","3","1","","0","1","0","null","","","<div class = 'row'><div class = 'column'><img src = 'category2/CS1.png' width = '70%;'></div><div class = 'column'><img src = 'uspos/2340.bmp' width = '100%;'></div></div>","null","pos","CS","CS","2","category2/CS1.png","","","","",""
"","html-keyboard-response","77","404702","0.0-6.0-6.0-0.8","26btee9n2n","many_one","0","indirect_first","0","ök06ef23","0","24","1","1","3","1","","0","1","0","null","","","<div class = 'row'><div class = 'column'><img src = 'category1/CS4.png' width = '70%;'></div><div class = 'column'><img src = 'uspos/2057.bmp' width = '100%;'></div></div>","null","pos","CS","CS","1","category1/CS4.png","","","","",""
"","html-keyboard-response","78","407213","0.0-6.0-6.0-0.9","26btee9n2n","many_one","0","indirect_first","0","ök06ef23","0","24","1","1","3","1","","0","1","0","null","","","<div class = 'row'><div class = 'column'><img src = 'usneg/6570.1.bmp' width = '100%;'></div><div class = 'column'><img src = 'category3/CS9.png' width = '70%;'></div></div>","null","neg","CS","CS","3","category3/CS9.png","","","","",""
"","html-keyboard-response","79","409742","0.0-6.0-6.0-0.10","26btee9n2n","many_one","0","indirect_first","0","ök06ef23","0","24","1","1","3","1","","0","1","0","null","","","<div class = 'row'><div class = 'column'><img src = 'category4/CS10.png' width = '70%;'></div><div class = 'column'><img src = 'usneg/2750.bmp' width = '100%;'></div></div>","null","neg","CS","CS","4","category4/CS10.png","","","","",""
"","html-keyboard-response","80","412261","0.0-6.0-6.0-0.11","26btee9n2n","many_one","0","indirect_first","0","ök06ef23","0","24","1","1","3","1","","0","1","0","null","","","<div class = 'row'><div class = 'column'><img src = 'category3/CS5.png' width = '70%;'></div><div class = 'column'><img src = 'usneg/3300.bmp' width = '100%;'></div></div>","null","neg","CS","CS","3","category3/CS5.png","","","","",""
"","html-keyboard-response","81","414778","0.0-6.0-6.0-0.12","26btee9n2n","many_one","0","indirect_first","0","ök06ef23","0","24","1","1","3","1","","0","1","0","null","","","<div class = 'row'><div class = 'column'><img src = 'category2/CS2.png' width = '70%;'></div><div class = 'column'><img src = 'uspos/2160.bmp' width = '100%;'></div></div>","null","pos","CS","CS","2","category2/CS2.png","","","","",""
"","html-keyboard-response","82","417292","0.0-6.0-6.0-0.13","26btee9n2n","many_one","0","indirect_first","0","ök06ef23","0","24","1","1","3","1","","0","1","0","null","","","<div class = 'row'><div class = 'column'><img src = 'category1/CS2.png' width = '70%;'></div><div class = 'column'><img src = 'uspos/8190.bmp' width = '100%;'></div></div>","null","pos","CS","CS","1","category1/CS2.png","","","","",""
"","html-keyboard-response","83","419808","0.0-6.0-6.0-0.14","26btee9n2n","many_one","0","indirect_first","0","ök06ef23","0","24","1","1","3","1","","0","1","0","null","","","<div class = 'row'><div class = 'column'><img src = 'category4/CS8.png' width = '70%;'></div><div class = 'column'><img src = 'usneg/9520.bmp' width = '100%;'></div></div>","null","neg","CS","CS","4","category4/CS8.png","","","","",""
"","html-keyboard-response","84","422332","0.0-6.0-6.0-0.15","26btee9n2n","many_one","0","indirect_first","0","ök06ef23","0","24","1","1","3","1","","0","1","0","null","","","<div class = 'row'><div class = 'column'><img src = 'category1/CS1.png' width = '70%;'></div><div class = 'column'><img src = 'uspos/2530.bmp' width = '100%;'></div></div>","null","pos","CS","CS","1","category1/CS1.png","","","","",""
"","html-keyboard-response","85","424847","0.0-6.0-6.0-0.16","26btee9n2n","many_one","0","indirect_first","0","ök06ef23","0","24","1","1","3","1","","0","1","0","null","","","<div class = 'row'><div class = 'column'><img src = 'usneg/9421.bmp' width = '100%;'></div><div class = 'column'><img src = 'category4/CS7.png' width = '70%;'></div></div>","null","neg","CS","CS","4","category4/CS7.png","","","","",""
"","html-keyboard-response","86","427357","0.0-6.0-6.0-0.17","26btee9n2n","many_one","0","indirect_first","0","ök06ef23","0","24","1","1","3","1","","0","1","0","null","","","<div class = 'row'><div class = 'column'><img src = 'category4/CS1.png' width = '70%;'></div><div class = 'column'><img src = 'usneg/6212.bmp' width = '100%;'></div></div>","null","neg","CS","CS","4","category4/CS1.png","","","","",""
"","html-keyboard-response","87","429865","0.0-6.0-6.0-0.18","26btee9n2n","many_one","0","indirect_first","0","ök06ef23","0","24","1","1","3","1","","0","1","0","null","","","<div class = 'row'><div class = 'column'><img src = 'uspos/8080.bmp' width = '100%;'></div><div class = 'column'><img src = 'category2/CS5.png' width = '70%;'></div></div>","null","pos","CS","CS","2","category2/CS5.png","","","","",""
"","html-keyboard-response","88","432383","0.0-6.0-6.0-0.19","26btee9n2n","many_one","0","indirect_first","0","ök06ef23","0","24","1","1","3","1","","0","1","0","null","","","<div class = 'row'><div class = 'column'><img src = 'usneg/6838.bmp' width = '100%;'></div><div class = 'column'><img src = 'category3/CS10.png' width = '70%;'></div></div>","null","neg","CS","CS","3","category3/CS10.png","","","","",""
"","html-keyboard-response","89","471457","0.0-7.0","26btee9n2n","many_one","0","indirect_first","0","ök06ef23","0","24","1","1","3","1","","0","1","0","38571.934999898076","","","<p>Sie sehen nun die chinesischen Zeichen nur ganz kurz. Danach sehen Sie die jeweilige Aussprache der Zeichen als Silbe auf dem Bildschrim. Ihre Aufgabe ist es, für jede Silbe anzugeben, ob diese etwas angenehmes, oder unangenehmes bedeuten könnte. Verlassen Sie sich hier vor allem auf Ihre Intuition.<br><br>Die Zeichen werden nur zur Orientierung dargestellt, beachten Sie sie deshalb nicht. Konzentrieren Sie sich vor allem auf die Silben. <br>Reagieren Sie mit folgenden zwei Tasten: <br><br><b>'D' </b> wenn die Silbe etwas <b>unangenehmes</b> bedeuten könnte. <br><b>'K'</b> wenn die Silbe etwas <b>angenehmes</b> bedeuten könnte. <br><br>Bitte legen Sie nun den Zeigefinger der linken Hand auf die Taste 'D' und den Zeigefinger der rechten Hand auf die Taste 'K'. <br>Reagieren Sie auf jede Silbe so schnell wie möglich. Uns interessiert Ihre spontane Reaktion. <br> <br> <br>Drücken Sie 'D' oder 'K', um die nächste Aufgabe zu starten. </p>","75","","","","","","","","","",""
"","html-keyboard-response","90","474479","0.0-8.0-0.0","26btee9n2n","many_one","0","indirect_first","0","ök06ef23","0","24","1","1","3","1","","0","1","0","null","","","<div style=""font-size:60px;"">+</div>","null","","","","","","","","","",""
"","html-keyboard-response","91","474584","0.0-8.0-1.0","26btee9n2n","many_one","0","indirect_first","0","ök06ef23","0","24","1","1","3","1","","0","1","0","null","","","<img src = 'category4/CS1.png' width = '100%;'>","null","","","","","","","","","",""
"","html-keyboard-response","92","474850","0.0-8.0-2.0","26btee9n2n","many_one","0","indirect_first","0","ök06ef23","0","24","1","1","3","1","","0","1","0","null","","","<img src = 'targets/48.png' width = '100%;'>","null","","","","","","","","","",""
"","html-keyboard-response","93","479333","0.0-8.0-3.0","26btee9n2n","many_one","0","indirect_first","0","ök06ef23","0","24","1","1","3","1","","0","1","0","4480.43999960646","","","<img src = 'targets/mask.png' width = '100%;'>","75","neg","CS","CS","4","category4/CS1.png","targets/48.png","1","indirect","0",""
"","html-keyboard-response","94","480845","0.0-8.0-0.1","26btee9n2n","many_one","0","indirect_first","0","ök06ef23","0","24","1","1","3","1","","0","1","0","null","","","<div style=""font-size:60px;"">+</div>","null","","","","","","","","","",""
"","html-keyboard-response","95","480942","0.0-8.0-1.1","26btee9n2n","many_one","0","indirect_first","0","ök06ef23","0","24","1","1","3","1","","0","1","0","null","","","<img src = 'category4/CS3.png' width = '100%;'>","null","","","","","","","","","",""
"","html-keyboard-response","96","481199","0.0-8.0-2.1","26btee9n2n","many_one","0","indirect_first","0","ök06ef23","0","24","1","1","3","1","","0","1","0","null","","","<img src = 'targets/20.png' width = '100%;'>","null","","","","","","","","","",""
"","html-keyboard-response","97","485471","0.0-8.0-3.1","26btee9n2n","many_one","0","indirect_first","0","ök06ef23","0","24","1","1","3","1","","0","1","0","4269.485000055283","","","<img src = 'targets/mask.png' width = '100%;'>","68","neg","GS","GSold","4","category4/CS3.png","targets/20.png","0","indirect","1",""
"","html-keyboard-response","98","487000","0.0-8.0-0.2","26btee9n2n","many_one","0","indirect_first","0","ök06ef23","0","24","1","1","3","1","","0","1","0","null","","","<div style=""font-size:60px;"">+</div>","null","","","","","","","","","",""
"","html-keyboard-response","99","487104","0.0-8.0-1.2","26btee9n2n","many_one","0","indirect_first","0","ök06ef23","0","24","1","1","3","1","","0","1","0","null","","","<img src = 'category3/CS10.png' width = '100%;'>","null","","","","","","","","","",""
"","html-keyboard-response","100","487384","0.0-8.0-2.2","26btee9n2n","many_one","0","indirect_first","0","ök06ef23","0","24","1","1","3","1","","0","1","0","null","","","<img src = 'targets/19.png' width = '100%;'>","null","","","","","","","","","",""
"","html-keyboard-response","101","488347","0.0-8.0-3.2","26btee9n2n","many_one","0","indirect_first","0","ök06ef23","0","24","1","1","3","1","","0","1","0","959.4350000843406","","","<img src = 'targets/mask.png' width = '100%;'>","75","neg","CS","CS","3","category3/CS10.png","targets/19.png","1","indirect","2",""
"","html-keyboard-response","102","489863","0.0-8.0-0.3","26btee9n2n","many_one","0","indirect_first","0","ök06ef23","0","24","1","1","3","1","","0","1","0","null","","","<div style=""font-size:60px;"">+</div>","null","","","","","","","","","",""
"","html-keyboard-response","103","489966","0.0-8.0-1.3","26btee9n2n","many_one","0","indirect_first","0","ök06ef23","0","24","1","1","3","1","","0","1","0","null","","","<img src = 'category3/CS8.png' width = '100%;'>","null","","","","","","","","","",""
"","html-keyboard-response","104","490240","0.0-8.0-2.3","26btee9n2n","many_one","0","indirect_first","0","ök06ef23","0","24","1","1","3","1","","0","1","0","null","","","<img src = 'targets/39.png' width = '100%;'>","null","","","","","","","","","",""
"","html-keyboard-response","105","491009","0.0-8.0-3.3","26btee9n2n","many_one","0","indirect_first","0","ök06ef23","0","24","1","1","3","1","","0","1","0","765.0699997320771","","","<img src = 'targets/mask.png' width = '100%;'>","75","neg","CS","CS","3","category3/CS8.png","targets/39.png","1","indirect","3",""
"","html-keyboard-response","106","492528","0.0-8.0-0.4","26btee9n2n","many_one","0","indirect_first","0","ök06ef23","0","24","1","1","3","1","","0","1","0","null","","","<div style=""font-size:60px;"">+</div>","null","","","","","","","","","",""
"","html-keyboard-response","107","492623","0.0-8.0-1.4","26btee9n2n","many_one","0","indirect_first","0","ök06ef23","0","24","1","1","3","1","","0","1","0","null","","","<img src = 'category4/CS2.png' width = '100%;'>","null","","","","","","","","","",""
"","html-keyboard-response","108","492889","0.0-8.0-2.4","26btee9n2n","many_one","0","indirect_first","0","ök06ef23","0","24","1","1","3","1","","0","1","0","null","","","<img src = 'targets/15.png' width = '100%;'>","null","","","","","","","","","",""
"","html-keyboard-response","109","494320","0.0-8.0-3.4","26btee9n2n","many_one","0","indirect_first","0","ök06ef23","0","24","1","1","3","1","","0","1","0","1427.960000000894","","","<img src = 'targets/mask.png' width = '100%;'>","68","neg","GS","GSold","4","category4/CS2.png","targets/15.png","0","indirect","4",""
"","html-keyboard-response","110","495833","0.0-8.0-0.5","26btee9n2n","many_one","0","indirect_first","0","ök06ef23","0","24","1","1","3","1","","0","1","0","null","","","<div style=""font-size:60px;"">+</div>","null","","","","","","","","","",""
"","html-keyboard-response","111","495937","0.0-8.0-1.5","26btee9n2n","many_one","0","indirect_first","0","ök06ef23","0","24","1","1","3","1","","0","1","0","null","","","<img src = 'category2/CS2.png' width = '100%;'>","null","","","","","","","","","",""
"","html-keyboard-response","112","496206","0.0-8.0-2.5","26btee9n2n","many_one","0","indirect_first","0","ök06ef23","0","24","1","1","3","1","","0","1","0","null","","","<img src = 'targets/38.png' width = '100%;'>","null","","","","","","","","","",""
"","html-keyboard-response","113","497674","0.0-8.0-3.5","26btee9n2n","many_one","0","indirect_first","0","ök06ef23","0","24","1","1","3","1","","0","1","0","1464.0950001776218","","","<img src = 'targets/mask.png' width = '100%;'>","75","pos","CS","CS","2","category2/CS2.png","targets/38.png","1","indirect","5",""
"","html-keyboard-response","114","499187","0.0-8.0-0.6","26btee9n2n","many_one","0","indirect_first","0","ök06ef23","0","24","1","1","3","1","","0","1","0","null","","","<div style=""font-size:60px;"">+</div>","null","","","","","","","","","",""
"","html-keyboard-response","115","499283","0.0-8.0-1.6","26btee9n2n","many_one","0","indirect_first","0","ök06ef23","0","24","1","1","3","1","","0","1","0","null","","","<img src = 'category1/CS2.png' width = '100%;'>","null","","","","","","","","","",""
"","html-keyboard-response","116","499548","0.0-8.0-2.6","26btee9n2n","many_one","0","indirect_first","0","ök06ef23","0","24","1","1","3","1","","0","1","0","null","","","<img src = 'targets/34.png' width = '100%;'>","null","","","","","","","","","",""
"","html-keyboard-response","117","500498","0.0-8.0-3.6","26btee9n2n","many_one","0","indirect_first","0","ök06ef23","0","24","1","1","3","1","","0","1","0","946.0900002159178","","","<img src = 'targets/mask.png' width = '100%;'>","75","pos","CS","CS","1","category1/CS2.png","targets/34.png","1","indirect","6",""
"","html-keyboard-response","118","502021","0.0-8.0-0.7","26btee9n2n","many_one","0","indirect_first","0","ök06ef23","0","24","1","1","3","1","","0","1","0","null","","","<div style=""font-size:60px;"">+</div>","null","","","","","","","","","",""
"","html-keyboard-response","119","502116","0.0-8.0-1.7","26btee9n2n","many_one","0","indirect_first","0","ök06ef23","0","24","1","1","3","1","","0","1","0","null","","","<img src = 'category1/CS10.png' width = '100%;'>","null","","","","","","","","","",""
"","html-keyboard-response","120","502381","0.0-8.0-2.7","26btee9n2n","many_one","0","indirect_first","0","ök06ef23","0","24","1","1","3","1","","0","1","0","null","","","<img src = 'targets/45.png' width = '100%;'>","null","","","","","","","","","",""
"","html-keyboard-response","121","503246","0.0-8.0-3.7","26btee9n2n","many_one","0","indirect_first","0","ök06ef23","0","24","1","1","3","1","","0","1","0","862.8950002603233","","","<img src = 'targets/mask.png' width = '100%;'>","68","pos","CS","CS","1","category1/CS10.png","targets/45.png","0","indirect","7",""
"","html-keyboard-response","122","504771","0.0-8.0-0.8","26btee9n2n","many_one","0","indirect_first","0","ök06ef23","0","24","1","1","3","1","","0","1","0","null","","","<div style=""font-size:60px;"">+</div>","null","","","","","","","","","",""
"","html-keyboard-response","123","504866","0.0-8.0-1.8","26btee9n2n","many_one","0","indirect_first","0","ök06ef23","0","24","1","1","3","1","","0","1","0","null","","","<img src = 'category4/CS8.png' width = '100%;'>","null","","","","","","","","","",""
"","html-keyboard-response","124","505131","0.0-8.0-2.8","26btee9n2n","many_one","0","indirect_first","0","ök06ef23","0","24","1","1","3","1","","0","1","0","null","","","<img src = 'targets/47.png' width = '100%;'>","null","","","","","","","","","",""
"","html-keyboard-response","125","506144","0.0-8.0-3.8","26btee9n2n","many_one","0","indirect_first","0","ök06ef23","0","24","1","1","3","1","","0","1","0","1010.0099998526275","","","<img src = 'targets/mask.png' width = '100%;'>","68","neg","CS","CS","4","category4/CS8.png","targets/47.png","0","indirect","8",""
"","html-keyboard-response","126","507665","0.0-8.0-0.9","26btee9n2n","many_one","0","indirect_first","0","ök06ef23","0","24","1","1","3","1","","0","1","0","null","","","<div style=""font-size:60px;"">+</div>","null","","","","","","","","","",""
"","html-keyboard-response","127","507766","0.0-8.0-1.9","26btee9n2n","many_one","0","indirect_first","0","ök06ef23","0","24","1","1","3","1","","0","1","0","null","","","<img src = 'category2/CS10.png' width = '100%;'>","null","","","","","","","","","",""
"","html-keyboard-response","128","508034","0.0-8.0-2.9","26btee9n2n","many_one","0","indirect_first","0","ök06ef23","0","24","1","1","3","1","","0","1","0","null","","","<img src = 'targets/1.png' width = '100%;'>","null","","","","","","","","","",""
"","html-keyboard-response","129","509210","0.0-8.0-3.9","26btee9n2n","many_one","0","indirect_first","0","ök06ef23","0","24","1","1","3","1","","0","1","0","1172.6950001902878","","","<img src = 'targets/mask.png' width = '100%;'>","75","pos","CS","CS","2","category2/CS10.png","targets/1.png","1","indirect","9",""
"","html-keyboard-response","130","510714","0.0-8.0-0.10","26btee9n2n","many_one","0","indirect_first","0","ök06ef23","0","24","1","1","3","1","","0","1","0","null","","","<div style=""font-size:60px;"">+</div>","null","","","","","","","","","",""
"","html-keyboard-response","131","510818","0.0-8.0-1.10","26btee9n2n","many_one","0","indirect_first","0","ök06ef23","0","24","1","1","3","1","","0","1","0","null","","","<img src = 'category1/CS4.png' width = '100%;'>","null","","","","","","","","","",""
"","html-keyboard-response","132","511096","0.0-8.0-2.10","26btee9n2n","many_one","0","indirect_first","0","ök06ef23","0","24","1","1","3","1","","0","1","0","null","","","<img src = 'targets/14.png' width = '100%;'>","null","","","","","","","","","",""
"","html-keyboard-response","133","512146","0.0-8.0-3.10","26btee9n2n","many_one","0","indirect_first","0","ök06ef23","0","24","1","1","3","1","","0","1","0","1048.9799999631941","","","<img src = 'targets/mask.png' width = '100%;'>","75","pos","CS","CS","1","category1/CS4.png","targets/14.png","1","indirect","10",""
"","html-keyboard-response","134","513655","0.0-8.0-0.11","26btee9n2n","many_one","0","indirect_first","0","ök06ef23","0","24","1","1","3","1","","0","1","0","null","","","<div style=""font-size:60px;"">+</div>","null","","","","","","","","","",""
"","html-keyboard-response","135","513749","0.0-8.0-1.11","26btee9n2n","many_one","0","indirect_first","0","ök06ef23","0","24","1","1","3","1","","0","1","0","null","","","<img src = 'category3/CS5.png' width = '100%;'>","null","","","","","","","","","",""
"","html-keyboard-response","136","514029","0.0-8.0-2.11","26btee9n2n","many_one","0","indirect_first","0","ök06ef23","0","24","1","1","3","1","","0","1","0","null","","","<img src = 'targets/21.png' width = '100%;'>","null","","","","","","","","","",""
"","html-keyboard-response","137","515276","0.0-8.0-3.11","26btee9n2n","many_one","0","indirect_first","0","ök06ef23","0","24","1","1","3","1","","0","1","0","1243.040000088513","","","<img src = 'targets/mask.png' width = '100%;'>","68","neg","CS","CS","3","category3/CS5.png","targets/21.png","0","indirect","11",""
"","html-keyboard-response","138","516788","0.0-8.0-0.12","26btee9n2n","many_one","0","indirect_first","0","ök06ef23","0","24","1","1","3","1","","0","1","0","null","","","<div style=""font-size:60px;"">+</div>","null","","","","","","","","","",""
"","html-keyboard-response","139","516885","0.0-8.0-1.12","26btee9n2n","many_one","0","indirect_first","0","ök06ef23","0","24","1","1","3","1","","0","1","0","null","","","<img src = 'category2/CS3.png' width = '100%;'>","null","","","","","","","","","",""
"","html-keyboard-response","140","517155","0.0-8.0-2.12","26btee9n2n","many_one","0","indirect_first","0","ök06ef23","0","24","1","1","3","1","","0","1","0","null","","","<img src = 'targets/25.png' width = '100%;'>","null","","","","","","","","","",""
"","html-keyboard-response","141","519056","0.0-8.0-3.12","26btee9n2n","many_one","0","indirect_first","0","ök06ef23","0","24","1","1","3","1","","0","1","0","1898.4750001691282","","","<img src = 'targets/mask.png' width = '100%;'>","75","pos","GS","GSold","2","category2/CS3.png","targets/25.png","1","indirect","12",""
"","html-keyboard-response","142","520563","0.0-8.0-0.13","26btee9n2n","many_one","0","indirect_first","0","ök06ef23","0","24","1","1","3","1","","0","1","0","null","","","<div style=""font-size:60px;"">+</div>","null","","","","","","","","","",""
"","html-keyboard-response","143","520667","0.0-8.0-1.13","26btee9n2n","many_one","0","indirect_first","0","ök06ef23","0","24","1","1","3","1","","0","1","0","null","","","<img src = 'category1/CS1.png' width = '100%;'>","null","","","","","","","","","",""
"","html-keyboard-response","144","520938","0.0-8.0-2.13","26btee9n2n","many_one","0","indirect_first","0","ök06ef23","0","24","1","1","3","1","","0","1","0","null","","","<img src = 'targets/18.png' width = '100%;'>","null","","","","","","","","","",""
"","html-keyboard-response","145","521797","0.0-8.0-3.13","26btee9n2n","many_one","0","indirect_first","0","ök06ef23","0","24","1","1","3","1","","0","1","0","854.7499999403954","","","<img src = 'targets/mask.png' width = '100%;'>","75","pos","CS","CS","1","category1/CS1.png","targets/18.png","1","indirect","13",""
"","html-keyboard-response","146","523324","0.0-8.0-0.14","26btee9n2n","many_one","0","indirect_first","0","ök06ef23","0","24","1","1","3","1","","0","1","0","null","","","<div style=""font-size:60px;"">+</div>","null","","","","","","","","","",""
"","html-keyboard-response","147","523431","0.0-8.0-1.14","26btee9n2n","many_one","0","indirect_first","0","ök06ef23","0","24","1","1","3","1","","0","1","0","null","","","<img src = 'category2/CS5.png' width = '100%;'>","null","","","","","","","","","",""
"","html-keyboard-response","148","523712","0.0-8.0-2.14","26btee9n2n","many_one","0","indirect_first","0","ök06ef23","0","24","1","1","3","1","","0","1","0","null","","","<img src = 'targets/44.png' width = '100%;'>","null","","","","","","","","","",""
"","html-keyboard-response","149","524952","0.0-8.0-3.14","26btee9n2n","many_one","0","indirect_first","0","ök06ef23","0","24","1","1","3","1","","0","1","0","1236.7050000466406","","","<img src = 'targets/mask.png' width = '100%;'>","75","pos","CS","CS","2","category2/CS5.png","targets/44.png","1","indirect","14",""
"","html-keyboard-response","150","526466","0.0-8.0-0.15","26btee9n2n","many_one","0","indirect_first","0","ök06ef23","0","24","1","1","3","1","","0","1","0","null","","","<div style=""font-size:60px;"">+</div>","null","","","","","","","","","",""
"","html-keyboard-response","151","526572","0.0-8.0-1.15","26btee9n2n","many_one","0","indirect_first","0","ök06ef23","0","24","1","1","3","1","","0","1","0","null","","","<img src = 'category1/CS9.png' width = '100%;'>","null","","","","","","","","","",""
"","html-keyboard-response","152","526845","0.0-8.0-2.15","26btee9n2n","many_one","0","indirect_first","0","ök06ef23","0","24","1","1","3","1","","0","1","0","null","","","<img src = 'targets/43.png' width = '100%;'>","null","","","","","","","","","",""
"","html-keyboard-response","153","527469","0.0-8.0-3.15","26btee9n2n","many_one","0","indirect_first","0","ök06ef23","0","24","1","1","3","1","","0","1","0","620.8949997089803","","","<img src = 'targets/mask.png' width = '100%;'>","68","pos","CS","CS","1","category1/CS9.png","targets/43.png","0","indirect","15",""
"","html-keyboard-response","154","528983","0.0-8.0-0.16","26btee9n2n","many_one","0","indirect_first","0","ök06ef23","0","24","1","1","3","1","","0","1","0","null","","","<div style=""font-size:60px;"">+</div>","null","","","","","","","","","",""
"","html-keyboard-response","155","529089","0.0-8.0-1.16","26btee9n2n","many_one","0","indirect_first","0","ök06ef23","0","24","1","1","3","1","","0","1","0","null","","","<img src = 'category4/CS4.png' width = '100%;'>","null","","","","","","","","","",""
"","html-keyboard-response","156","529362","0.0-8.0-2.16","26btee9n2n","many_one","0","indirect_first","0","ök06ef23","0","24","1","1","3","1","","0","1","0","null","","","<img src = 'targets/30.png' width = '100%;'>","null","","","","","","","","","",""
"","html-keyboard-response","157","530561","0.0-8.0-3.16","26btee9n2n","many_one","0","indirect_first","0","ök06ef23","0","24","1","1","3","1","","0","1","0","1196.7700002714992","","","<img src = 'targets/mask.png' width = '100%;'>","75","neg","CS","CS","4","category4/CS4.png","targets/30.png","1","indirect","16",""
"","html-keyboard-response","158","532084","0.0-8.0-0.17","26btee9n2n","many_one","0","indirect_first","0","ök06ef23","0","24","1","1","3","1","","0","1","0","null","","","<div style=""font-size:60px;"">+</div>","null","","","","","","","","","",""
"","html-keyboard-response","159","532189","0.0-8.0-1.17","26btee9n2n","many_one","0","indirect_first","0","ök06ef23","0","24","1","1","3","1","","0","1","0","null","","","<img src = 'category4/CS7.png' width = '100%;'>","null","","","","","","","","","",""
"","html-keyboard-response","160","532449","0.0-8.0-2.17","26btee9n2n","many_one","0","indirect_first","0","ök06ef23","0","24","1","1","3","1","","0","1","0","null","","","<img src = 'targets/5.png' width = '100%;'>","null","","","","","","","","","",""
"","html-keyboard-response","161","533115","0.0-8.0-3.17","26btee9n2n","many_one","0","indirect_first","0","ök06ef23","0","24","1","1","3","1","","0","1","0","662.2199998237193","","","<img src = 'targets/mask.png' width = '100%;'>","75","neg","CS","CS","4","category4/CS7.png","targets/5.png","1","indirect","17",""
"","html-keyboard-response","162","534631","0.0-8.0-0.18","26btee9n2n","many_one","0","indirect_first","0","ök06ef23","0","24","1","1","3","1","","0","1","0","null","","","<div style=""font-size:60px;"">+</div>","null","","","","","","","","","",""
"","html-keyboard-response","163","534725","0.0-8.0-1.18","26btee9n2n","many_one","0","indirect_first","0","ök06ef23","0","24","1","1","3","1","","0","1","0","null","","","<img src = 'category3/CS9.png' width = '100%;'>","null","","","","","","","","","",""
"","html-keyboard-response","164","534982","0.0-8.0-2.18","26btee9n2n","many_one","0","indirect_first","0","ök06ef23","0","24","1","1","3","1","","0","1","0","null","","","<img src = 'targets/17.png' width = '100%;'>","null","","","","","","","","","",""
"","html-keyboard-response","165","535896","0.0-8.0-3.18","26btee9n2n","many_one","0","indirect_first","0","ök06ef23","0","24","1","1","3","1","","0","1","0","911.3650000654161","","","<img src = 'targets/mask.png' width = '100%;'>","68","neg","CS","CS","3","category3/CS9.png","targets/17.png","0","indirect","18",""
"","html-keyboard-response","166","537409","0.0-8.0-0.19","26btee9n2n","many_one","0","indirect_first","0","ök06ef23","0","24","1","1","3","1","","0","1","0","null","","","<div style=""font-size:60px;"">+</div>","null","","","","","","","","","",""
"","html-keyboard-response","167","537506","0.0-8.0-1.19","26btee9n2n","many_one","0","indirect_first","0","ök06ef23","0","24","1","1","3","1","","0","1","0","null","","","<img src = 'category4/CS10.png' width = '100%;'>","null","","","","","","","","","",""
"","html-keyboard-response","168","537781","0.0-8.0-2.19","26btee9n2n","many_one","0","indirect_first","0","ök06ef23","0","24","1","1","3","1","","0","1","0","null","","","<img src = 'targets/7.png' width = '100%;'>","null","","","","","","","","","",""
"","html-keyboard-response","169","538618","0.0-8.0-3.19","26btee9n2n","many_one","0","indirect_first","0","ök06ef23","0","24","1","1","3","1","","0","1","0","833.7199999950826","","","<img src = 'targets/mask.png' width = '100%;'>","75","neg","CS","CS","4","category4/CS10.png","targets/7.png","1","indirect","19",""
"","html-keyboard-response","170","540138","0.0-8.0-0.20","26btee9n2n","many_one","0","indirect_first","0","ök06ef23","0","24","1","1","3","1","","0","1","0","null","","","<div style=""font-size:60px;"">+</div>","null","","","","","","","","","",""
"","html-keyboard-response","171","540234","0.0-8.0-1.20","26btee9n2n","many_one","0","indirect_first","0","ök06ef23","0","24","1","1","3","1","","0","1","0","null","","","<img src = 'category2/CS1.png' width = '100%;'>","null","","","","","","","","","",""
"","html-keyboard-response","172","540507","0.0-8.0-2.20","26btee9n2n","many_one","0","indirect_first","0","ök06ef23","0","24","1","1","3","1","","0","1","0","null","","","<img src = 'targets/42.png' width = '100%;'>","null","","","","","","","","","",""
"","html-keyboard-response","173","541560","0.0-8.0-3.20","26btee9n2n","many_one","0","indirect_first","0","ök06ef23","0","24","1","1","3","1","","0","1","0","1051.08999973163","","","<img src = 'targets/mask.png' width = '100%;'>","68","pos","CS","CS","2","category2/CS1.png","targets/42.png","0","indirect","20",""
"","html-keyboard-response","174","543076","0.0-8.0-0.21","26btee9n2n","many_one","0","indirect_first","0","ök06ef23","0","24","1","1","3","1","","0","1","0","null","","","<div style=""font-size:60px;"">+</div>","null","","","","","","","","","",""
"","html-keyboard-response","175","543175","0.0-8.0-1.21","26btee9n2n","many_one","0","indirect_first","0","ök06ef23","0","24","1","1","3","1","","0","1","0","null","","","<img src = 'category2/CS4.png' width = '100%;'>","null","","","","","","","","","",""
"","html-keyboard-response","176","543447","0.0-8.0-2.21","26btee9n2n","many_one","0","indirect_first","0","ök06ef23","0","24","1","1","3","1","","0","1","0","null","","","<img src = 'targets/26.png' width = '100%;'>","null","","","","","","","","","",""
"","html-keyboard-response","177","544502","0.0-8.0-3.21","26btee9n2n","many_one","0","indirect_first","0","ök06ef23","0","24","1","1","3","1","","0","1","0","1051.5649998560548","","","<img src = 'targets/mask.png' width = '100%;'>","75","pos","CS","CS","2","category2/CS4.png","targets/26.png","1","indirect","21",""
"","html-keyboard-response","178","546013","0.0-8.0-0.22","26btee9n2n","many_one","0","indirect_first","0","ök06ef23","0","24","1","1","3","1","","0","1","0","null","","","<div style=""font-size:60px;"">+</div>","null","","","","","","","","","",""
"","html-keyboard-response","179","546118","0.0-8.0-1.22","26btee9n2n","many_one","0","indirect_first","0","ök06ef23","0","24","1","1","3","1","","0","1","0","null","","","<img src = 'category3/CS2.png' width = '100%;'>","null","","","","","","","","","",""
"","html-keyboard-response","180","546389","0.0-8.0-2.22","26btee9n2n","many_one","0","indirect_first","0","ök06ef23","0","24","1","1","3","1","","0","1","0","null","","","<img src = 'targets/4.png' width = '100%;'>","null","","","","","","","","","",""
"","html-keyboard-response","181","546988","0.0-8.0-3.22","26btee9n2n","many_one","0","indirect_first","0","ök06ef23","0","24","1","1","3","1","","0","1","0","596.5599999763072","","","<img src = 'targets/mask.png' width = '100%;'>","75","neg","CS","CS","3","category3/CS2.png","targets/4.png","1","indirect","22",""
"","html-keyboard-response","182","548496","0.0-8.0-0.23","26btee9n2n","many_one","0","indirect_first","0","ök06ef23","0","24","1","1","3","1","","0","1","0","null","","","<div style=""font-size:60px;"">+</div>","null","","","","","","","","","",""
"","html-keyboard-response","183","548601","0.0-8.0-1.23","26btee9n2n","many_one","0","indirect_first","0","ök06ef23","0","24","1","1","3","1","","0","1","0","null","","","<img src = 'category4/CS6.png' width = '100%;'>","null","","","","","","","","","",""
"","html-keyboard-response","184","548866","0.0-8.0-2.23","26btee9n2n","many_one","0","indirect_first","0","ök06ef23","0","24","1","1","3","1","","0","1","0","null","","","<img src = 'targets/6.png' width = '100%;'>","null","","","","","","","","","",""
"","html-keyboard-response","185","550056","0.0-8.0-3.23","26btee9n2n","many_one","0","indirect_first","0","ök06ef23","0","24","1","1","3","1","","0","1","0","1187.1199999004602","","","<img src = 'targets/mask.png' width = '100%;'>","68","neg","GS","GSold","4","category4/CS6.png","targets/6.png","0","indirect","23",""
"","survey-html-form","186","554931","0.0-9.0","26btee9n2n","many_one","0","indirect_first","0","ök06ef23","0","24","1","1","3","1","","0","1","0","4368.664999958128","","{}","","","","","","","","","","","",""
"","html-keyboard-response","187","557948","0.0-10.0-0.0","26btee9n2n","many_one","0","indirect_first","0","ök06ef23","0","24","1","1","3","1","","0","1","0","null","","","<div style=""font-size:60px;"">+</div>","null","","","","","","","","","",""
"","html-keyboard-response","188","558052","0.0-10.0-1.0","26btee9n2n","many_one","0","indirect_first","0","ök06ef23","0","24","1","1","3","1","","0","1","0","null","","","<img src = 'category2/GS3.png' width = '100%;'>","null","","","","","","","","","",""
"","html-keyboard-response","189","558323","0.0-10.0-2.0","26btee9n2n","many_one","0","indirect_first","0","ök06ef23","0","24","1","1","3","1","","0","1","0","null","","","<img src = 'targets/24.png' width = '100%;'>","null","","","","","","","","","",""
"","html-keyboard-response","190","559521","0.0-10.0-3.0","26btee9n2n","many_one","0","indirect_first","0","ök06ef23","0","24","1","1","3","1","","0","1","0","1191.3300002925098","","","<img src = 'targets/mask.png' width = '100%;'>","68","pos","GS","GSnew","2","category2/GS3.png","targets/24.png","0","indirect","24",""
"","html-keyboard-response","191","561043","0.0-10.0-0.1","26btee9n2n","many_one","0","indirect_first","0","ök06ef23","0","24","1","1","3","1","","0","1","0","null","","","<div style=""font-size:60px;"">+</div>","null","","","","","","","","","",""
"","html-keyboard-response","192","561140","0.0-10.0-1.1","26btee9n2n","many_one","0","indirect_first","0","ök06ef23","0","24","1","1","3","1","","0","1","0","null","","","<img src = 'category1/CS8.png' width = '100%;'>","null","","","","","","","","","",""
"","html-keyboard-response","193","561418","0.0-10.0-2.1","26btee9n2n","many_one","0","indirect_first","0","ök06ef23","0","24","1","1","3","1","","0","1","0","null","","","<img src = 'targets/37.png' width = '100%;'>","null","","","","","","","","","",""
"","html-keyboard-response","194","561991","0.0-10.0-3.1","26btee9n2n","many_one","0","indirect_first","0","ök06ef23","0","24","1","1","3","1","","0","1","0","569.9950000271201","","","<img src = 'targets/mask.png' width = '100%;'>","75","pos","GS","GSold","1","category1/CS8.png","targets/37.png","1","indirect","25",""
"","html-keyboard-response","195","563505","0.0-10.0-0.2","26btee9n2n","many_one","0","indirect_first","0","ök06ef23","0","24","1","1","3","1","","0","1","0","null","","","<div style=""font-size:60px;"">+</div>","null","","","","","","","","","",""
"","html-keyboard-response","196","563600","0.0-10.0-1.2","26btee9n2n","many_one","0","indirect_first","0","ök06ef23","0","24","1","1","3","1","","0","1","0","null","","","<img src = 'category3/CS1.png' width = '100%;'>","null","","","","","","","","","",""
"","html-keyboard-response","197","563864","0.0-10.0-2.2","26btee9n2n","many_one","0","indirect_first","0","ök06ef23","0","24","1","1","3","1","","0","1","0","null","","","<img src = 'targets/8.png' width = '100%;'>","null","","","","","","","","","",""
"","html-keyboard-response","198","564575","0.0-10.0-3.2","26btee9n2n","many_one","0","indirect_first","0","ök06ef23","0","24","1","1","3","1","","0","1","0","707.5650002807379","","","<img src = 'targets/mask.png' width = '100%;'>","75","neg","GS","GSold","3","category3/CS1.png","targets/8.png","1","indirect","26",""
"","html-keyboard-response","199","566088","0.0-10.0-0.3","26btee9n2n","many_one","0","indirect_first","0","ök06ef23","0","24","1","1","3","1","","0","1","0","null","","","<div style=""font-size:60px;"">+</div>","null","","","","","","","","","",""
"","html-keyboard-response","200","566183","0.0-10.0-1.3","26btee9n2n","many_one","0","indirect_first","0","ök06ef23","0","24","1","1","3","1","","0","1","0","null","","","<img src = 'category3/CS4.png' width = '100%;'>","null","","","","","","","","","",""
"","html-keyboard-response","201","566463","0.0-10.0-2.3","26btee9n2n","many_one","0","indirect_first","0","ök06ef23","0","24","1","1","3","1","","0","1","0","null","","","<img src = 'targets/27.png' width = '100%;'>","null","","","","","","","","","",""
"","html-keyboard-response","202","567078","0.0-10.0-3.3","26btee9n2n","many_one","0","indirect_first","0","ök06ef23","0","24","1","1","3","1","","0","1","0","611.4750001579523","","","<img src = 'targets/mask.png' width = '100%;'>","68","neg","GS","GSold","3","category3/CS4.png","targets/27.png","0","indirect","27",""
"","html-keyboard-response","203","568594","0.0-10.0-0.4","26btee9n2n","many_one","0","indirect_first","0","ök06ef23","0","24","1","1","3","1","","0","1","0","null","","","<div style=""font-size:60px;"">+</div>","null","","","","","","","","","",""
"","html-keyboard-response","204","568691","0.0-10.0-1.4","26btee9n2n","many_one","0","indirect_first","0","ök06ef23","0","24","1","1","3","1","","0","1","0","null","","","<img src = 'category3/GS1.png' width = '100%;'>","null","","","","","","","","","",""
"","html-keyboard-response","205","568963","0.0-10.0-2.4","26btee9n2n","many_one","0","indirect_first","0","ök06ef23","0","24","1","1","3","1","","0","1","0","null","","","<img src = 'targets/36.png' width = '100%;'>","null","","","","","","","","","",""
"","html-keyboard-response","206","569568","0.0-10.0-3.4","26btee9n2n","many_one","0","indirect_first","0","ök06ef23","0","24","1","1","3","1","","0","1","0","602.7850001119077","","","<img src = 'targets/mask.png' width = '100%;'>","68","neg","GS","GSnew","3","category3/GS1.png","targets/36.png","0","indirect","28",""
"","html-keyboard-response","207","571091","0.0-10.0-0.5","26btee9n2n","many_one","0","indirect_first","0","ök06ef23","0","24","1","1","3","1","","0","1","0","null","","","<div style=""font-size:60px;"">+</div>","null","","","","","","","","","",""
"","html-keyboard-response","208","571186","0.0-10.0-1.5","26btee9n2n","many_one","0","indirect_first","0","ök06ef23","0","24","1","1","3","1","","0","1","0","null","","","<img src = 'category4/lin.png' width = '100%;'>","null","","","","","","","","","",""
"","html-keyboard-response","209","571450","0.0-10.0-2.5","26btee9n2n","many_one","0","indirect_first","0","ök06ef23","0","24","1","1","3","1","","0","1","0","null","","","<img src = 'targets/23.png' width = '100%;'>","null","","","","","","","","","",""
"","html-keyboard-response","210","572208","0.0-10.0-3.5","26btee9n2n","many_one","0","indirect_first","0","ök06ef23","0","24","1","1","3","1","","0","1","0","755.5249999277294","","","<img src = 'targets/mask.png' width = '100%;'>","75","neg","GS","abstract","4","category4/lin.png","targets/23.png","1","indirect","29",""
"","html-keyboard-response","211","573732","0.0-10.0-0.6","26btee9n2n","many_one","0","indirect_first","0","ök06ef23","0","24","1","1","3","1","","0","1","0","null","","","<div style=""font-size:60px;"">+</div>","null","","","","","","","","","",""
"","html-keyboard-response","212","573837","0.0-10.0-1.6","26btee9n2n","many_one","0","indirect_first","0","ök06ef23","0","24","1","1","3","1","","0","1","0","null","","","<img src = 'category4/GS2.png' width = '100%;'>","null","","","","","","","","","",""
"","html-keyboard-response","213","574097","0.0-10.0-2.6","26btee9n2n","many_one","0","indirect_first","0","ök06ef23","0","24","1","1","3","1","","0","1","0","null","","","<img src = 'targets/40.png' width = '100%;'>","null","","","","","","","","","",""
"","html-keyboard-response","214","574900","0.0-10.0-3.6","26btee9n2n","many_one","0","indirect_first","0","ök06ef23","0","24","1","1","3","1","","0","1","0","800.3000002354383","","","<img src = 'targets/mask.png' width = '100%;'>","75","neg","GS","GSnew","4","category4/GS2.png","targets/40.png","1","indirect","30",""
"","html-keyboard-response","215","576414","0.0-10.0-0.7","26btee9n2n","many_one","0","indirect_first","0","ök06ef23","0","24","1","1","3","1","","0","1","0","null","","","<div style=""font-size:60px;"">+</div>","null","","","","","","","","","",""
"","html-keyboard-response","216","576518","0.0-10.0-1.7","26btee9n2n","many_one","0","indirect_first","0","ök06ef23","0","24","1","1","3","1","","0","1","0","null","","","<img src = 'category1/GS1.png' width = '100%;'>","null","","","","","","","","","",""
"","html-keyboard-response","217","576798","0.0-10.0-2.7","26btee9n2n","many_one","0","indirect_first","0","ök06ef23","0","24","1","1","3","1","","0","1","0","null","","","<img src = 'targets/10.png' width = '100%;'>","null","","","","","","","","","",""
"","html-keyboard-response","218","577618","0.0-10.0-3.7","26btee9n2n","many_one","0","indirect_first","0","ök06ef23","0","24","1","1","3","1","","0","1","0","816.81999983266","","","<img src = 'targets/mask.png' width = '100%;'>","75","pos","GS","GSnew","1","category1/GS1.png","targets/10.png","1","indirect","31",""
"","html-keyboard-response","219","579130","0.0-10.0-0.8","26btee9n2n","many_one","0","indirect_first","0","ök06ef23","0","24","1","1","3","1","","0","1","0","null","","","<div style=""font-size:60px;"">+</div>","null","","","","","","","","","",""
"","html-keyboard-response","220","579236","0.0-10.0-1.8","26btee9n2n","many_one","0","indirect_first","0","ök06ef23","0","24","1","1","3","1","","0","1","0","null","","","<img src = 'category3/CS3.png' width = '100%;'>","null","","","","","","","","","",""
"","html-keyboard-response","221","579501","0.0-10.0-2.8","26btee9n2n","many_one","0","indirect_first","0","ök06ef23","0","24","1","1","3","1","","0","1","0","null","","","<img src = 'targets/29.png' width = '100%;'>","null","","","","","","","","","",""
"","html-keyboard-response","222","580884","0.0-10.0-3.8","26btee9n2n","many_one","0","indirect_first","0","ök06ef23","0","24","1","1","3","1","","0","1","0","1380.4549998603761","","","<img src = 'targets/mask.png' width = '100%;'>","75","neg","GS","GSold","3","category3/CS3.png","targets/29.png","1","indirect","32",""
"","html-keyboard-response","223","582403","0.0-10.0-0.9","26btee9n2n","many_one","0","indirect_first","0","ök06ef23","0","24","1","1","3","1","","0","1","0","null","","","<div style=""font-size:60px;"">+</div>","null","","","","","","","","","",""
"","html-keyboard-response","224","582499","0.0-10.0-1.9","26btee9n2n","many_one","0","indirect_first","0","ök06ef23","0","24","1","1","3","1","","0","1","0","null","","","<img src = 'category3/wang.png' width = '100%;'>","null","","","","","","","","","",""
"","html-keyboard-response","225","582781","0.0-10.0-2.9","26btee9n2n","many_one","0","indirect_first","0","ök06ef23","0","24","1","1","3","1","","0","1","0","null","","","<img src = 'targets/35.png' width = '100%;'>","null","","","","","","","","","",""
"","html-keyboard-response","226","583307","0.0-10.0-3.9","26btee9n2n","many_one","0","indirect_first","0","ök06ef23","0","24","1","1","3","1","","0","1","0","521.4800001122057","","","<img src = 'targets/mask.png' width = '100%;'>","75","neg","GS","abstract","3","category3/wang.png","targets/35.png","1","indirect","33",""
"","html-keyboard-response","227","584827","0.0-10.0-0.10","26btee9n2n","many_one","0","indirect_first","0","ök06ef23","0","24","1","1","3","1","","0","1","0","null","","","<div style=""font-size:60px;"">+</div>","null","","","","","","","","","",""
"","html-keyboard-response","228","584931","0.0-10.0-1.10","26btee9n2n","many_one","0","indirect_first","0","ök06ef23","0","24","1","1","3","1","","0","1","0","null","","","<img src = 'category2/CS8.png' width = '100%;'>","null","","","","","","","","","",""
"","html-keyboard-response","229","585204","0.0-10.0-2.10","26btee9n2n","many_one","0","indirect_first","0","ök06ef23","0","24","1","1","3","1","","0","1","0","null","","","<img src = 'targets/31.png' width = '100%;'>","null","","","","","","","","","",""
"","html-keyboard-response","230","585797","0.0-10.0-3.10","26btee9n2n","many_one","0","indirect_first","0","ök06ef23","0","24","1","1","3","1","","0","1","0","590.3400001116097","","","<img src = 'targets/mask.png' width = '100%;'>","68","pos","GS","GSold","2","category2/CS8.png","targets/31.png","0","indirect","34",""
"","html-keyboard-response","231","587313","0.0-10.0-0.11","26btee9n2n","many_one","0","indirect_first","0","ök06ef23","0","24","1","1","3","1","","0","1","0","null","","","<div style=""font-size:60px;"">+</div>","null","","","","","","","","","",""
"","html-keyboard-response","232","587418","0.0-10.0-1.11","26btee9n2n","many_one","0","indirect_first","0","ök06ef23","0","24","1","1","3","1","","0","1","0","null","","","<img src = 'category1/GS3.png' width = '100%;'>","null","","","","","","","","","",""
"","html-keyboard-response","233","587695","0.0-10.0-2.11","26btee9n2n","many_one","0","indirect_first","0","ök06ef23","0","24","1","1","3","1","","0","1","0","null","","","<img src = 'targets/41.png' width = '100%;'>","null","","","","","","","","","",""
"","html-keyboard-response","234","588175","0.0-10.0-3.11","26btee9n2n","many_one","0","indirect_first","0","ök06ef23","0","24","1","1","3","1","","0","1","0","476.78499994799495","","","<img src = 'targets/mask.png' width = '100%;'>","75","pos","GS","GSnew","1","category1/GS3.png","targets/41.png","1","indirect","35",""
"","html-keyboard-response","235","589689","0.0-10.0-0.12","26btee9n2n","many_one","0","indirect_first","0","ök06ef23","0","24","1","1","3","1","","0","1","0","null","","","<div style=""font-size:60px;"">+</div>","null","","","","","","","","","",""
"","html-keyboard-response","236","589787","0.0-10.0-1.12","26btee9n2n","many_one","0","indirect_first","0","ök06ef23","0","24","1","1","3","1","","0","1","0","null","","","<img src = 'category3/GS2.png' width = '100%;'>","null","","","","","","","","","",""
"","html-keyboard-response","237","590051","0.0-10.0-2.12","26btee9n2n","many_one","0","indirect_first","0","ök06ef23","0","24","1","1","3","1","","0","1","0","null","","","<img src = 'targets/32.png' width = '100%;'>","null","","","","","","","","","",""
"","html-keyboard-response","238","590823","0.0-10.0-3.12","26btee9n2n","many_one","0","indirect_first","0","ök06ef23","0","24","1","1","3","1","","0","1","0","770.7250001840293","","","<img src = 'targets/mask.png' width = '100%;'>","68","neg","GS","GSnew","3","category3/GS2.png","targets/32.png","0","indirect","36",""
"","html-keyboard-response","239","592340","0.0-10.0-0.13","26btee9n2n","many_one","0","indirect_first","0","ök06ef23","0","24","1","1","3","1","","0","1","0","null","","","<div style=""font-size:60px;"">+</div>","null","","","","","","","","","",""
"","html-keyboard-response","240","592447","0.0-10.0-1.13","26btee9n2n","many_one","0","indirect_first","0","ök06ef23","0","24","1","1","3","1","","0","1","0","null","","","<img src = 'category3/GS3.png' width = '100%;'>","null","","","","","","","","","",""
"","html-keyboard-response","241","592720","0.0-10.0-2.13","26btee9n2n","many_one","0","indirect_first","0","ök06ef23","0","24","1","1","3","1","","0","1","0","null","","","<img src = 'targets/2.png' width = '100%;'>","null","","","","","","","","","",""
"","html-keyboard-response","242","593262","0.0-10.0-3.13","26btee9n2n","many_one","0","indirect_first","0","ök06ef23","0","24","1","1","3","1","","0","1","0","537.9099999554455","","","<img src = 'targets/mask.png' width = '100%;'>","68","neg","GS","GSnew","3","category3/GS3.png","targets/2.png","0","indirect","37",""
"","html-keyboard-response","243","594778","0.0-10.0-0.14","26btee9n2n","many_one","0","indirect_first","0","ök06ef23","0","24","1","1","3","1","","0","1","0","null","","","<div style=""font-size:60px;"">+</div>","null","","","","","","","","","",""
"","html-keyboard-response","244","594882","0.0-10.0-1.14","26btee9n2n","many_one","0","indirect_first","0","ök06ef23","0","24","1","1","3","1","","0","1","0","null","","","<img src = 'category4/GS1.png' width = '100%;'>","null","","","","","","","","","",""
"","html-keyboard-response","245","595153","0.0-10.0-2.14","26btee9n2n","many_one","0","indirect_first","0","ök06ef23","0","24","1","1","3","1","","0","1","0","null","","","<img src = 'targets/28.png' width = '100%;'>","null","","","","","","","","","",""
"","html-keyboard-response","246","595890","0.0-10.0-3.14","26btee9n2n","many_one","0","indirect_first","0","ök06ef23","0","24","1","1","3","1","","0","1","0","733.8950000703335","","","<img src = 'targets/mask.png' width = '100%;'>","75","neg","GS","GSnew","4","category4/GS1.png","targets/28.png","1","indirect","38",""
"","html-keyboard-response","247","597400","0.0-10.0-0.15","26btee9n2n","many_one","0","indirect_first","0","ök06ef23","0","24","1","1","3","1","","0","1","0","null","","","<div style=""font-size:60px;"">+</div>","null","","","","","","","","","",""
"","html-keyboard-response","248","597495","0.0-10.0-1.15","26btee9n2n","many_one","0","indirect_first","0","ök06ef23","0","24","1","1","3","1","","0","1","0","null","","","<img src = 'category2/men.png' width = '100%;'>","null","","","","","","","","","",""
"","html-keyboard-response","249","597766","0.0-10.0-2.15","26btee9n2n","many_one","0","indirect_first","0","ök06ef23","0","24","1","1","3","1","","0","1","0","null","","","<img src = 'targets/3.png' width = '100%;'>","null","","","","","","","","","",""
"","html-keyboard-response","250","599515","0.0-10.0-3.15","26btee9n2n","many_one","0","indirect_first","0","ök06ef23","0","24","1","1","3","1","","0","1","0","1746.5800000354648","","","<img src = 'targets/mask.png' width = '100%;'>","75","pos","GS","abstract","2","category2/men.png","targets/3.png","1","indirect","39",""
"","html-keyboard-response","251","601036","0.0-10.0-0.16","26btee9n2n","many_one","0","indirect_first","0","ök06ef23","0","24","1","1","3","1","","0","1","0","null","","","<div style=""font-size:60px;"">+</div>","null","","","","","","","","","",""
"","html-keyboard-response","252","601149","0.0-10.0-1.16","26btee9n2n","many_one","0","indirect_first","0","ök06ef23","0","24","1","1","3","1","","0","1","0","null","","","<img src = 'category2/CS7.png' width = '100%;'>","null","","","","","","","","","",""
"","html-keyboard-response","253","601414","0.0-10.0-2.16","26btee9n2n","many_one","0","indirect_first","0","ök06ef23","0","24","1","1","3","1","","0","1","0","null","","","<img src = 'targets/16.png' width = '100%;'>","null","","","","","","","","","",""
"","html-keyboard-response","254","602357","0.0-10.0-3.16","26btee9n2n","many_one","0","indirect_first","0","ök06ef23","0","24","1","1","3","1","","0","1","0","941.12000009045","","","<img src = 'targets/mask.png' width = '100%;'>","75","pos","GS","GSold","2","category2/CS7.png","targets/16.png","1","indirect","40",""
"","html-keyboard-response","255","603875","0.0-10.0-0.17","26btee9n2n","many_one","0","indirect_first","0","ök06ef23","0","24","1","1","3","1","","0","1","0","null","","","<div style=""font-size:60px;"">+</div>","null","","","","","","","","","",""
"","html-keyboard-response","256","603972","0.0-10.0-1.17","26btee9n2n","many_one","0","indirect_first","0","ök06ef23","0","24","1","1","3","1","","0","1","0","null","","","<img src = 'category2/GS1.png' width = '100%;'>","null","","","","","","","","","",""
"","html-keyboard-response","257","604245","0.0-10.0-2.17","26btee9n2n","many_one","0","indirect_first","0","ök06ef23","0","24","1","1","3","1","","0","1","0","null","","","<img src = 'targets/9.png' width = '100%;'>","null","","","","","","","","","",""
"","html-keyboard-response","258","604711","0.0-10.0-3.17","26btee9n2n","many_one","0","indirect_first","0","ök06ef23","0","24","1","1","3","1","","0","1","0","463.28500006347895","","","<img src = 'targets/mask.png' width = '100%;'>","68","pos","GS","GSnew","2","category2/GS1.png","targets/9.png","0","indirect","41",""
"","html-keyboard-response","259","606229","0.0-10.0-0.18","26btee9n2n","many_one","0","indirect_first","0","ök06ef23","0","24","1","1","3","1","","0","1","0","null","","","<div style=""font-size:60px;"">+</div>","null","","","","","","","","","",""
"","html-keyboard-response","260","606331","0.0-10.0-1.18","26btee9n2n","many_one","0","indirect_first","0","ök06ef23","0","24","1","1","3","1","","0","1","0","null","","","<img src = 'category4/GS3.png' width = '100%;'>","null","","","","","","","","","",""
"","html-keyboard-response","261","606602","0.0-10.0-2.18","26btee9n2n","many_one","0","indirect_first","0","ök06ef23","0","24","1","1","3","1","","0","1","0","null","","","<img src = 'targets/46.png' width = '100%;'>","null","","","","","","","","","",""
"","html-keyboard-response","262","607244","0.0-10.0-3.18","26btee9n2n","many_one","0","indirect_first","0","ök06ef23","0","24","1","1","3","1","","0","1","0","638.0250002257526","","","<img src = 'targets/mask.png' width = '100%;'>","75","neg","GS","GSnew","4","category4/GS3.png","targets/46.png","1","indirect","42",""
"","html-keyboard-response","263","608756","0.0-10.0-0.19","26btee9n2n","many_one","0","indirect_first","0","ök06ef23","0","24","1","1","3","1","","0","1","0","null","","","<div style=""font-size:60px;"">+</div>","null","","","","","","","","","",""
"","html-keyboard-response","264","608853","0.0-10.0-1.19","26btee9n2n","many_one","0","indirect_first","0","ök06ef23","0","24","1","1","3","1","","0","1","0","null","","","<img src = 'category1/CS3.png' width = '100%;'>","null","","","","","","","","","",""
"","html-keyboard-response","265","609117","0.0-10.0-2.19","26btee9n2n","many_one","0","indirect_first","0","ök06ef23","0","24","1","1","3","1","","0","1","0","null","","","<img src = 'targets/12.png' width = '100%;'>","null","","","","","","","","","",""
"","html-keyboard-response","266","610266","0.0-10.0-3.19","26btee9n2n","many_one","0","indirect_first","0","ök06ef23","0","24","1","1","3","1","","0","1","0","1146.6550002805889","","","<img src = 'targets/mask.png' width = '100%;'>","68","pos","GS","GSold","1","category1/CS3.png","targets/12.png","0","indirect","43",""
"","html-keyboard-response","267","611777","0.0-10.0-0.20","26btee9n2n","many_one","0","indirect_first","0","ök06ef23","0","24","1","1","3","1","","0","1","0","null","","","<div style=""font-size:60px;"">+</div>","null","","","","","","","","","",""
"","html-keyboard-response","268","611882","0.0-10.0-1.20","26btee9n2n","many_one","0","indirect_first","0","ök06ef23","0","24","1","1","3","1","","0","1","0","null","","","<img src = 'category1/CS5.png' width = '100%;'>","null","","","","","","","","","",""
"","html-keyboard-response","269","612161","0.0-10.0-2.20","26btee9n2n","many_one","0","indirect_first","0","ök06ef23","0","24","1","1","3","1","","0","1","0","null","","","<img src = 'targets/11.png' width = '100%;'>","null","","","","","","","","","",""
"","html-keyboard-response","270","612967","0.0-10.0-3.20","26btee9n2n","many_one","0","indirect_first","0","ök06ef23","0","24","1","1","3","1","","0","1","0","804.1650000959635","","","<img src = 'targets/mask.png' width = '100%;'>","75","pos","GS","GSold","1","category1/CS5.png","targets/11.png","1","indirect","44",""
"","html-keyboard-response","271","614486","0.0-10.0-0.21","26btee9n2n","many_one","0","indirect_first","0","ök06ef23","0","24","1","1","3","1","","0","1","0","null","","","<div style=""font-size:60px;"">+</div>","null","","","","","","","","","",""
"","html-keyboard-response","272","614581","0.0-10.0-1.21","26btee9n2n","many_one","0","indirect_first","0","ök06ef23","0","24","1","1","3","1","","0","1","0","null","","","<img src = 'category2/GS2.png' width = '100%;'>","null","","","","","","","","","",""
"","html-keyboard-response","273","614845","0.0-10.0-2.21","26btee9n2n","many_one","0","indirect_first","0","ök06ef23","0","24","1","1","3","1","","0","1","0","null","","","<img src = 'targets/33.png' width = '100%;'>","null","","","","","","","","","",""
"","html-keyboard-response","274","615359","0.0-10.0-3.21","26btee9n2n","many_one","0","indirect_first","0","ök06ef23","0","24","1","1","3","1","","0","1","0","510.07999991998076","","","<img src = 'targets/mask.png' width = '100%;'>","75","pos","GS","GSnew","2","category2/GS2.png","targets/33.png","1","indirect","45",""
"","html-keyboard-response","275","616881","0.0-10.0-0.22","26btee9n2n","many_one","0","indirect_first","0","ök06ef23","0","24","1","1","3","1","","0","1","0","null","","","<div style=""font-size:60px;"">+</div>","null","","","","","","","","","",""
"","html-keyboard-response","276","616985","0.0-10.0-1.22","26btee9n2n","many_one","0","indirect_first","0","ök06ef23","0","24","1","1","3","1","","0","1","0","null","","","<img src = 'category1/ma.png' width = '100%;'>","null","","","","","","","","","",""
"","html-keyboard-response","277","617263","0.0-10.0-2.22","26btee9n2n","many_one","0","indirect_first","0","ök06ef23","0","24","1","1","3","1","","0","1","0","null","","","<img src = 'targets/22.png' width = '100%;'>","null","","","","","","","","","",""
"","html-keyboard-response","278","618928","0.0-10.0-3.22","26btee9n2n","many_one","0","indirect_first","0","ök06ef23","0","24","1","1","3","1","","0","1","0","1662.2800002805889","","","<img src = 'targets/mask.png' width = '100%;'>","75","pos","GS","abstract","1","category1/ma.png","targets/22.png","1","indirect","46",""
"","html-keyboard-response","279","620453","0.0-10.0-0.23","26btee9n2n","many_one","0","indirect_first","0","ök06ef23","0","24","1","1","3","1","","0","1","0","null","","","<div style=""font-size:60px;"">+</div>","null","","","","","","","","","",""
"","html-keyboard-response","280","620550","0.0-10.0-1.23","26btee9n2n","many_one","0","indirect_first","0","ök06ef23","0","24","1","1","3","1","","0","1","0","null","","","<img src = 'category1/GS2.png' width = '100%;'>","null","","","","","","","","","",""
"","html-keyboard-response","281","620817","0.0-10.0-2.23","26btee9n2n","many_one","0","indirect_first","0","ök06ef23","0","24","1","1","3","1","","0","1","0","null","","","<img src = 'targets/13.png' width = '100%;'>","null","","","","","","","","","",""
"","html-keyboard-response","282","621426","0.0-10.0-3.23","26btee9n2n","many_one","0","indirect_first","0","ök06ef23","0","24","1","1","3","1","","0","1","0","606.2650000676513","","","<img src = 'targets/mask.png' width = '100%;'>","68","pos","GS","GSnew","1","category1/GS2.png","targets/13.png","0","indirect","47",""
"","survey-html-form","283","632712","0.0-11.0","26btee9n2n","many_one","0","indirect_first","0","ök06ef23","0","24","1","1","3","1","","0","1","0","10772.899999748915","","{}","","","","","","","","","","","",""
"","image-slider-response","284","645358","0.0-12.0-0.0","26btee9n2n","many_one","0","indirect_first","0","ök06ef23","0","24","1","1","3","1","","0","1","0","10622.305000200868","","","","","pos","GS","GSnew","2","category2/GS1.png","targets/9.png","","direct","","-25"
"","image-slider-response","285","648559","0.0-12.0-0.1","26btee9n2n","many_one","0","indirect_first","0","ök06ef23","0","24","1","1","3","1","","0","1","0","3194.755000062287","","","","","pos","GS","GSold","1","category1/CS8.png","targets/37.png","","direct","","37"
"","image-slider-response","286","651612","0.0-12.0-0.2","26btee9n2n","many_one","0","indirect_first","0","ök06ef23","0","24","1","1","3","1","","0","1","0","3048.544999677688","","","","","neg","GS","abstract","4","category4/lin.png","targets/23.png","","direct","","75"
"","image-slider-response","287","654699","0.0-12.0-0.3","26btee9n2n","many_one","0","indirect_first","0","ök06ef23","0","24","1","1","3","1","","0","1","0","3085.1350002922118","","","","","pos","GS","GSold","2","category2/CS3.png","targets/25.png","","direct","","96"
"","image-slider-response","288","657478","0.0-12.0-0.4","26btee9n2n","many_one","0","indirect_first","0","ök06ef23","0","24","1","1","3","1","","0","1","0","2773.560000117868","","","","","pos","CS","CS","1","category1/CS9.png","targets/43.png","","direct","","74"
"","image-slider-response","289","660748","0.0-12.0-0.5","26btee9n2n","many_one","0","indirect_first","0","ök06ef23","0","24","1","1","3","1","","0","1","0","3265.270000323653","","","","","neg","CS","CS","4","category4/CS10.png","targets/7.png","","direct","","87"
"","image-slider-response","290","663513","0.0-12.0-0.6","26btee9n2n","many_one","0","indirect_first","0","ök06ef23","0","24","1","1","3","1","","0","1","0","2759.7599998116493","","","","","neg","GS","GSold","4","category4/CS2.png","targets/15.png","","direct","","38"
"","image-slider-response","291","666522","0.0-12.0-0.7","26btee9n2n","many_one","0","indirect_first","0","ök06ef23","0","24","1","1","3","1","","0","1","0","3004.1749998927116","","","","","neg","CS","CS","3","category3/CS2.png","targets/4.png","","direct","","-54"
"","image-slider-response","292","669821","0.0-12.0-0.8","26btee9n2n","many_one","0","indirect_first","0","ök06ef23","0","24","1","1","3","1","","0","1","0","3294.294999912381","","","","","pos","GS","GSnew","1","category1/GS2.png","targets/13.png","","direct","","-65"
"","image-slider-response","293","675582","0.0-12.0-0.9","26btee9n2n","many_one","0","indirect_first","0","ök06ef23","0","24","1","1","3","1","","0","1","0","5755.239999853075","","","","","neg","GS","GSold","3","category3/CS4.png","targets/27.png","","direct","","-75"
"","image-slider-response","294","678594","0.0-12.0-0.10","26btee9n2n","many_one","0","indirect_first","0","ök06ef23","0","24","1","1","3","1","","0","1","0","3005.929999984801","","","","","neg","CS","CS","4","category4/CS1.png","targets/48.png","","direct","","58"
"","image-slider-response","295","681085","0.0-12.0-0.11","26btee9n2n","many_one","0","indirect_first","0","ök06ef23","0","24","1","1","3","1","","0","1","0","2487.199999857694","","","","","pos","CS","CS","2","category2/CS2.png","targets/38.png","","direct","","79"
"","image-slider-response","296","683493","0.0-12.0-0.12","26btee9n2n","many_one","0","indirect_first","0","ök06ef23","0","24","1","1","3","1","","0","1","0","2402.5499997660518","","","","","neg","GS","GSnew","4","category4/GS2.png","targets/40.png","","direct","","80"
"","image-slider-response","297","685573","0.0-12.0-0.13","26btee9n2n","many_one","0","indirect_first","0","ök06ef23","0","24","1","1","3","1","","0","1","0","2075.045000296086","","","","","pos","CS","CS","2","category2/CS5.png","targets/44.png","","direct","","29"
"","image-slider-response","298","687777","0.0-12.0-0.14","26btee9n2n","many_one","0","indirect_first","0","ök06ef23","0","24","1","1","3","1","","0","1","0","2198.86999996379","","","","","pos","GS","GSnew","1","category1/GS1.png","targets/10.png","","direct","","-38"
"","image-slider-response","299","690829","0.0-12.0-0.15","26btee9n2n","many_one","0","indirect_first","0","ök06ef23","0","24","1","1","3","1","","0","1","0","3047.0949998125434","","","","","neg","GS","GSnew","4","category4/GS3.png","targets/46.png","","direct","","47"
"","image-slider-response","300","693661","0.0-12.0-0.16","26btee9n2n","many_one","0","indirect_first","0","ök06ef23","0","24","1","1","3","1","","0","1","0","2827.5349996984005","","","","","pos","CS","CS","2","category2/CS4.png","targets/26.png","","direct","","15"
"","image-slider-response","301","695949","0.0-12.0-0.17","26btee9n2n","many_one","0","indirect_first","0","ök06ef23","0","24","1","1","3","1","","0","1","0","2280.745000112802","","","","","pos","GS","GSold","1","category1/CS5.png","targets/11.png","","direct","","-19"
"","image-slider-response","302","699518","0.0-12.0-0.18","26btee9n2n","many_one","0","indirect_first","0","ök06ef23","0","24","1","1","3","1","","0","1","0","3564.789999742061","","","","","pos","GS","GSnew","2","category2/GS3.png","targets/24.png","","direct","","-61"
"","image-slider-response","303","702501","0.0-12.0-0.19","26btee9n2n","many_one","0","indirect_first","0","ök06ef23","0","24","1","1","3","1","","0","1","0","2977.840000297874","","","","","neg","GS","GSnew","3","category3/GS2.png","targets/32.png","","direct","","-79"
"","image-slider-response","304","704663","0.0-12.0-0.20","26btee9n2n","many_one","0","indirect_first","0","ök06ef23","0","24","1","1","3","1","","0","1","0","2156.8049998022616","","","","","pos","GS","GSold","1","category1/CS3.png","targets/12.png","","direct","","-38"
"","image-slider-response","305","706909","0.0-12.0-0.21","26btee9n2n","many_one","0","indirect_first","0","ök06ef23","0","24","1","1","3","1","","0","1","0","2241.9050000607967","","","","","pos","GS","GSold","2","category2/CS7.png","targets/16.png","","direct","","53"
"","image-slider-response","306","710973","0.0-12.0-0.22","26btee9n2n","many_one","0","indirect_first","0","ök06ef23","0","24","1","1","3","1","","0","1","0","4059.774999972433","","","","","pos","CS","CS","1","category1/CS10.png","targets/45.png","","direct","","53"
"","image-slider-response","307","714945","0.0-12.0-0.23","26btee9n2n","many_one","0","indirect_first","0","ök06ef23","0","24","1","1","3","1","","0","1","0","3961.864999961108","","","","","neg","CS","CS","4","category4/CS8.png","targets/47.png","","direct","","-26"
"","image-slider-response","308","717395","0.0-12.0-0.24","26btee9n2n","many_one","0","indirect_first","0","ök06ef23","0","24","1","1","3","1","","0","1","0","2443.855000194162","","","","","pos","GS","GSnew","2","category2/GS2.png","targets/33.png","","direct","","-50"
"","image-slider-response","309","719450","0.0-12.0-0.25","26btee9n2n","many_one","0","indirect_first","0","ök06ef23","0","24","1","1","3","1","","0","1","0","2049.6399998664856","","","","","neg","CS","CS","4","category4/CS4.png","targets/30.png","","direct","","26"
"","image-slider-response","310","723032","0.0-12.0-0.26","26btee9n2n","many_one","0","indirect_first","0","ök06ef23","0","24","1","1","3","1","","0","1","0","3578.1000000424683","","","","","neg","GS","GSold","3","category3/CS1.png","targets/8.png","","direct","","-85"
"","image-slider-response","311","725289","0.0-12.0-0.27","26btee9n2n","many_one","0","indirect_first","0","ök06ef23","0","24","1","1","3","1","","0","1","0","2251.7749997787178","","","","","neg","CS","CS","3","category3/CS10.png","targets/19.png","","direct","","-33"
"","image-slider-response","312","727548","0.0-12.0-0.28","26btee9n2n","many_one","0","indirect_first","0","ök06ef23","0","24","1","1","3","1","","0","1","0","2254.9549997784197","","","","","neg","GS","GSold","4","category4/CS3.png","targets/20.png","","direct","","32"
"","image-slider-response","313","730532","0.0-12.0-0.29","26btee9n2n","many_one","0","indirect_first","0","ök06ef23","0","24","1","1","3","1","","0","1","0","2980.764999985695","","","","","neg","CS","CS","3","category3/CS9.png","targets/17.png","","direct","","-95"
"","image-slider-response","314","736569","0.0-12.0-0.30","26btee9n2n","many_one","0","indirect_first","0","ök06ef23","0","24","1","1","3","1","","0","1","0","6033.354999963194","","","","","pos","CS","CS","2","category2/CS10.png","targets/1.png","","direct","","75"
"","image-slider-response","315","738621","0.0-12.0-0.31","26btee9n2n","many_one","0","indirect_first","0","ök06ef23","0","24","1","1","3","1","","0","1","0","2046.8449997715652","","","","","neg","GS","GSold","4","category4/CS6.png","targets/6.png","","direct","","39"
"","image-slider-response","316","741085","0.0-12.0-0.32","26btee9n2n","many_one","0","indirect_first","0","ök06ef23","0","24","1","1","3","1","","0","1","0","2458.2050000317395","","","","","neg","GS","GSnew","3","category3/GS3.png","targets/2.png","","direct","","-76"
"","image-slider-response","317","743274","0.0-12.0-0.33","26btee9n2n","many_one","0","indirect_first","0","ök06ef23","0","24","1","1","3","1","","0","1","0","2185.194999910891","","","","","pos","GS","GSnew","1","category1/GS3.png","targets/41.png","","direct","","-38"
"","image-slider-response","318","745807","0.0-12.0-0.34","26btee9n2n","many_one","0","indirect_first","0","ök06ef23","0","24","1","1","3","1","","0","1","0","2527.9399999417365","","","","","pos","GS","abstract","2","category2/men.png","targets/3.png","","direct","","-44"
"","image-slider-response","319","748158","0.0-12.0-0.35","26btee9n2n","many_one","0","indirect_first","0","ök06ef23","0","24","1","1","3","1","","0","1","0","2345.0500001199543","","","","","pos","CS","CS","2","category2/CS1.png","targets/42.png","","direct","","32"
"","image-slider-response","320","750800","0.0-12.0-0.36","26btee9n2n","many_one","0","indirect_first","0","ök06ef23","0","24","1","1","3","1","","0","1","0","2637.2249997220933","","","","","pos","GS","abstract","1","category1/ma.png","targets/22.png","","direct","","-25"
"","image-slider-response","321","753031","0.0-12.0-0.37","26btee9n2n","many_one","0","indirect_first","0","ök06ef23","0","24","1","1","3","1","","0","1","0","2226.49999987334","","","","","pos","CS","CS","1","category1/CS2.png","targets/34.png","","direct","","-38"
"","image-slider-response","322","755412","0.0-12.0-0.38","26btee9n2n","many_one","0","indirect_first","0","ök06ef23","0","24","1","1","3","1","","0","1","0","2376.399999950081","","","","","neg","GS","GSnew","3","category3/GS1.png","targets/36.png","","direct","","-63"
"","image-slider-response","323","757315","0.0-12.0-0.39","26btee9n2n","many_one","0","indirect_first","0","ök06ef23","0","24","1","1","3","1","","0","1","0","1897.7250000461936","","","","","neg","CS","CS","4","category4/CS7.png","targets/5.png","","direct","","16"
"","image-slider-response","324","759121","0.0-12.0-0.40","26btee9n2n","many_one","0","indirect_first","0","ök06ef23","0","24","1","1","3","1","","0","1","0","1802.020000293851","","","","","pos","CS","CS","1","category1/CS1.png","targets/18.png","","direct","","-29"
