"success","trial_type","trial_index","time_elapsed","internal_node_id","subject","condition","condition_code","measure","measure_code","codeword","gender","age","education","chinese","fach","handedness","rt","url","responses","stimulus","key_press","val","type","type_specific","category","cs_selected","target","indirect","task","nr_pres","response"
"true","fullscreen","0","2333","0.0-0.0","1er3pb2c9f","one_one","1","indirect_first","0","le06nd15","0","23","1","1","3","1","","","","","","","","","","","","","","",""
"","external-html","1","20503","0.0-1.0","1er3pb2c9f","one_one","1","indirect_first","0","le06nd15","0","23","1","1","3","1","18166","text/information.html","","","","","","","","","","","","",""
"","external-html","2","31879","0.0-2.0","1er3pb2c9f","one_one","1","indirect_first","0","le06nd15","0","23","1","1","3","1","11370","text/consent.html","","","","","","","","","","","","",""
"","survey-html-form","3","60910","0.0-3.0","1er3pb2c9f","one_one","1","indirect_first","0","le06nd15","0","23","1","1","3","1","29030","","{""codeword_enter"":""le06nd15""}","","","","","","","","","","","",""
"","survey-html-form","4","77208","0.0-4.0","1er3pb2c9f","one_one","1","indirect_first","0","le06nd15","0","23","1","1","3","1","16297","","{""age"":""23"",""education"":""1"",""subject"":""3"",""gender"":""0"",""handedness"":""1"",""chinese"":""1""}","","","","","","","","","","","",""
"","survey-html-form","5","86064","0.0-5.0","1er3pb2c9f","one_one","1","indirect_first","0","le06nd15","0","23","1","1","3","1","8853","","{}","","","","","","","","","","","",""
"","html-keyboard-response","6","90085","0.0-6.0-0.0-0.0","1er3pb2c9f","one_one","1","indirect_first","0","le06nd15","0","23","1","1","3","1","null","","","<div class = 'row'><div class = 'column'><img src = 'category1/CS8.png' width = '70%;'></div><div class = 'column'><img src = 'uspos/2165.bmp' width = '100%;'></div></div>","null","pos","CS","CS","1","category1/CS8.png","","","","",""
"","html-keyboard-response","7","92624","0.0-6.0-0.0-0.1","1er3pb2c9f","one_one","1","indirect_first","0","le06nd15","0","23","1","1","3","1","null","","","<div class = 'row'><div class = 'column'><img src = 'category3/CS1.png' width = '70%;'></div><div class = 'column'><img src = 'usneg/9635.2.bmp' width = '100%;'></div></div>","null","neg","CS","CS","3","category3/CS1.png","","","","",""
"","html-keyboard-response","8","95164","0.0-6.0-0.0-0.2","1er3pb2c9f","one_one","1","indirect_first","0","le06nd15","0","23","1","1","3","1","null","","","<div class = 'row'><div class = 'column'><img src = 'uspos/1710.bmp' width = '100%;'></div><div class = 'column'><img src = 'category4/CS2.png' width = '70%;'></div></div>","null","pos","CS","CS","4","category4/CS2.png","","","","",""
"","html-keyboard-response","9","97704","0.0-6.0-0.0-0.3","1er3pb2c9f","one_one","1","indirect_first","0","le06nd15","0","23","1","1","3","1","null","","","<div class = 'row'><div class = 'column'><img src = 'usneg/9635.2.bmp' width = '100%;'></div><div class = 'column'><img src = 'category3/CS1.png' width = '70%;'></div></div>","null","neg","CS","CS","3","category3/CS1.png","","","","",""
"","html-keyboard-response","10","100244","0.0-6.0-0.0-0.4","1er3pb2c9f","one_one","1","indirect_first","0","le06nd15","0","23","1","1","3","1","null","","","<div class = 'row'><div class = 'column'><img src = 'uspos/2165.bmp' width = '100%;'></div><div class = 'column'><img src = 'category1/CS8.png' width = '70%;'></div></div>","null","pos","CS","CS","1","category1/CS8.png","","","","",""
"","html-keyboard-response","11","102783","0.0-6.0-0.0-0.5","1er3pb2c9f","one_one","1","indirect_first","0","le06nd15","0","23","1","1","3","1","null","","","<div class = 'row'><div class = 'column'><img src = 'usneg/9560.bmp' width = '100%;'></div><div class = 'column'><img src = 'category2/CS10.png' width = '70%;'></div></div>","null","neg","CS","CS","2","category2/CS10.png","","","","",""
"","html-keyboard-response","12","105324","0.0-6.0-0.0-0.6","1er3pb2c9f","one_one","1","indirect_first","0","le06nd15","0","23","1","1","3","1","null","","","<div class = 'row'><div class = 'column'><img src = 'usneg/9635.2.bmp' width = '100%;'></div><div class = 'column'><img src = 'category3/CS1.png' width = '70%;'></div></div>","null","neg","CS","CS","3","category3/CS1.png","","","","",""
"","html-keyboard-response","13","107854","0.0-6.0-0.0-0.7","1er3pb2c9f","one_one","1","indirect_first","0","le06nd15","0","23","1","1","3","1","null","","","<div class = 'row'><div class = 'column'><img src = 'uspos/2165.bmp' width = '100%;'></div><div class = 'column'><img src = 'category1/CS8.png' width = '70%;'></div></div>","null","pos","CS","CS","1","category1/CS8.png","","","","",""
"","html-keyboard-response","14","110374","0.0-6.0-0.0-0.8","1er3pb2c9f","one_one","1","indirect_first","0","le06nd15","0","23","1","1","3","1","null","","","<div class = 'row'><div class = 'column'><img src = 'uspos/1710.bmp' width = '100%;'></div><div class = 'column'><img src = 'category4/CS2.png' width = '70%;'></div></div>","null","pos","CS","CS","4","category4/CS2.png","","","","",""
"","html-keyboard-response","15","112893","0.0-6.0-0.0-0.9","1er3pb2c9f","one_one","1","indirect_first","0","le06nd15","0","23","1","1","3","1","null","","","<div class = 'row'><div class = 'column'><img src = 'category2/CS10.png' width = '70%;'></div><div class = 'column'><img src = 'usneg/9560.bmp' width = '100%;'></div></div>","null","neg","CS","CS","2","category2/CS10.png","","","","",""
"","html-keyboard-response","16","115434","0.0-6.0-0.0-0.10","1er3pb2c9f","one_one","1","indirect_first","0","le06nd15","0","23","1","1","3","1","null","","","<div class = 'row'><div class = 'column'><img src = 'category4/CS2.png' width = '70%;'></div><div class = 'column'><img src = 'uspos/1710.bmp' width = '100%;'></div></div>","null","pos","CS","CS","4","category4/CS2.png","","","","",""
"","html-keyboard-response","17","117973","0.0-6.0-0.0-0.11","1er3pb2c9f","one_one","1","indirect_first","0","le06nd15","0","23","1","1","3","1","null","","","<div class = 'row'><div class = 'column'><img src = 'category2/CS10.png' width = '70%;'></div><div class = 'column'><img src = 'usneg/9560.bmp' width = '100%;'></div></div>","null","neg","CS","CS","2","category2/CS10.png","","","","",""
"","html-keyboard-response","18","120513","0.0-6.0-0.0-0.12","1er3pb2c9f","one_one","1","indirect_first","0","le06nd15","0","23","1","1","3","1","null","","","<div class = 'row'><div class = 'column'><img src = 'category1/CS8.png' width = '70%;'></div><div class = 'column'><img src = 'uspos/2165.bmp' width = '100%;'></div></div>","null","pos","CS","CS","1","category1/CS8.png","","","","",""
"","html-keyboard-response","19","123053","0.0-6.0-0.0-0.13","1er3pb2c9f","one_one","1","indirect_first","0","le06nd15","0","23","1","1","3","1","null","","","<div class = 'row'><div class = 'column'><img src = 'category2/CS10.png' width = '70%;'></div><div class = 'column'><img src = 'usneg/9560.bmp' width = '100%;'></div></div>","null","neg","CS","CS","2","category2/CS10.png","","","","",""
"","html-keyboard-response","20","125593","0.0-6.0-0.0-0.14","1er3pb2c9f","one_one","1","indirect_first","0","le06nd15","0","23","1","1","3","1","null","","","<div class = 'row'><div class = 'column'><img src = 'usneg/9635.2.bmp' width = '100%;'></div><div class = 'column'><img src = 'category3/CS1.png' width = '70%;'></div></div>","null","neg","CS","CS","3","category3/CS1.png","","","","",""
"","html-keyboard-response","21","128134","0.0-6.0-0.0-0.15","1er3pb2c9f","one_one","1","indirect_first","0","le06nd15","0","23","1","1","3","1","null","","","<div class = 'row'><div class = 'column'><img src = 'uspos/2165.bmp' width = '100%;'></div><div class = 'column'><img src = 'category1/CS8.png' width = '70%;'></div></div>","null","pos","CS","CS","1","category1/CS8.png","","","","",""
"","html-keyboard-response","22","130673","0.0-6.0-0.0-0.16","1er3pb2c9f","one_one","1","indirect_first","0","le06nd15","0","23","1","1","3","1","null","","","<div class = 'row'><div class = 'column'><img src = 'category2/CS10.png' width = '70%;'></div><div class = 'column'><img src = 'usneg/9560.bmp' width = '100%;'></div></div>","null","neg","CS","CS","2","category2/CS10.png","","","","",""
"","html-keyboard-response","23","133214","0.0-6.0-0.0-0.17","1er3pb2c9f","one_one","1","indirect_first","0","le06nd15","0","23","1","1","3","1","null","","","<div class = 'row'><div class = 'column'><img src = 'category4/CS2.png' width = '70%;'></div><div class = 'column'><img src = 'uspos/1710.bmp' width = '100%;'></div></div>","null","pos","CS","CS","4","category4/CS2.png","","","","",""
"","html-keyboard-response","24","135750","0.0-6.0-0.0-0.18","1er3pb2c9f","one_one","1","indirect_first","0","le06nd15","0","23","1","1","3","1","null","","","<div class = 'row'><div class = 'column'><img src = 'category3/CS1.png' width = '70%;'></div><div class = 'column'><img src = 'usneg/9635.2.bmp' width = '100%;'></div></div>","null","neg","CS","CS","3","category3/CS1.png","","","","",""
"","html-keyboard-response","25","138253","0.0-6.0-0.0-0.19","1er3pb2c9f","one_one","1","indirect_first","0","le06nd15","0","23","1","1","3","1","null","","","<div class = 'row'><div class = 'column'><img src = 'uspos/1710.bmp' width = '100%;'></div><div class = 'column'><img src = 'category4/CS2.png' width = '70%;'></div></div>","null","pos","CS","CS","4","category4/CS2.png","","","","",""
"","survey-html-form","26","141670","0.0-6.0-1.0","1er3pb2c9f","one_one","1","indirect_first","0","le06nd15","0","23","1","1","3","1","2917","","{}","","","","","","","","","","","",""
"","html-keyboard-response","27","145694","0.0-6.0-2.0-0.0","1er3pb2c9f","one_one","1","indirect_first","0","le06nd15","0","23","1","1","3","1","null","","","<div class = 'row'><div class = 'column'><img src = 'category2/CS10.png' width = '70%;'></div><div class = 'column'><img src = 'usneg/9560.bmp' width = '100%;'></div></div>","null","neg","CS","CS","2","category2/CS10.png","","","","",""
"","html-keyboard-response","28","148233","0.0-6.0-2.0-0.1","1er3pb2c9f","one_one","1","indirect_first","0","le06nd15","0","23","1","1","3","1","null","","","<div class = 'row'><div class = 'column'><img src = 'category3/CS1.png' width = '70%;'></div><div class = 'column'><img src = 'usneg/9635.2.bmp' width = '100%;'></div></div>","null","neg","CS","CS","3","category3/CS1.png","","","","",""
"","html-keyboard-response","29","150772","0.0-6.0-2.0-0.2","1er3pb2c9f","one_one","1","indirect_first","0","le06nd15","0","23","1","1","3","1","null","","","<div class = 'row'><div class = 'column'><img src = 'category4/CS2.png' width = '70%;'></div><div class = 'column'><img src = 'uspos/1710.bmp' width = '100%;'></div></div>","null","pos","CS","CS","4","category4/CS2.png","","","","",""
"","html-keyboard-response","30","153313","0.0-6.0-2.0-0.3","1er3pb2c9f","one_one","1","indirect_first","0","le06nd15","0","23","1","1","3","1","null","","","<div class = 'row'><div class = 'column'><img src = 'uspos/2165.bmp' width = '100%;'></div><div class = 'column'><img src = 'category1/CS8.png' width = '70%;'></div></div>","null","pos","CS","CS","1","category1/CS8.png","","","","",""
"","html-keyboard-response","31","155852","0.0-6.0-2.0-0.4","1er3pb2c9f","one_one","1","indirect_first","0","le06nd15","0","23","1","1","3","1","null","","","<div class = 'row'><div class = 'column'><img src = 'category4/CS2.png' width = '70%;'></div><div class = 'column'><img src = 'uspos/1710.bmp' width = '100%;'></div></div>","null","pos","CS","CS","4","category4/CS2.png","","","","",""
"","html-keyboard-response","32","158393","0.0-6.0-2.0-0.5","1er3pb2c9f","one_one","1","indirect_first","0","le06nd15","0","23","1","1","3","1","null","","","<div class = 'row'><div class = 'column'><img src = 'category1/CS8.png' width = '70%;'></div><div class = 'column'><img src = 'uspos/2165.bmp' width = '100%;'></div></div>","null","pos","CS","CS","1","category1/CS8.png","","","","",""
"","html-keyboard-response","33","160933","0.0-6.0-2.0-0.6","1er3pb2c9f","one_one","1","indirect_first","0","le06nd15","0","23","1","1","3","1","null","","","<div class = 'row'><div class = 'column'><img src = 'category4/CS2.png' width = '70%;'></div><div class = 'column'><img src = 'uspos/1710.bmp' width = '100%;'></div></div>","null","pos","CS","CS","4","category4/CS2.png","","","","",""
"","html-keyboard-response","34","163462","0.0-6.0-2.0-0.7","1er3pb2c9f","one_one","1","indirect_first","0","le06nd15","0","23","1","1","3","1","null","","","<div class = 'row'><div class = 'column'><img src = 'usneg/9560.bmp' width = '100%;'></div><div class = 'column'><img src = 'category2/CS10.png' width = '70%;'></div></div>","null","neg","CS","CS","2","category2/CS10.png","","","","",""
"","html-keyboard-response","35","165983","0.0-6.0-2.0-0.8","1er3pb2c9f","one_one","1","indirect_first","0","le06nd15","0","23","1","1","3","1","null","","","<div class = 'row'><div class = 'column'><img src = 'category3/CS1.png' width = '70%;'></div><div class = 'column'><img src = 'usneg/9635.2.bmp' width = '100%;'></div></div>","null","neg","CS","CS","3","category3/CS1.png","","","","",""
"","html-keyboard-response","36","168523","0.0-6.0-2.0-0.9","1er3pb2c9f","one_one","1","indirect_first","0","le06nd15","0","23","1","1","3","1","null","","","<div class = 'row'><div class = 'column'><img src = 'uspos/1710.bmp' width = '100%;'></div><div class = 'column'><img src = 'category4/CS2.png' width = '70%;'></div></div>","null","pos","CS","CS","4","category4/CS2.png","","","","",""
"","html-keyboard-response","37","171063","0.0-6.0-2.0-0.10","1er3pb2c9f","one_one","1","indirect_first","0","le06nd15","0","23","1","1","3","1","null","","","<div class = 'row'><div class = 'column'><img src = 'usneg/9635.2.bmp' width = '100%;'></div><div class = 'column'><img src = 'category3/CS1.png' width = '70%;'></div></div>","null","neg","CS","CS","3","category3/CS1.png","","","","",""
"","html-keyboard-response","38","173592","0.0-6.0-2.0-0.11","1er3pb2c9f","one_one","1","indirect_first","0","le06nd15","0","23","1","1","3","1","null","","","<div class = 'row'><div class = 'column'><img src = 'usneg/9560.bmp' width = '100%;'></div><div class = 'column'><img src = 'category2/CS10.png' width = '70%;'></div></div>","null","neg","CS","CS","2","category2/CS10.png","","","","",""
"","html-keyboard-response","39","176133","0.0-6.0-2.0-0.12","1er3pb2c9f","one_one","1","indirect_first","0","le06nd15","0","23","1","1","3","1","null","","","<div class = 'row'><div class = 'column'><img src = 'uspos/1710.bmp' width = '100%;'></div><div class = 'column'><img src = 'category4/CS2.png' width = '70%;'></div></div>","null","pos","CS","CS","4","category4/CS2.png","","","","",""
"","html-keyboard-response","40","178653","0.0-6.0-2.0-0.13","1er3pb2c9f","one_one","1","indirect_first","0","le06nd15","0","23","1","1","3","1","null","","","<div class = 'row'><div class = 'column'><img src = 'category2/CS10.png' width = '70%;'></div><div class = 'column'><img src = 'usneg/9560.bmp' width = '100%;'></div></div>","null","neg","CS","CS","2","category2/CS10.png","","","","",""
"","html-keyboard-response","41","181193","0.0-6.0-2.0-0.14","1er3pb2c9f","one_one","1","indirect_first","0","le06nd15","0","23","1","1","3","1","null","","","<div class = 'row'><div class = 'column'><img src = 'category1/CS8.png' width = '70%;'></div><div class = 'column'><img src = 'uspos/2165.bmp' width = '100%;'></div></div>","null","pos","CS","CS","1","category1/CS8.png","","","","",""
"","html-keyboard-response","42","183732","0.0-6.0-2.0-0.15","1er3pb2c9f","one_one","1","indirect_first","0","le06nd15","0","23","1","1","3","1","null","","","<div class = 'row'><div class = 'column'><img src = 'usneg/9635.2.bmp' width = '100%;'></div><div class = 'column'><img src = 'category3/CS1.png' width = '70%;'></div></div>","null","neg","CS","CS","3","category3/CS1.png","","","","",""
"","html-keyboard-response","43","186252","0.0-6.0-2.0-0.16","1er3pb2c9f","one_one","1","indirect_first","0","le06nd15","0","23","1","1","3","1","null","","","<div class = 'row'><div class = 'column'><img src = 'category2/CS10.png' width = '70%;'></div><div class = 'column'><img src = 'usneg/9560.bmp' width = '100%;'></div></div>","null","neg","CS","CS","2","category2/CS10.png","","","","",""
"","html-keyboard-response","44","188792","0.0-6.0-2.0-0.17","1er3pb2c9f","one_one","1","indirect_first","0","le06nd15","0","23","1","1","3","1","null","","","<div class = 'row'><div class = 'column'><img src = 'uspos/2165.bmp' width = '100%;'></div><div class = 'column'><img src = 'category1/CS8.png' width = '70%;'></div></div>","null","pos","CS","CS","1","category1/CS8.png","","","","",""
"","html-keyboard-response","45","191323","0.0-6.0-2.0-0.18","1er3pb2c9f","one_one","1","indirect_first","0","le06nd15","0","23","1","1","3","1","null","","","<div class = 'row'><div class = 'column'><img src = 'category3/CS1.png' width = '70%;'></div><div class = 'column'><img src = 'usneg/9635.2.bmp' width = '100%;'></div></div>","null","neg","CS","CS","3","category3/CS1.png","","","","",""
"","html-keyboard-response","46","193863","0.0-6.0-2.0-0.19","1er3pb2c9f","one_one","1","indirect_first","0","le06nd15","0","23","1","1","3","1","null","","","<div class = 'row'><div class = 'column'><img src = 'category1/CS8.png' width = '70%;'></div><div class = 'column'><img src = 'uspos/2165.bmp' width = '100%;'></div></div>","null","pos","CS","CS","1","category1/CS8.png","","","","",""
"","survey-html-form","47","196510","0.0-6.0-3.0","1er3pb2c9f","one_one","1","indirect_first","0","le06nd15","0","23","1","1","3","1","2127","","{}","","","","","","","","","","","",""
"","html-keyboard-response","48","200542","0.0-6.0-4.0-0.0","1er3pb2c9f","one_one","1","indirect_first","0","le06nd15","0","23","1","1","3","1","null","","","<div class = 'row'><div class = 'column'><img src = 'category3/CS1.png' width = '70%;'></div><div class = 'column'><img src = 'usneg/9635.2.bmp' width = '100%;'></div></div>","null","neg","CS","CS","3","category3/CS1.png","","","","",""
"","html-keyboard-response","49","203063","0.0-6.0-4.0-0.1","1er3pb2c9f","one_one","1","indirect_first","0","le06nd15","0","23","1","1","3","1","null","","","<div class = 'row'><div class = 'column'><img src = 'category1/CS8.png' width = '70%;'></div><div class = 'column'><img src = 'uspos/2165.bmp' width = '100%;'></div></div>","null","pos","CS","CS","1","category1/CS8.png","","","","",""
"","html-keyboard-response","50","205603","0.0-6.0-4.0-0.2","1er3pb2c9f","one_one","1","indirect_first","0","le06nd15","0","23","1","1","3","1","null","","","<div class = 'row'><div class = 'column'><img src = 'uspos/1710.bmp' width = '100%;'></div><div class = 'column'><img src = 'category4/CS2.png' width = '70%;'></div></div>","null","pos","CS","CS","4","category4/CS2.png","","","","",""
"","html-keyboard-response","51","208142","0.0-6.0-4.0-0.3","1er3pb2c9f","one_one","1","indirect_first","0","le06nd15","0","23","1","1","3","1","null","","","<div class = 'row'><div class = 'column'><img src = 'usneg/9560.bmp' width = '100%;'></div><div class = 'column'><img src = 'category2/CS10.png' width = '70%;'></div></div>","null","neg","CS","CS","2","category2/CS10.png","","","","",""
"","html-keyboard-response","52","210680","0.0-6.0-4.0-0.4","1er3pb2c9f","one_one","1","indirect_first","0","le06nd15","0","23","1","1","3","1","null","","","<div class = 'row'><div class = 'column'><img src = 'category3/CS1.png' width = '70%;'></div><div class = 'column'><img src = 'usneg/9635.2.bmp' width = '100%;'></div></div>","null","neg","CS","CS","3","category3/CS1.png","","","","",""
"","html-keyboard-response","53","213182","0.0-6.0-4.0-0.5","1er3pb2c9f","one_one","1","indirect_first","0","le06nd15","0","23","1","1","3","1","null","","","<div class = 'row'><div class = 'column'><img src = 'uspos/2165.bmp' width = '100%;'></div><div class = 'column'><img src = 'category1/CS8.png' width = '70%;'></div></div>","null","pos","CS","CS","1","category1/CS8.png","","","","",""
"","html-keyboard-response","54","215722","0.0-6.0-4.0-0.6","1er3pb2c9f","one_one","1","indirect_first","0","le06nd15","0","23","1","1","3","1","null","","","<div class = 'row'><div class = 'column'><img src = 'usneg/9635.2.bmp' width = '100%;'></div><div class = 'column'><img src = 'category3/CS1.png' width = '70%;'></div></div>","null","neg","CS","CS","3","category3/CS1.png","","","","",""
"","html-keyboard-response","55","218262","0.0-6.0-4.0-0.7","1er3pb2c9f","one_one","1","indirect_first","0","le06nd15","0","23","1","1","3","1","null","","","<div class = 'row'><div class = 'column'><img src = 'usneg/9560.bmp' width = '100%;'></div><div class = 'column'><img src = 'category2/CS10.png' width = '70%;'></div></div>","null","neg","CS","CS","2","category2/CS10.png","","","","",""
"","html-keyboard-response","56","220793","0.0-6.0-4.0-0.8","1er3pb2c9f","one_one","1","indirect_first","0","le06nd15","0","23","1","1","3","1","null","","","<div class = 'row'><div class = 'column'><img src = 'category1/CS8.png' width = '70%;'></div><div class = 'column'><img src = 'uspos/2165.bmp' width = '100%;'></div></div>","null","pos","CS","CS","1","category1/CS8.png","","","","",""
"","html-keyboard-response","57","223322","0.0-6.0-4.0-0.9","1er3pb2c9f","one_one","1","indirect_first","0","le06nd15","0","23","1","1","3","1","null","","","<div class = 'row'><div class = 'column'><img src = 'category4/CS2.png' width = '70%;'></div><div class = 'column'><img src = 'uspos/1710.bmp' width = '100%;'></div></div>","null","pos","CS","CS","4","category4/CS2.png","","","","",""
"","html-keyboard-response","58","225842","0.0-6.0-4.0-0.10","1er3pb2c9f","one_one","1","indirect_first","0","le06nd15","0","23","1","1","3","1","null","","","<div class = 'row'><div class = 'column'><img src = 'category3/CS1.png' width = '70%;'></div><div class = 'column'><img src = 'usneg/9635.2.bmp' width = '100%;'></div></div>","null","neg","CS","CS","3","category3/CS1.png","","","","",""
"","html-keyboard-response","59","228383","0.0-6.0-4.0-0.11","1er3pb2c9f","one_one","1","indirect_first","0","le06nd15","0","23","1","1","3","1","null","","","<div class = 'row'><div class = 'column'><img src = 'category1/CS8.png' width = '70%;'></div><div class = 'column'><img src = 'uspos/2165.bmp' width = '100%;'></div></div>","null","pos","CS","CS","1","category1/CS8.png","","","","",""
"","html-keyboard-response","60","230921","0.0-6.0-4.0-0.12","1er3pb2c9f","one_one","1","indirect_first","0","le06nd15","0","23","1","1","3","1","null","","","<div class = 'row'><div class = 'column'><img src = 'uspos/1710.bmp' width = '100%;'></div><div class = 'column'><img src = 'category4/CS2.png' width = '70%;'></div></div>","null","pos","CS","CS","4","category4/CS2.png","","","","",""
"","html-keyboard-response","61","233462","0.0-6.0-4.0-0.13","1er3pb2c9f","one_one","1","indirect_first","0","le06nd15","0","23","1","1","3","1","null","","","<div class = 'row'><div class = 'column'><img src = 'category2/CS10.png' width = '70%;'></div><div class = 'column'><img src = 'usneg/9560.bmp' width = '100%;'></div></div>","null","neg","CS","CS","2","category2/CS10.png","","","","",""
"","html-keyboard-response","62","236002","0.0-6.0-4.0-0.14","1er3pb2c9f","one_one","1","indirect_first","0","le06nd15","0","23","1","1","3","1","null","","","<div class = 'row'><div class = 'column'><img src = 'category4/CS2.png' width = '70%;'></div><div class = 'column'><img src = 'uspos/1710.bmp' width = '100%;'></div></div>","null","pos","CS","CS","4","category4/CS2.png","","","","",""
"","html-keyboard-response","63","238542","0.0-6.0-4.0-0.15","1er3pb2c9f","one_one","1","indirect_first","0","le06nd15","0","23","1","1","3","1","null","","","<div class = 'row'><div class = 'column'><img src = 'category1/CS8.png' width = '70%;'></div><div class = 'column'><img src = 'uspos/2165.bmp' width = '100%;'></div></div>","null","pos","CS","CS","1","category1/CS8.png","","","","",""
"","html-keyboard-response","64","241082","0.0-6.0-4.0-0.16","1er3pb2c9f","one_one","1","indirect_first","0","le06nd15","0","23","1","1","3","1","null","","","<div class = 'row'><div class = 'column'><img src = 'usneg/9560.bmp' width = '100%;'></div><div class = 'column'><img src = 'category2/CS10.png' width = '70%;'></div></div>","null","neg","CS","CS","2","category2/CS10.png","","","","",""
"","html-keyboard-response","65","243621","0.0-6.0-4.0-0.17","1er3pb2c9f","one_one","1","indirect_first","0","le06nd15","0","23","1","1","3","1","null","","","<div class = 'row'><div class = 'column'><img src = 'usneg/9635.2.bmp' width = '100%;'></div><div class = 'column'><img src = 'category3/CS1.png' width = '70%;'></div></div>","null","neg","CS","CS","3","category3/CS1.png","","","","",""
"","html-keyboard-response","66","246151","0.0-6.0-4.0-0.18","1er3pb2c9f","one_one","1","indirect_first","0","le06nd15","0","23","1","1","3","1","null","","","<div class = 'row'><div class = 'column'><img src = 'category4/CS2.png' width = '70%;'></div><div class = 'column'><img src = 'uspos/1710.bmp' width = '100%;'></div></div>","null","pos","CS","CS","4","category4/CS2.png","","","","",""
"","html-keyboard-response","67","248682","0.0-6.0-4.0-0.19","1er3pb2c9f","one_one","1","indirect_first","0","le06nd15","0","23","1","1","3","1","null","","","<div class = 'row'><div class = 'column'><img src = 'usneg/9560.bmp' width = '100%;'></div><div class = 'column'><img src = 'category2/CS10.png' width = '70%;'></div></div>","null","neg","CS","CS","2","category2/CS10.png","","","","",""
"","survey-html-form","68","253805","0.0-6.0-5.0","1er3pb2c9f","one_one","1","indirect_first","0","le06nd15","0","23","1","1","3","1","4602","","{}","","","","","","","","","","","",""
"","html-keyboard-response","69","257842","0.0-6.0-6.0-0.0","1er3pb2c9f","one_one","1","indirect_first","0","le06nd15","0","23","1","1","3","1","null","","","<div class = 'row'><div class = 'column'><img src = 'category3/CS1.png' width = '70%;'></div><div class = 'column'><img src = 'usneg/9635.2.bmp' width = '100%;'></div></div>","null","neg","CS","CS","3","category3/CS1.png","","","","",""
"","html-keyboard-response","70","260381","0.0-6.0-6.0-0.1","1er3pb2c9f","one_one","1","indirect_first","0","le06nd15","0","23","1","1","3","1","null","","","<div class = 'row'><div class = 'column'><img src = 'category4/CS2.png' width = '70%;'></div><div class = 'column'><img src = 'uspos/1710.bmp' width = '100%;'></div></div>","null","pos","CS","CS","4","category4/CS2.png","","","","",""
"","html-keyboard-response","71","262901","0.0-6.0-6.0-0.2","1er3pb2c9f","one_one","1","indirect_first","0","le06nd15","0","23","1","1","3","1","null","","","<div class = 'row'><div class = 'column'><img src = 'usneg/9560.bmp' width = '100%;'></div><div class = 'column'><img src = 'category2/CS10.png' width = '70%;'></div></div>","null","neg","CS","CS","2","category2/CS10.png","","","","",""
"","html-keyboard-response","72","265421","0.0-6.0-6.0-0.3","1er3pb2c9f","one_one","1","indirect_first","0","le06nd15","0","23","1","1","3","1","null","","","<div class = 'row'><div class = 'column'><img src = 'category3/CS1.png' width = '70%;'></div><div class = 'column'><img src = 'usneg/9635.2.bmp' width = '100%;'></div></div>","null","neg","CS","CS","3","category3/CS1.png","","","","",""
"","html-keyboard-response","73","267961","0.0-6.0-6.0-0.4","1er3pb2c9f","one_one","1","indirect_first","0","le06nd15","0","23","1","1","3","1","null","","","<div class = 'row'><div class = 'column'><img src = 'uspos/2165.bmp' width = '100%;'></div><div class = 'column'><img src = 'category1/CS8.png' width = '70%;'></div></div>","null","pos","CS","CS","1","category1/CS8.png","","","","",""
"","html-keyboard-response","74","270502","0.0-6.0-6.0-0.5","1er3pb2c9f","one_one","1","indirect_first","0","le06nd15","0","23","1","1","3","1","null","","","<div class = 'row'><div class = 'column'><img src = 'category3/CS1.png' width = '70%;'></div><div class = 'column'><img src = 'usneg/9635.2.bmp' width = '100%;'></div></div>","null","neg","CS","CS","3","category3/CS1.png","","","","",""
"","html-keyboard-response","75","273041","0.0-6.0-6.0-0.6","1er3pb2c9f","one_one","1","indirect_first","0","le06nd15","0","23","1","1","3","1","null","","","<div class = 'row'><div class = 'column'><img src = 'usneg/9560.bmp' width = '100%;'></div><div class = 'column'><img src = 'category2/CS10.png' width = '70%;'></div></div>","null","neg","CS","CS","2","category2/CS10.png","","","","",""
"","html-keyboard-response","76","275581","0.0-6.0-6.0-0.7","1er3pb2c9f","one_one","1","indirect_first","0","le06nd15","0","23","1","1","3","1","null","","","<div class = 'row'><div class = 'column'><img src = 'uspos/1710.bmp' width = '100%;'></div><div class = 'column'><img src = 'category4/CS2.png' width = '70%;'></div></div>","null","pos","CS","CS","4","category4/CS2.png","","","","",""
"","html-keyboard-response","77","278122","0.0-6.0-6.0-0.8","1er3pb2c9f","one_one","1","indirect_first","0","le06nd15","0","23","1","1","3","1","null","","","<div class = 'row'><div class = 'column'><img src = 'usneg/9560.bmp' width = '100%;'></div><div class = 'column'><img src = 'category2/CS10.png' width = '70%;'></div></div>","null","neg","CS","CS","2","category2/CS10.png","","","","",""
"","html-keyboard-response","78","280659","0.0-6.0-6.0-0.9","1er3pb2c9f","one_one","1","indirect_first","0","le06nd15","0","23","1","1","3","1","null","","","<div class = 'row'><div class = 'column'><img src = 'category3/CS1.png' width = '70%;'></div><div class = 'column'><img src = 'usneg/9635.2.bmp' width = '100%;'></div></div>","null","neg","CS","CS","3","category3/CS1.png","","","","",""
"","html-keyboard-response","79","283161","0.0-6.0-6.0-0.10","1er3pb2c9f","one_one","1","indirect_first","0","le06nd15","0","23","1","1","3","1","null","","","<div class = 'row'><div class = 'column'><img src = 'category1/CS8.png' width = '70%;'></div><div class = 'column'><img src = 'uspos/2165.bmp' width = '100%;'></div></div>","null","pos","CS","CS","1","category1/CS8.png","","","","",""
"","html-keyboard-response","80","285701","0.0-6.0-6.0-0.11","1er3pb2c9f","one_one","1","indirect_first","0","le06nd15","0","23","1","1","3","1","null","","","<div class = 'row'><div class = 'column'><img src = 'uspos/1710.bmp' width = '100%;'></div><div class = 'column'><img src = 'category4/CS2.png' width = '70%;'></div></div>","null","pos","CS","CS","4","category4/CS2.png","","","","",""
"","html-keyboard-response","81","288241","0.0-6.0-6.0-0.12","1er3pb2c9f","one_one","1","indirect_first","0","le06nd15","0","23","1","1","3","1","null","","","<div class = 'row'><div class = 'column'><img src = 'uspos/2165.bmp' width = '100%;'></div><div class = 'column'><img src = 'category1/CS8.png' width = '70%;'></div></div>","null","pos","CS","CS","1","category1/CS8.png","","","","",""
"","html-keyboard-response","82","290781","0.0-6.0-6.0-0.13","1er3pb2c9f","one_one","1","indirect_first","0","le06nd15","0","23","1","1","3","1","null","","","<div class = 'row'><div class = 'column'><img src = 'usneg/9560.bmp' width = '100%;'></div><div class = 'column'><img src = 'category2/CS10.png' width = '70%;'></div></div>","null","neg","CS","CS","2","category2/CS10.png","","","","",""
"","html-keyboard-response","83","293321","0.0-6.0-6.0-0.14","1er3pb2c9f","one_one","1","indirect_first","0","le06nd15","0","23","1","1","3","1","null","","","<div class = 'row'><div class = 'column'><img src = 'uspos/1710.bmp' width = '100%;'></div><div class = 'column'><img src = 'category4/CS2.png' width = '70%;'></div></div>","null","pos","CS","CS","4","category4/CS2.png","","","","",""
"","html-keyboard-response","84","295861","0.0-6.0-6.0-0.15","1er3pb2c9f","one_one","1","indirect_first","0","le06nd15","0","23","1","1","3","1","null","","","<div class = 'row'><div class = 'column'><img src = 'usneg/9635.2.bmp' width = '100%;'></div><div class = 'column'><img src = 'category3/CS1.png' width = '70%;'></div></div>","null","neg","CS","CS","3","category3/CS1.png","","","","",""
"","html-keyboard-response","85","298401","0.0-6.0-6.0-0.16","1er3pb2c9f","one_one","1","indirect_first","0","le06nd15","0","23","1","1","3","1","null","","","<div class = 'row'><div class = 'column'><img src = 'category1/CS8.png' width = '70%;'></div><div class = 'column'><img src = 'uspos/2165.bmp' width = '100%;'></div></div>","null","pos","CS","CS","1","category1/CS8.png","","","","",""
"","html-keyboard-response","86","300940","0.0-6.0-6.0-0.17","1er3pb2c9f","one_one","1","indirect_first","0","le06nd15","0","23","1","1","3","1","null","","","<div class = 'row'><div class = 'column'><img src = 'category4/CS2.png' width = '70%;'></div><div class = 'column'><img src = 'uspos/1710.bmp' width = '100%;'></div></div>","null","pos","CS","CS","4","category4/CS2.png","","","","",""
"","html-keyboard-response","87","303461","0.0-6.0-6.0-0.18","1er3pb2c9f","one_one","1","indirect_first","0","le06nd15","0","23","1","1","3","1","null","","","<div class = 'row'><div class = 'column'><img src = 'usneg/9560.bmp' width = '100%;'></div><div class = 'column'><img src = 'category2/CS10.png' width = '70%;'></div></div>","null","neg","CS","CS","2","category2/CS10.png","","","","",""
"","html-keyboard-response","88","306001","0.0-6.0-6.0-0.19","1er3pb2c9f","one_one","1","indirect_first","0","le06nd15","0","23","1","1","3","1","null","","","<div class = 'row'><div class = 'column'><img src = 'category1/CS8.png' width = '70%;'></div><div class = 'column'><img src = 'uspos/2165.bmp' width = '100%;'></div></div>","null","pos","CS","CS","1","category1/CS8.png","","","","",""
"","html-keyboard-response","89","319237","0.0-7.0","1er3pb2c9f","one_one","1","indirect_first","0","le06nd15","0","23","1","1","3","1","12714","","","<p>Sie sehen nun die chinesischen Zeichen nur ganz kurz, und danach die jeweilige Aussprache der Zeichen. Ihre Aufgabe ist es, für jede Silbe anzugeben, ob diese etwas angenehmes, oder unangenehmes bedeuten könnte. Verlassen Sie sich hier vor allem auf Ihre Intuition.<br><br>Die Zeichen werden nur zur Orientierung dargestellt, beachten Sie sie deshalb nicht. Konzentrieren Sie sich vor allem auf die Silben. <br>Reagieren Sie mit folgenden zwei Tasten: <br><br><b>'D' </b> wenn die Silbe etwas <b>unangenehmes</b> bedeuten könnte. <br><b>'K'</b> wenn die Silbe etwas <b>angenehmes</b> bedeuten könnte. <br><br>Bitte legen Sie nun den Zeigefinger der linken Hand auf die Taste 'D' und den Zeigefinger der rechten Hand auf die Taste 'K'. <br>Reagieren Sie auf jede Silbe so schnell wie möglich. Uns interessiert Ihre spontane Reaktion. <br> <br> <br>Drücken Sie 'D' oder 'K', um die nächste Aufgabe zu starten. </p>","68","","","","","","","","","",""
"","html-keyboard-response","90","322242","0.0-8.0-0.0","1er3pb2c9f","one_one","1","indirect_first","0","le06nd15","0","23","1","1","3","1","null","","","<div style=""font-size:60px;"">+</div>","null","","","","","","","","","",""
"","html-keyboard-response","91","322333","0.0-8.0-1.0","1er3pb2c9f","one_one","1","indirect_first","0","le06nd15","0","23","1","1","3","1","null","","","<img src = 'category2/CS10.png' width = '100%;'>","null","","","","","","","","","",""
"","html-keyboard-response","92","322601","0.0-8.0-2.0","1er3pb2c9f","one_one","1","indirect_first","0","le06nd15","0","23","1","1","3","1","null","","","<img src = 'targets/48.png' width = '100%;'>","null","","","","","","","","","",""
"","html-keyboard-response","93","323309","0.0-8.0-3.0","1er3pb2c9f","one_one","1","indirect_first","0","le06nd15","0","23","1","1","3","1","705","","","<img src = 'targets/mask.png' width = '100%;'>","68","neg","CS","CS","2","category2/CS10.png","targets/48.png","0","indirect","0",""
"","html-keyboard-response","94","324820","0.0-8.0-0.1","1er3pb2c9f","one_one","1","indirect_first","0","le06nd15","0","23","1","1","3","1","null","","","<div style=""font-size:60px;"">+</div>","null","","","","","","","","","",""
"","html-keyboard-response","95","324921","0.0-8.0-1.1","1er3pb2c9f","one_one","1","indirect_first","0","le06nd15","0","23","1","1","3","1","null","","","<img src = 'category2/CS7.png' width = '100%;'>","null","","","","","","","","","",""
"","html-keyboard-response","96","325200","0.0-8.0-2.1","1er3pb2c9f","one_one","1","indirect_first","0","le06nd15","0","23","1","1","3","1","null","","","<img src = 'targets/6.png' width = '100%;'>","null","","","","","","","","","",""
"","html-keyboard-response","97","328581","0.0-8.0-3.1","1er3pb2c9f","one_one","1","indirect_first","0","le06nd15","0","23","1","1","3","1","3379","","","<img src = 'targets/mask.png' width = '100%;'>","68","neg","GS","GSold","2","category2/CS7.png","targets/6.png","0","indirect","1",""
"","html-keyboard-response","98","330121","0.0-8.0-0.2","1er3pb2c9f","one_one","1","indirect_first","0","le06nd15","0","23","1","1","3","1","null","","","<div style=""font-size:60px;"">+</div>","null","","","","","","","","","",""
"","html-keyboard-response","99","330220","0.0-8.0-1.2","1er3pb2c9f","one_one","1","indirect_first","0","le06nd15","0","23","1","1","3","1","null","","","<img src = 'category3/CS7.png' width = '100%;'>","null","","","","","","","","","",""
"","html-keyboard-response","100","330495","0.0-8.0-2.2","1er3pb2c9f","one_one","1","indirect_first","0","le06nd15","0","23","1","1","3","1","null","","","<img src = 'targets/20.png' width = '100%;'>","null","","","","","","","","","",""
"","html-keyboard-response","101","331044","0.0-8.0-3.2","1er3pb2c9f","one_one","1","indirect_first","0","le06nd15","0","23","1","1","3","1","546","","","<img src = 'targets/mask.png' width = '100%;'>","75","neg","GS","GSold","3","category3/CS7.png","targets/20.png","1","indirect","2",""
"","html-keyboard-response","102","332581","0.0-8.0-0.3","1er3pb2c9f","one_one","1","indirect_first","0","le06nd15","0","23","1","1","3","1","null","","","<div style=""font-size:60px;"">+</div>","null","","","","","","","","","",""
"","html-keyboard-response","103","332680","0.0-8.0-1.3","1er3pb2c9f","one_one","1","indirect_first","0","le06nd15","0","23","1","1","3","1","null","","","<img src = 'category3/CS3.png' width = '100%;'>","null","","","","","","","","","",""
"","html-keyboard-response","104","332960","0.0-8.0-2.3","1er3pb2c9f","one_one","1","indirect_first","0","le06nd15","0","23","1","1","3","1","null","","","<img src = 'targets/36.png' width = '100%;'>","null","","","","","","","","","",""
"","html-keyboard-response","105","333549","0.0-8.0-3.3","1er3pb2c9f","one_one","1","indirect_first","0","le06nd15","0","23","1","1","3","1","587","","","<img src = 'targets/mask.png' width = '100%;'>","68","neg","GS","GSold","3","category3/CS3.png","targets/36.png","0","indirect","3",""
"","html-keyboard-response","106","335081","0.0-8.0-0.4","1er3pb2c9f","one_one","1","indirect_first","0","le06nd15","0","23","1","1","3","1","null","","","<div style=""font-size:60px;"">+</div>","null","","","","","","","","","",""
"","html-keyboard-response","107","335180","0.0-8.0-1.4","1er3pb2c9f","one_one","1","indirect_first","0","le06nd15","0","23","1","1","3","1","null","","","<img src = 'category4/CS6.png' width = '100%;'>","null","","","","","","","","","",""
"","html-keyboard-response","108","335460","0.0-8.0-2.4","1er3pb2c9f","one_one","1","indirect_first","0","le06nd15","0","23","1","1","3","1","null","","","<img src = 'targets/45.png' width = '100%;'>","null","","","","","","","","","",""
"","html-keyboard-response","109","336204","0.0-8.0-3.4","1er3pb2c9f","one_one","1","indirect_first","0","le06nd15","0","23","1","1","3","1","743","","","<img src = 'targets/mask.png' width = '100%;'>","75","pos","GS","GSold","4","category4/CS6.png","targets/45.png","1","indirect","4",""
"","html-keyboard-response","110","337720","0.0-8.0-0.5","1er3pb2c9f","one_one","1","indirect_first","0","le06nd15","0","23","1","1","3","1","null","","","<div style=""font-size:60px;"">+</div>","null","","","","","","","","","",""
"","html-keyboard-response","111","337821","0.0-8.0-1.5","1er3pb2c9f","one_one","1","indirect_first","0","le06nd15","0","23","1","1","3","1","null","","","<img src = 'category1/CS9.png' width = '100%;'>","null","","","","","","","","","",""
"","html-keyboard-response","112","338100","0.0-8.0-2.5","1er3pb2c9f","one_one","1","indirect_first","0","le06nd15","0","23","1","1","3","1","null","","","<img src = 'targets/30.png' width = '100%;'>","null","","","","","","","","","",""
"","html-keyboard-response","113","338956","0.0-8.0-3.5","1er3pb2c9f","one_one","1","indirect_first","0","le06nd15","0","23","1","1","3","1","854","","","<img src = 'targets/mask.png' width = '100%;'>","68","pos","GS","GSold","1","category1/CS9.png","targets/30.png","0","indirect","5",""
"","html-keyboard-response","114","340480","0.0-8.0-0.6","1er3pb2c9f","one_one","1","indirect_first","0","le06nd15","0","23","1","1","3","1","null","","","<div style=""font-size:60px;"">+</div>","null","","","","","","","","","",""
"","html-keyboard-response","115","340581","0.0-8.0-1.6","1er3pb2c9f","one_one","1","indirect_first","0","le06nd15","0","23","1","1","3","1","null","","","<img src = 'category3/CS10.png' width = '100%;'>","null","","","","","","","","","",""
"","html-keyboard-response","116","340860","0.0-8.0-2.6","1er3pb2c9f","one_one","1","indirect_first","0","le06nd15","0","23","1","1","3","1","null","","","<img src = 'targets/14.png' width = '100%;'>","null","","","","","","","","","",""
"","html-keyboard-response","117","341532","0.0-8.0-3.6","1er3pb2c9f","one_one","1","indirect_first","0","le06nd15","0","23","1","1","3","1","670","","","<img src = 'targets/mask.png' width = '100%;'>","68","neg","GS","GSold","3","category3/CS10.png","targets/14.png","0","indirect","6",""
"","html-keyboard-response","118","343060","0.0-8.0-0.7","1er3pb2c9f","one_one","1","indirect_first","0","le06nd15","0","23","1","1","3","1","null","","","<div style=""font-size:60px;"">+</div>","null","","","","","","","","","",""
"","html-keyboard-response","119","343161","0.0-8.0-1.7","1er3pb2c9f","one_one","1","indirect_first","0","le06nd15","0","23","1","1","3","1","null","","","<img src = 'category1/CS2.png' width = '100%;'>","null","","","","","","","","","",""
"","html-keyboard-response","120","343441","0.0-8.0-2.7","1er3pb2c9f","one_one","1","indirect_first","0","le06nd15","0","23","1","1","3","1","null","","","<img src = 'targets/4.png' width = '100%;'>","null","","","","","","","","","",""
"","html-keyboard-response","121","343980","0.0-8.0-3.7","1er3pb2c9f","one_one","1","indirect_first","0","le06nd15","0","23","1","1","3","1","538","","","<img src = 'targets/mask.png' width = '100%;'>","68","pos","GS","GSold","1","category1/CS2.png","targets/4.png","0","indirect","7",""
"","html-keyboard-response","122","345520","0.0-8.0-0.8","1er3pb2c9f","one_one","1","indirect_first","0","le06nd15","0","23","1","1","3","1","null","","","<div style=""font-size:60px;"">+</div>","null","","","","","","","","","",""
"","html-keyboard-response","123","345620","0.0-8.0-1.8","1er3pb2c9f","one_one","1","indirect_first","0","le06nd15","0","23","1","1","3","1","null","","","<img src = 'category4/CS3.png' width = '100%;'>","null","","","","","","","","","",""
"","html-keyboard-response","124","345900","0.0-8.0-2.8","1er3pb2c9f","one_one","1","indirect_first","0","le06nd15","0","23","1","1","3","1","null","","","<img src = 'targets/12.png' width = '100%;'>","null","","","","","","","","","",""
"","html-keyboard-response","125","346348","0.0-8.0-3.8","1er3pb2c9f","one_one","1","indirect_first","0","le06nd15","0","23","1","1","3","1","447","","","<img src = 'targets/mask.png' width = '100%;'>","75","pos","GS","GSold","4","category4/CS3.png","targets/12.png","1","indirect","8",""
"","html-keyboard-response","126","347880","0.0-8.0-0.9","1er3pb2c9f","one_one","1","indirect_first","0","le06nd15","0","23","1","1","3","1","null","","","<div style=""font-size:60px;"">+</div>","null","","","","","","","","","",""
"","html-keyboard-response","127","347980","0.0-8.0-1.9","1er3pb2c9f","one_one","1","indirect_first","0","le06nd15","0","23","1","1","3","1","null","","","<img src = 'category3/CS1.png' width = '100%;'>","null","","","","","","","","","",""
"","html-keyboard-response","128","348261","0.0-8.0-2.9","1er3pb2c9f","one_one","1","indirect_first","0","le06nd15","0","23","1","1","3","1","null","","","<img src = 'targets/18.png' width = '100%;'>","null","","","","","","","","","",""
"","html-keyboard-response","129","348716","0.0-8.0-3.9","1er3pb2c9f","one_one","1","indirect_first","0","le06nd15","0","23","1","1","3","1","453","","","<img src = 'targets/mask.png' width = '100%;'>","75","neg","CS","CS","3","category3/CS1.png","targets/18.png","1","indirect","9",""
"","html-keyboard-response","130","350239","0.0-8.0-0.10","1er3pb2c9f","one_one","1","indirect_first","0","le06nd15","0","23","1","1","3","1","null","","","<div style=""font-size:60px;"">+</div>","null","","","","","","","","","",""
"","html-keyboard-response","131","350340","0.0-8.0-1.10","1er3pb2c9f","one_one","1","indirect_first","0","le06nd15","0","23","1","1","3","1","null","","","<img src = 'category2/CS5.png' width = '100%;'>","null","","","","","","","","","",""
"","html-keyboard-response","132","350620","0.0-8.0-2.10","1er3pb2c9f","one_one","1","indirect_first","0","le06nd15","0","23","1","1","3","1","null","","","<img src = 'targets/44.png' width = '100%;'>","null","","","","","","","","","",""
"","html-keyboard-response","133","351596","0.0-8.0-3.10","1er3pb2c9f","one_one","1","indirect_first","0","le06nd15","0","23","1","1","3","1","975","","","<img src = 'targets/mask.png' width = '100%;'>","68","neg","GS","GSold","2","category2/CS5.png","targets/44.png","0","indirect","10",""
"","html-keyboard-response","134","353121","0.0-8.0-0.11","1er3pb2c9f","one_one","1","indirect_first","0","le06nd15","0","23","1","1","3","1","null","","","<div style=""font-size:60px;"">+</div>","null","","","","","","","","","",""
"","html-keyboard-response","135","353221","0.0-8.0-1.11","1er3pb2c9f","one_one","1","indirect_first","0","le06nd15","0","23","1","1","3","1","null","","","<img src = 'category4/CS2.png' width = '100%;'>","null","","","","","","","","","",""
"","html-keyboard-response","136","353501","0.0-8.0-2.11","1er3pb2c9f","one_one","1","indirect_first","0","le06nd15","0","23","1","1","3","1","null","","","<img src = 'targets/43.png' width = '100%;'>","null","","","","","","","","","",""
"","html-keyboard-response","137","354003","0.0-8.0-3.11","1er3pb2c9f","one_one","1","indirect_first","0","le06nd15","0","23","1","1","3","1","502","","","<img src = 'targets/mask.png' width = '100%;'>","75","pos","CS","CS","4","category4/CS2.png","targets/43.png","1","indirect","11",""
"","html-keyboard-response","138","355540","0.0-8.0-0.12","1er3pb2c9f","one_one","1","indirect_first","0","le06nd15","0","23","1","1","3","1","null","","","<div style=""font-size:60px;"">+</div>","null","","","","","","","","","",""
"","html-keyboard-response","139","355640","0.0-8.0-1.12","1er3pb2c9f","one_one","1","indirect_first","0","le06nd15","0","23","1","1","3","1","null","","","<img src = 'category2/CS1.png' width = '100%;'>","null","","","","","","","","","",""
"","html-keyboard-response","140","355900","0.0-8.0-2.12","1er3pb2c9f","one_one","1","indirect_first","0","le06nd15","0","23","1","1","3","1","null","","","<img src = 'targets/46.png' width = '100%;'>","null","","","","","","","","","",""
"","html-keyboard-response","141","356420","0.0-8.0-3.12","1er3pb2c9f","one_one","1","indirect_first","0","le06nd15","0","23","1","1","3","1","519","","","<img src = 'targets/mask.png' width = '100%;'>","68","neg","GS","GSold","2","category2/CS1.png","targets/46.png","0","indirect","12",""
"","html-keyboard-response","142","357960","0.0-8.0-0.13","1er3pb2c9f","one_one","1","indirect_first","0","le06nd15","0","23","1","1","3","1","null","","","<div style=""font-size:60px;"">+</div>","null","","","","","","","","","",""
"","html-keyboard-response","143","358060","0.0-8.0-1.13","1er3pb2c9f","one_one","1","indirect_first","0","le06nd15","0","23","1","1","3","1","null","","","<img src = 'category1/CS7.png' width = '100%;'>","null","","","","","","","","","",""
"","html-keyboard-response","144","358340","0.0-8.0-2.13","1er3pb2c9f","one_one","1","indirect_first","0","le06nd15","0","23","1","1","3","1","null","","","<img src = 'targets/3.png' width = '100%;'>","null","","","","","","","","","",""
"","html-keyboard-response","145","358843","0.0-8.0-3.13","1er3pb2c9f","one_one","1","indirect_first","0","le06nd15","0","23","1","1","3","1","502","","","<img src = 'targets/mask.png' width = '100%;'>","68","pos","GS","GSold","1","category1/CS7.png","targets/3.png","0","indirect","13",""
"","html-keyboard-response","146","360380","0.0-8.0-0.14","1er3pb2c9f","one_one","1","indirect_first","0","le06nd15","0","23","1","1","3","1","null","","","<div style=""font-size:60px;"">+</div>","null","","","","","","","","","",""
"","html-keyboard-response","147","360480","0.0-8.0-1.14","1er3pb2c9f","one_one","1","indirect_first","0","le06nd15","0","23","1","1","3","1","null","","","<img src = 'category4/CS4.png' width = '100%;'>","null","","","","","","","","","",""
"","html-keyboard-response","148","360760","0.0-8.0-2.14","1er3pb2c9f","one_one","1","indirect_first","0","le06nd15","0","23","1","1","3","1","null","","","<img src = 'targets/47.png' width = '100%;'>","null","","","","","","","","","",""
"","html-keyboard-response","149","361332","0.0-8.0-3.14","1er3pb2c9f","one_one","1","indirect_first","0","le06nd15","0","23","1","1","3","1","571","","","<img src = 'targets/mask.png' width = '100%;'>","75","pos","GS","GSold","4","category4/CS4.png","targets/47.png","1","indirect","14",""
"","html-keyboard-response","150","362859","0.0-8.0-0.15","1er3pb2c9f","one_one","1","indirect_first","0","le06nd15","0","23","1","1","3","1","null","","","<div style=""font-size:60px;"">+</div>","null","","","","","","","","","",""
"","html-keyboard-response","151","362960","0.0-8.0-1.15","1er3pb2c9f","one_one","1","indirect_first","0","le06nd15","0","23","1","1","3","1","null","","","<img src = 'category1/CS8.png' width = '100%;'>","null","","","","","","","","","",""
"","html-keyboard-response","152","363240","0.0-8.0-2.15","1er3pb2c9f","one_one","1","indirect_first","0","le06nd15","0","23","1","1","3","1","null","","","<img src = 'targets/27.png' width = '100%;'>","null","","","","","","","","","",""
"","html-keyboard-response","153","363715","0.0-8.0-3.15","1er3pb2c9f","one_one","1","indirect_first","0","le06nd15","0","23","1","1","3","1","475","","","<img src = 'targets/mask.png' width = '100%;'>","68","pos","CS","CS","1","category1/CS8.png","targets/27.png","0","indirect","15",""
"","survey-html-form","154","367003","0.0-9.0","1er3pb2c9f","one_one","1","indirect_first","0","le06nd15","0","23","1","1","3","1","2783","","{}","","","","","","","","","","","",""
"","html-keyboard-response","155","370040","0.0-10.0-0.0","1er3pb2c9f","one_one","1","indirect_first","0","le06nd15","0","23","1","1","3","1","null","","","<div style=""font-size:60px;"">+</div>","null","","","","","","","","","",""
"","html-keyboard-response","156","370140","0.0-10.0-1.0","1er3pb2c9f","one_one","1","indirect_first","0","le06nd15","0","23","1","1","3","1","null","","","<img src = 'category2/GS3.png' width = '100%;'>","null","","","","","","","","","",""
"","html-keyboard-response","157","370420","0.0-10.0-2.0","1er3pb2c9f","one_one","1","indirect_first","0","le06nd15","0","23","1","1","3","1","null","","","<img src = 'targets/41.png' width = '100%;'>","null","","","","","","","","","",""
"","html-keyboard-response","158","370908","0.0-10.0-3.0","1er3pb2c9f","one_one","1","indirect_first","0","le06nd15","0","23","1","1","3","1","486","","","<img src = 'targets/mask.png' width = '100%;'>","68","neg","GS","GSnew","2","category2/GS3.png","targets/41.png","0","indirect","16",""
"","html-keyboard-response","159","372440","0.0-10.0-0.1","1er3pb2c9f","one_one","1","indirect_first","0","le06nd15","0","23","1","1","3","1","null","","","<div style=""font-size:60px;"">+</div>","null","","","","","","","","","",""
"","html-keyboard-response","160","372540","0.0-10.0-1.1","1er3pb2c9f","one_one","1","indirect_first","0","le06nd15","0","23","1","1","3","1","null","","","<img src = 'category2/men.png' width = '100%;'>","null","","","","","","","","","",""
"","html-keyboard-response","161","372820","0.0-10.0-2.1","1er3pb2c9f","one_one","1","indirect_first","0","le06nd15","0","23","1","1","3","1","null","","","<img src = 'targets/19.png' width = '100%;'>","null","","","","","","","","","",""
"","html-keyboard-response","162","373180","0.0-10.0-3.1","1er3pb2c9f","one_one","1","indirect_first","0","le06nd15","0","23","1","1","3","1","357","","","<img src = 'targets/mask.png' width = '100%;'>","75","neg","GS","abstract","2","category2/men.png","targets/19.png","1","indirect","17",""
"","html-keyboard-response","163","374720","0.0-10.0-0.2","1er3pb2c9f","one_one","1","indirect_first","0","le06nd15","0","23","1","1","3","1","null","","","<div style=""font-size:60px;"">+</div>","null","","","","","","","","","",""
"","html-keyboard-response","164","374820","0.0-10.0-1.2","1er3pb2c9f","one_one","1","indirect_first","0","le06nd15","0","23","1","1","3","1","null","","","<img src = 'category2/GS2.png' width = '100%;'>","null","","","","","","","","","",""
"","html-keyboard-response","165","375100","0.0-10.0-2.2","1er3pb2c9f","one_one","1","indirect_first","0","le06nd15","0","23","1","1","3","1","null","","","<img src = 'targets/17.png' width = '100%;'>","null","","","","","","","","","",""
"","html-keyboard-response","166","375380","0.0-10.0-3.2","1er3pb2c9f","one_one","1","indirect_first","0","le06nd15","0","23","1","1","3","1","279","","","<img src = 'targets/mask.png' width = '100%;'>","68","neg","GS","GSnew","2","category2/GS2.png","targets/17.png","0","indirect","18",""
"","html-keyboard-response","167","376919","0.0-10.0-0.3","1er3pb2c9f","one_one","1","indirect_first","0","le06nd15","0","23","1","1","3","1","null","","","<div style=""font-size:60px;"">+</div>","null","","","","","","","","","",""
"","html-keyboard-response","168","377020","0.0-10.0-1.3","1er3pb2c9f","one_one","1","indirect_first","0","le06nd15","0","23","1","1","3","1","null","","","<img src = 'category1/GS2.png' width = '100%;'>","null","","","","","","","","","",""
"","html-keyboard-response","169","377300","0.0-10.0-2.3","1er3pb2c9f","one_one","1","indirect_first","0","le06nd15","0","23","1","1","3","1","null","","","<img src = 'targets/32.png' width = '100%;'>","null","","","","","","","","","",""
"","html-keyboard-response","170","378515","0.0-10.0-3.3","1er3pb2c9f","one_one","1","indirect_first","0","le06nd15","0","23","1","1","3","1","1215","","","<img src = 'targets/mask.png' width = '100%;'>","68","pos","GS","GSnew","1","category1/GS2.png","targets/32.png","0","indirect","19",""
"","html-keyboard-response","171","380039","0.0-10.0-0.4","1er3pb2c9f","one_one","1","indirect_first","0","le06nd15","0","23","1","1","3","1","null","","","<div style=""font-size:60px;"">+</div>","null","","","","","","","","","",""
"","html-keyboard-response","172","380140","0.0-10.0-1.4","1er3pb2c9f","one_one","1","indirect_first","0","le06nd15","0","23","1","1","3","1","null","","","<img src = 'category1/ma.png' width = '100%;'>","null","","","","","","","","","",""
"","html-keyboard-response","173","380418","0.0-10.0-2.4","1er3pb2c9f","one_one","1","indirect_first","0","le06nd15","0","23","1","1","3","1","null","","","<img src = 'targets/23.png' width = '100%;'>","null","","","","","","","","","",""
"","html-keyboard-response","174","380811","0.0-10.0-3.4","1er3pb2c9f","one_one","1","indirect_first","0","le06nd15","0","23","1","1","3","1","392","","","<img src = 'targets/mask.png' width = '100%;'>","75","pos","GS","abstract","1","category1/ma.png","targets/23.png","1","indirect","20",""
"","html-keyboard-response","175","382339","0.0-10.0-0.5","1er3pb2c9f","one_one","1","indirect_first","0","le06nd15","0","23","1","1","3","1","null","","","<div style=""font-size:60px;"">+</div>","null","","","","","","","","","",""
"","html-keyboard-response","176","382440","0.0-10.0-1.5","1er3pb2c9f","one_one","1","indirect_first","0","le06nd15","0","23","1","1","3","1","null","","","<img src = 'category3/GS1.png' width = '100%;'>","null","","","","","","","","","",""
"","html-keyboard-response","177","382720","0.0-10.0-2.5","1er3pb2c9f","one_one","1","indirect_first","0","le06nd15","0","23","1","1","3","1","null","","","<img src = 'targets/31.png' width = '100%;'>","null","","","","","","","","","",""
"","html-keyboard-response","178","383131","0.0-10.0-3.5","1er3pb2c9f","one_one","1","indirect_first","0","le06nd15","0","23","1","1","3","1","410","","","<img src = 'targets/mask.png' width = '100%;'>","68","neg","GS","GSnew","3","category3/GS1.png","targets/31.png","0","indirect","21",""
"","html-keyboard-response","179","384640","0.0-10.0-0.6","1er3pb2c9f","one_one","1","indirect_first","0","le06nd15","0","23","1","1","3","1","null","","","<div style=""font-size:60px;"">+</div>","null","","","","","","","","","",""
"","html-keyboard-response","180","384739","0.0-10.0-1.6","1er3pb2c9f","one_one","1","indirect_first","0","le06nd15","0","23","1","1","3","1","null","","","<img src = 'category3/GS2.png' width = '100%;'>","null","","","","","","","","","",""
"","html-keyboard-response","181","385020","0.0-10.0-2.6","1er3pb2c9f","one_one","1","indirect_first","0","le06nd15","0","23","1","1","3","1","null","","","<img src = 'targets/5.png' width = '100%;'>","null","","","","","","","","","",""
"","html-keyboard-response","182","385411","0.0-10.0-3.6","1er3pb2c9f","one_one","1","indirect_first","0","le06nd15","0","23","1","1","3","1","391","","","<img src = 'targets/mask.png' width = '100%;'>","68","neg","GS","GSnew","3","category3/GS2.png","targets/5.png","0","indirect","22",""
"","html-keyboard-response","183","386919","0.0-10.0-0.7","1er3pb2c9f","one_one","1","indirect_first","0","le06nd15","0","23","1","1","3","1","null","","","<div style=""font-size:60px;"">+</div>","null","","","","","","","","","",""
"","html-keyboard-response","184","387020","0.0-10.0-1.7","1er3pb2c9f","one_one","1","indirect_first","0","le06nd15","0","23","1","1","3","1","null","","","<img src = 'category1/GS1.png' width = '100%;'>","null","","","","","","","","","",""
"","html-keyboard-response","185","387300","0.0-10.0-2.7","1er3pb2c9f","one_one","1","indirect_first","0","le06nd15","0","23","1","1","3","1","null","","","<img src = 'targets/35.png' width = '100%;'>","null","","","","","","","","","",""
"","html-keyboard-response","186","387571","0.0-10.0-3.7","1er3pb2c9f","one_one","1","indirect_first","0","le06nd15","0","23","1","1","3","1","270","","","<img src = 'targets/mask.png' width = '100%;'>","75","pos","GS","GSnew","1","category1/GS1.png","targets/35.png","1","indirect","23",""
"","html-keyboard-response","187","389100","0.0-10.0-0.8","1er3pb2c9f","one_one","1","indirect_first","0","le06nd15","0","23","1","1","3","1","null","","","<div style=""font-size:60px;"">+</div>","null","","","","","","","","","",""
"","html-keyboard-response","188","389200","0.0-10.0-1.8","1er3pb2c9f","one_one","1","indirect_first","0","le06nd15","0","23","1","1","3","1","null","","","<img src = 'category4/GS3.png' width = '100%;'>","null","","","","","","","","","",""
"","html-keyboard-response","189","389480","0.0-10.0-2.8","1er3pb2c9f","one_one","1","indirect_first","0","le06nd15","0","23","1","1","3","1","null","","","<img src = 'targets/15.png' width = '100%;'>","null","","","","","","","","","",""
"","html-keyboard-response","190","389740","0.0-10.0-3.8","1er3pb2c9f","one_one","1","indirect_first","0","le06nd15","0","23","1","1","3","1","258","","","<img src = 'targets/mask.png' width = '100%;'>","68","pos","GS","GSnew","4","category4/GS3.png","targets/15.png","0","indirect","24",""
"","html-keyboard-response","191","391258","0.0-10.0-0.9","1er3pb2c9f","one_one","1","indirect_first","0","le06nd15","0","23","1","1","3","1","null","","","<div style=""font-size:60px;"">+</div>","null","","","","","","","","","",""
"","html-keyboard-response","192","391350","0.0-10.0-1.9","1er3pb2c9f","one_one","1","indirect_first","0","le06nd15","0","23","1","1","3","1","null","","","<img src = 'category2/GS1.png' width = '100%;'>","null","","","","","","","","","",""
"","html-keyboard-response","193","391620","0.0-10.0-2.9","1er3pb2c9f","one_one","1","indirect_first","0","le06nd15","0","23","1","1","3","1","null","","","<img src = 'targets/29.png' width = '100%;'>","null","","","","","","","","","",""
"","html-keyboard-response","194","391683","0.0-10.0-3.9","1er3pb2c9f","one_one","1","indirect_first","0","le06nd15","0","23","1","1","3","1","63","","","<img src = 'targets/mask.png' width = '100%;'>","75","neg","GS","GSnew","2","category2/GS1.png","targets/29.png","1","indirect","25",""
"","html-keyboard-response","195","393200","0.0-10.0-0.10","1er3pb2c9f","one_one","1","indirect_first","0","le06nd15","0","23","1","1","3","1","null","","","<div style=""font-size:60px;"">+</div>","null","","","","","","","","","",""
"","html-keyboard-response","196","393300","0.0-10.0-1.10","1er3pb2c9f","one_one","1","indirect_first","0","le06nd15","0","23","1","1","3","1","null","","","<img src = 'category4/GS2.png' width = '100%;'>","null","","","","","","","","","",""
"","html-keyboard-response","197","393579","0.0-10.0-2.10","1er3pb2c9f","one_one","1","indirect_first","0","le06nd15","0","23","1","1","3","1","null","","","<img src = 'targets/28.png' width = '100%;'>","null","","","","","","","","","",""
"","html-keyboard-response","198","393796","0.0-10.0-3.10","1er3pb2c9f","one_one","1","indirect_first","0","le06nd15","0","23","1","1","3","1","214","","","<img src = 'targets/mask.png' width = '100%;'>","68","pos","GS","GSnew","4","category4/GS2.png","targets/28.png","0","indirect","26",""
"","html-keyboard-response","199","395319","0.0-10.0-0.11","1er3pb2c9f","one_one","1","indirect_first","0","le06nd15","0","23","1","1","3","1","null","","","<div style=""font-size:60px;"">+</div>","null","","","","","","","","","",""
"","html-keyboard-response","200","395419","0.0-10.0-1.11","1er3pb2c9f","one_one","1","indirect_first","0","le06nd15","0","23","1","1","3","1","null","","","<img src = 'category3/wang.png' width = '100%;'>","null","","","","","","","","","",""
"","html-keyboard-response","201","395700","0.0-10.0-2.11","1er3pb2c9f","one_one","1","indirect_first","0","le06nd15","0","23","1","1","3","1","null","","","<img src = 'targets/16.png' width = '100%;'>","null","","","","","","","","","",""
"","html-keyboard-response","202","398323","0.0-10.0-3.11","1er3pb2c9f","one_one","1","indirect_first","0","le06nd15","0","23","1","1","3","1","2623","","","<img src = 'targets/mask.png' width = '100%;'>","68","neg","GS","abstract","3","category3/wang.png","targets/16.png","0","indirect","27",""
"","html-keyboard-response","203","399859","0.0-10.0-0.12","1er3pb2c9f","one_one","1","indirect_first","0","le06nd15","0","23","1","1","3","1","null","","","<div style=""font-size:60px;"">+</div>","null","","","","","","","","","",""
"","html-keyboard-response","204","399959","0.0-10.0-1.12","1er3pb2c9f","one_one","1","indirect_first","0","le06nd15","0","23","1","1","3","1","null","","","<img src = 'category3/GS3.png' width = '100%;'>","null","","","","","","","","","",""
"","html-keyboard-response","205","400220","0.0-10.0-2.12","1er3pb2c9f","one_one","1","indirect_first","0","le06nd15","0","23","1","1","3","1","null","","","<img src = 'targets/38.png' width = '100%;'>","null","","","","","","","","","",""
"","html-keyboard-response","206","401995","0.0-10.0-3.12","1er3pb2c9f","one_one","1","indirect_first","0","le06nd15","0","23","1","1","3","1","1775","","","<img src = 'targets/mask.png' width = '100%;'>","68","neg","GS","GSnew","3","category3/GS3.png","targets/38.png","0","indirect","28",""
"","html-keyboard-response","207","403500","0.0-10.0-0.13","1er3pb2c9f","one_one","1","indirect_first","0","le06nd15","0","23","1","1","3","1","null","","","<div style=""font-size:60px;"">+</div>","null","","","","","","","","","",""
"","html-keyboard-response","208","403599","0.0-10.0-1.13","1er3pb2c9f","one_one","1","indirect_first","0","le06nd15","0","23","1","1","3","1","null","","","<img src = 'category4/lin.png' width = '100%;'>","null","","","","","","","","","",""
"","html-keyboard-response","209","403879","0.0-10.0-2.13","1er3pb2c9f","one_one","1","indirect_first","0","le06nd15","0","23","1","1","3","1","null","","","<img src = 'targets/1.png' width = '100%;'>","null","","","","","","","","","",""
"","html-keyboard-response","210","404011","0.0-10.0-3.13","1er3pb2c9f","one_one","1","indirect_first","0","le06nd15","0","23","1","1","3","1","131","","","<img src = 'targets/mask.png' width = '100%;'>","75","pos","GS","abstract","4","category4/lin.png","targets/1.png","1","indirect","29",""
"","html-keyboard-response","211","405539","0.0-10.0-0.14","1er3pb2c9f","one_one","1","indirect_first","0","le06nd15","0","23","1","1","3","1","null","","","<div style=""font-size:60px;"">+</div>","null","","","","","","","","","",""
"","html-keyboard-response","212","405639","0.0-10.0-1.14","1er3pb2c9f","one_one","1","indirect_first","0","le06nd15","0","23","1","1","3","1","null","","","<img src = 'category1/GS3.png' width = '100%;'>","null","","","","","","","","","",""
"","html-keyboard-response","213","405920","0.0-10.0-2.14","1er3pb2c9f","one_one","1","indirect_first","0","le06nd15","0","23","1","1","3","1","null","","","<img src = 'targets/34.png' width = '100%;'>","null","","","","","","","","","",""
"","html-keyboard-response","214","406042","0.0-10.0-3.14","1er3pb2c9f","one_one","1","indirect_first","0","le06nd15","0","23","1","1","3","1","121","","","<img src = 'targets/mask.png' width = '100%;'>","68","pos","GS","GSnew","1","category1/GS3.png","targets/34.png","0","indirect","30",""
"","html-keyboard-response","215","407569","0.0-10.0-0.15","1er3pb2c9f","one_one","1","indirect_first","0","le06nd15","0","23","1","1","3","1","null","","","<div style=""font-size:60px;"">+</div>","null","","","","","","","","","",""
"","html-keyboard-response","216","407670","0.0-10.0-1.15","1er3pb2c9f","one_one","1","indirect_first","0","le06nd15","0","23","1","1","3","1","null","","","<img src = 'category4/GS1.png' width = '100%;'>","null","","","","","","","","","",""
"","html-keyboard-response","217","407950","0.0-10.0-2.15","1er3pb2c9f","one_one","1","indirect_first","0","le06nd15","0","23","1","1","3","1","null","","","<img src = 'targets/26.png' width = '100%;'>","null","","","","","","","","","",""
"","html-keyboard-response","218","409451","0.0-10.0-3.15","1er3pb2c9f","one_one","1","indirect_first","0","le06nd15","0","23","1","1","3","1","1500","","","<img src = 'targets/mask.png' width = '100%;'>","75","pos","GS","GSnew","4","category4/GS1.png","targets/26.png","1","indirect","31",""
"","survey-html-form","219","414754","0.0-11.0","1er3pb2c9f","one_one","1","indirect_first","0","le06nd15","0","23","1","1","3","1","4796","","{}","","","","","","","","","","","",""
"","image-slider-response","220","419937","0.0-12.0-0.0","1er3pb2c9f","one_one","1","indirect_first","0","le06nd15","0","23","1","1","3","1","3160","","","","","pos","GS","GSnew","1","category1/GS1.png","targets/35.png","","direct","","-39"
"","image-slider-response","221","423817","0.0-12.0-0.1","1er3pb2c9f","one_one","1","indirect_first","0","le06nd15","0","23","1","1","3","1","3879","","","","","neg","GS","GSold","3","category3/CS3.png","targets/36.png","","direct","","-94"
"","image-slider-response","222","426330","0.0-12.0-0.2","1er3pb2c9f","one_one","1","indirect_first","0","le06nd15","0","23","1","1","3","1","2511","","","","","neg","GS","GSnew","3","category3/GS3.png","targets/38.png","","direct","","-15"
"","image-slider-response","223","429121","0.0-12.0-0.3","1er3pb2c9f","one_one","1","indirect_first","0","le06nd15","0","23","1","1","3","1","2791","","","","","neg","GS","GSold","3","category3/CS10.png","targets/14.png","","direct","","-65"
"","image-slider-response","224","431082","0.0-12.0-0.4","1er3pb2c9f","one_one","1","indirect_first","0","le06nd15","0","23","1","1","3","1","1960","","","","","neg","GS","GSnew","2","category2/GS3.png","targets/41.png","","direct","","31"
"","image-slider-response","225","433874","0.0-12.0-0.5","1er3pb2c9f","one_one","1","indirect_first","0","le06nd15","0","23","1","1","3","1","2791","","","","","pos","GS","GSnew","4","category4/GS3.png","targets/15.png","","direct","","-30"
"","image-slider-response","226","437409","0.0-12.0-0.6","1er3pb2c9f","one_one","1","indirect_first","0","le06nd15","0","23","1","1","3","1","3535","","","","","neg","GS","GSold","2","category2/CS1.png","targets/46.png","","direct","","-5"
"","image-slider-response","227","440769","0.0-12.0-0.7","1er3pb2c9f","one_one","1","indirect_first","0","le06nd15","0","23","1","1","3","1","3359","","","","","neg","CS","CS","2","category2/CS10.png","targets/48.png","","direct","","-21"
"","image-slider-response","228","443617","0.0-12.0-0.8","1er3pb2c9f","one_one","1","indirect_first","0","le06nd15","0","23","1","1","3","1","2846","","","","","pos","GS","GSold","1","category1/CS9.png","targets/30.png","","direct","","60"
"","image-slider-response","229","445730","0.0-12.0-0.9","1er3pb2c9f","one_one","1","indirect_first","0","le06nd15","0","23","1","1","3","1","2111","","","","","pos","GS","GSnew","1","category1/GS3.png","targets/34.png","","direct","","-14"
"","image-slider-response","230","447953","0.0-12.0-0.10","1er3pb2c9f","one_one","1","indirect_first","0","le06nd15","0","23","1","1","3","1","2223","","","","","neg","GS","GSold","2","category2/CS7.png","targets/6.png","","direct","","30"
"","image-slider-response","231","450250","0.0-12.0-0.11","1er3pb2c9f","one_one","1","indirect_first","0","le06nd15","0","23","1","1","3","1","2295","","","","","pos","GS","GSnew","4","category4/GS2.png","targets/28.png","","direct","","2"
"","image-slider-response","232","452410","0.0-12.0-0.12","1er3pb2c9f","one_one","1","indirect_first","0","le06nd15","0","23","1","1","3","1","2159","","","","","neg","GS","GSold","2","category2/CS5.png","targets/44.png","","direct","","-8"
"","image-slider-response","233","454570","0.0-12.0-0.13","1er3pb2c9f","one_one","1","indirect_first","0","le06nd15","0","23","1","1","3","1","2158","","","","","neg","GS","GSnew","3","category3/GS2.png","targets/5.png","","direct","","-9"
"","image-slider-response","234","456474","0.0-12.0-0.14","1er3pb2c9f","one_one","1","indirect_first","0","le06nd15","0","23","1","1","3","1","1902","","","","","pos","GS","GSold","1","category1/CS7.png","targets/3.png","","direct","","-9"
"","image-slider-response","235","458698","0.0-12.0-0.15","1er3pb2c9f","one_one","1","indirect_first","0","le06nd15","0","23","1","1","3","1","2223","","","","","neg","CS","CS","3","category3/CS1.png","targets/18.png","","direct","","12"
"","image-slider-response","236","460609","0.0-12.0-0.16","1er3pb2c9f","one_one","1","indirect_first","0","le06nd15","0","23","1","1","3","1","1911","","","","","pos","CS","CS","4","category4/CS2.png","targets/43.png","","direct","","8"
"","image-slider-response","237","462538","0.0-12.0-0.17","1er3pb2c9f","one_one","1","indirect_first","0","le06nd15","0","23","1","1","3","1","1927","","","","","pos","GS","GSold","4","category4/CS3.png","targets/12.png","","direct","","-9"
"","image-slider-response","238","464346","0.0-12.0-0.18","1er3pb2c9f","one_one","1","indirect_first","0","le06nd15","0","23","1","1","3","1","1807","","","","","pos","GS","abstract","1","category1/ma.png","targets/23.png","","direct","","8"
"","image-slider-response","239","466154","0.0-12.0-0.19","1er3pb2c9f","one_one","1","indirect_first","0","le06nd15","0","23","1","1","3","1","1807","","","","","pos","CS","CS","1","category1/CS8.png","targets/27.png","","direct","","-21"
"","image-slider-response","240","468554","0.0-12.0-0.20","1er3pb2c9f","one_one","1","indirect_first","0","le06nd15","0","23","1","1","3","1","2399","","","","","neg","GS","GSnew","2","category2/GS1.png","targets/29.png","","direct","","19"
"","image-slider-response","241","470745","0.0-12.0-0.21","1er3pb2c9f","one_one","1","indirect_first","0","le06nd15","0","23","1","1","3","1","2191","","","","","pos","GS","GSnew","4","category4/GS1.png","targets/26.png","","direct","","7"
"","image-slider-response","242","474889","0.0-12.0-0.22","1er3pb2c9f","one_one","1","indirect_first","0","le06nd15","0","23","1","1","3","1","4143","","","","","neg","GS","abstract","3","category3/wang.png","targets/16.png","","direct","","-29"
"","image-slider-response","243","476570","0.0-12.0-0.23","1er3pb2c9f","one_one","1","indirect_first","0","le06nd15","0","23","1","1","3","1","1679","","","","","neg","GS","GSnew","3","category3/GS1.png","targets/31.png","","direct","","-8"
"","image-slider-response","244","478353","0.0-12.0-0.24","1er3pb2c9f","one_one","1","indirect_first","0","le06nd15","0","23","1","1","3","1","1783","","","","","neg","GS","GSold","3","category3/CS7.png","targets/20.png","","direct","","-13"
"","image-slider-response","245","480377","0.0-12.0-0.25","1er3pb2c9f","one_one","1","indirect_first","0","le06nd15","0","23","1","1","3","1","2023","","","","","pos","GS","GSold","4","category4/CS6.png","targets/45.png","","direct","","-21"
"","image-slider-response","246","481986","0.0-12.0-0.26","1er3pb2c9f","one_one","1","indirect_first","0","le06nd15","0","23","1","1","3","1","1607","","","","","neg","GS","abstract","2","category2/men.png","targets/19.png","","direct","","14"
"","image-slider-response","247","483873","0.0-12.0-0.27","1er3pb2c9f","one_one","1","indirect_first","0","le06nd15","0","23","1","1","3","1","1887","","","","","pos","GS","GSold","4","category4/CS4.png","targets/47.png","","direct","","-32"
"","image-slider-response","248","486201","0.0-12.0-0.28","1er3pb2c9f","one_one","1","indirect_first","0","le06nd15","0","23","1","1","3","1","2327","","","","","pos","GS","GSnew","1","category1/GS2.png","targets/32.png","","direct","","-7"
"","image-slider-response","249","488274","0.0-12.0-0.29","1er3pb2c9f","one_one","1","indirect_first","0","le06nd15","0","23","1","1","3","1","2072","","","","","pos","GS","GSold","1","category1/CS2.png","targets/4.png","","direct","","15"
"","image-slider-response","250","490433","0.0-12.0-0.30","1er3pb2c9f","one_one","1","indirect_first","0","le06nd15","0","23","1","1","3","1","2158","","","","","pos","GS","abstract","4","category4/lin.png","targets/1.png","","direct","","-8"
"","image-slider-response","251","492418","0.0-12.0-0.31","1er3pb2c9f","one_one","1","indirect_first","0","le06nd15","0","23","1","1","3","1","1982","","","","","neg","GS","GSnew","2","category2/GS2.png","targets/17.png","","direct","","-23"
"","survey-html-form","252","496218","0.0-13.0","1er3pb2c9f","one_one","1","indirect_first","0","le06nd15","0","23","1","1","3","1","3800","","{}","","","","","","","","","","","",""
"","image-slider-response","253","501473","0.0-14.0-0.0","1er3pb2c9f","one_one","1","indirect_first","0","le06nd15","0","23","1","1","3","1","4250","","","","","neg","All","all","2","category2/men_all.png","","","all","","-10"
"","image-slider-response","254","505289","0.0-14.0-0.1","1er3pb2c9f","one_one","1","indirect_first","0","le06nd15","0","23","1","1","3","1","3815","","","","","pos","All","all","1","category1/ma_all.png","","","all","","-14"
"","image-slider-response","255","507745","0.0-14.0-0.2","1er3pb2c9f","one_one","1","indirect_first","0","le06nd15","0","23","1","1","3","1","2454","","","","","pos","All","all","4","category4/lin_all.png","","","all","","9"
"","image-slider-response","256","509993","0.0-14.0-0.3","1er3pb2c9f","one_one","1","indirect_first","0","le06nd15","0","23","1","1","3","1","2247","","","","","neg","All","all","3","category3/wang_all.png","","","all","","-10"
"","survey-text","257","512090","0.0-15.0","1er3pb2c9f","one_one","1","indirect_first","0","le06nd15","0","23","1","1","3","1","2094","","{""Q0"":""""}","","","","","","","","","","","",""
