"success","trial_type","trial_index","time_elapsed","internal_node_id","subject","condition","condition_code","measure","measure_code","codeword","gender","age","education","chinese","fach","handedness","comment","hinschauen","ablenkung","gewissenhaft","rt","url","responses","stimulus","key_press","val","type","type_specific","category","cs_selected","target","indirect","task","nr_pres","response"
"true","fullscreen","0","4468","0.0-0.0","c2fhk8suto","many_one","0","indirect_first","0","kh05er27","0","22","1","1","1","1","Es ist sehr offensichtlich dass das Zeigen der Schriftzeichen mit den Bildern am Anfang die Bewertung ""angenehm - unangenehm"" beeinflussen soll, auch wenn man das Zeichen ignorieren soll.","0","1","0","","","","","","","","","","","","","","",""
"","external-html","1","32409","0.0-1.0","c2fhk8suto","many_one","0","indirect_first","0","kh05er27","0","22","1","1","1","1","Es ist sehr offensichtlich dass das Zeigen der Schriftzeichen mit den Bildern am Anfang die Bewertung ""angenehm - unangenehm"" beeinflussen soll, auch wenn man das Zeichen ignorieren soll.","0","1","0","27906","text/information.html","","","","","","","","","","","","",""
"","external-html","2","46387","0.0-2.0","c2fhk8suto","many_one","0","indirect_first","0","kh05er27","0","22","1","1","1","1","Es ist sehr offensichtlich dass das Zeigen der Schriftzeichen mit den Bildern am Anfang die Bewertung ""angenehm - unangenehm"" beeinflussen soll, auch wenn man das Zeichen ignorieren soll.","0","1","0","13908","text/consent.html","","","","","","","","","","","","",""
"","survey-html-form","3","81775","0.0-3.0","c2fhk8suto","many_one","0","indirect_first","0","kh05er27","0","22","1","1","1","1","Es ist sehr offensichtlich dass das Zeigen der Schriftzeichen mit den Bildern am Anfang die Bewertung ""angenehm - unangenehm"" beeinflussen soll, auch wenn man das Zeichen ignorieren soll.","0","1","0","35385","","{""codeword_enter"":""kh05er27""}","","","","","","","","","","","",""
"","survey-html-form","4","101318","0.0-4.0","c2fhk8suto","many_one","0","indirect_first","0","kh05er27","0","22","1","1","1","1","Es ist sehr offensichtlich dass das Zeigen der Schriftzeichen mit den Bildern am Anfang die Bewertung ""angenehm - unangenehm"" beeinflussen soll, auch wenn man das Zeichen ignorieren soll.","0","1","0","19538","","{""age"":""22"",""education"":""1"",""subject"":""1"",""gender"":""0"",""handedness"":""1"",""chinese"":""1""}","","","","","","","","","","","",""
"","survey-html-form","5","110048","0.0-5.0","c2fhk8suto","many_one","0","indirect_first","0","kh05er27","0","22","1","1","1","1","Es ist sehr offensichtlich dass das Zeigen der Schriftzeichen mit den Bildern am Anfang die Bewertung ""angenehm - unangenehm"" beeinflussen soll, auch wenn man das Zeichen ignorieren soll.","0","1","0","8728","","{}","","","","","","","","","","","",""
"","html-keyboard-response","6","114077","0.0-6.0-0.0-0.0","c2fhk8suto","many_one","0","indirect_first","0","kh05er27","0","22","1","1","1","1","Es ist sehr offensichtlich dass das Zeigen der Schriftzeichen mit den Bildern am Anfang die Bewertung ""angenehm - unangenehm"" beeinflussen soll, auch wenn man das Zeichen ignorieren soll.","0","1","0","null","","","<div class = 'row'><div class = 'column'><img src = 'usneg/2141.bmp' width = '100%;'></div><div class = 'column'><img src = 'category2/CS8.png' width = '70%;'></div></div>","null","neg","CS","CS","2","category2/CS8.png","","","","",""
"","html-keyboard-response","7","116608","0.0-6.0-0.0-0.1","c2fhk8suto","many_one","0","indirect_first","0","kh05er27","0","22","1","1","1","1","Es ist sehr offensichtlich dass das Zeigen der Schriftzeichen mit den Bildern am Anfang die Bewertung ""angenehm - unangenehm"" beeinflussen soll, auch wenn man das Zeichen ignorieren soll.","0","1","0","null","","","<div class = 'row'><div class = 'column'><img src = 'usneg/9404.bmp' width = '100%;'></div><div class = 'column'><img src = 'category2/CS1.png' width = '70%;'></div></div>","null","neg","CS","CS","2","category2/CS1.png","","","","",""
"","html-keyboard-response","8","119137","0.0-6.0-0.0-0.2","c2fhk8suto","many_one","0","indirect_first","0","kh05er27","0","22","1","1","1","1","Es ist sehr offensichtlich dass das Zeigen der Schriftzeichen mit den Bildern am Anfang die Bewertung ""angenehm - unangenehm"" beeinflussen soll, auch wenn man das Zeichen ignorieren soll.","0","1","0","null","","","<div class = 'row'><div class = 'column'><img src = 'uspos/2058.bmp' width = '100%;'></div><div class = 'column'><img src = 'category4/CS10.png' width = '70%;'></div></div>","null","pos","CS","CS","4","category4/CS10.png","","","","",""
"","html-keyboard-response","9","121653","0.0-6.0-0.0-0.3","c2fhk8suto","many_one","0","indirect_first","0","kh05er27","0","22","1","1","1","1","Es ist sehr offensichtlich dass das Zeigen der Schriftzeichen mit den Bildern am Anfang die Bewertung ""angenehm - unangenehm"" beeinflussen soll, auch wenn man das Zeichen ignorieren soll.","0","1","0","null","","","<div class = 'row'><div class = 'column'><img src = 'usneg/3160.bmp' width = '100%;'></div><div class = 'column'><img src = 'category1/CS3.png' width = '70%;'></div></div>","null","neg","CS","CS","1","category1/CS3.png","","","","",""
"","html-keyboard-response","10","124172","0.0-6.0-0.0-0.4","c2fhk8suto","many_one","0","indirect_first","0","kh05er27","0","22","1","1","1","1","Es ist sehr offensichtlich dass das Zeigen der Schriftzeichen mit den Bildern am Anfang die Bewertung ""angenehm - unangenehm"" beeinflussen soll, auch wenn man das Zeichen ignorieren soll.","0","1","0","null","","","<div class = 'row'><div class = 'column'><img src = 'usneg/9342.bmp' width = '100%;'></div><div class = 'column'><img src = 'category1/CS2.png' width = '70%;'></div></div>","null","neg","CS","CS","1","category1/CS2.png","","","","",""
"","html-keyboard-response","11","126689","0.0-6.0-0.0-0.5","c2fhk8suto","many_one","0","indirect_first","0","kh05er27","0","22","1","1","1","1","Es ist sehr offensichtlich dass das Zeigen der Schriftzeichen mit den Bildern am Anfang die Bewertung ""angenehm - unangenehm"" beeinflussen soll, auch wenn man das Zeichen ignorieren soll.","0","1","0","null","","","<div class = 'row'><div class = 'column'><img src = 'uspos/8190.bmp' width = '100%;'></div><div class = 'column'><img src = 'category3/CS7.png' width = '70%;'></div></div>","null","pos","CS","CS","3","category3/CS7.png","","","","",""
"","html-keyboard-response","12","129212","0.0-6.0-0.0-0.6","c2fhk8suto","many_one","0","indirect_first","0","kh05er27","0","22","1","1","1","1","Es ist sehr offensichtlich dass das Zeigen der Schriftzeichen mit den Bildern am Anfang die Bewertung ""angenehm - unangenehm"" beeinflussen soll, auch wenn man das Zeichen ignorieren soll.","0","1","0","null","","","<div class = 'row'><div class = 'column'><img src = 'uspos/2165.bmp' width = '100%;'></div><div class = 'column'><img src = 'category3/CS8.png' width = '70%;'></div></div>","null","pos","CS","CS","3","category3/CS8.png","","","","",""
"","html-keyboard-response","13","131727","0.0-6.0-0.0-0.7","c2fhk8suto","many_one","0","indirect_first","0","kh05er27","0","22","1","1","1","1","Es ist sehr offensichtlich dass das Zeigen der Schriftzeichen mit den Bildern am Anfang die Bewertung ""angenehm - unangenehm"" beeinflussen soll, auch wenn man das Zeichen ignorieren soll.","0","1","0","null","","","<div class = 'row'><div class = 'column'><img src = 'category2/CS5.png' width = '70%;'></div><div class = 'column'><img src = 'usneg/9050.bmp' width = '100%;'></div></div>","null","neg","CS","CS","2","category2/CS5.png","","","","",""
"","html-keyboard-response","14","134242","0.0-6.0-0.0-0.8","c2fhk8suto","many_one","0","indirect_first","0","kh05er27","0","22","1","1","1","1","Es ist sehr offensichtlich dass das Zeigen der Schriftzeichen mit den Bildern am Anfang die Bewertung ""angenehm - unangenehm"" beeinflussen soll, auch wenn man das Zeichen ignorieren soll.","0","1","0","null","","","<div class = 'row'><div class = 'column'><img src = 'category3/CS1.png' width = '70%;'></div><div class = 'column'><img src = 'uspos/2360.bmp' width = '100%;'></div></div>","null","pos","CS","CS","3","category3/CS1.png","","","","",""
"","html-keyboard-response","15","136767","0.0-6.0-0.0-0.9","c2fhk8suto","many_one","0","indirect_first","0","kh05er27","0","22","1","1","1","1","Es ist sehr offensichtlich dass das Zeigen der Schriftzeichen mit den Bildern am Anfang die Bewertung ""angenehm - unangenehm"" beeinflussen soll, auch wenn man das Zeichen ignorieren soll.","0","1","0","null","","","<div class = 'row'><div class = 'column'><img src = 'uspos/2057.bmp' width = '100%;'></div><div class = 'column'><img src = 'category4/CS6.png' width = '70%;'></div></div>","null","pos","CS","CS","4","category4/CS6.png","","","","",""
"","html-keyboard-response","16","139297","0.0-6.0-0.0-0.10","c2fhk8suto","many_one","0","indirect_first","0","kh05er27","0","22","1","1","1","1","Es ist sehr offensichtlich dass das Zeigen der Schriftzeichen mit den Bildern am Anfang die Bewertung ""angenehm - unangenehm"" beeinflussen soll, auch wenn man das Zeichen ignorieren soll.","0","1","0","null","","","<div class = 'row'><div class = 'column'><img src = 'uspos/2550.bmp' width = '100%;'></div><div class = 'column'><img src = 'category4/CS7.png' width = '70%;'></div></div>","null","pos","CS","CS","4","category4/CS7.png","","","","",""
"","html-keyboard-response","17","141824","0.0-6.0-0.0-0.11","c2fhk8suto","many_one","0","indirect_first","0","kh05er27","0","22","1","1","1","1","Es ist sehr offensichtlich dass das Zeigen der Schriftzeichen mit den Bildern am Anfang die Bewertung ""angenehm - unangenehm"" beeinflussen soll, auch wenn man das Zeichen ignorieren soll.","0","1","0","null","","","<div class = 'row'><div class = 'column'><img src = 'category4/CS9.png' width = '70%;'></div><div class = 'column'><img src = 'uspos/2340.bmp' width = '100%;'></div></div>","null","pos","CS","CS","4","category4/CS9.png","","","","",""
"","html-keyboard-response","18","144346","0.0-6.0-0.0-0.12","c2fhk8suto","many_one","0","indirect_first","0","kh05er27","0","22","1","1","1","1","Es ist sehr offensichtlich dass das Zeigen der Schriftzeichen mit den Bildern am Anfang die Bewertung ""angenehm - unangenehm"" beeinflussen soll, auch wenn man das Zeichen ignorieren soll.","0","1","0","null","","","<div class = 'row'><div class = 'column'><img src = 'category4/CS8.png' width = '70%;'></div><div class = 'column'><img src = 'uspos/5621.bmp' width = '100%;'></div></div>","null","pos","CS","CS","4","category4/CS8.png","","","","",""
"","html-keyboard-response","19","146854","0.0-6.0-0.0-0.13","c2fhk8suto","many_one","0","indirect_first","0","kh05er27","0","22","1","1","1","1","Es ist sehr offensichtlich dass das Zeigen der Schriftzeichen mit den Bildern am Anfang die Bewertung ""angenehm - unangenehm"" beeinflussen soll, auch wenn man das Zeichen ignorieren soll.","0","1","0","null","","","<div class = 'row'><div class = 'column'><img src = 'uspos/2160.bmp' width = '100%;'></div><div class = 'column'><img src = 'category3/CS2.png' width = '70%;'></div></div>","null","pos","CS","CS","3","category3/CS2.png","","","","",""
"","html-keyboard-response","20","149375","0.0-6.0-0.0-0.14","c2fhk8suto","many_one","0","indirect_first","0","kh05er27","0","22","1","1","1","1","Es ist sehr offensichtlich dass das Zeigen der Schriftzeichen mit den Bildern am Anfang die Bewertung ""angenehm - unangenehm"" beeinflussen soll, auch wenn man das Zeichen ignorieren soll.","0","1","0","null","","","<div class = 'row'><div class = 'column'><img src = 'usneg/6212.bmp' width = '100%;'></div><div class = 'column'><img src = 'category2/CS7.png' width = '70%;'></div></div>","null","neg","CS","CS","2","category2/CS7.png","","","","",""
"","html-keyboard-response","21","151881","0.0-6.0-0.0-0.15","c2fhk8suto","many_one","0","indirect_first","0","kh05er27","0","22","1","1","1","1","Es ist sehr offensichtlich dass das Zeigen der Schriftzeichen mit den Bildern am Anfang die Bewertung ""angenehm - unangenehm"" beeinflussen soll, auch wenn man das Zeichen ignorieren soll.","0","1","0","null","","","<div class = 'row'><div class = 'column'><img src = 'usneg/9220.bmp' width = '100%;'></div><div class = 'column'><img src = 'category1/CS10.png' width = '70%;'></div></div>","null","neg","CS","CS","1","category1/CS10.png","","","","",""
"","html-keyboard-response","22","154407","0.0-6.0-0.0-0.16","c2fhk8suto","many_one","0","indirect_first","0","kh05er27","0","22","1","1","1","1","Es ist sehr offensichtlich dass das Zeigen der Schriftzeichen mit den Bildern am Anfang die Bewertung ""angenehm - unangenehm"" beeinflussen soll, auch wenn man das Zeichen ignorieren soll.","0","1","0","null","","","<div class = 'row'><div class = 'column'><img src = 'category1/CS6.png' width = '70%;'></div><div class = 'column'><img src = 'usneg/9830.bmp' width = '100%;'></div></div>","null","neg","CS","CS","1","category1/CS6.png","","","","",""
"","html-keyboard-response","23","156927","0.0-6.0-0.0-0.17","c2fhk8suto","many_one","0","indirect_first","0","kh05er27","0","22","1","1","1","1","Es ist sehr offensichtlich dass das Zeigen der Schriftzeichen mit den Bildern am Anfang die Bewertung ""angenehm - unangenehm"" beeinflussen soll, auch wenn man das Zeichen ignorieren soll.","0","1","0","null","","","<div class = 'row'><div class = 'column'><img src = 'category2/CS10.png' width = '70%;'></div><div class = 'column'><img src = 'usneg/9561.bmp' width = '100%;'></div></div>","null","neg","CS","CS","2","category2/CS10.png","","","","",""
"","html-keyboard-response","24","159436","0.0-6.0-0.0-0.18","c2fhk8suto","many_one","0","indirect_first","0","kh05er27","0","22","1","1","1","1","Es ist sehr offensichtlich dass das Zeigen der Schriftzeichen mit den Bildern am Anfang die Bewertung ""angenehm - unangenehm"" beeinflussen soll, auch wenn man das Zeichen ignorieren soll.","0","1","0","null","","","<div class = 'row'><div class = 'column'><img src = 'category1/CS5.png' width = '70%;'></div><div class = 'column'><img src = 'usneg/9330.bmp' width = '100%;'></div></div>","null","neg","CS","CS","1","category1/CS5.png","","","","",""
"","html-keyboard-response","25","161963","0.0-6.0-0.0-0.19","c2fhk8suto","many_one","0","indirect_first","0","kh05er27","0","22","1","1","1","1","Es ist sehr offensichtlich dass das Zeigen der Schriftzeichen mit den Bildern am Anfang die Bewertung ""angenehm - unangenehm"" beeinflussen soll, auch wenn man das Zeichen ignorieren soll.","0","1","0","null","","","<div class = 'row'><div class = 'column'><img src = 'category3/CS6.png' width = '70%;'></div><div class = 'column'><img src = 'uspos/5600.bmp' width = '100%;'></div></div>","null","pos","CS","CS","3","category3/CS6.png","","","","",""
"","survey-html-form","26","165973","0.0-6.0-1.0","c2fhk8suto","many_one","0","indirect_first","0","kh05er27","0","22","1","1","1","1","Es ist sehr offensichtlich dass das Zeigen der Schriftzeichen mit den Bildern am Anfang die Bewertung ""angenehm - unangenehm"" beeinflussen soll, auch wenn man das Zeichen ignorieren soll.","0","1","0","3508","","{}","","","","","","","","","","","",""
"","html-keyboard-response","27","169979","0.0-6.0-2.0-0.0","c2fhk8suto","many_one","0","indirect_first","0","kh05er27","0","22","1","1","1","1","Es ist sehr offensichtlich dass das Zeigen der Schriftzeichen mit den Bildern am Anfang die Bewertung ""angenehm - unangenehm"" beeinflussen soll, auch wenn man das Zeichen ignorieren soll.","0","1","0","null","","","<div class = 'row'><div class = 'column'><img src = 'uspos/8190.bmp' width = '100%;'></div><div class = 'column'><img src = 'category3/CS7.png' width = '70%;'></div></div>","null","pos","CS","CS","3","category3/CS7.png","","","","",""
"","html-keyboard-response","28","172508","0.0-6.0-2.0-0.1","c2fhk8suto","many_one","0","indirect_first","0","kh05er27","0","22","1","1","1","1","Es ist sehr offensichtlich dass das Zeigen der Schriftzeichen mit den Bildern am Anfang die Bewertung ""angenehm - unangenehm"" beeinflussen soll, auch wenn man das Zeichen ignorieren soll.","0","1","0","null","","","<div class = 'row'><div class = 'column'><img src = 'category4/CS8.png' width = '70%;'></div><div class = 'column'><img src = 'uspos/5621.bmp' width = '100%;'></div></div>","null","pos","CS","CS","4","category4/CS8.png","","","","",""
"","html-keyboard-response","29","175028","0.0-6.0-2.0-0.2","c2fhk8suto","many_one","0","indirect_first","0","kh05er27","0","22","1","1","1","1","Es ist sehr offensichtlich dass das Zeigen der Schriftzeichen mit den Bildern am Anfang die Bewertung ""angenehm - unangenehm"" beeinflussen soll, auch wenn man das Zeichen ignorieren soll.","0","1","0","null","","","<div class = 'row'><div class = 'column'><img src = 'category1/CS3.png' width = '70%;'></div><div class = 'column'><img src = 'usneg/3160.bmp' width = '100%;'></div></div>","null","neg","CS","CS","1","category1/CS3.png","","","","",""
"","html-keyboard-response","30","177557","0.0-6.0-2.0-0.3","c2fhk8suto","many_one","0","indirect_first","0","kh05er27","0","22","1","1","1","1","Es ist sehr offensichtlich dass das Zeigen der Schriftzeichen mit den Bildern am Anfang die Bewertung ""angenehm - unangenehm"" beeinflussen soll, auch wenn man das Zeichen ignorieren soll.","0","1","0","null","","","<div class = 'row'><div class = 'column'><img src = 'category2/CS7.png' width = '70%;'></div><div class = 'column'><img src = 'usneg/6212.bmp' width = '100%;'></div></div>","null","neg","CS","CS","2","category2/CS7.png","","","","",""
"","html-keyboard-response","31","180087","0.0-6.0-2.0-0.4","c2fhk8suto","many_one","0","indirect_first","0","kh05er27","0","22","1","1","1","1","Es ist sehr offensichtlich dass das Zeigen der Schriftzeichen mit den Bildern am Anfang die Bewertung ""angenehm - unangenehm"" beeinflussen soll, auch wenn man das Zeichen ignorieren soll.","0","1","0","null","","","<div class = 'row'><div class = 'column'><img src = 'uspos/2550.bmp' width = '100%;'></div><div class = 'column'><img src = 'category4/CS7.png' width = '70%;'></div></div>","null","pos","CS","CS","4","category4/CS7.png","","","","",""
"","html-keyboard-response","32","182601","0.0-6.0-2.0-0.5","c2fhk8suto","many_one","0","indirect_first","0","kh05er27","0","22","1","1","1","1","Es ist sehr offensichtlich dass das Zeigen der Schriftzeichen mit den Bildern am Anfang die Bewertung ""angenehm - unangenehm"" beeinflussen soll, auch wenn man das Zeichen ignorieren soll.","0","1","0","null","","","<div class = 'row'><div class = 'column'><img src = 'category2/CS5.png' width = '70%;'></div><div class = 'column'><img src = 'usneg/9050.bmp' width = '100%;'></div></div>","null","neg","CS","CS","2","category2/CS5.png","","","","",""
"","html-keyboard-response","33","185106","0.0-6.0-2.0-0.6","c2fhk8suto","many_one","0","indirect_first","0","kh05er27","0","22","1","1","1","1","Es ist sehr offensichtlich dass das Zeigen der Schriftzeichen mit den Bildern am Anfang die Bewertung ""angenehm - unangenehm"" beeinflussen soll, auch wenn man das Zeichen ignorieren soll.","0","1","0","null","","","<div class = 'row'><div class = 'column'><img src = 'category4/CS10.png' width = '70%;'></div><div class = 'column'><img src = 'uspos/2058.bmp' width = '100%;'></div></div>","null","pos","CS","CS","4","category4/CS10.png","","","","",""
"","html-keyboard-response","34","187611","0.0-6.0-2.0-0.7","c2fhk8suto","many_one","0","indirect_first","0","kh05er27","0","22","1","1","1","1","Es ist sehr offensichtlich dass das Zeigen der Schriftzeichen mit den Bildern am Anfang die Bewertung ""angenehm - unangenehm"" beeinflussen soll, auch wenn man das Zeichen ignorieren soll.","0","1","0","null","","","<div class = 'row'><div class = 'column'><img src = 'category1/CS10.png' width = '70%;'></div><div class = 'column'><img src = 'usneg/9220.bmp' width = '100%;'></div></div>","null","neg","CS","CS","1","category1/CS10.png","","","","",""
"","html-keyboard-response","35","190140","0.0-6.0-2.0-0.8","c2fhk8suto","many_one","0","indirect_first","0","kh05er27","0","22","1","1","1","1","Es ist sehr offensichtlich dass das Zeigen der Schriftzeichen mit den Bildern am Anfang die Bewertung ""angenehm - unangenehm"" beeinflussen soll, auch wenn man das Zeichen ignorieren soll.","0","1","0","null","","","<div class = 'row'><div class = 'column'><img src = 'category3/CS2.png' width = '70%;'></div><div class = 'column'><img src = 'uspos/2160.bmp' width = '100%;'></div></div>","null","pos","CS","CS","3","category3/CS2.png","","","","",""
"","html-keyboard-response","36","192650","0.0-6.0-2.0-0.9","c2fhk8suto","many_one","0","indirect_first","0","kh05er27","0","22","1","1","1","1","Es ist sehr offensichtlich dass das Zeigen der Schriftzeichen mit den Bildern am Anfang die Bewertung ""angenehm - unangenehm"" beeinflussen soll, auch wenn man das Zeichen ignorieren soll.","0","1","0","null","","","<div class = 'row'><div class = 'column'><img src = 'usneg/9404.bmp' width = '100%;'></div><div class = 'column'><img src = 'category2/CS1.png' width = '70%;'></div></div>","null","neg","CS","CS","2","category2/CS1.png","","","","",""
"","html-keyboard-response","37","195167","0.0-6.0-2.0-0.10","c2fhk8suto","many_one","0","indirect_first","0","kh05er27","0","22","1","1","1","1","Es ist sehr offensichtlich dass das Zeigen der Schriftzeichen mit den Bildern am Anfang die Bewertung ""angenehm - unangenehm"" beeinflussen soll, auch wenn man das Zeichen ignorieren soll.","0","1","0","null","","","<div class = 'row'><div class = 'column'><img src = 'usneg/9330.bmp' width = '100%;'></div><div class = 'column'><img src = 'category1/CS5.png' width = '70%;'></div></div>","null","neg","CS","CS","1","category1/CS5.png","","","","",""
"","html-keyboard-response","38","197686","0.0-6.0-2.0-0.11","c2fhk8suto","many_one","0","indirect_first","0","kh05er27","0","22","1","1","1","1","Es ist sehr offensichtlich dass das Zeigen der Schriftzeichen mit den Bildern am Anfang die Bewertung ""angenehm - unangenehm"" beeinflussen soll, auch wenn man das Zeichen ignorieren soll.","0","1","0","null","","","<div class = 'row'><div class = 'column'><img src = 'usneg/2141.bmp' width = '100%;'></div><div class = 'column'><img src = 'category2/CS8.png' width = '70%;'></div></div>","null","neg","CS","CS","2","category2/CS8.png","","","","",""
"","html-keyboard-response","39","200210","0.0-6.0-2.0-0.12","c2fhk8suto","many_one","0","indirect_first","0","kh05er27","0","22","1","1","1","1","Es ist sehr offensichtlich dass das Zeigen der Schriftzeichen mit den Bildern am Anfang die Bewertung ""angenehm - unangenehm"" beeinflussen soll, auch wenn man das Zeichen ignorieren soll.","0","1","0","null","","","<div class = 'row'><div class = 'column'><img src = 'category3/CS8.png' width = '70%;'></div><div class = 'column'><img src = 'uspos/2165.bmp' width = '100%;'></div></div>","null","pos","CS","CS","3","category3/CS8.png","","","","",""
"","html-keyboard-response","40","202722","0.0-6.0-2.0-0.13","c2fhk8suto","many_one","0","indirect_first","0","kh05er27","0","22","1","1","1","1","Es ist sehr offensichtlich dass das Zeigen der Schriftzeichen mit den Bildern am Anfang die Bewertung ""angenehm - unangenehm"" beeinflussen soll, auch wenn man das Zeichen ignorieren soll.","0","1","0","null","","","<div class = 'row'><div class = 'column'><img src = 'category3/CS1.png' width = '70%;'></div><div class = 'column'><img src = 'uspos/2360.bmp' width = '100%;'></div></div>","null","pos","CS","CS","3","category3/CS1.png","","","","",""
"","html-keyboard-response","41","205243","0.0-6.0-2.0-0.14","c2fhk8suto","many_one","0","indirect_first","0","kh05er27","0","22","1","1","1","1","Es ist sehr offensichtlich dass das Zeigen der Schriftzeichen mit den Bildern am Anfang die Bewertung ""angenehm - unangenehm"" beeinflussen soll, auch wenn man das Zeichen ignorieren soll.","0","1","0","null","","","<div class = 'row'><div class = 'column'><img src = 'usneg/9342.bmp' width = '100%;'></div><div class = 'column'><img src = 'category1/CS2.png' width = '70%;'></div></div>","null","neg","CS","CS","1","category1/CS2.png","","","","",""
"","html-keyboard-response","42","207751","0.0-6.0-2.0-0.15","c2fhk8suto","many_one","0","indirect_first","0","kh05er27","0","22","1","1","1","1","Es ist sehr offensichtlich dass das Zeigen der Schriftzeichen mit den Bildern am Anfang die Bewertung ""angenehm - unangenehm"" beeinflussen soll, auch wenn man das Zeichen ignorieren soll.","0","1","0","null","","","<div class = 'row'><div class = 'column'><img src = 'category2/CS10.png' width = '70%;'></div><div class = 'column'><img src = 'usneg/9561.bmp' width = '100%;'></div></div>","null","neg","CS","CS","2","category2/CS10.png","","","","",""
"","html-keyboard-response","43","210282","0.0-6.0-2.0-0.16","c2fhk8suto","many_one","0","indirect_first","0","kh05er27","0","22","1","1","1","1","Es ist sehr offensichtlich dass das Zeigen der Schriftzeichen mit den Bildern am Anfang die Bewertung ""angenehm - unangenehm"" beeinflussen soll, auch wenn man das Zeichen ignorieren soll.","0","1","0","null","","","<div class = 'row'><div class = 'column'><img src = 'usneg/9830.bmp' width = '100%;'></div><div class = 'column'><img src = 'category1/CS6.png' width = '70%;'></div></div>","null","neg","CS","CS","1","category1/CS6.png","","","","",""
"","html-keyboard-response","44","212812","0.0-6.0-2.0-0.17","c2fhk8suto","many_one","0","indirect_first","0","kh05er27","0","22","1","1","1","1","Es ist sehr offensichtlich dass das Zeigen der Schriftzeichen mit den Bildern am Anfang die Bewertung ""angenehm - unangenehm"" beeinflussen soll, auch wenn man das Zeichen ignorieren soll.","0","1","0","null","","","<div class = 'row'><div class = 'column'><img src = 'category4/CS9.png' width = '70%;'></div><div class = 'column'><img src = 'uspos/2340.bmp' width = '100%;'></div></div>","null","pos","CS","CS","4","category4/CS9.png","","","","",""
"","html-keyboard-response","45","215342","0.0-6.0-2.0-0.18","c2fhk8suto","many_one","0","indirect_first","0","kh05er27","0","22","1","1","1","1","Es ist sehr offensichtlich dass das Zeigen der Schriftzeichen mit den Bildern am Anfang die Bewertung ""angenehm - unangenehm"" beeinflussen soll, auch wenn man das Zeichen ignorieren soll.","0","1","0","null","","","<div class = 'row'><div class = 'column'><img src = 'uspos/2057.bmp' width = '100%;'></div><div class = 'column'><img src = 'category4/CS6.png' width = '70%;'></div></div>","null","pos","CS","CS","4","category4/CS6.png","","","","",""
"","html-keyboard-response","46","217856","0.0-6.0-2.0-0.19","c2fhk8suto","many_one","0","indirect_first","0","kh05er27","0","22","1","1","1","1","Es ist sehr offensichtlich dass das Zeigen der Schriftzeichen mit den Bildern am Anfang die Bewertung ""angenehm - unangenehm"" beeinflussen soll, auch wenn man das Zeichen ignorieren soll.","0","1","0","null","","","<div class = 'row'><div class = 'column'><img src = 'category3/CS6.png' width = '70%;'></div><div class = 'column'><img src = 'uspos/5600.bmp' width = '100%;'></div></div>","null","pos","CS","CS","3","category3/CS6.png","","","","",""
"","survey-html-form","47","220919","0.0-6.0-3.0","c2fhk8suto","many_one","0","indirect_first","0","kh05er27","0","22","1","1","1","1","Es ist sehr offensichtlich dass das Zeigen der Schriftzeichen mit den Bildern am Anfang die Bewertung ""angenehm - unangenehm"" beeinflussen soll, auch wenn man das Zeichen ignorieren soll.","0","1","0","2550","","{}","","","","","","","","","","","",""
"","html-keyboard-response","48","224935","0.0-6.0-4.0-0.0","c2fhk8suto","many_one","0","indirect_first","0","kh05er27","0","22","1","1","1","1","Es ist sehr offensichtlich dass das Zeigen der Schriftzeichen mit den Bildern am Anfang die Bewertung ""angenehm - unangenehm"" beeinflussen soll, auch wenn man das Zeichen ignorieren soll.","0","1","0","null","","","<div class = 'row'><div class = 'column'><img src = 'category3/CS7.png' width = '70%;'></div><div class = 'column'><img src = 'uspos/8190.bmp' width = '100%;'></div></div>","null","pos","CS","CS","3","category3/CS7.png","","","","",""
"","html-keyboard-response","49","227456","0.0-6.0-4.0-0.1","c2fhk8suto","many_one","0","indirect_first","0","kh05er27","0","22","1","1","1","1","Es ist sehr offensichtlich dass das Zeigen der Schriftzeichen mit den Bildern am Anfang die Bewertung ""angenehm - unangenehm"" beeinflussen soll, auch wenn man das Zeichen ignorieren soll.","0","1","0","null","","","<div class = 'row'><div class = 'column'><img src = 'usneg/9830.bmp' width = '100%;'></div><div class = 'column'><img src = 'category1/CS6.png' width = '70%;'></div></div>","null","neg","CS","CS","1","category1/CS6.png","","","","",""
"","html-keyboard-response","50","229980","0.0-6.0-4.0-0.2","c2fhk8suto","many_one","0","indirect_first","0","kh05er27","0","22","1","1","1","1","Es ist sehr offensichtlich dass das Zeigen der Schriftzeichen mit den Bildern am Anfang die Bewertung ""angenehm - unangenehm"" beeinflussen soll, auch wenn man das Zeichen ignorieren soll.","0","1","0","null","","","<div class = 'row'><div class = 'column'><img src = 'uspos/5621.bmp' width = '100%;'></div><div class = 'column'><img src = 'category4/CS8.png' width = '70%;'></div></div>","null","pos","CS","CS","4","category4/CS8.png","","","","",""
"","html-keyboard-response","51","232511","0.0-6.0-4.0-0.3","c2fhk8suto","many_one","0","indirect_first","0","kh05er27","0","22","1","1","1","1","Es ist sehr offensichtlich dass das Zeigen der Schriftzeichen mit den Bildern am Anfang die Bewertung ""angenehm - unangenehm"" beeinflussen soll, auch wenn man das Zeichen ignorieren soll.","0","1","0","null","","","<div class = 'row'><div class = 'column'><img src = 'usneg/9561.bmp' width = '100%;'></div><div class = 'column'><img src = 'category2/CS10.png' width = '70%;'></div></div>","null","neg","CS","CS","2","category2/CS10.png","","","","",""
"","html-keyboard-response","52","235038","0.0-6.0-4.0-0.4","c2fhk8suto","many_one","0","indirect_first","0","kh05er27","0","22","1","1","1","1","Es ist sehr offensichtlich dass das Zeigen der Schriftzeichen mit den Bildern am Anfang die Bewertung ""angenehm - unangenehm"" beeinflussen soll, auch wenn man das Zeichen ignorieren soll.","0","1","0","null","","","<div class = 'row'><div class = 'column'><img src = 'uspos/2058.bmp' width = '100%;'></div><div class = 'column'><img src = 'category4/CS10.png' width = '70%;'></div></div>","null","pos","CS","CS","4","category4/CS10.png","","","","",""
"","html-keyboard-response","53","237547","0.0-6.0-4.0-0.5","c2fhk8suto","many_one","0","indirect_first","0","kh05er27","0","22","1","1","1","1","Es ist sehr offensichtlich dass das Zeigen der Schriftzeichen mit den Bildern am Anfang die Bewertung ""angenehm - unangenehm"" beeinflussen soll, auch wenn man das Zeichen ignorieren soll.","0","1","0","null","","","<div class = 'row'><div class = 'column'><img src = 'category2/CS8.png' width = '70%;'></div><div class = 'column'><img src = 'usneg/2141.bmp' width = '100%;'></div></div>","null","neg","CS","CS","2","category2/CS8.png","","","","",""
"","html-keyboard-response","54","240061","0.0-6.0-4.0-0.6","c2fhk8suto","many_one","0","indirect_first","0","kh05er27","0","22","1","1","1","1","Es ist sehr offensichtlich dass das Zeigen der Schriftzeichen mit den Bildern am Anfang die Bewertung ""angenehm - unangenehm"" beeinflussen soll, auch wenn man das Zeichen ignorieren soll.","0","1","0","null","","","<div class = 'row'><div class = 'column'><img src = 'uspos/2165.bmp' width = '100%;'></div><div class = 'column'><img src = 'category3/CS8.png' width = '70%;'></div></div>","null","pos","CS","CS","3","category3/CS8.png","","","","",""
"","html-keyboard-response","55","242564","0.0-6.0-4.0-0.7","c2fhk8suto","many_one","0","indirect_first","0","kh05er27","0","22","1","1","1","1","Es ist sehr offensichtlich dass das Zeigen der Schriftzeichen mit den Bildern am Anfang die Bewertung ""angenehm - unangenehm"" beeinflussen soll, auch wenn man das Zeichen ignorieren soll.","0","1","0","null","","","<div class = 'row'><div class = 'column'><img src = 'usneg/9330.bmp' width = '100%;'></div><div class = 'column'><img src = 'category1/CS5.png' width = '70%;'></div></div>","null","neg","CS","CS","1","category1/CS5.png","","","","",""
"","html-keyboard-response","56","245080","0.0-6.0-4.0-0.8","c2fhk8suto","many_one","0","indirect_first","0","kh05er27","0","22","1","1","1","1","Es ist sehr offensichtlich dass das Zeigen der Schriftzeichen mit den Bildern am Anfang die Bewertung ""angenehm - unangenehm"" beeinflussen soll, auch wenn man das Zeichen ignorieren soll.","0","1","0","null","","","<div class = 'row'><div class = 'column'><img src = 'usneg/9220.bmp' width = '100%;'></div><div class = 'column'><img src = 'category1/CS10.png' width = '70%;'></div></div>","null","neg","CS","CS","1","category1/CS10.png","","","","",""
"","html-keyboard-response","57","247611","0.0-6.0-4.0-0.9","c2fhk8suto","many_one","0","indirect_first","0","kh05er27","0","22","1","1","1","1","Es ist sehr offensichtlich dass das Zeigen der Schriftzeichen mit den Bildern am Anfang die Bewertung ""angenehm - unangenehm"" beeinflussen soll, auch wenn man das Zeichen ignorieren soll.","0","1","0","null","","","<div class = 'row'><div class = 'column'><img src = 'usneg/9404.bmp' width = '100%;'></div><div class = 'column'><img src = 'category2/CS1.png' width = '70%;'></div></div>","null","neg","CS","CS","2","category2/CS1.png","","","","",""
"","html-keyboard-response","58","250122","0.0-6.0-4.0-0.10","c2fhk8suto","many_one","0","indirect_first","0","kh05er27","0","22","1","1","1","1","Es ist sehr offensichtlich dass das Zeigen der Schriftzeichen mit den Bildern am Anfang die Bewertung ""angenehm - unangenehm"" beeinflussen soll, auch wenn man das Zeichen ignorieren soll.","0","1","0","null","","","<div class = 'row'><div class = 'column'><img src = 'category4/CS7.png' width = '70%;'></div><div class = 'column'><img src = 'uspos/2550.bmp' width = '100%;'></div></div>","null","pos","CS","CS","4","category4/CS7.png","","","","",""
"","html-keyboard-response","59","252649","0.0-6.0-4.0-0.11","c2fhk8suto","many_one","0","indirect_first","0","kh05er27","0","22","1","1","1","1","Es ist sehr offensichtlich dass das Zeigen der Schriftzeichen mit den Bildern am Anfang die Bewertung ""angenehm - unangenehm"" beeinflussen soll, auch wenn man das Zeichen ignorieren soll.","0","1","0","null","","","<div class = 'row'><div class = 'column'><img src = 'usneg/9342.bmp' width = '100%;'></div><div class = 'column'><img src = 'category1/CS2.png' width = '70%;'></div></div>","null","neg","CS","CS","1","category1/CS2.png","","","","",""
"","html-keyboard-response","60","255153","0.0-6.0-4.0-0.12","c2fhk8suto","many_one","0","indirect_first","0","kh05er27","0","22","1","1","1","1","Es ist sehr offensichtlich dass das Zeigen der Schriftzeichen mit den Bildern am Anfang die Bewertung ""angenehm - unangenehm"" beeinflussen soll, auch wenn man das Zeichen ignorieren soll.","0","1","0","null","","","<div class = 'row'><div class = 'column'><img src = 'category2/CS5.png' width = '70%;'></div><div class = 'column'><img src = 'usneg/9050.bmp' width = '100%;'></div></div>","null","neg","CS","CS","2","category2/CS5.png","","","","",""
"","html-keyboard-response","61","257669","0.0-6.0-4.0-0.13","c2fhk8suto","many_one","0","indirect_first","0","kh05er27","0","22","1","1","1","1","Es ist sehr offensichtlich dass das Zeigen der Schriftzeichen mit den Bildern am Anfang die Bewertung ""angenehm - unangenehm"" beeinflussen soll, auch wenn man das Zeichen ignorieren soll.","0","1","0","null","","","<div class = 'row'><div class = 'column'><img src = 'category3/CS2.png' width = '70%;'></div><div class = 'column'><img src = 'uspos/2160.bmp' width = '100%;'></div></div>","null","pos","CS","CS","3","category3/CS2.png","","","","",""
"","html-keyboard-response","62","260177","0.0-6.0-4.0-0.14","c2fhk8suto","many_one","0","indirect_first","0","kh05er27","0","22","1","1","1","1","Es ist sehr offensichtlich dass das Zeigen der Schriftzeichen mit den Bildern am Anfang die Bewertung ""angenehm - unangenehm"" beeinflussen soll, auch wenn man das Zeichen ignorieren soll.","0","1","0","null","","","<div class = 'row'><div class = 'column'><img src = 'uspos/2340.bmp' width = '100%;'></div><div class = 'column'><img src = 'category4/CS9.png' width = '70%;'></div></div>","null","pos","CS","CS","4","category4/CS9.png","","","","",""
"","html-keyboard-response","63","262703","0.0-6.0-4.0-0.15","c2fhk8suto","many_one","0","indirect_first","0","kh05er27","0","22","1","1","1","1","Es ist sehr offensichtlich dass das Zeigen der Schriftzeichen mit den Bildern am Anfang die Bewertung ""angenehm - unangenehm"" beeinflussen soll, auch wenn man das Zeichen ignorieren soll.","0","1","0","null","","","<div class = 'row'><div class = 'column'><img src = 'uspos/2057.bmp' width = '100%;'></div><div class = 'column'><img src = 'category4/CS6.png' width = '70%;'></div></div>","null","pos","CS","CS","4","category4/CS6.png","","","","",""
"","html-keyboard-response","64","265229","0.0-6.0-4.0-0.16","c2fhk8suto","many_one","0","indirect_first","0","kh05er27","0","22","1","1","1","1","Es ist sehr offensichtlich dass das Zeigen der Schriftzeichen mit den Bildern am Anfang die Bewertung ""angenehm - unangenehm"" beeinflussen soll, auch wenn man das Zeichen ignorieren soll.","0","1","0","null","","","<div class = 'row'><div class = 'column'><img src = 'category1/CS3.png' width = '70%;'></div><div class = 'column'><img src = 'usneg/3160.bmp' width = '100%;'></div></div>","null","neg","CS","CS","1","category1/CS3.png","","","","",""
"","html-keyboard-response","65","267734","0.0-6.0-4.0-0.17","c2fhk8suto","many_one","0","indirect_first","0","kh05er27","0","22","1","1","1","1","Es ist sehr offensichtlich dass das Zeigen der Schriftzeichen mit den Bildern am Anfang die Bewertung ""angenehm - unangenehm"" beeinflussen soll, auch wenn man das Zeichen ignorieren soll.","0","1","0","null","","","<div class = 'row'><div class = 'column'><img src = 'uspos/2360.bmp' width = '100%;'></div><div class = 'column'><img src = 'category3/CS1.png' width = '70%;'></div></div>","null","pos","CS","CS","3","category3/CS1.png","","","","",""
"","html-keyboard-response","66","270266","0.0-6.0-4.0-0.18","c2fhk8suto","many_one","0","indirect_first","0","kh05er27","0","22","1","1","1","1","Es ist sehr offensichtlich dass das Zeigen der Schriftzeichen mit den Bildern am Anfang die Bewertung ""angenehm - unangenehm"" beeinflussen soll, auch wenn man das Zeichen ignorieren soll.","0","1","0","null","","","<div class = 'row'><div class = 'column'><img src = 'category2/CS7.png' width = '70%;'></div><div class = 'column'><img src = 'usneg/6212.bmp' width = '100%;'></div></div>","null","neg","CS","CS","2","category2/CS7.png","","","","",""
"","html-keyboard-response","67","272795","0.0-6.0-4.0-0.19","c2fhk8suto","many_one","0","indirect_first","0","kh05er27","0","22","1","1","1","1","Es ist sehr offensichtlich dass das Zeigen der Schriftzeichen mit den Bildern am Anfang die Bewertung ""angenehm - unangenehm"" beeinflussen soll, auch wenn man das Zeichen ignorieren soll.","0","1","0","null","","","<div class = 'row'><div class = 'column'><img src = 'category3/CS6.png' width = '70%;'></div><div class = 'column'><img src = 'uspos/5600.bmp' width = '100%;'></div></div>","null","pos","CS","CS","3","category3/CS6.png","","","","",""
"","survey-html-form","68","275355","0.0-6.0-5.0","c2fhk8suto","many_one","0","indirect_first","0","kh05er27","0","22","1","1","1","1","Es ist sehr offensichtlich dass das Zeigen der Schriftzeichen mit den Bildern am Anfang die Bewertung ""angenehm - unangenehm"" beeinflussen soll, auch wenn man das Zeichen ignorieren soll.","0","1","0","2044","","{}","","","","","","","","","","","",""
"","html-keyboard-response","69","279372","0.0-6.0-6.0-0.0","c2fhk8suto","many_one","0","indirect_first","0","kh05er27","0","22","1","1","1","1","Es ist sehr offensichtlich dass das Zeigen der Schriftzeichen mit den Bildern am Anfang die Bewertung ""angenehm - unangenehm"" beeinflussen soll, auch wenn man das Zeichen ignorieren soll.","0","1","0","null","","","<div class = 'row'><div class = 'column'><img src = 'category2/CS10.png' width = '70%;'></div><div class = 'column'><img src = 'usneg/9561.bmp' width = '100%;'></div></div>","null","neg","CS","CS","2","category2/CS10.png","","","","",""
"","html-keyboard-response","70","281897","0.0-6.0-6.0-0.1","c2fhk8suto","many_one","0","indirect_first","0","kh05er27","0","22","1","1","1","1","Es ist sehr offensichtlich dass das Zeigen der Schriftzeichen mit den Bildern am Anfang die Bewertung ""angenehm - unangenehm"" beeinflussen soll, auch wenn man das Zeichen ignorieren soll.","0","1","0","null","","","<div class = 'row'><div class = 'column'><img src = 'uspos/2160.bmp' width = '100%;'></div><div class = 'column'><img src = 'category3/CS2.png' width = '70%;'></div></div>","null","pos","CS","CS","3","category3/CS2.png","","","","",""
"","html-keyboard-response","71","284421","0.0-6.0-6.0-0.2","c2fhk8suto","many_one","0","indirect_first","0","kh05er27","0","22","1","1","1","1","Es ist sehr offensichtlich dass das Zeigen der Schriftzeichen mit den Bildern am Anfang die Bewertung ""angenehm - unangenehm"" beeinflussen soll, auch wenn man das Zeichen ignorieren soll.","0","1","0","null","","","<div class = 'row'><div class = 'column'><img src = 'uspos/2058.bmp' width = '100%;'></div><div class = 'column'><img src = 'category4/CS10.png' width = '70%;'></div></div>","null","pos","CS","CS","4","category4/CS10.png","","","","",""
"","html-keyboard-response","72","286939","0.0-6.0-6.0-0.3","c2fhk8suto","many_one","0","indirect_first","0","kh05er27","0","22","1","1","1","1","Es ist sehr offensichtlich dass das Zeigen der Schriftzeichen mit den Bildern am Anfang die Bewertung ""angenehm - unangenehm"" beeinflussen soll, auch wenn man das Zeichen ignorieren soll.","0","1","0","null","","","<div class = 'row'><div class = 'column'><img src = 'uspos/2360.bmp' width = '100%;'></div><div class = 'column'><img src = 'category3/CS1.png' width = '70%;'></div></div>","null","pos","CS","CS","3","category3/CS1.png","","","","",""
"","html-keyboard-response","73","289462","0.0-6.0-6.0-0.4","c2fhk8suto","many_one","0","indirect_first","0","kh05er27","0","22","1","1","1","1","Es ist sehr offensichtlich dass das Zeigen der Schriftzeichen mit den Bildern am Anfang die Bewertung ""angenehm - unangenehm"" beeinflussen soll, auch wenn man das Zeichen ignorieren soll.","0","1","0","null","","","<div class = 'row'><div class = 'column'><img src = 'uspos/2165.bmp' width = '100%;'></div><div class = 'column'><img src = 'category3/CS8.png' width = '70%;'></div></div>","null","pos","CS","CS","3","category3/CS8.png","","","","",""
"","html-keyboard-response","74","291988","0.0-6.0-6.0-0.5","c2fhk8suto","many_one","0","indirect_first","0","kh05er27","0","22","1","1","1","1","Es ist sehr offensichtlich dass das Zeigen der Schriftzeichen mit den Bildern am Anfang die Bewertung ""angenehm - unangenehm"" beeinflussen soll, auch wenn man das Zeichen ignorieren soll.","0","1","0","null","","","<div class = 'row'><div class = 'column'><img src = 'category1/CS10.png' width = '70%;'></div><div class = 'column'><img src = 'usneg/9220.bmp' width = '100%;'></div></div>","null","neg","CS","CS","1","category1/CS10.png","","","","",""
"","html-keyboard-response","75","294518","0.0-6.0-6.0-0.6","c2fhk8suto","many_one","0","indirect_first","0","kh05er27","0","22","1","1","1","1","Es ist sehr offensichtlich dass das Zeigen der Schriftzeichen mit den Bildern am Anfang die Bewertung ""angenehm - unangenehm"" beeinflussen soll, auch wenn man das Zeichen ignorieren soll.","0","1","0","null","","","<div class = 'row'><div class = 'column'><img src = 'category4/CS6.png' width = '70%;'></div><div class = 'column'><img src = 'uspos/2057.bmp' width = '100%;'></div></div>","null","pos","CS","CS","4","category4/CS6.png","","","","",""
"","html-keyboard-response","76","297042","0.0-6.0-6.0-0.7","c2fhk8suto","many_one","0","indirect_first","0","kh05er27","0","22","1","1","1","1","Es ist sehr offensichtlich dass das Zeigen der Schriftzeichen mit den Bildern am Anfang die Bewertung ""angenehm - unangenehm"" beeinflussen soll, auch wenn man das Zeichen ignorieren soll.","0","1","0","null","","","<div class = 'row'><div class = 'column'><img src = 'category3/CS6.png' width = '70%;'></div><div class = 'column'><img src = 'uspos/5600.bmp' width = '100%;'></div></div>","null","pos","CS","CS","3","category3/CS6.png","","","","",""
"","html-keyboard-response","77","299560","0.0-6.0-6.0-0.8","c2fhk8suto","many_one","0","indirect_first","0","kh05er27","0","22","1","1","1","1","Es ist sehr offensichtlich dass das Zeigen der Schriftzeichen mit den Bildern am Anfang die Bewertung ""angenehm - unangenehm"" beeinflussen soll, auch wenn man das Zeichen ignorieren soll.","0","1","0","null","","","<div class = 'row'><div class = 'column'><img src = 'usneg/9342.bmp' width = '100%;'></div><div class = 'column'><img src = 'category1/CS2.png' width = '70%;'></div></div>","null","neg","CS","CS","1","category1/CS2.png","","","","",""
"","html-keyboard-response","78","302089","0.0-6.0-6.0-0.9","c2fhk8suto","many_one","0","indirect_first","0","kh05er27","0","22","1","1","1","1","Es ist sehr offensichtlich dass das Zeigen der Schriftzeichen mit den Bildern am Anfang die Bewertung ""angenehm - unangenehm"" beeinflussen soll, auch wenn man das Zeichen ignorieren soll.","0","1","0","null","","","<div class = 'row'><div class = 'column'><img src = 'uspos/2340.bmp' width = '100%;'></div><div class = 'column'><img src = 'category4/CS9.png' width = '70%;'></div></div>","null","pos","CS","CS","4","category4/CS9.png","","","","",""
"","html-keyboard-response","79","304606","0.0-6.0-6.0-0.10","c2fhk8suto","many_one","0","indirect_first","0","kh05er27","0","22","1","1","1","1","Es ist sehr offensichtlich dass das Zeigen der Schriftzeichen mit den Bildern am Anfang die Bewertung ""angenehm - unangenehm"" beeinflussen soll, auch wenn man das Zeichen ignorieren soll.","0","1","0","null","","","<div class = 'row'><div class = 'column'><img src = 'category4/CS7.png' width = '70%;'></div><div class = 'column'><img src = 'uspos/2550.bmp' width = '100%;'></div></div>","null","pos","CS","CS","4","category4/CS7.png","","","","",""
"","html-keyboard-response","80","307124","0.0-6.0-6.0-0.11","c2fhk8suto","many_one","0","indirect_first","0","kh05er27","0","22","1","1","1","1","Es ist sehr offensichtlich dass das Zeigen der Schriftzeichen mit den Bildern am Anfang die Bewertung ""angenehm - unangenehm"" beeinflussen soll, auch wenn man das Zeichen ignorieren soll.","0","1","0","null","","","<div class = 'row'><div class = 'column'><img src = 'category1/CS6.png' width = '70%;'></div><div class = 'column'><img src = 'usneg/9830.bmp' width = '100%;'></div></div>","null","neg","CS","CS","1","category1/CS6.png","","","","",""
"","html-keyboard-response","81","309643","0.0-6.0-6.0-0.12","c2fhk8suto","many_one","0","indirect_first","0","kh05er27","0","22","1","1","1","1","Es ist sehr offensichtlich dass das Zeigen der Schriftzeichen mit den Bildern am Anfang die Bewertung ""angenehm - unangenehm"" beeinflussen soll, auch wenn man das Zeichen ignorieren soll.","0","1","0","null","","","<div class = 'row'><div class = 'column'><img src = 'usneg/9404.bmp' width = '100%;'></div><div class = 'column'><img src = 'category2/CS1.png' width = '70%;'></div></div>","null","neg","CS","CS","2","category2/CS1.png","","","","",""
"","html-keyboard-response","82","312159","0.0-6.0-6.0-0.13","c2fhk8suto","many_one","0","indirect_first","0","kh05er27","0","22","1","1","1","1","Es ist sehr offensichtlich dass das Zeigen der Schriftzeichen mit den Bildern am Anfang die Bewertung ""angenehm - unangenehm"" beeinflussen soll, auch wenn man das Zeichen ignorieren soll.","0","1","0","null","","","<div class = 'row'><div class = 'column'><img src = 'category1/CS3.png' width = '70%;'></div><div class = 'column'><img src = 'usneg/3160.bmp' width = '100%;'></div></div>","null","neg","CS","CS","1","category1/CS3.png","","","","",""
"","html-keyboard-response","83","314685","0.0-6.0-6.0-0.14","c2fhk8suto","many_one","0","indirect_first","0","kh05er27","0","22","1","1","1","1","Es ist sehr offensichtlich dass das Zeigen der Schriftzeichen mit den Bildern am Anfang die Bewertung ""angenehm - unangenehm"" beeinflussen soll, auch wenn man das Zeichen ignorieren soll.","0","1","0","null","","","<div class = 'row'><div class = 'column'><img src = 'category2/CS7.png' width = '70%;'></div><div class = 'column'><img src = 'usneg/6212.bmp' width = '100%;'></div></div>","null","neg","CS","CS","2","category2/CS7.png","","","","",""
"","html-keyboard-response","84","317190","0.0-6.0-6.0-0.15","c2fhk8suto","many_one","0","indirect_first","0","kh05er27","0","22","1","1","1","1","Es ist sehr offensichtlich dass das Zeigen der Schriftzeichen mit den Bildern am Anfang die Bewertung ""angenehm - unangenehm"" beeinflussen soll, auch wenn man das Zeichen ignorieren soll.","0","1","0","null","","","<div class = 'row'><div class = 'column'><img src = 'usneg/2141.bmp' width = '100%;'></div><div class = 'column'><img src = 'category2/CS8.png' width = '70%;'></div></div>","null","neg","CS","CS","2","category2/CS8.png","","","","",""
"","html-keyboard-response","85","319707","0.0-6.0-6.0-0.16","c2fhk8suto","many_one","0","indirect_first","0","kh05er27","0","22","1","1","1","1","Es ist sehr offensichtlich dass das Zeigen der Schriftzeichen mit den Bildern am Anfang die Bewertung ""angenehm - unangenehm"" beeinflussen soll, auch wenn man das Zeichen ignorieren soll.","0","1","0","null","","","<div class = 'row'><div class = 'column'><img src = 'usneg/9330.bmp' width = '100%;'></div><div class = 'column'><img src = 'category1/CS5.png' width = '70%;'></div></div>","null","neg","CS","CS","1","category1/CS5.png","","","","",""
"","html-keyboard-response","86","322234","0.0-6.0-6.0-0.17","c2fhk8suto","many_one","0","indirect_first","0","kh05er27","0","22","1","1","1","1","Es ist sehr offensichtlich dass das Zeigen der Schriftzeichen mit den Bildern am Anfang die Bewertung ""angenehm - unangenehm"" beeinflussen soll, auch wenn man das Zeichen ignorieren soll.","0","1","0","null","","","<div class = 'row'><div class = 'column'><img src = 'category4/CS8.png' width = '70%;'></div><div class = 'column'><img src = 'uspos/5621.bmp' width = '100%;'></div></div>","null","pos","CS","CS","4","category4/CS8.png","","","","",""
"","html-keyboard-response","87","324751","0.0-6.0-6.0-0.18","c2fhk8suto","many_one","0","indirect_first","0","kh05er27","0","22","1","1","1","1","Es ist sehr offensichtlich dass das Zeigen der Schriftzeichen mit den Bildern am Anfang die Bewertung ""angenehm - unangenehm"" beeinflussen soll, auch wenn man das Zeichen ignorieren soll.","0","1","0","null","","","<div class = 'row'><div class = 'column'><img src = 'category3/CS7.png' width = '70%;'></div><div class = 'column'><img src = 'uspos/8190.bmp' width = '100%;'></div></div>","null","pos","CS","CS","3","category3/CS7.png","","","","",""
"","html-keyboard-response","88","327257","0.0-6.0-6.0-0.19","c2fhk8suto","many_one","0","indirect_first","0","kh05er27","0","22","1","1","1","1","Es ist sehr offensichtlich dass das Zeigen der Schriftzeichen mit den Bildern am Anfang die Bewertung ""angenehm - unangenehm"" beeinflussen soll, auch wenn man das Zeichen ignorieren soll.","0","1","0","null","","","<div class = 'row'><div class = 'column'><img src = 'category2/CS5.png' width = '70%;'></div><div class = 'column'><img src = 'usneg/9050.bmp' width = '100%;'></div></div>","null","neg","CS","CS","2","category2/CS5.png","","","","",""
"","html-keyboard-response","89","361833","0.0-7.0","c2fhk8suto","many_one","0","indirect_first","0","kh05er27","0","22","1","1","1","1","Es ist sehr offensichtlich dass das Zeigen der Schriftzeichen mit den Bildern am Anfang die Bewertung ""angenehm - unangenehm"" beeinflussen soll, auch wenn man das Zeichen ignorieren soll.","0","1","0","34059","","","<p>Sie sehen nun die chinesischen Zeichen nur ganz kurz. Danach sehen Sie die jeweilige Aussprache der Zeichen als Silbe auf dem Bildschrim. Ihre Aufgabe ist es, fr jede Silbe anzugeben, ob diese etwas angenehmes, oder unangenehmes bedeuten knnte. Verlassen Sie sich hier vor allem auf Ihre Intuition.<br><br>Die Zeichen werden nur zur Orientierung dargestellt, beachten Sie sie deshalb nicht. Konzentrieren Sie sich vor allem auf die Silben. <br>Reagieren Sie mit folgenden zwei Tasten: <br><br><b>'D' </b> wenn die Silbe etwas <b>unangenehmes</b> bedeuten knnte. <br><b>'K'</b> wenn die Silbe etwas <b>angenehmes</b> bedeuten knnte. <br><br>Bitte legen Sie nun den Zeigefinger der linken Hand auf die Taste 'D' und den Zeigefinger der rechten Hand auf die Taste 'K'. <br>Reagieren Sie auf jede Silbe so schnell wie mglich. Uns interessiert Ihre spontane Reaktion. <br> <br> <br>Drcken Sie 'D' oder 'K', um die nchste Aufgabe zu starten. </p>","75","","","","","","","","","",""
"","html-keyboard-response","90","364849","0.0-8.0-0.0","c2fhk8suto","many_one","0","indirect_first","0","kh05er27","0","22","1","1","1","1","Es ist sehr offensichtlich dass das Zeigen der Schriftzeichen mit den Bildern am Anfang die Bewertung ""angenehm - unangenehm"" beeinflussen soll, auch wenn man das Zeichen ignorieren soll.","0","1","0","null","","","<div style=""font-size:60px;"">+</div>","null","","","","","","","","","",""
"","html-keyboard-response","91","364954","0.0-8.0-1.0","c2fhk8suto","many_one","0","indirect_first","0","kh05er27","0","22","1","1","1","1","Es ist sehr offensichtlich dass das Zeigen der Schriftzeichen mit den Bildern am Anfang die Bewertung ""angenehm - unangenehm"" beeinflussen soll, auch wenn man das Zeichen ignorieren soll.","0","1","0","null","","","<img src = 'category3/CS2.png' width = '100%;'>","null","","","","","","","","","",""
"","html-keyboard-response","92","365225","0.0-8.0-2.0","c2fhk8suto","many_one","0","indirect_first","0","kh05er27","0","22","1","1","1","1","Es ist sehr offensichtlich dass das Zeigen der Schriftzeichen mit den Bildern am Anfang die Bewertung ""angenehm - unangenehm"" beeinflussen soll, auch wenn man das Zeichen ignorieren soll.","0","1","0","null","","","<img src = 'targets/45.png' width = '100%;'>","null","","","","","","","","","",""
"","html-keyboard-response","93","367305","0.0-8.0-3.0","c2fhk8suto","many_one","0","indirect_first","0","kh05er27","0","22","1","1","1","1","Es ist sehr offensichtlich dass das Zeigen der Schriftzeichen mit den Bildern am Anfang die Bewertung ""angenehm - unangenehm"" beeinflussen soll, auch wenn man das Zeichen ignorieren soll.","0","1","0","2077","","","<img src = 'targets/mask.png' width = '100%;'>","75","pos","CS","CS","3","category3/CS2.png","targets/45.png","1","indirect","0",""
"","html-keyboard-response","94","368829","0.0-8.0-0.1","c2fhk8suto","many_one","0","indirect_first","0","kh05er27","0","22","1","1","1","1","Es ist sehr offensichtlich dass das Zeigen der Schriftzeichen mit den Bildern am Anfang die Bewertung ""angenehm - unangenehm"" beeinflussen soll, auch wenn man das Zeichen ignorieren soll.","0","1","0","null","","","<div style=""font-size:60px;"">+</div>","null","","","","","","","","","",""
"","html-keyboard-response","95","368934","0.0-8.0-1.1","c2fhk8suto","many_one","0","indirect_first","0","kh05er27","0","22","1","1","1","1","Es ist sehr offensichtlich dass das Zeigen der Schriftzeichen mit den Bildern am Anfang die Bewertung ""angenehm - unangenehm"" beeinflussen soll, auch wenn man das Zeichen ignorieren soll.","0","1","0","null","","","<img src = 'category3/CS1.png' width = '100%;'>","null","","","","","","","","","",""
"","html-keyboard-response","96","369205","0.0-8.0-2.1","c2fhk8suto","many_one","0","indirect_first","0","kh05er27","0","22","1","1","1","1","Es ist sehr offensichtlich dass das Zeigen der Schriftzeichen mit den Bildern am Anfang die Bewertung ""angenehm - unangenehm"" beeinflussen soll, auch wenn man das Zeichen ignorieren soll.","0","1","0","null","","","<img src = 'targets/40.png' width = '100%;'>","null","","","","","","","","","",""
"","html-keyboard-response","97","370069","0.0-8.0-3.1","c2fhk8suto","many_one","0","indirect_first","0","kh05er27","0","22","1","1","1","1","Es ist sehr offensichtlich dass das Zeigen der Schriftzeichen mit den Bildern am Anfang die Bewertung ""angenehm - unangenehm"" beeinflussen soll, auch wenn man das Zeichen ignorieren soll.","0","1","0","861","","","<img src = 'targets/mask.png' width = '100%;'>","68","pos","CS","CS","3","category3/CS1.png","targets/40.png","0","indirect","1",""
"","html-keyboard-response","98","371589","0.0-8.0-0.2","c2fhk8suto","many_one","0","indirect_first","0","kh05er27","0","22","1","1","1","1","Es ist sehr offensichtlich dass das Zeigen der Schriftzeichen mit den Bildern am Anfang die Bewertung ""angenehm - unangenehm"" beeinflussen soll, auch wenn man das Zeichen ignorieren soll.","0","1","0","null","","","<div style=""font-size:60px;"">+</div>","null","","","","","","","","","",""
"","html-keyboard-response","99","371695","0.0-8.0-1.2","c2fhk8suto","many_one","0","indirect_first","0","kh05er27","0","22","1","1","1","1","Es ist sehr offensichtlich dass das Zeigen der Schriftzeichen mit den Bildern am Anfang die Bewertung ""angenehm - unangenehm"" beeinflussen soll, auch wenn man das Zeichen ignorieren soll.","0","1","0","null","","","<img src = 'category3/CS7.png' width = '100%;'>","null","","","","","","","","","",""
"","html-keyboard-response","100","371966","0.0-8.0-2.2","c2fhk8suto","many_one","0","indirect_first","0","kh05er27","0","22","1","1","1","1","Es ist sehr offensichtlich dass das Zeigen der Schriftzeichen mit den Bildern am Anfang die Bewertung ""angenehm - unangenehm"" beeinflussen soll, auch wenn man das Zeichen ignorieren soll.","0","1","0","null","","","<img src = 'targets/25.png' width = '100%;'>","null","","","","","","","","","",""
"","html-keyboard-response","101","372412","0.0-8.0-3.2","c2fhk8suto","many_one","0","indirect_first","0","kh05er27","0","22","1","1","1","1","Es ist sehr offensichtlich dass das Zeigen der Schriftzeichen mit den Bildern am Anfang die Bewertung ""angenehm - unangenehm"" beeinflussen soll, auch wenn man das Zeichen ignorieren soll.","0","1","0","444","","","<img src = 'targets/mask.png' width = '100%;'>","75","pos","CS","CS","3","category3/CS7.png","targets/25.png","1","indirect","2",""
"","html-keyboard-response","102","373933","0.0-8.0-0.3","c2fhk8suto","many_one","0","indirect_first","0","kh05er27","0","22","1","1","1","1","Es ist sehr offensichtlich dass das Zeigen der Schriftzeichen mit den Bildern am Anfang die Bewertung ""angenehm - unangenehm"" beeinflussen soll, auch wenn man das Zeichen ignorieren soll.","0","1","0","null","","","<div style=""font-size:60px;"">+</div>","null","","","","","","","","","",""
"","html-keyboard-response","103","374038","0.0-8.0-1.3","c2fhk8suto","many_one","0","indirect_first","0","kh05er27","0","22","1","1","1","1","Es ist sehr offensichtlich dass das Zeigen der Schriftzeichen mit den Bildern am Anfang die Bewertung ""angenehm - unangenehm"" beeinflussen soll, auch wenn man das Zeichen ignorieren soll.","0","1","0","null","","","<img src = 'category1/CS5.png' width = '100%;'>","null","","","","","","","","","",""
"","html-keyboard-response","104","374312","0.0-8.0-2.3","c2fhk8suto","many_one","0","indirect_first","0","kh05er27","0","22","1","1","1","1","Es ist sehr offensichtlich dass das Zeigen der Schriftzeichen mit den Bildern am Anfang die Bewertung ""angenehm - unangenehm"" beeinflussen soll, auch wenn man das Zeichen ignorieren soll.","0","1","0","null","","","<img src = 'targets/5.png' width = '100%;'>","null","","","","","","","","","",""
"","html-keyboard-response","105","374954","0.0-8.0-3.3","c2fhk8suto","many_one","0","indirect_first","0","kh05er27","0","22","1","1","1","1","Es ist sehr offensichtlich dass das Zeigen der Schriftzeichen mit den Bildern am Anfang die Bewertung ""angenehm - unangenehm"" beeinflussen soll, auch wenn man das Zeichen ignorieren soll.","0","1","0","642","","","<img src = 'targets/mask.png' width = '100%;'>","68","neg","CS","CS","1","category1/CS5.png","targets/5.png","0","indirect","3",""
"","html-keyboard-response","106","376477","0.0-8.0-0.4","c2fhk8suto","many_one","0","indirect_first","0","kh05er27","0","22","1","1","1","1","Es ist sehr offensichtlich dass das Zeigen der Schriftzeichen mit den Bildern am Anfang die Bewertung ""angenehm - unangenehm"" beeinflussen soll, auch wenn man das Zeichen ignorieren soll.","0","1","0","null","","","<div style=""font-size:60px;"">+</div>","null","","","","","","","","","",""
"","html-keyboard-response","107","376582","0.0-8.0-1.4","c2fhk8suto","many_one","0","indirect_first","0","kh05er27","0","22","1","1","1","1","Es ist sehr offensichtlich dass das Zeigen der Schriftzeichen mit den Bildern am Anfang die Bewertung ""angenehm - unangenehm"" beeinflussen soll, auch wenn man das Zeichen ignorieren soll.","0","1","0","null","","","<img src = 'category1/CS3.png' width = '100%;'>","null","","","","","","","","","",""
"","html-keyboard-response","108","376855","0.0-8.0-2.4","c2fhk8suto","many_one","0","indirect_first","0","kh05er27","0","22","1","1","1","1","Es ist sehr offensichtlich dass das Zeigen der Schriftzeichen mit den Bildern am Anfang die Bewertung ""angenehm - unangenehm"" beeinflussen soll, auch wenn man das Zeichen ignorieren soll.","0","1","0","null","","","<img src = 'targets/12.png' width = '100%;'>","null","","","","","","","","","",""
"","html-keyboard-response","109","377377","0.0-8.0-3.4","c2fhk8suto","many_one","0","indirect_first","0","kh05er27","0","22","1","1","1","1","Es ist sehr offensichtlich dass das Zeigen der Schriftzeichen mit den Bildern am Anfang die Bewertung ""angenehm - unangenehm"" beeinflussen soll, auch wenn man das Zeichen ignorieren soll.","0","1","0","517","","","<img src = 'targets/mask.png' width = '100%;'>","75","neg","CS","CS","1","category1/CS3.png","targets/12.png","1","indirect","4",""
"","html-keyboard-response","110","378888","0.0-8.0-0.5","c2fhk8suto","many_one","0","indirect_first","0","kh05er27","0","22","1","1","1","1","Es ist sehr offensichtlich dass das Zeigen der Schriftzeichen mit den Bildern am Anfang die Bewertung ""angenehm - unangenehm"" beeinflussen soll, auch wenn man das Zeichen ignorieren soll.","0","1","0","null","","","<div style=""font-size:60px;"">+</div>","null","","","","","","","","","",""
"","html-keyboard-response","111","378979","0.0-8.0-1.5","c2fhk8suto","many_one","0","indirect_first","0","kh05er27","0","22","1","1","1","1","Es ist sehr offensichtlich dass das Zeigen der Schriftzeichen mit den Bildern am Anfang die Bewertung ""angenehm - unangenehm"" beeinflussen soll, auch wenn man das Zeichen ignorieren soll.","0","1","0","null","","","<img src = 'category2/CS5.png' width = '100%;'>","null","","","","","","","","","",""
"","html-keyboard-response","112","379254","0.0-8.0-2.5","c2fhk8suto","many_one","0","indirect_first","0","kh05er27","0","22","1","1","1","1","Es ist sehr offensichtlich dass das Zeigen der Schriftzeichen mit den Bildern am Anfang die Bewertung ""angenehm - unangenehm"" beeinflussen soll, auch wenn man das Zeichen ignorieren soll.","0","1","0","null","","","<img src = 'targets/48.png' width = '100%;'>","null","","","","","","","","","",""
"","html-keyboard-response","113","379899","0.0-8.0-3.5","c2fhk8suto","many_one","0","indirect_first","0","kh05er27","0","22","1","1","1","1","Es ist sehr offensichtlich dass das Zeigen der Schriftzeichen mit den Bildern am Anfang die Bewertung ""angenehm - unangenehm"" beeinflussen soll, auch wenn man das Zeichen ignorieren soll.","0","1","0","642","","","<img src = 'targets/mask.png' width = '100%;'>","68","neg","CS","CS","2","category2/CS5.png","targets/48.png","0","indirect","5",""
"","html-keyboard-response","114","381408","0.0-8.0-0.6","c2fhk8suto","many_one","0","indirect_first","0","kh05er27","0","22","1","1","1","1","Es ist sehr offensichtlich dass das Zeigen der Schriftzeichen mit den Bildern am Anfang die Bewertung ""angenehm - unangenehm"" beeinflussen soll, auch wenn man das Zeichen ignorieren soll.","0","1","0","null","","","<div style=""font-size:60px;"">+</div>","null","","","","","","","","","",""
"","html-keyboard-response","115","381500","0.0-8.0-1.6","c2fhk8suto","many_one","0","indirect_first","0","kh05er27","0","22","1","1","1","1","Es ist sehr offensichtlich dass das Zeigen der Schriftzeichen mit den Bildern am Anfang die Bewertung ""angenehm - unangenehm"" beeinflussen soll, auch wenn man das Zeichen ignorieren soll.","0","1","0","null","","","<img src = 'category3/CS8.png' width = '100%;'>","null","","","","","","","","","",""
"","html-keyboard-response","116","381772","0.0-8.0-2.6","c2fhk8suto","many_one","0","indirect_first","0","kh05er27","0","22","1","1","1","1","Es ist sehr offensichtlich dass das Zeigen der Schriftzeichen mit den Bildern am Anfang die Bewertung ""angenehm - unangenehm"" beeinflussen soll, auch wenn man das Zeichen ignorieren soll.","0","1","0","null","","","<img src = 'targets/17.png' width = '100%;'>","null","","","","","","","","","",""
"","html-keyboard-response","117","382617","0.0-8.0-3.6","c2fhk8suto","many_one","0","indirect_first","0","kh05er27","0","22","1","1","1","1","Es ist sehr offensichtlich dass das Zeigen der Schriftzeichen mit den Bildern am Anfang die Bewertung ""angenehm - unangenehm"" beeinflussen soll, auch wenn man das Zeichen ignorieren soll.","0","1","0","843","","","<img src = 'targets/mask.png' width = '100%;'>","75","pos","CS","CS","3","category3/CS8.png","targets/17.png","1","indirect","6",""
"","html-keyboard-response","118","384124","0.0-8.0-0.7","c2fhk8suto","many_one","0","indirect_first","0","kh05er27","0","22","1","1","1","1","Es ist sehr offensichtlich dass das Zeigen der Schriftzeichen mit den Bildern am Anfang die Bewertung ""angenehm - unangenehm"" beeinflussen soll, auch wenn man das Zeichen ignorieren soll.","0","1","0","null","","","<div style=""font-size:60px;"">+</div>","null","","","","","","","","","",""
"","html-keyboard-response","119","384215","0.0-8.0-1.7","c2fhk8suto","many_one","0","indirect_first","0","kh05er27","0","22","1","1","1","1","Es ist sehr offensichtlich dass das Zeigen der Schriftzeichen mit den Bildern am Anfang die Bewertung ""angenehm - unangenehm"" beeinflussen soll, auch wenn man das Zeichen ignorieren soll.","0","1","0","null","","","<img src = 'category2/CS8.png' width = '100%;'>","null","","","","","","","","","",""
"","html-keyboard-response","120","384487","0.0-8.0-2.7","c2fhk8suto","many_one","0","indirect_first","0","kh05er27","0","22","1","1","1","1","Es ist sehr offensichtlich dass das Zeigen der Schriftzeichen mit den Bildern am Anfang die Bewertung ""angenehm - unangenehm"" beeinflussen soll, auch wenn man das Zeichen ignorieren soll.","0","1","0","null","","","<img src = 'targets/18.png' width = '100%;'>","null","","","","","","","","","",""
"","html-keyboard-response","121","384774","0.0-8.0-3.7","c2fhk8suto","many_one","0","indirect_first","0","kh05er27","0","22","1","1","1","1","Es ist sehr offensichtlich dass das Zeigen der Schriftzeichen mit den Bildern am Anfang die Bewertung ""angenehm - unangenehm"" beeinflussen soll, auch wenn man das Zeichen ignorieren soll.","0","1","0","285","","","<img src = 'targets/mask.png' width = '100%;'>","75","neg","CS","CS","2","category2/CS8.png","targets/18.png","1","indirect","7",""
"","html-keyboard-response","122","386290","0.0-8.0-0.8","c2fhk8suto","many_one","0","indirect_first","0","kh05er27","0","22","1","1","1","1","Es ist sehr offensichtlich dass das Zeigen der Schriftzeichen mit den Bildern am Anfang die Bewertung ""angenehm - unangenehm"" beeinflussen soll, auch wenn man das Zeichen ignorieren soll.","0","1","0","null","","","<div style=""font-size:60px;"">+</div>","null","","","","","","","","","",""
"","html-keyboard-response","123","386396","0.0-8.0-1.8","c2fhk8suto","many_one","0","indirect_first","0","kh05er27","0","22","1","1","1","1","Es ist sehr offensichtlich dass das Zeigen der Schriftzeichen mit den Bildern am Anfang die Bewertung ""angenehm - unangenehm"" beeinflussen soll, auch wenn man das Zeichen ignorieren soll.","0","1","0","null","","","<img src = 'category2/CS10.png' width = '100%;'>","null","","","","","","","","","",""
"","html-keyboard-response","124","386668","0.0-8.0-2.8","c2fhk8suto","many_one","0","indirect_first","0","kh05er27","0","22","1","1","1","1","Es ist sehr offensichtlich dass das Zeigen der Schriftzeichen mit den Bildern am Anfang die Bewertung ""angenehm - unangenehm"" beeinflussen soll, auch wenn man das Zeichen ignorieren soll.","0","1","0","null","","","<img src = 'targets/26.png' width = '100%;'>","null","","","","","","","","","",""
"","html-keyboard-response","125","387198","0.0-8.0-3.8","c2fhk8suto","many_one","0","indirect_first","0","kh05er27","0","22","1","1","1","1","Es ist sehr offensichtlich dass das Zeigen der Schriftzeichen mit den Bildern am Anfang die Bewertung ""angenehm - unangenehm"" beeinflussen soll, auch wenn man das Zeichen ignorieren soll.","0","1","0","529","","","<img src = 'targets/mask.png' width = '100%;'>","75","neg","CS","CS","2","category2/CS10.png","targets/26.png","1","indirect","8",""
"","html-keyboard-response","126","388727","0.0-8.0-0.9","c2fhk8suto","many_one","0","indirect_first","0","kh05er27","0","22","1","1","1","1","Es ist sehr offensichtlich dass das Zeigen der Schriftzeichen mit den Bildern am Anfang die Bewertung ""angenehm - unangenehm"" beeinflussen soll, auch wenn man das Zeichen ignorieren soll.","0","1","0","null","","","<div style=""font-size:60px;"">+</div>","null","","","","","","","","","",""
"","html-keyboard-response","127","388834","0.0-8.0-1.9","c2fhk8suto","many_one","0","indirect_first","0","kh05er27","0","22","1","1","1","1","Es ist sehr offensichtlich dass das Zeigen der Schriftzeichen mit den Bildern am Anfang die Bewertung ""angenehm - unangenehm"" beeinflussen soll, auch wenn man das Zeichen ignorieren soll.","0","1","0","null","","","<img src = 'category4/CS8.png' width = '100%;'>","null","","","","","","","","","",""
"","html-keyboard-response","128","389106","0.0-8.0-2.9","c2fhk8suto","many_one","0","indirect_first","0","kh05er27","0","22","1","1","1","1","Es ist sehr offensichtlich dass das Zeigen der Schriftzeichen mit den Bildern am Anfang die Bewertung ""angenehm - unangenehm"" beeinflussen soll, auch wenn man das Zeichen ignorieren soll.","0","1","0","null","","","<img src = 'targets/31.png' width = '100%;'>","null","","","","","","","","","",""
"","html-keyboard-response","129","389604","0.0-8.0-3.9","c2fhk8suto","many_one","0","indirect_first","0","kh05er27","0","22","1","1","1","1","Es ist sehr offensichtlich dass das Zeigen der Schriftzeichen mit den Bildern am Anfang die Bewertung ""angenehm - unangenehm"" beeinflussen soll, auch wenn man das Zeichen ignorieren soll.","0","1","0","494","","","<img src = 'targets/mask.png' width = '100%;'>","75","pos","CS","CS","4","category4/CS8.png","targets/31.png","1","indirect","9",""
"","html-keyboard-response","130","391110","0.0-8.0-0.10","c2fhk8suto","many_one","0","indirect_first","0","kh05er27","0","22","1","1","1","1","Es ist sehr offensichtlich dass das Zeigen der Schriftzeichen mit den Bildern am Anfang die Bewertung ""angenehm - unangenehm"" beeinflussen soll, auch wenn man das Zeichen ignorieren soll.","0","1","0","null","","","<div style=""font-size:60px;"">+</div>","null","","","","","","","","","",""
"","html-keyboard-response","131","391217","0.0-8.0-1.10","c2fhk8suto","many_one","0","indirect_first","0","kh05er27","0","22","1","1","1","1","Es ist sehr offensichtlich dass das Zeigen der Schriftzeichen mit den Bildern am Anfang die Bewertung ""angenehm - unangenehm"" beeinflussen soll, auch wenn man das Zeichen ignorieren soll.","0","1","0","null","","","<img src = 'category4/CS9.png' width = '100%;'>","null","","","","","","","","","",""
"","html-keyboard-response","132","391490","0.0-8.0-2.10","c2fhk8suto","many_one","0","indirect_first","0","kh05er27","0","22","1","1","1","1","Es ist sehr offensichtlich dass das Zeigen der Schriftzeichen mit den Bildern am Anfang die Bewertung ""angenehm - unangenehm"" beeinflussen soll, auch wenn man das Zeichen ignorieren soll.","0","1","0","null","","","<img src = 'targets/38.png' width = '100%;'>","null","","","","","","","","","",""
"","html-keyboard-response","133","391895","0.0-8.0-3.10","c2fhk8suto","many_one","0","indirect_first","0","kh05er27","0","22","1","1","1","1","Es ist sehr offensichtlich dass das Zeigen der Schriftzeichen mit den Bildern am Anfang die Bewertung ""angenehm - unangenehm"" beeinflussen soll, auch wenn man das Zeichen ignorieren soll.","0","1","0","404","","","<img src = 'targets/mask.png' width = '100%;'>","75","pos","CS","CS","4","category4/CS9.png","targets/38.png","1","indirect","10",""
"","html-keyboard-response","134","393398","0.0-8.0-0.11","c2fhk8suto","many_one","0","indirect_first","0","kh05er27","0","22","1","1","1","1","Es ist sehr offensichtlich dass das Zeigen der Schriftzeichen mit den Bildern am Anfang die Bewertung ""angenehm - unangenehm"" beeinflussen soll, auch wenn man das Zeichen ignorieren soll.","0","1","0","null","","","<div style=""font-size:60px;"">+</div>","null","","","","","","","","","",""
"","html-keyboard-response","135","393503","0.0-8.0-1.11","c2fhk8suto","many_one","0","indirect_first","0","kh05er27","0","22","1","1","1","1","Es ist sehr offensichtlich dass das Zeigen der Schriftzeichen mit den Bildern am Anfang die Bewertung ""angenehm - unangenehm"" beeinflussen soll, auch wenn man das Zeichen ignorieren soll.","0","1","0","null","","","<img src = 'category1/CS2.png' width = '100%;'>","null","","","","","","","","","",""
"","html-keyboard-response","136","393777","0.0-8.0-2.11","c2fhk8suto","many_one","0","indirect_first","0","kh05er27","0","22","1","1","1","1","Es ist sehr offensichtlich dass das Zeigen der Schriftzeichen mit den Bildern am Anfang die Bewertung ""angenehm - unangenehm"" beeinflussen soll, auch wenn man das Zeichen ignorieren soll.","0","1","0","null","","","<img src = 'targets/7.png' width = '100%;'>","null","","","","","","","","","",""
"","html-keyboard-response","137","394182","0.0-8.0-3.11","c2fhk8suto","many_one","0","indirect_first","0","kh05er27","0","22","1","1","1","1","Es ist sehr offensichtlich dass das Zeigen der Schriftzeichen mit den Bildern am Anfang die Bewertung ""angenehm - unangenehm"" beeinflussen soll, auch wenn man das Zeichen ignorieren soll.","0","1","0","404","","","<img src = 'targets/mask.png' width = '100%;'>","75","neg","CS","CS","1","category1/CS2.png","targets/7.png","1","indirect","11",""
"","html-keyboard-response","138","395698","0.0-8.0-0.12","c2fhk8suto","many_one","0","indirect_first","0","kh05er27","0","22","1","1","1","1","Es ist sehr offensichtlich dass das Zeigen der Schriftzeichen mit den Bildern am Anfang die Bewertung ""angenehm - unangenehm"" beeinflussen soll, auch wenn man das Zeichen ignorieren soll.","0","1","0","null","","","<div style=""font-size:60px;"">+</div>","null","","","","","","","","","",""
"","html-keyboard-response","139","395790","0.0-8.0-1.12","c2fhk8suto","many_one","0","indirect_first","0","kh05er27","0","22","1","1","1","1","Es ist sehr offensichtlich dass das Zeigen der Schriftzeichen mit den Bildern am Anfang die Bewertung ""angenehm - unangenehm"" beeinflussen soll, auch wenn man das Zeichen ignorieren soll.","0","1","0","null","","","<img src = 'category3/CS9.png' width = '100%;'>","null","","","","","","","","","",""
"","html-keyboard-response","140","396062","0.0-8.0-2.12","c2fhk8suto","many_one","0","indirect_first","0","kh05er27","0","22","1","1","1","1","Es ist sehr offensichtlich dass das Zeigen der Schriftzeichen mit den Bildern am Anfang die Bewertung ""angenehm - unangenehm"" beeinflussen soll, auch wenn man das Zeichen ignorieren soll.","0","1","0","null","","","<img src = 'targets/36.png' width = '100%;'>","null","","","","","","","","","",""
"","html-keyboard-response","141","396436","0.0-8.0-3.12","c2fhk8suto","many_one","0","indirect_first","0","kh05er27","0","22","1","1","1","1","Es ist sehr offensichtlich dass das Zeigen der Schriftzeichen mit den Bildern am Anfang die Bewertung ""angenehm - unangenehm"" beeinflussen soll, auch wenn man das Zeichen ignorieren soll.","0","1","0","372","","","<img src = 'targets/mask.png' width = '100%;'>","68","pos","GS","GSold","3","category3/CS9.png","targets/36.png","0","indirect","12",""
"","html-keyboard-response","142","397954","0.0-8.0-0.13","c2fhk8suto","many_one","0","indirect_first","0","kh05er27","0","22","1","1","1","1","Es ist sehr offensichtlich dass das Zeigen der Schriftzeichen mit den Bildern am Anfang die Bewertung ""angenehm - unangenehm"" beeinflussen soll, auch wenn man das Zeichen ignorieren soll.","0","1","0","null","","","<div style=""font-size:60px;"">+</div>","null","","","","","","","","","",""
"","html-keyboard-response","143","398046","0.0-8.0-1.13","c2fhk8suto","many_one","0","indirect_first","0","kh05er27","0","22","1","1","1","1","Es ist sehr offensichtlich dass das Zeigen der Schriftzeichen mit den Bildern am Anfang die Bewertung ""angenehm - unangenehm"" beeinflussen soll, auch wenn man das Zeichen ignorieren soll.","0","1","0","null","","","<img src = 'category4/CS10.png' width = '100%;'>","null","","","","","","","","","",""
"","html-keyboard-response","144","398318","0.0-8.0-2.13","c2fhk8suto","many_one","0","indirect_first","0","kh05er27","0","22","1","1","1","1","Es ist sehr offensichtlich dass das Zeigen der Schriftzeichen mit den Bildern am Anfang die Bewertung ""angenehm - unangenehm"" beeinflussen soll, auch wenn man das Zeichen ignorieren soll.","0","1","0","null","","","<img src = 'targets/39.png' width = '100%;'>","null","","","","","","","","","",""
"","html-keyboard-response","145","398800","0.0-8.0-3.13","c2fhk8suto","many_one","0","indirect_first","0","kh05er27","0","22","1","1","1","1","Es ist sehr offensichtlich dass das Zeigen der Schriftzeichen mit den Bildern am Anfang die Bewertung ""angenehm - unangenehm"" beeinflussen soll, auch wenn man das Zeichen ignorieren soll.","0","1","0","482","","","<img src = 'targets/mask.png' width = '100%;'>","75","pos","CS","CS","4","category4/CS10.png","targets/39.png","1","indirect","13",""
"","html-keyboard-response","146","400330","0.0-8.0-0.14","c2fhk8suto","many_one","0","indirect_first","0","kh05er27","0","22","1","1","1","1","Es ist sehr offensichtlich dass das Zeigen der Schriftzeichen mit den Bildern am Anfang die Bewertung ""angenehm - unangenehm"" beeinflussen soll, auch wenn man das Zeichen ignorieren soll.","0","1","0","null","","","<div style=""font-size:60px;"">+</div>","null","","","","","","","","","",""
"","html-keyboard-response","147","400422","0.0-8.0-1.14","c2fhk8suto","many_one","0","indirect_first","0","kh05er27","0","22","1","1","1","1","Es ist sehr offensichtlich dass das Zeigen der Schriftzeichen mit den Bildern am Anfang die Bewertung ""angenehm - unangenehm"" beeinflussen soll, auch wenn man das Zeichen ignorieren soll.","0","1","0","null","","","<img src = 'category2/CS6.png' width = '100%;'>","null","","","","","","","","","",""
"","html-keyboard-response","148","400698","0.0-8.0-2.14","c2fhk8suto","many_one","0","indirect_first","0","kh05er27","0","22","1","1","1","1","Es ist sehr offensichtlich dass das Zeigen der Schriftzeichen mit den Bildern am Anfang die Bewertung ""angenehm - unangenehm"" beeinflussen soll, auch wenn man das Zeichen ignorieren soll.","0","1","0","null","","","<img src = 'targets/9.png' width = '100%;'>","null","","","","","","","","","",""
"","html-keyboard-response","149","401130","0.0-8.0-3.14","c2fhk8suto","many_one","0","indirect_first","0","kh05er27","0","22","1","1","1","1","Es ist sehr offensichtlich dass das Zeigen der Schriftzeichen mit den Bildern am Anfang die Bewertung ""angenehm - unangenehm"" beeinflussen soll, auch wenn man das Zeichen ignorieren soll.","0","1","0","430","","","<img src = 'targets/mask.png' width = '100%;'>","68","neg","GS","GSold","2","category2/CS6.png","targets/9.png","0","indirect","14",""
"","html-keyboard-response","150","402652","0.0-8.0-0.15","c2fhk8suto","many_one","0","indirect_first","0","kh05er27","0","22","1","1","1","1","Es ist sehr offensichtlich dass das Zeigen der Schriftzeichen mit den Bildern am Anfang die Bewertung ""angenehm - unangenehm"" beeinflussen soll, auch wenn man das Zeichen ignorieren soll.","0","1","0","null","","","<div style=""font-size:60px;"">+</div>","null","","","","","","","","","",""
"","html-keyboard-response","151","402744","0.0-8.0-1.15","c2fhk8suto","many_one","0","indirect_first","0","kh05er27","0","22","1","1","1","1","Es ist sehr offensichtlich dass das Zeigen der Schriftzeichen mit den Bildern am Anfang die Bewertung ""angenehm - unangenehm"" beeinflussen soll, auch wenn man das Zeichen ignorieren soll.","0","1","0","null","","","<img src = 'category3/CS6.png' width = '100%;'>","null","","","","","","","","","",""
"","html-keyboard-response","152","403018","0.0-8.0-2.15","c2fhk8suto","many_one","0","indirect_first","0","kh05er27","0","22","1","1","1","1","Es ist sehr offensichtlich dass das Zeigen der Schriftzeichen mit den Bildern am Anfang die Bewertung ""angenehm - unangenehm"" beeinflussen soll, auch wenn man das Zeichen ignorieren soll.","0","1","0","null","","","<img src = 'targets/22.png' width = '100%;'>","null","","","","","","","","","",""
"","html-keyboard-response","153","403539","0.0-8.0-3.15","c2fhk8suto","many_one","0","indirect_first","0","kh05er27","0","22","1","1","1","1","Es ist sehr offensichtlich dass das Zeigen der Schriftzeichen mit den Bildern am Anfang die Bewertung ""angenehm - unangenehm"" beeinflussen soll, auch wenn man das Zeichen ignorieren soll.","0","1","0","520","","","<img src = 'targets/mask.png' width = '100%;'>","75","pos","CS","CS","3","category3/CS6.png","targets/22.png","1","indirect","15",""
"","html-keyboard-response","154","405046","0.0-8.0-0.16","c2fhk8suto","many_one","0","indirect_first","0","kh05er27","0","22","1","1","1","1","Es ist sehr offensichtlich dass das Zeigen der Schriftzeichen mit den Bildern am Anfang die Bewertung ""angenehm - unangenehm"" beeinflussen soll, auch wenn man das Zeichen ignorieren soll.","0","1","0","null","","","<div style=""font-size:60px;"">+</div>","null","","","","","","","","","",""
"","html-keyboard-response","155","405139","0.0-8.0-1.16","c2fhk8suto","many_one","0","indirect_first","0","kh05er27","0","22","1","1","1","1","Es ist sehr offensichtlich dass das Zeigen der Schriftzeichen mit den Bildern am Anfang die Bewertung ""angenehm - unangenehm"" beeinflussen soll, auch wenn man das Zeichen ignorieren soll.","0","1","0","null","","","<img src = 'category1/CS6.png' width = '100%;'>","null","","","","","","","","","",""
"","html-keyboard-response","156","405411","0.0-8.0-2.16","c2fhk8suto","many_one","0","indirect_first","0","kh05er27","0","22","1","1","1","1","Es ist sehr offensichtlich dass das Zeigen der Schriftzeichen mit den Bildern am Anfang die Bewertung ""angenehm - unangenehm"" beeinflussen soll, auch wenn man das Zeichen ignorieren soll.","0","1","0","null","","","<img src = 'targets/44.png' width = '100%;'>","null","","","","","","","","","",""
"","html-keyboard-response","157","405993","0.0-8.0-3.16","c2fhk8suto","many_one","0","indirect_first","0","kh05er27","0","22","1","1","1","1","Es ist sehr offensichtlich dass das Zeigen der Schriftzeichen mit den Bildern am Anfang die Bewertung ""angenehm - unangenehm"" beeinflussen soll, auch wenn man das Zeichen ignorieren soll.","0","1","0","581","","","<img src = 'targets/mask.png' width = '100%;'>","68","neg","CS","CS","1","category1/CS6.png","targets/44.png","0","indirect","16",""
"","html-keyboard-response","158","407516","0.0-8.0-0.17","c2fhk8suto","many_one","0","indirect_first","0","kh05er27","0","22","1","1","1","1","Es ist sehr offensichtlich dass das Zeigen der Schriftzeichen mit den Bildern am Anfang die Bewertung ""angenehm - unangenehm"" beeinflussen soll, auch wenn man das Zeichen ignorieren soll.","0","1","0","null","","","<div style=""font-size:60px;"">+</div>","null","","","","","","","","","",""
"","html-keyboard-response","159","407610","0.0-8.0-1.17","c2fhk8suto","many_one","0","indirect_first","0","kh05er27","0","22","1","1","1","1","Es ist sehr offensichtlich dass das Zeigen der Schriftzeichen mit den Bildern am Anfang die Bewertung ""angenehm - unangenehm"" beeinflussen soll, auch wenn man das Zeichen ignorieren soll.","0","1","0","null","","","<img src = 'category4/CS7.png' width = '100%;'>","null","","","","","","","","","",""
"","html-keyboard-response","160","407882","0.0-8.0-2.17","c2fhk8suto","many_one","0","indirect_first","0","kh05er27","0","22","1","1","1","1","Es ist sehr offensichtlich dass das Zeigen der Schriftzeichen mit den Bildern am Anfang die Bewertung ""angenehm - unangenehm"" beeinflussen soll, auch wenn man das Zeichen ignorieren soll.","0","1","0","null","","","<img src = 'targets/4.png' width = '100%;'>","null","","","","","","","","","",""
"","html-keyboard-response","161","408371","0.0-8.0-3.17","c2fhk8suto","many_one","0","indirect_first","0","kh05er27","0","22","1","1","1","1","Es ist sehr offensichtlich dass das Zeigen der Schriftzeichen mit den Bildern am Anfang die Bewertung ""angenehm - unangenehm"" beeinflussen soll, auch wenn man das Zeichen ignorieren soll.","0","1","0","488","","","<img src = 'targets/mask.png' width = '100%;'>","68","pos","CS","CS","4","category4/CS7.png","targets/4.png","0","indirect","17",""
"","html-keyboard-response","162","409899","0.0-8.0-0.18","c2fhk8suto","many_one","0","indirect_first","0","kh05er27","0","22","1","1","1","1","Es ist sehr offensichtlich dass das Zeigen der Schriftzeichen mit den Bildern am Anfang die Bewertung ""angenehm - unangenehm"" beeinflussen soll, auch wenn man das Zeichen ignorieren soll.","0","1","0","null","","","<div style=""font-size:60px;"">+</div>","null","","","","","","","","","",""
"","html-keyboard-response","163","409992","0.0-8.0-1.18","c2fhk8suto","many_one","0","indirect_first","0","kh05er27","0","22","1","1","1","1","Es ist sehr offensichtlich dass das Zeigen der Schriftzeichen mit den Bildern am Anfang die Bewertung ""angenehm - unangenehm"" beeinflussen soll, auch wenn man das Zeichen ignorieren soll.","0","1","0","null","","","<img src = 'category2/CS2.png' width = '100%;'>","null","","","","","","","","","",""
"","html-keyboard-response","164","410264","0.0-8.0-2.18","c2fhk8suto","many_one","0","indirect_first","0","kh05er27","0","22","1","1","1","1","Es ist sehr offensichtlich dass das Zeigen der Schriftzeichen mit den Bildern am Anfang die Bewertung ""angenehm - unangenehm"" beeinflussen soll, auch wenn man das Zeichen ignorieren soll.","0","1","0","null","","","<img src = 'targets/8.png' width = '100%;'>","null","","","","","","","","","",""
"","html-keyboard-response","165","410798","0.0-8.0-3.18","c2fhk8suto","many_one","0","indirect_first","0","kh05er27","0","22","1","1","1","1","Es ist sehr offensichtlich dass das Zeigen der Schriftzeichen mit den Bildern am Anfang die Bewertung ""angenehm - unangenehm"" beeinflussen soll, auch wenn man das Zeichen ignorieren soll.","0","1","0","532","","","<img src = 'targets/mask.png' width = '100%;'>","75","neg","GS","GSold","2","category2/CS2.png","targets/8.png","1","indirect","18",""
"","html-keyboard-response","166","412319","0.0-8.0-0.19","c2fhk8suto","many_one","0","indirect_first","0","kh05er27","0","22","1","1","1","1","Es ist sehr offensichtlich dass das Zeigen der Schriftzeichen mit den Bildern am Anfang die Bewertung ""angenehm - unangenehm"" beeinflussen soll, auch wenn man das Zeichen ignorieren soll.","0","1","0","null","","","<div style=""font-size:60px;"">+</div>","null","","","","","","","","","",""
"","html-keyboard-response","167","412410","0.0-8.0-1.19","c2fhk8suto","many_one","0","indirect_first","0","kh05er27","0","22","1","1","1","1","Es ist sehr offensichtlich dass das Zeigen der Schriftzeichen mit den Bildern am Anfang die Bewertung ""angenehm - unangenehm"" beeinflussen soll, auch wenn man das Zeichen ignorieren soll.","0","1","0","null","","","<img src = 'category1/CS10.png' width = '100%;'>","null","","","","","","","","","",""
"","html-keyboard-response","168","412685","0.0-8.0-2.19","c2fhk8suto","many_one","0","indirect_first","0","kh05er27","0","22","1","1","1","1","Es ist sehr offensichtlich dass das Zeigen der Schriftzeichen mit den Bildern am Anfang die Bewertung ""angenehm - unangenehm"" beeinflussen soll, auch wenn man das Zeichen ignorieren soll.","0","1","0","null","","","<img src = 'targets/32.png' width = '100%;'>","null","","","","","","","","","",""
"","html-keyboard-response","169","413045","0.0-8.0-3.19","c2fhk8suto","many_one","0","indirect_first","0","kh05er27","0","22","1","1","1","1","Es ist sehr offensichtlich dass das Zeigen der Schriftzeichen mit den Bildern am Anfang die Bewertung ""angenehm - unangenehm"" beeinflussen soll, auch wenn man das Zeichen ignorieren soll.","0","1","0","359","","","<img src = 'targets/mask.png' width = '100%;'>","75","neg","CS","CS","1","category1/CS10.png","targets/32.png","1","indirect","19",""
"","html-keyboard-response","170","414556","0.0-8.0-0.20","c2fhk8suto","many_one","0","indirect_first","0","kh05er27","0","22","1","1","1","1","Es ist sehr offensichtlich dass das Zeigen der Schriftzeichen mit den Bildern am Anfang die Bewertung ""angenehm - unangenehm"" beeinflussen soll, auch wenn man das Zeichen ignorieren soll.","0","1","0","null","","","<div style=""font-size:60px;"">+</div>","null","","","","","","","","","",""
"","html-keyboard-response","171","414648","0.0-8.0-1.20","c2fhk8suto","many_one","0","indirect_first","0","kh05er27","0","22","1","1","1","1","Es ist sehr offensichtlich dass das Zeigen der Schriftzeichen mit den Bildern am Anfang die Bewertung ""angenehm - unangenehm"" beeinflussen soll, auch wenn man das Zeichen ignorieren soll.","0","1","0","null","","","<img src = 'category2/CS7.png' width = '100%;'>","null","","","","","","","","","",""
"","html-keyboard-response","172","414920","0.0-8.0-2.20","c2fhk8suto","many_one","0","indirect_first","0","kh05er27","0","22","1","1","1","1","Es ist sehr offensichtlich dass das Zeigen der Schriftzeichen mit den Bildern am Anfang die Bewertung ""angenehm - unangenehm"" beeinflussen soll, auch wenn man das Zeichen ignorieren soll.","0","1","0","null","","","<img src = 'targets/28.png' width = '100%;'>","null","","","","","","","","","",""
"","html-keyboard-response","173","415317","0.0-8.0-3.20","c2fhk8suto","many_one","0","indirect_first","0","kh05er27","0","22","1","1","1","1","Es ist sehr offensichtlich dass das Zeigen der Schriftzeichen mit den Bildern am Anfang die Bewertung ""angenehm - unangenehm"" beeinflussen soll, auch wenn man das Zeichen ignorieren soll.","0","1","0","396","","","<img src = 'targets/mask.png' width = '100%;'>","75","neg","CS","CS","2","category2/CS7.png","targets/28.png","1","indirect","20",""
"","html-keyboard-response","174","416844","0.0-8.0-0.21","c2fhk8suto","many_one","0","indirect_first","0","kh05er27","0","22","1","1","1","1","Es ist sehr offensichtlich dass das Zeigen der Schriftzeichen mit den Bildern am Anfang die Bewertung ""angenehm - unangenehm"" beeinflussen soll, auch wenn man das Zeichen ignorieren soll.","0","1","0","null","","","<div style=""font-size:60px;"">+</div>","null","","","","","","","","","",""
"","html-keyboard-response","175","416935","0.0-8.0-1.21","c2fhk8suto","many_one","0","indirect_first","0","kh05er27","0","22","1","1","1","1","Es ist sehr offensichtlich dass das Zeigen der Schriftzeichen mit den Bildern am Anfang die Bewertung ""angenehm - unangenehm"" beeinflussen soll, auch wenn man das Zeichen ignorieren soll.","0","1","0","null","","","<img src = 'category2/CS3.png' width = '100%;'>","null","","","","","","","","","",""
"","html-keyboard-response","176","417209","0.0-8.0-2.21","c2fhk8suto","many_one","0","indirect_first","0","kh05er27","0","22","1","1","1","1","Es ist sehr offensichtlich dass das Zeigen der Schriftzeichen mit den Bildern am Anfang die Bewertung ""angenehm - unangenehm"" beeinflussen soll, auch wenn man das Zeichen ignorieren soll.","0","1","0","null","","","<img src = 'targets/41.png' width = '100%;'>","null","","","","","","","","","",""
"","html-keyboard-response","177","417615","0.0-8.0-3.21","c2fhk8suto","many_one","0","indirect_first","0","kh05er27","0","22","1","1","1","1","Es ist sehr offensichtlich dass das Zeigen der Schriftzeichen mit den Bildern am Anfang die Bewertung ""angenehm - unangenehm"" beeinflussen soll, auch wenn man das Zeichen ignorieren soll.","0","1","0","405","","","<img src = 'targets/mask.png' width = '100%;'>","68","neg","GS","GSold","2","category2/CS3.png","targets/41.png","0","indirect","21",""
"","html-keyboard-response","178","419120","0.0-8.0-0.22","c2fhk8suto","many_one","0","indirect_first","0","kh05er27","0","22","1","1","1","1","Es ist sehr offensichtlich dass das Zeigen der Schriftzeichen mit den Bildern am Anfang die Bewertung ""angenehm - unangenehm"" beeinflussen soll, auch wenn man das Zeichen ignorieren soll.","0","1","0","null","","","<div style=""font-size:60px;"">+</div>","null","","","","","","","","","",""
"","html-keyboard-response","179","419213","0.0-8.0-1.22","c2fhk8suto","many_one","0","indirect_first","0","kh05er27","0","22","1","1","1","1","Es ist sehr offensichtlich dass das Zeigen der Schriftzeichen mit den Bildern am Anfang die Bewertung ""angenehm - unangenehm"" beeinflussen soll, auch wenn man das Zeichen ignorieren soll.","0","1","0","null","","","<img src = 'category4/CS6.png' width = '100%;'>","null","","","","","","","","","",""
"","html-keyboard-response","180","419485","0.0-8.0-2.22","c2fhk8suto","many_one","0","indirect_first","0","kh05er27","0","22","1","1","1","1","Es ist sehr offensichtlich dass das Zeigen der Schriftzeichen mit den Bildern am Anfang die Bewertung ""angenehm - unangenehm"" beeinflussen soll, auch wenn man das Zeichen ignorieren soll.","0","1","0","null","","","<img src = 'targets/47.png' width = '100%;'>","null","","","","","","","","","",""
"","html-keyboard-response","181","420112","0.0-8.0-3.22","c2fhk8suto","many_one","0","indirect_first","0","kh05er27","0","22","1","1","1","1","Es ist sehr offensichtlich dass das Zeigen der Schriftzeichen mit den Bildern am Anfang die Bewertung ""angenehm - unangenehm"" beeinflussen soll, auch wenn man das Zeichen ignorieren soll.","0","1","0","627","","","<img src = 'targets/mask.png' width = '100%;'>","68","pos","CS","CS","4","category4/CS6.png","targets/47.png","0","indirect","22",""
"","html-keyboard-response","182","421635","0.0-8.0-0.23","c2fhk8suto","many_one","0","indirect_first","0","kh05er27","0","22","1","1","1","1","Es ist sehr offensichtlich dass das Zeigen der Schriftzeichen mit den Bildern am Anfang die Bewertung ""angenehm - unangenehm"" beeinflussen soll, auch wenn man das Zeichen ignorieren soll.","0","1","0","null","","","<div style=""font-size:60px;"">+</div>","null","","","","","","","","","",""
"","html-keyboard-response","183","421727","0.0-8.0-1.23","c2fhk8suto","many_one","0","indirect_first","0","kh05er27","0","22","1","1","1","1","Es ist sehr offensichtlich dass das Zeigen der Schriftzeichen mit den Bildern am Anfang die Bewertung ""angenehm - unangenehm"" beeinflussen soll, auch wenn man das Zeichen ignorieren soll.","0","1","0","null","","","<img src = 'category2/CS1.png' width = '100%;'>","null","","","","","","","","","",""
"","html-keyboard-response","184","422000","0.0-8.0-2.23","c2fhk8suto","many_one","0","indirect_first","0","kh05er27","0","22","1","1","1","1","Es ist sehr offensichtlich dass das Zeigen der Schriftzeichen mit den Bildern am Anfang die Bewertung ""angenehm - unangenehm"" beeinflussen soll, auch wenn man das Zeichen ignorieren soll.","0","1","0","null","","","<img src = 'targets/13.png' width = '100%;'>","null","","","","","","","","","",""
"","html-keyboard-response","185","422531","0.0-8.0-3.23","c2fhk8suto","many_one","0","indirect_first","0","kh05er27","0","22","1","1","1","1","Es ist sehr offensichtlich dass das Zeigen der Schriftzeichen mit den Bildern am Anfang die Bewertung ""angenehm - unangenehm"" beeinflussen soll, auch wenn man das Zeichen ignorieren soll.","0","1","0","529","","","<img src = 'targets/mask.png' width = '100%;'>","68","neg","CS","CS","2","category2/CS1.png","targets/13.png","0","indirect","23",""
"","survey-html-form","186","427058","0.0-9.0","c2fhk8suto","many_one","0","indirect_first","0","kh05er27","0","22","1","1","1","1","Es ist sehr offensichtlich dass das Zeigen der Schriftzeichen mit den Bildern am Anfang die Bewertung ""angenehm - unangenehm"" beeinflussen soll, auch wenn man das Zeichen ignorieren soll.","0","1","0","4013","","{}","","","","","","","","","","","",""
"","html-keyboard-response","187","430078","0.0-10.0-0.0","c2fhk8suto","many_one","0","indirect_first","0","kh05er27","0","22","1","1","1","1","Es ist sehr offensichtlich dass das Zeigen der Schriftzeichen mit den Bildern am Anfang die Bewertung ""angenehm - unangenehm"" beeinflussen soll, auch wenn man das Zeichen ignorieren soll.","0","1","0","null","","","<div style=""font-size:60px;"">+</div>","null","","","","","","","","","",""
"","html-keyboard-response","188","430170","0.0-10.0-1.0","c2fhk8suto","many_one","0","indirect_first","0","kh05er27","0","22","1","1","1","1","Es ist sehr offensichtlich dass das Zeigen der Schriftzeichen mit den Bildern am Anfang die Bewertung ""angenehm - unangenehm"" beeinflussen soll, auch wenn man das Zeichen ignorieren soll.","0","1","0","null","","","<img src = 'category2/GS2.png' width = '100%;'>","null","","","","","","","","","",""
"","html-keyboard-response","189","430443","0.0-10.0-2.0","c2fhk8suto","many_one","0","indirect_first","0","kh05er27","0","22","1","1","1","1","Es ist sehr offensichtlich dass das Zeigen der Schriftzeichen mit den Bildern am Anfang die Bewertung ""angenehm - unangenehm"" beeinflussen soll, auch wenn man das Zeichen ignorieren soll.","0","1","0","null","","","<img src = 'targets/6.png' width = '100%;'>","null","","","","","","","","","",""
"","html-keyboard-response","190","431208","0.0-10.0-3.0","c2fhk8suto","many_one","0","indirect_first","0","kh05er27","0","22","1","1","1","1","Es ist sehr offensichtlich dass das Zeigen der Schriftzeichen mit den Bildern am Anfang die Bewertung ""angenehm - unangenehm"" beeinflussen soll, auch wenn man das Zeichen ignorieren soll.","0","1","0","764","","","<img src = 'targets/mask.png' width = '100%;'>","68","neg","GS","GSnew","2","category2/GS2.png","targets/6.png","0","indirect","24",""
"","html-keyboard-response","191","432727","0.0-10.0-0.1","c2fhk8suto","many_one","0","indirect_first","0","kh05er27","0","22","1","1","1","1","Es ist sehr offensichtlich dass das Zeigen der Schriftzeichen mit den Bildern am Anfang die Bewertung ""angenehm - unangenehm"" beeinflussen soll, auch wenn man das Zeichen ignorieren soll.","0","1","0","null","","","<div style=""font-size:60px;"">+</div>","null","","","","","","","","","",""
