"success","trial_type","trial_index","time_elapsed","internal_node_id","subject","condition","condition_code","measure","measure_code","codeword","gender","age","education","chinese","fach","handedness","comment","hinschauen","ablenkung","gewissenhaft","rt","url","responses","stimulus","key_press","val","type","type_specific","category","cs_selected","response","target","task","indirect","nr_pres"
"true","fullscreen","0","2783","0.0-0.0","6a9y2qhjwk","one_one","1","direct_first","1","ig05nk07","1","22","1","1","3","1","","0","1","0","","","","","","","","","","","","","","",""
"","external-html","1","5069","0.0-1.0","6a9y2qhjwk","one_one","1","direct_first","1","ig05nk07","1","22","1","1","3","1","","0","1","0","2242.259999969974","text/information.html","","","","","","","","","","","","",""
"","external-html","2","17785","0.0-2.0","6a9y2qhjwk","one_one","1","direct_first","1","ig05nk07","1","22","1","1","3","1","","0","1","0","12654.910000041127","text/consent.html","","","","","","","","","","","","",""
"","survey-html-form","3","69175","0.0-3.0","6a9y2qhjwk","one_one","1","direct_first","1","ig05nk07","1","22","1","1","3","1","","0","1","0","51382.0499998983","","{""codeword_enter"":""ig05nk07""}","","","","","","","","","","","",""
"","survey-html-form","4","84620","0.0-4.0","6a9y2qhjwk","one_one","1","direct_first","1","ig05nk07","1","22","1","1","3","1","","0","1","0","15439.939999952912","","{""age"":""22"",""education"":""1"",""subject"":""3"",""gender"":""1"",""handedness"":""1"",""chinese"":""1""}","","","","","","","","","","","",""
"","survey-html-form","5","104465","0.0-5.0","6a9y2qhjwk","one_one","1","direct_first","1","ig05nk07","1","22","1","1","3","1","","0","1","0","19841.679999837652","","{}","","","","","","","","","","","",""
"","html-keyboard-response","6","108468","0.0-6.0-0.0-0.0","6a9y2qhjwk","one_one","1","direct_first","1","ig05nk07","1","22","1","1","3","1","","0","1","0","null","","","<div class = 'row'><div class = 'column'><img src = 'category3/CS8.png' width = '70%;'></div><div class = 'column'><img src = 'usneg/9404.bmp' width = '100%;'></div></div>","null","neg","CS","CS","3","category3/CS8.png","","","","",""
"","html-keyboard-response","7","110970","0.0-6.0-0.0-0.1","6a9y2qhjwk","one_one","1","direct_first","1","ig05nk07","1","22","1","1","3","1","","0","1","0","null","","","<div class = 'row'><div class = 'column'><img src = 'category4/CS7.png' width = '70%;'></div><div class = 'column'><img src = 'uspos/2150.bmp' width = '100%;'></div></div>","null","pos","CS","CS","4","category4/CS7.png","","","","",""
"","html-keyboard-response","8","113473","0.0-6.0-0.0-0.2","6a9y2qhjwk","one_one","1","direct_first","1","ig05nk07","1","22","1","1","3","1","","0","1","0","null","","","<div class = 'row'><div class = 'column'><img src = 'category2/CS2.png' width = '70%;'></div><div class = 'column'><img src = 'uspos/5600.bmp' width = '100%;'></div></div>","null","pos","CS","CS","2","category2/CS2.png","","","","",""
"","html-keyboard-response","9","115976","0.0-6.0-0.0-0.3","6a9y2qhjwk","one_one","1","direct_first","1","ig05nk07","1","22","1","1","3","1","","0","1","0","null","","","<div class = 'row'><div class = 'column'><img src = 'uspos/2150.bmp' width = '100%;'></div><div class = 'column'><img src = 'category4/CS7.png' width = '70%;'></div></div>","null","pos","CS","CS","4","category4/CS7.png","","","","",""
"","html-keyboard-response","10","118481","0.0-6.0-0.0-0.4","6a9y2qhjwk","one_one","1","direct_first","1","ig05nk07","1","22","1","1","3","1","","0","1","0","null","","","<div class = 'row'><div class = 'column'><img src = 'category1/CS6.png' width = '70%;'></div><div class = 'column'><img src = 'usneg/9340.bmp' width = '100%;'></div></div>","null","neg","CS","CS","1","category1/CS6.png","","","","",""
"","html-keyboard-response","11","120985","0.0-6.0-0.0-0.5","6a9y2qhjwk","one_one","1","direct_first","1","ig05nk07","1","22","1","1","3","1","","0","1","0","null","","","<div class = 'row'><div class = 'column'><img src = 'usneg/9404.bmp' width = '100%;'></div><div class = 'column'><img src = 'category3/CS8.png' width = '70%;'></div></div>","null","neg","CS","CS","3","category3/CS8.png","","","","",""
"","html-keyboard-response","12","123488","0.0-6.0-0.0-0.6","6a9y2qhjwk","one_one","1","direct_first","1","ig05nk07","1","22","1","1","3","1","","0","1","0","null","","","<div class = 'row'><div class = 'column'><img src = 'usneg/9340.bmp' width = '100%;'></div><div class = 'column'><img src = 'category1/CS6.png' width = '70%;'></div></div>","null","neg","CS","CS","1","category1/CS6.png","","","","",""
"","html-keyboard-response","13","125992","0.0-6.0-0.0-0.7","6a9y2qhjwk","one_one","1","direct_first","1","ig05nk07","1","22","1","1","3","1","","0","1","0","null","","","<div class = 'row'><div class = 'column'><img src = 'uspos/2150.bmp' width = '100%;'></div><div class = 'column'><img src = 'category4/CS7.png' width = '70%;'></div></div>","null","pos","CS","CS","4","category4/CS7.png","","","","",""
"","html-keyboard-response","14","128496","0.0-6.0-0.0-0.8","6a9y2qhjwk","one_one","1","direct_first","1","ig05nk07","1","22","1","1","3","1","","0","1","0","null","","","<div class = 'row'><div class = 'column'><img src = 'category2/CS2.png' width = '70%;'></div><div class = 'column'><img src = 'uspos/5600.bmp' width = '100%;'></div></div>","null","pos","CS","CS","2","category2/CS2.png","","","","",""
"","html-keyboard-response","15","130999","0.0-6.0-0.0-0.9","6a9y2qhjwk","one_one","1","direct_first","1","ig05nk07","1","22","1","1","3","1","","0","1","0","null","","","<div class = 'row'><div class = 'column'><img src = 'usneg/9404.bmp' width = '100%;'></div><div class = 'column'><img src = 'category3/CS8.png' width = '70%;'></div></div>","null","neg","CS","CS","3","category3/CS8.png","","","","",""
"","html-keyboard-response","16","133502","0.0-6.0-0.0-0.10","6a9y2qhjwk","one_one","1","direct_first","1","ig05nk07","1","22","1","1","3","1","","0","1","0","null","","","<div class = 'row'><div class = 'column'><img src = 'uspos/2150.bmp' width = '100%;'></div><div class = 'column'><img src = 'category4/CS7.png' width = '70%;'></div></div>","null","pos","CS","CS","4","category4/CS7.png","","","","",""
"","html-keyboard-response","17","136004","0.0-6.0-0.0-0.11","6a9y2qhjwk","one_one","1","direct_first","1","ig05nk07","1","22","1","1","3","1","","0","1","0","null","","","<div class = 'row'><div class = 'column'><img src = 'usneg/9340.bmp' width = '100%;'></div><div class = 'column'><img src = 'category1/CS6.png' width = '70%;'></div></div>","null","neg","CS","CS","1","category1/CS6.png","","","","",""
"","html-keyboard-response","18","138508","0.0-6.0-0.0-0.12","6a9y2qhjwk","one_one","1","direct_first","1","ig05nk07","1","22","1","1","3","1","","0","1","0","null","","","<div class = 'row'><div class = 'column'><img src = 'category3/CS8.png' width = '70%;'></div><div class = 'column'><img src = 'usneg/9404.bmp' width = '100%;'></div></div>","null","neg","CS","CS","3","category3/CS8.png","","","","",""
"","html-keyboard-response","19","141011","0.0-6.0-0.0-0.13","6a9y2qhjwk","one_one","1","direct_first","1","ig05nk07","1","22","1","1","3","1","","0","1","0","null","","","<div class = 'row'><div class = 'column'><img src = 'category2/CS2.png' width = '70%;'></div><div class = 'column'><img src = 'uspos/5600.bmp' width = '100%;'></div></div>","null","pos","CS","CS","2","category2/CS2.png","","","","",""
"","html-keyboard-response","20","143513","0.0-6.0-0.0-0.14","6a9y2qhjwk","one_one","1","direct_first","1","ig05nk07","1","22","1","1","3","1","","0","1","0","null","","","<div class = 'row'><div class = 'column'><img src = 'usneg/9340.bmp' width = '100%;'></div><div class = 'column'><img src = 'category1/CS6.png' width = '70%;'></div></div>","null","neg","CS","CS","1","category1/CS6.png","","","","",""
"","html-keyboard-response","21","146015","0.0-6.0-0.0-0.15","6a9y2qhjwk","one_one","1","direct_first","1","ig05nk07","1","22","1","1","3","1","","0","1","0","null","","","<div class = 'row'><div class = 'column'><img src = 'uspos/5600.bmp' width = '100%;'></div><div class = 'column'><img src = 'category2/CS2.png' width = '70%;'></div></div>","null","pos","CS","CS","2","category2/CS2.png","","","","",""
"","html-keyboard-response","22","148518","0.0-6.0-0.0-0.16","6a9y2qhjwk","one_one","1","direct_first","1","ig05nk07","1","22","1","1","3","1","","0","1","0","null","","","<div class = 'row'><div class = 'column'><img src = 'category3/CS8.png' width = '70%;'></div><div class = 'column'><img src = 'usneg/9404.bmp' width = '100%;'></div></div>","null","neg","CS","CS","3","category3/CS8.png","","","","",""
"","html-keyboard-response","23","151022","0.0-6.0-0.0-0.17","6a9y2qhjwk","one_one","1","direct_first","1","ig05nk07","1","22","1","1","3","1","","0","1","0","null","","","<div class = 'row'><div class = 'column'><img src = 'category1/CS6.png' width = '70%;'></div><div class = 'column'><img src = 'usneg/9340.bmp' width = '100%;'></div></div>","null","neg","CS","CS","1","category1/CS6.png","","","","",""
"","html-keyboard-response","24","153526","0.0-6.0-0.0-0.18","6a9y2qhjwk","one_one","1","direct_first","1","ig05nk07","1","22","1","1","3","1","","0","1","0","null","","","<div class = 'row'><div class = 'column'><img src = 'category2/CS2.png' width = '70%;'></div><div class = 'column'><img src = 'uspos/5600.bmp' width = '100%;'></div></div>","null","pos","CS","CS","2","category2/CS2.png","","","","",""
"","html-keyboard-response","25","156029","0.0-6.0-0.0-0.19","6a9y2qhjwk","one_one","1","direct_first","1","ig05nk07","1","22","1","1","3","1","","0","1","0","null","","","<div class = 'row'><div class = 'column'><img src = 'uspos/2150.bmp' width = '100%;'></div><div class = 'column'><img src = 'category4/CS7.png' width = '70%;'></div></div>","null","pos","CS","CS","4","category4/CS7.png","","","","",""
"","survey-html-form","26","159752","0.0-6.0-1.0","6a9y2qhjwk","one_one","1","direct_first","1","ig05nk07","1","22","1","1","3","1","","0","1","0","3220.489999977872","","{}","","","","","","","","","","","",""
"","html-keyboard-response","27","163755","0.0-6.0-2.0-0.0","6a9y2qhjwk","one_one","1","direct_first","1","ig05nk07","1","22","1","1","3","1","","0","1","0","null","","","<div class = 'row'><div class = 'column'><img src = 'category2/CS2.png' width = '70%;'></div><div class = 'column'><img src = 'uspos/5600.bmp' width = '100%;'></div></div>","null","pos","CS","CS","2","category2/CS2.png","","","","",""
"","html-keyboard-response","28","166258","0.0-6.0-2.0-0.1","6a9y2qhjwk","one_one","1","direct_first","1","ig05nk07","1","22","1","1","3","1","","0","1","0","null","","","<div class = 'row'><div class = 'column'><img src = 'category1/CS6.png' width = '70%;'></div><div class = 'column'><img src = 'usneg/9340.bmp' width = '100%;'></div></div>","null","neg","CS","CS","1","category1/CS6.png","","","","",""
"","html-keyboard-response","29","168761","0.0-6.0-2.0-0.2","6a9y2qhjwk","one_one","1","direct_first","1","ig05nk07","1","22","1","1","3","1","","0","1","0","null","","","<div class = 'row'><div class = 'column'><img src = 'uspos/2150.bmp' width = '100%;'></div><div class = 'column'><img src = 'category4/CS7.png' width = '70%;'></div></div>","null","pos","CS","CS","4","category4/CS7.png","","","","",""
"","html-keyboard-response","30","171264","0.0-6.0-2.0-0.3","6a9y2qhjwk","one_one","1","direct_first","1","ig05nk07","1","22","1","1","3","1","","0","1","0","null","","","<div class = 'row'><div class = 'column'><img src = 'category2/CS2.png' width = '70%;'></div><div class = 'column'><img src = 'uspos/5600.bmp' width = '100%;'></div></div>","null","pos","CS","CS","2","category2/CS2.png","","","","",""
"","html-keyboard-response","31","173768","0.0-6.0-2.0-0.4","6a9y2qhjwk","one_one","1","direct_first","1","ig05nk07","1","22","1","1","3","1","","0","1","0","null","","","<div class = 'row'><div class = 'column'><img src = 'category4/CS7.png' width = '70%;'></div><div class = 'column'><img src = 'uspos/2150.bmp' width = '100%;'></div></div>","null","pos","CS","CS","4","category4/CS7.png","","","","",""
"","html-keyboard-response","32","176271","0.0-6.0-2.0-0.5","6a9y2qhjwk","one_one","1","direct_first","1","ig05nk07","1","22","1","1","3","1","","0","1","0","null","","","<div class = 'row'><div class = 'column'><img src = 'uspos/5600.bmp' width = '100%;'></div><div class = 'column'><img src = 'category2/CS2.png' width = '70%;'></div></div>","null","pos","CS","CS","2","category2/CS2.png","","","","",""
"","html-keyboard-response","33","178774","0.0-6.0-2.0-0.6","6a9y2qhjwk","one_one","1","direct_first","1","ig05nk07","1","22","1","1","3","1","","0","1","0","null","","","<div class = 'row'><div class = 'column'><img src = 'category3/CS8.png' width = '70%;'></div><div class = 'column'><img src = 'usneg/9404.bmp' width = '100%;'></div></div>","null","neg","CS","CS","3","category3/CS8.png","","","","",""
"","html-keyboard-response","34","181277","0.0-6.0-2.0-0.7","6a9y2qhjwk","one_one","1","direct_first","1","ig05nk07","1","22","1","1","3","1","","0","1","0","null","","","<div class = 'row'><div class = 'column'><img src = 'category1/CS6.png' width = '70%;'></div><div class = 'column'><img src = 'usneg/9340.bmp' width = '100%;'></div></div>","null","neg","CS","CS","1","category1/CS6.png","","","","",""
"","html-keyboard-response","35","183781","0.0-6.0-2.0-0.8","6a9y2qhjwk","one_one","1","direct_first","1","ig05nk07","1","22","1","1","3","1","","0","1","0","null","","","<div class = 'row'><div class = 'column'><img src = 'usneg/9404.bmp' width = '100%;'></div><div class = 'column'><img src = 'category3/CS8.png' width = '70%;'></div></div>","null","neg","CS","CS","3","category3/CS8.png","","","","",""
"","html-keyboard-response","36","186284","0.0-6.0-2.0-0.9","6a9y2qhjwk","one_one","1","direct_first","1","ig05nk07","1","22","1","1","3","1","","0","1","0","null","","","<div class = 'row'><div class = 'column'><img src = 'category4/CS7.png' width = '70%;'></div><div class = 'column'><img src = 'uspos/2150.bmp' width = '100%;'></div></div>","null","pos","CS","CS","4","category4/CS7.png","","","","",""
"","html-keyboard-response","37","188787","0.0-6.0-2.0-0.10","6a9y2qhjwk","one_one","1","direct_first","1","ig05nk07","1","22","1","1","3","1","","0","1","0","null","","","<div class = 'row'><div class = 'column'><img src = 'usneg/9404.bmp' width = '100%;'></div><div class = 'column'><img src = 'category3/CS8.png' width = '70%;'></div></div>","null","neg","CS","CS","3","category3/CS8.png","","","","",""
"","html-keyboard-response","38","191291","0.0-6.0-2.0-0.11","6a9y2qhjwk","one_one","1","direct_first","1","ig05nk07","1","22","1","1","3","1","","0","1","0","null","","","<div class = 'row'><div class = 'column'><img src = 'category2/CS2.png' width = '70%;'></div><div class = 'column'><img src = 'uspos/5600.bmp' width = '100%;'></div></div>","null","pos","CS","CS","2","category2/CS2.png","","","","",""
"","html-keyboard-response","39","193795","0.0-6.0-2.0-0.12","6a9y2qhjwk","one_one","1","direct_first","1","ig05nk07","1","22","1","1","3","1","","0","1","0","null","","","<div class = 'row'><div class = 'column'><img src = 'category3/CS8.png' width = '70%;'></div><div class = 'column'><img src = 'usneg/9404.bmp' width = '100%;'></div></div>","null","neg","CS","CS","3","category3/CS8.png","","","","",""
"","html-keyboard-response","40","196298","0.0-6.0-2.0-0.13","6a9y2qhjwk","one_one","1","direct_first","1","ig05nk07","1","22","1","1","3","1","","0","1","0","null","","","<div class = 'row'><div class = 'column'><img src = 'category4/CS7.png' width = '70%;'></div><div class = 'column'><img src = 'uspos/2150.bmp' width = '100%;'></div></div>","null","pos","CS","CS","4","category4/CS7.png","","","","",""
"","html-keyboard-response","41","198801","0.0-6.0-2.0-0.14","6a9y2qhjwk","one_one","1","direct_first","1","ig05nk07","1","22","1","1","3","1","","0","1","0","null","","","<div class = 'row'><div class = 'column'><img src = 'category1/CS6.png' width = '70%;'></div><div class = 'column'><img src = 'usneg/9340.bmp' width = '100%;'></div></div>","null","neg","CS","CS","1","category1/CS6.png","","","","",""
"","html-keyboard-response","42","201304","0.0-6.0-2.0-0.15","6a9y2qhjwk","one_one","1","direct_first","1","ig05nk07","1","22","1","1","3","1","","0","1","0","null","","","<div class = 'row'><div class = 'column'><img src = 'category2/CS2.png' width = '70%;'></div><div class = 'column'><img src = 'uspos/5600.bmp' width = '100%;'></div></div>","null","pos","CS","CS","2","category2/CS2.png","","","","",""
"","html-keyboard-response","43","203806","0.0-6.0-2.0-0.16","6a9y2qhjwk","one_one","1","direct_first","1","ig05nk07","1","22","1","1","3","1","","0","1","0","null","","","<div class = 'row'><div class = 'column'><img src = 'uspos/2150.bmp' width = '100%;'></div><div class = 'column'><img src = 'category4/CS7.png' width = '70%;'></div></div>","null","pos","CS","CS","4","category4/CS7.png","","","","",""
"","html-keyboard-response","44","206310","0.0-6.0-2.0-0.17","6a9y2qhjwk","one_one","1","direct_first","1","ig05nk07","1","22","1","1","3","1","","0","1","0","null","","","<div class = 'row'><div class = 'column'><img src = 'usneg/9340.bmp' width = '100%;'></div><div class = 'column'><img src = 'category1/CS6.png' width = '70%;'></div></div>","null","neg","CS","CS","1","category1/CS6.png","","","","",""
"","html-keyboard-response","45","208813","0.0-6.0-2.0-0.18","6a9y2qhjwk","one_one","1","direct_first","1","ig05nk07","1","22","1","1","3","1","","0","1","0","null","","","<div class = 'row'><div class = 'column'><img src = 'category3/CS8.png' width = '70%;'></div><div class = 'column'><img src = 'usneg/9404.bmp' width = '100%;'></div></div>","null","neg","CS","CS","3","category3/CS8.png","","","","",""
"","html-keyboard-response","46","211317","0.0-6.0-2.0-0.19","6a9y2qhjwk","one_one","1","direct_first","1","ig05nk07","1","22","1","1","3","1","","0","1","0","null","","","<div class = 'row'><div class = 'column'><img src = 'usneg/9340.bmp' width = '100%;'></div><div class = 'column'><img src = 'category1/CS6.png' width = '70%;'></div></div>","null","neg","CS","CS","1","category1/CS6.png","","","","",""
"","survey-html-form","47","214894","0.0-6.0-3.0","6a9y2qhjwk","one_one","1","direct_first","1","ig05nk07","1","22","1","1","3","1","","0","1","0","3076.1200000997633","","{}","","","","","","","","","","","",""
"","html-keyboard-response","48","218898","0.0-6.0-4.0-0.0","6a9y2qhjwk","one_one","1","direct_first","1","ig05nk07","1","22","1","1","3","1","","0","1","0","null","","","<div class = 'row'><div class = 'column'><img src = 'usneg/9404.bmp' width = '100%;'></div><div class = 'column'><img src = 'category3/CS8.png' width = '70%;'></div></div>","null","neg","CS","CS","3","category3/CS8.png","","","","",""
"","html-keyboard-response","49","221401","0.0-6.0-4.0-0.1","6a9y2qhjwk","one_one","1","direct_first","1","ig05nk07","1","22","1","1","3","1","","0","1","0","null","","","<div class = 'row'><div class = 'column'><img src = 'uspos/2150.bmp' width = '100%;'></div><div class = 'column'><img src = 'category4/CS7.png' width = '70%;'></div></div>","null","pos","CS","CS","4","category4/CS7.png","","","","",""
"","html-keyboard-response","50","223904","0.0-6.0-4.0-0.2","6a9y2qhjwk","one_one","1","direct_first","1","ig05nk07","1","22","1","1","3","1","","0","1","0","null","","","<div class = 'row'><div class = 'column'><img src = 'usneg/9340.bmp' width = '100%;'></div><div class = 'column'><img src = 'category1/CS6.png' width = '70%;'></div></div>","null","neg","CS","CS","1","category1/CS6.png","","","","",""
"","html-keyboard-response","51","226406","0.0-6.0-4.0-0.3","6a9y2qhjwk","one_one","1","direct_first","1","ig05nk07","1","22","1","1","3","1","","0","1","0","null","","","<div class = 'row'><div class = 'column'><img src = 'uspos/5600.bmp' width = '100%;'></div><div class = 'column'><img src = 'category2/CS2.png' width = '70%;'></div></div>","null","pos","CS","CS","2","category2/CS2.png","","","","",""
"","html-keyboard-response","52","228909","0.0-6.0-4.0-0.4","6a9y2qhjwk","one_one","1","direct_first","1","ig05nk07","1","22","1","1","3","1","","0","1","0","null","","","<div class = 'row'><div class = 'column'><img src = 'usneg/9404.bmp' width = '100%;'></div><div class = 'column'><img src = 'category3/CS8.png' width = '70%;'></div></div>","null","neg","CS","CS","3","category3/CS8.png","","","","",""
"","html-keyboard-response","53","231413","0.0-6.0-4.0-0.5","6a9y2qhjwk","one_one","1","direct_first","1","ig05nk07","1","22","1","1","3","1","","0","1","0","null","","","<div class = 'row'><div class = 'column'><img src = 'category4/CS7.png' width = '70%;'></div><div class = 'column'><img src = 'uspos/2150.bmp' width = '100%;'></div></div>","null","pos","CS","CS","4","category4/CS7.png","","","","",""
"","html-keyboard-response","54","233916","0.0-6.0-4.0-0.6","6a9y2qhjwk","one_one","1","direct_first","1","ig05nk07","1","22","1","1","3","1","","0","1","0","null","","","<div class = 'row'><div class = 'column'><img src = 'category1/CS6.png' width = '70%;'></div><div class = 'column'><img src = 'usneg/9340.bmp' width = '100%;'></div></div>","null","neg","CS","CS","1","category1/CS6.png","","","","",""
"","html-keyboard-response","55","236419","0.0-6.0-4.0-0.7","6a9y2qhjwk","one_one","1","direct_first","1","ig05nk07","1","22","1","1","3","1","","0","1","0","null","","","<div class = 'row'><div class = 'column'><img src = 'category4/CS7.png' width = '70%;'></div><div class = 'column'><img src = 'uspos/2150.bmp' width = '100%;'></div></div>","null","pos","CS","CS","4","category4/CS7.png","","","","",""
"","html-keyboard-response","56","238922","0.0-6.0-4.0-0.8","6a9y2qhjwk","one_one","1","direct_first","1","ig05nk07","1","22","1","1","3","1","","0","1","0","null","","","<div class = 'row'><div class = 'column'><img src = 'category1/CS6.png' width = '70%;'></div><div class = 'column'><img src = 'usneg/9340.bmp' width = '100%;'></div></div>","null","neg","CS","CS","1","category1/CS6.png","","","","",""
"","html-keyboard-response","57","241424","0.0-6.0-4.0-0.9","6a9y2qhjwk","one_one","1","direct_first","1","ig05nk07","1","22","1","1","3","1","","0","1","0","null","","","<div class = 'row'><div class = 'column'><img src = 'usneg/9404.bmp' width = '100%;'></div><div class = 'column'><img src = 'category3/CS8.png' width = '70%;'></div></div>","null","neg","CS","CS","3","category3/CS8.png","","","","",""
"","html-keyboard-response","58","243927","0.0-6.0-4.0-0.10","6a9y2qhjwk","one_one","1","direct_first","1","ig05nk07","1","22","1","1","3","1","","0","1","0","null","","","<div class = 'row'><div class = 'column'><img src = 'category2/CS2.png' width = '70%;'></div><div class = 'column'><img src = 'uspos/5600.bmp' width = '100%;'></div></div>","null","pos","CS","CS","2","category2/CS2.png","","","","",""
"","html-keyboard-response","59","246438","0.0-6.0-4.0-0.11","6a9y2qhjwk","one_one","1","direct_first","1","ig05nk07","1","22","1","1","3","1","","0","1","0","null","","","<div class = 'row'><div class = 'column'><img src = 'category3/CS8.png' width = '70%;'></div><div class = 'column'><img src = 'usneg/9404.bmp' width = '100%;'></div></div>","null","neg","CS","CS","3","category3/CS8.png","","","","",""
"","html-keyboard-response","60","248943","0.0-6.0-4.0-0.12","6a9y2qhjwk","one_one","1","direct_first","1","ig05nk07","1","22","1","1","3","1","","0","1","0","null","","","<div class = 'row'><div class = 'column'><img src = 'category1/CS6.png' width = '70%;'></div><div class = 'column'><img src = 'usneg/9340.bmp' width = '100%;'></div></div>","null","neg","CS","CS","1","category1/CS6.png","","","","",""
"","html-keyboard-response","61","251445","0.0-6.0-4.0-0.13","6a9y2qhjwk","one_one","1","direct_first","1","ig05nk07","1","22","1","1","3","1","","0","1","0","null","","","<div class = 'row'><div class = 'column'><img src = 'category2/CS2.png' width = '70%;'></div><div class = 'column'><img src = 'uspos/5600.bmp' width = '100%;'></div></div>","null","pos","CS","CS","2","category2/CS2.png","","","","",""
"","html-keyboard-response","62","253949","0.0-6.0-4.0-0.14","6a9y2qhjwk","one_one","1","direct_first","1","ig05nk07","1","22","1","1","3","1","","0","1","0","null","","","<div class = 'row'><div class = 'column'><img src = 'category4/CS7.png' width = '70%;'></div><div class = 'column'><img src = 'uspos/2150.bmp' width = '100%;'></div></div>","null","pos","CS","CS","4","category4/CS7.png","","","","",""
"","html-keyboard-response","63","256453","0.0-6.0-4.0-0.15","6a9y2qhjwk","one_one","1","direct_first","1","ig05nk07","1","22","1","1","3","1","","0","1","0","null","","","<div class = 'row'><div class = 'column'><img src = 'category2/CS2.png' width = '70%;'></div><div class = 'column'><img src = 'uspos/5600.bmp' width = '100%;'></div></div>","null","pos","CS","CS","2","category2/CS2.png","","","","",""
"","html-keyboard-response","64","258957","0.0-6.0-4.0-0.16","6a9y2qhjwk","one_one","1","direct_first","1","ig05nk07","1","22","1","1","3","1","","0","1","0","null","","","<div class = 'row'><div class = 'column'><img src = 'usneg/9340.bmp' width = '100%;'></div><div class = 'column'><img src = 'category1/CS6.png' width = '70%;'></div></div>","null","neg","CS","CS","1","category1/CS6.png","","","","",""
"","html-keyboard-response","65","261461","0.0-6.0-4.0-0.17","6a9y2qhjwk","one_one","1","direct_first","1","ig05nk07","1","22","1","1","3","1","","0","1","0","null","","","<div class = 'row'><div class = 'column'><img src = 'uspos/5600.bmp' width = '100%;'></div><div class = 'column'><img src = 'category2/CS2.png' width = '70%;'></div></div>","null","pos","CS","CS","2","category2/CS2.png","","","","",""
"","html-keyboard-response","66","263964","0.0-6.0-4.0-0.18","6a9y2qhjwk","one_one","1","direct_first","1","ig05nk07","1","22","1","1","3","1","","0","1","0","null","","","<div class = 'row'><div class = 'column'><img src = 'usneg/9404.bmp' width = '100%;'></div><div class = 'column'><img src = 'category3/CS8.png' width = '70%;'></div></div>","null","neg","CS","CS","3","category3/CS8.png","","","","",""
"","html-keyboard-response","67","266468","0.0-6.0-4.0-0.19","6a9y2qhjwk","one_one","1","direct_first","1","ig05nk07","1","22","1","1","3","1","","0","1","0","null","","","<div class = 'row'><div class = 'column'><img src = 'uspos/2150.bmp' width = '100%;'></div><div class = 'column'><img src = 'category4/CS7.png' width = '70%;'></div></div>","null","pos","CS","CS","4","category4/CS7.png","","","","",""
"","survey-html-form","68","268184","0.0-6.0-5.0","6a9y2qhjwk","one_one","1","direct_first","1","ig05nk07","1","22","1","1","3","1","","0","1","0","1213.315000059083","","{}","","","","","","","","","","","",""
"","html-keyboard-response","69","272189","0.0-6.0-6.0-0.0","6a9y2qhjwk","one_one","1","direct_first","1","ig05nk07","1","22","1","1","3","1","","0","1","0","null","","","<div class = 'row'><div class = 'column'><img src = 'category2/CS2.png' width = '70%;'></div><div class = 'column'><img src = 'uspos/5600.bmp' width = '100%;'></div></div>","null","pos","CS","CS","2","category2/CS2.png","","","","",""
"","html-keyboard-response","70","274693","0.0-6.0-6.0-0.1","6a9y2qhjwk","one_one","1","direct_first","1","ig05nk07","1","22","1","1","3","1","","0","1","0","null","","","<div class = 'row'><div class = 'column'><img src = 'category1/CS6.png' width = '70%;'></div><div class = 'column'><img src = 'usneg/9340.bmp' width = '100%;'></div></div>","null","neg","CS","CS","1","category1/CS6.png","","","","",""
"","html-keyboard-response","71","277196","0.0-6.0-6.0-0.2","6a9y2qhjwk","one_one","1","direct_first","1","ig05nk07","1","22","1","1","3","1","","0","1","0","null","","","<div class = 'row'><div class = 'column'><img src = 'uspos/2150.bmp' width = '100%;'></div><div class = 'column'><img src = 'category4/CS7.png' width = '70%;'></div></div>","null","pos","CS","CS","4","category4/CS7.png","","","","",""
"","html-keyboard-response","72","279699","0.0-6.0-6.0-0.3","6a9y2qhjwk","one_one","1","direct_first","1","ig05nk07","1","22","1","1","3","1","","0","1","0","null","","","<div class = 'row'><div class = 'column'><img src = 'category3/CS8.png' width = '70%;'></div><div class = 'column'><img src = 'usneg/9404.bmp' width = '100%;'></div></div>","null","neg","CS","CS","3","category3/CS8.png","","","","",""
"","html-keyboard-response","73","282202","0.0-6.0-6.0-0.4","6a9y2qhjwk","one_one","1","direct_first","1","ig05nk07","1","22","1","1","3","1","","0","1","0","null","","","<div class = 'row'><div class = 'column'><img src = 'uspos/2150.bmp' width = '100%;'></div><div class = 'column'><img src = 'category4/CS7.png' width = '70%;'></div></div>","null","pos","CS","CS","4","category4/CS7.png","","","","",""
"","html-keyboard-response","74","284707","0.0-6.0-6.0-0.5","6a9y2qhjwk","one_one","1","direct_first","1","ig05nk07","1","22","1","1","3","1","","0","1","0","null","","","<div class = 'row'><div class = 'column'><img src = 'usneg/9340.bmp' width = '100%;'></div><div class = 'column'><img src = 'category1/CS6.png' width = '70%;'></div></div>","null","neg","CS","CS","1","category1/CS6.png","","","","",""
"","html-keyboard-response","75","287209","0.0-6.0-6.0-0.6","6a9y2qhjwk","one_one","1","direct_first","1","ig05nk07","1","22","1","1","3","1","","0","1","0","null","","","<div class = 'row'><div class = 'column'><img src = 'category4/CS7.png' width = '70%;'></div><div class = 'column'><img src = 'uspos/2150.bmp' width = '100%;'></div></div>","null","pos","CS","CS","4","category4/CS7.png","","","","",""
"","html-keyboard-response","76","289711","0.0-6.0-6.0-0.7","6a9y2qhjwk","one_one","1","direct_first","1","ig05nk07","1","22","1","1","3","1","","0","1","0","null","","","<div class = 'row'><div class = 'column'><img src = 'category3/CS8.png' width = '70%;'></div><div class = 'column'><img src = 'usneg/9404.bmp' width = '100%;'></div></div>","null","neg","CS","CS","3","category3/CS8.png","","","","",""
"","html-keyboard-response","77","292214","0.0-6.0-6.0-0.8","6a9y2qhjwk","one_one","1","direct_first","1","ig05nk07","1","22","1","1","3","1","","0","1","0","null","","","<div class = 'row'><div class = 'column'><img src = 'category2/CS2.png' width = '70%;'></div><div class = 'column'><img src = 'uspos/5600.bmp' width = '100%;'></div></div>","null","pos","CS","CS","2","category2/CS2.png","","","","",""
"","html-keyboard-response","78","294718","0.0-6.0-6.0-0.9","6a9y2qhjwk","one_one","1","direct_first","1","ig05nk07","1","22","1","1","3","1","","0","1","0","null","","","<div class = 'row'><div class = 'column'><img src = 'usneg/9340.bmp' width = '100%;'></div><div class = 'column'><img src = 'category1/CS6.png' width = '70%;'></div></div>","null","neg","CS","CS","1","category1/CS6.png","","","","",""
"","html-keyboard-response","79","297221","0.0-6.0-6.0-0.10","6a9y2qhjwk","one_one","1","direct_first","1","ig05nk07","1","22","1","1","3","1","","0","1","0","null","","","<div class = 'row'><div class = 'column'><img src = 'uspos/5600.bmp' width = '100%;'></div><div class = 'column'><img src = 'category2/CS2.png' width = '70%;'></div></div>","null","pos","CS","CS","2","category2/CS2.png","","","","",""
"","html-keyboard-response","80","299723","0.0-6.0-6.0-0.11","6a9y2qhjwk","one_one","1","direct_first","1","ig05nk07","1","22","1","1","3","1","","0","1","0","null","","","<div class = 'row'><div class = 'column'><img src = 'category1/CS6.png' width = '70%;'></div><div class = 'column'><img src = 'usneg/9340.bmp' width = '100%;'></div></div>","null","neg","CS","CS","1","category1/CS6.png","","","","",""
"","html-keyboard-response","81","302225","0.0-6.0-6.0-0.12","6a9y2qhjwk","one_one","1","direct_first","1","ig05nk07","1","22","1","1","3","1","","0","1","0","null","","","<div class = 'row'><div class = 'column'><img src = 'uspos/5600.bmp' width = '100%;'></div><div class = 'column'><img src = 'category2/CS2.png' width = '70%;'></div></div>","null","pos","CS","CS","2","category2/CS2.png","","","","",""
"","html-keyboard-response","82","304728","0.0-6.0-6.0-0.13","6a9y2qhjwk","one_one","1","direct_first","1","ig05nk07","1","22","1","1","3","1","","0","1","0","null","","","<div class = 'row'><div class = 'column'><img src = 'category1/CS6.png' width = '70%;'></div><div class = 'column'><img src = 'usneg/9340.bmp' width = '100%;'></div></div>","null","neg","CS","CS","1","category1/CS6.png","","","","",""
"","html-keyboard-response","83","307230","0.0-6.0-6.0-0.14","6a9y2qhjwk","one_one","1","direct_first","1","ig05nk07","1","22","1","1","3","1","","0","1","0","null","","","<div class = 'row'><div class = 'column'><img src = 'uspos/2150.bmp' width = '100%;'></div><div class = 'column'><img src = 'category4/CS7.png' width = '70%;'></div></div>","null","pos","CS","CS","4","category4/CS7.png","","","","",""
"","html-keyboard-response","84","309733","0.0-6.0-6.0-0.15","6a9y2qhjwk","one_one","1","direct_first","1","ig05nk07","1","22","1","1","3","1","","0","1","0","null","","","<div class = 'row'><div class = 'column'><img src = 'category3/CS8.png' width = '70%;'></div><div class = 'column'><img src = 'usneg/9404.bmp' width = '100%;'></div></div>","null","neg","CS","CS","3","category3/CS8.png","","","","",""
"","html-keyboard-response","85","312235","0.0-6.0-6.0-0.16","6a9y2qhjwk","one_one","1","direct_first","1","ig05nk07","1","22","1","1","3","1","","0","1","0","null","","","<div class = 'row'><div class = 'column'><img src = 'category4/CS7.png' width = '70%;'></div><div class = 'column'><img src = 'uspos/2150.bmp' width = '100%;'></div></div>","null","pos","CS","CS","4","category4/CS7.png","","","","",""
"","html-keyboard-response","86","314740","0.0-6.0-6.0-0.17","6a9y2qhjwk","one_one","1","direct_first","1","ig05nk07","1","22","1","1","3","1","","0","1","0","null","","","<div class = 'row'><div class = 'column'><img src = 'category3/CS8.png' width = '70%;'></div><div class = 'column'><img src = 'usneg/9404.bmp' width = '100%;'></div></div>","null","neg","CS","CS","3","category3/CS8.png","","","","",""
"","html-keyboard-response","87","317243","0.0-6.0-6.0-0.18","6a9y2qhjwk","one_one","1","direct_first","1","ig05nk07","1","22","1","1","3","1","","0","1","0","null","","","<div class = 'row'><div class = 'column'><img src = 'uspos/5600.bmp' width = '100%;'></div><div class = 'column'><img src = 'category2/CS2.png' width = '70%;'></div></div>","null","pos","CS","CS","2","category2/CS2.png","","","","",""
"","html-keyboard-response","88","319747","0.0-6.0-6.0-0.19","6a9y2qhjwk","one_one","1","direct_first","1","ig05nk07","1","22","1","1","3","1","","0","1","0","null","","","<div class = 'row'><div class = 'column'><img src = 'usneg/9404.bmp' width = '100%;'></div><div class = 'column'><img src = 'category3/CS8.png' width = '70%;'></div></div>","null","neg","CS","CS","3","category3/CS8.png","","","","",""
"","survey-html-form","89","324238","0.0-7.0","6a9y2qhjwk","one_one","1","direct_first","1","ig05nk07","1","22","1","1","3","1","","0","1","0","3989.2349999863654","","{}","","","","","","","","","","","",""
"","image-slider-response","90","332372","0.0-8.0-0.0","6a9y2qhjwk","one_one","1","direct_first","1","ig05nk07","1","22","1","1","3","1","","0","1","0","6131.494999863207","","","","","pos","GS","GSnew","2","category2/GS1.png","82","targets/45.png","direct","",""
"","image-slider-response","91","334862","0.0-8.0-0.1","6a9y2qhjwk","one_one","1","direct_first","1","ig05nk07","1","22","1","1","3","1","","0","1","0","2488.3050001226366","","","","","neg","GS","GSnew","3","category3/GS2.png","73","targets/34.png","direct","",""
"","image-slider-response","92","339970","0.0-8.0-0.2","6a9y2qhjwk","one_one","1","direct_first","1","ig05nk07","1","22","1","1","3","1","","0","1","0","5106.980000156909","","","","","neg","GS","GSold","3","category3/CS6.png","100","targets/37.png","direct","",""
"","image-slider-response","93","343344","0.0-8.0-0.3","6a9y2qhjwk","one_one","1","direct_first","1","ig05nk07","1","22","1","1","3","1","","0","1","0","3372.124999994412","","","","","neg","CS","CS","3","category3/CS8.png","-55","targets/29.png","direct","",""
"","image-slider-response","94","346610","0.0-8.0-0.4","6a9y2qhjwk","one_one","1","direct_first","1","ig05nk07","1","22","1","1","3","1","","0","1","0","3265.0200000498444","","","","","pos","GS","abstract","4","category4/lin.png","3","targets/38.png","direct","",""
"","image-slider-response","95","351008","0.0-8.0-0.5","6a9y2qhjwk","one_one","1","direct_first","1","ig05nk07","1","22","1","1","3","1","","0","1","0","4396.385000087321","","","","","neg","GS","abstract","3","category3/wang.png","51","targets/27.png","direct","",""
"","image-slider-response","96","353866","0.0-8.0-0.6","6a9y2qhjwk","one_one","1","direct_first","1","ig05nk07","1","22","1","1","3","1","","0","1","0","2857.354999985546","","","","","neg","GS","GSnew","1","category1/GS2.png","-29","targets/17.png","direct","",""
"","image-slider-response","97","357588","0.0-8.0-0.7","6a9y2qhjwk","one_one","1","direct_first","1","ig05nk07","1","22","1","1","3","1","","0","1","0","3720.7150000613183","","","","","neg","GS","GSold","3","category3/CS9.png","41","targets/28.png","direct","",""
"","image-slider-response","98","363324","0.0-8.0-0.8","6a9y2qhjwk","one_one","1","direct_first","1","ig05nk07","1","22","1","1","3","1","","0","1","0","5734.8549999296665","","","","","pos","GS","GSold","4","category4/CS5.png","22","targets/1.png","direct","",""
"","image-slider-response","99","367641","0.0-8.0-0.9","6a9y2qhjwk","one_one","1","direct_first","1","ig05nk07","1","22","1","1","3","1","","0","1","0","4316.389999818057","","","","","neg","GS","GSold","1","category1/CS9.png","-38","targets/48.png","direct","",""
"","image-slider-response","100","370448","0.0-8.0-0.10","6a9y2qhjwk","one_one","1","direct_first","1","ig05nk07","1","22","1","1","3","1","","0","1","0","2804.9449999816716","","","","","pos","GS","GSnew","2","category2/GS3.png","-20","targets/18.png","direct","",""
"","image-slider-response","101","376849","0.0-8.0-0.11","6a9y2qhjwk","one_one","1","direct_first","1","ig05nk07","1","22","1","1","3","1","","0","1","0","6400.625000009313","","","","","neg","GS","GSnew","1","category1/GS1.png","-3","targets/46.png","direct","",""
"","image-slider-response","102","382192","0.0-8.0-0.12","6a9y2qhjwk","one_one","1","direct_first","1","ig05nk07","1","22","1","1","3","1","","0","1","0","5340.70000005886","","","","","neg","GS","abstract","1","category1/ma.png","1","targets/26.png","direct","",""
"","image-slider-response","103","384916","0.0-8.0-0.13","6a9y2qhjwk","one_one","1","direct_first","1","ig05nk07","1","22","1","1","3","1","","0","1","0","2722.5250001065433","","","","","pos","GS","GSnew","4","category4/GS3.png","29","targets/40.png","direct","",""
"","image-slider-response","104","390297","0.0-8.0-0.14","6a9y2qhjwk","one_one","1","direct_first","1","ig05nk07","1","22","1","1","3","1","","0","1","0","5380.455000093207","","","","","neg","CS","CS","1","category1/CS6.png","43","targets/21.png","direct","",""
"","image-slider-response","105","393356","0.0-8.0-0.15","6a9y2qhjwk","one_one","1","direct_first","1","ig05nk07","1","22","1","1","3","1","","0","1","0","3056.7299998365343","","","","","pos","GS","abstract","2","category2/men.png","7","targets/47.png","direct","",""
"","image-slider-response","106","395768","0.0-8.0-0.16","6a9y2qhjwk","one_one","1","direct_first","1","ig05nk07","1","22","1","1","3","1","","0","1","0","2410.4799998458475","","","","","pos","GS","GSold","2","category2/CS8.png","-7","targets/22.png","direct","",""
"","image-slider-response","107","398126","0.0-8.0-0.17","6a9y2qhjwk","one_one","1","direct_first","1","ig05nk07","1","22","1","1","3","1","","0","1","0","2356.8549999035895","","","","","pos","GS","GSold","2","category2/CS4.png","-4","targets/3.png","direct","",""
"","image-slider-response","108","401204","0.0-8.0-0.18","6a9y2qhjwk","one_one","1","direct_first","1","ig05nk07","1","22","1","1","3","1","","0","1","0","3076.7949998844415","","","","","neg","GS","GSold","1","category1/CS4.png","-4","targets/13.png","direct","",""
"","image-slider-response","109","404078","0.0-8.0-0.19","6a9y2qhjwk","one_one","1","direct_first","1","ig05nk07","1","22","1","1","3","1","","0","1","0","2872.285000048578","","","","","pos","GS","GSnew","4","category4/GS1.png","-6","targets/24.png","direct","",""
"","image-slider-response","110","406444","0.0-8.0-0.20","6a9y2qhjwk","one_one","1","direct_first","1","ig05nk07","1","22","1","1","3","1","","0","1","0","2365.385000128299","","","","","neg","GS","GSnew","3","category3/GS3.png","64","targets/6.png","direct","",""
"","image-slider-response","111","409116","0.0-8.0-0.21","6a9y2qhjwk","one_one","1","direct_first","1","ig05nk07","1","22","1","1","3","1","","0","1","0","2670.4400000162423","","","","","pos","CS","CS","2","category2/CS2.png","65","targets/30.png","direct","",""
"","image-slider-response","112","411390","0.0-8.0-0.22","6a9y2qhjwk","one_one","1","direct_first","1","ig05nk07","1","22","1","1","3","1","","0","1","0","2272.7299998514354","","","","","neg","GS","GSnew","3","category3/GS1.png","59","targets/43.png","direct","",""
"","image-slider-response","113","414110","0.0-8.0-0.23","6a9y2qhjwk","one_one","1","direct_first","1","ig05nk07","1","22","1","1","3","1","","0","1","0","2717.960000038147","","","","","pos","GS","GSnew","2","category2/GS2.png","-32","targets/15.png","direct","",""
"","image-slider-response","114","416493","0.0-8.0-0.24","6a9y2qhjwk","one_one","1","direct_first","1","ig05nk07","1","22","1","1","3","1","","0","1","0","2382.915000198409","","","","","neg","GS","GSnew","1","category1/GS3.png","-20","targets/12.png","direct","",""
"","image-slider-response","115","418806","0.0-8.0-0.25","6a9y2qhjwk","one_one","1","direct_first","1","ig05nk07","1","22","1","1","3","1","","0","1","0","2310.97500002943","","","","","pos","GS","GSnew","4","category4/GS2.png","31","targets/19.png","direct","",""
"","image-slider-response","116","420922","0.0-8.0-0.26","6a9y2qhjwk","one_one","1","direct_first","1","ig05nk07","1","22","1","1","3","1","","0","1","0","2114.8649998940527","","","","","pos","GS","GSold","4","category4/CS3.png","-32","targets/33.png","direct","",""
"","image-slider-response","117","423166","0.0-8.0-0.27","6a9y2qhjwk","one_one","1","direct_first","1","ig05nk07","1","22","1","1","3","1","","0","1","0","2243.6349999625236","","","","","neg","GS","GSold","3","category3/CS4.png","36","targets/11.png","direct","",""
"","image-slider-response","118","425352","0.0-8.0-0.28","6a9y2qhjwk","one_one","1","direct_first","1","ig05nk07","1","22","1","1","3","1","","0","1","0","2184.4600001350045","","","","","pos","GS","GSold","4","category4/CS4.png","-17","targets/23.png","direct","",""
"","image-slider-response","119","427278","0.0-8.0-0.29","6a9y2qhjwk","one_one","1","direct_first","1","ig05nk07","1","22","1","1","3","1","","0","1","0","1924.9249999411404","","","","","pos","CS","CS","4","category4/CS7.png","-11","targets/32.png","direct","",""
"","image-slider-response","120","429724","0.0-8.0-0.30","6a9y2qhjwk","one_one","1","direct_first","1","ig05nk07","1","22","1","1","3","1","","0","1","0","2444.4850001018494","","","","","pos","GS","GSold","2","category2/CS3.png","-18","targets/14.png","direct","",""
"","image-slider-response","121","431694","0.0-8.0-0.31","6a9y2qhjwk","one_one","1","direct_first","1","ig05nk07","1","22","1","1","3","1","","0","1","0","1969.234999967739","","","","","neg","GS","GSold","1","category1/CS2.png","38","targets/39.png","direct","",""
"","html-keyboard-response","122","468155","0.0-9.0","6a9y2qhjwk","one_one","1","direct_first","1","ig05nk07","1","22","1","1","3","1","","0","1","0","36460.0700000301","","","<p>Sie sehen nun die chinesischen Zeichen nur ganz kurz. Danach sehen Sie die jeweilige Aussprache der Zeichen als Silbe auf dem Bildschrim. Ihre Aufgabe ist es, für jede Silbe anzugeben, ob diese etwas angenehmes, oder unangenehmes bedeuten könnte. Verlassen Sie sich hier vor allem auf Ihre Intuition.<br><br>Die Zeichen werden nur zur Orientierung dargestellt, beachten Sie sie deshalb nicht. Konzentrieren Sie sich vor allem auf die Silben. <br>Reagieren Sie mit folgenden zwei Tasten: <br><br><b>'D' </b> wenn die Silbe etwas <b>unangenehmes</b> bedeuten könnte. <br><b>'K'</b> wenn die Silbe etwas <b>angenehmes</b> bedeuten könnte. <br><br>Bitte legen Sie nun den Zeigefinger der linken Hand auf die Taste 'D' und den Zeigefinger der rechten Hand auf die Taste 'K'. <br>Reagieren Sie auf jede Silbe so schnell wie möglich. Uns interessiert Ihre spontane Reaktion. <br> <br> <br>Drücken Sie 'D' oder 'K', um die nächste Aufgabe zu starten. </p>","75","","","","","","","","","",""
"","html-keyboard-response","123","471157","0.0-10.0-0.0","6a9y2qhjwk","one_one","1","direct_first","1","ig05nk07","1","22","1","1","3","1","","0","1","0","null","","","<div style=""font-size:60px;"">+</div>","null","","","","","","","","","",""
"","html-keyboard-response","124","471248","0.0-10.0-1.0","6a9y2qhjwk","one_one","1","direct_first","1","ig05nk07","1","22","1","1","3","1","","0","1","0","null","","","<img src = 'category2/CS3.png' width = '100%;'>","null","","","","","","","","","",""
"","html-keyboard-response","125","471500","0.0-10.0-2.0","6a9y2qhjwk","one_one","1","direct_first","1","ig05nk07","1","22","1","1","3","1","","0","1","0","null","","","<img src = 'targets/14.png' width = '100%;'>","null","","","","","","","","","",""
"","html-keyboard-response","126","472757","0.0-10.0-3.0","6a9y2qhjwk","one_one","1","direct_first","1","ig05nk07","1","22","1","1","3","1","","0","1","0","1256.0399998910725","","","<img src = 'targets/mask.png' width = '100%;'>","75","pos","GS","GSold","2","category2/CS3.png","","targets/14.png","indirect","1","0"
"","html-keyboard-response","127","474260","0.0-10.0-0.1","6a9y2qhjwk","one_one","1","direct_first","1","ig05nk07","1","22","1","1","3","1","","0","1","0","null","","","<div style=""font-size:60px;"">+</div>","null","","","","","","","","","",""
"","html-keyboard-response","128","474352","0.0-10.0-1.1","6a9y2qhjwk","one_one","1","direct_first","1","ig05nk07","1","22","1","1","3","1","","0","1","0","null","","","<img src = 'category3/CS9.png' width = '100%;'>","null","","","","","","","","","",""
"","html-keyboard-response","129","474604","0.0-10.0-2.1","6a9y2qhjwk","one_one","1","direct_first","1","ig05nk07","1","22","1","1","3","1","","0","1","0","null","","","<img src = 'targets/28.png' width = '100%;'>","null","","","","","","","","","",""
"","html-keyboard-response","130","475362","0.0-10.0-3.1","6a9y2qhjwk","one_one","1","direct_first","1","ig05nk07","1","22","1","1","3","1","","0","1","0","756.9249998778105","","","<img src = 'targets/mask.png' width = '100%;'>","75","neg","GS","GSold","3","category3/CS9.png","","targets/28.png","indirect","1","1"
"","html-keyboard-response","131","476864","0.0-10.0-0.2","6a9y2qhjwk","one_one","1","direct_first","1","ig05nk07","1","22","1","1","3","1","","0","1","0","null","","","<div style=""font-size:60px;"">+</div>","null","","","","","","","","","",""
"","html-keyboard-response","132","476957","0.0-10.0-1.2","6a9y2qhjwk","one_one","1","direct_first","1","ig05nk07","1","22","1","1","3","1","","0","1","0","null","","","<img src = 'category2/CS4.png' width = '100%;'>","null","","","","","","","","","",""
"","html-keyboard-response","133","477208","0.0-10.0-2.2","6a9y2qhjwk","one_one","1","direct_first","1","ig05nk07","1","22","1","1","3","1","","0","1","0","null","","","<img src = 'targets/3.png' width = '100%;'>","null","","","","","","","","","",""
"","html-keyboard-response","134","477706","0.0-10.0-3.2","6a9y2qhjwk","one_one","1","direct_first","1","ig05nk07","1","22","1","1","3","1","","0","1","0","497.33499996364117","","","<img src = 'targets/mask.png' width = '100%;'>","68","pos","GS","GSold","2","category2/CS4.png","","targets/3.png","indirect","0","2"
"","html-keyboard-response","135","479208","0.0-10.0-0.3","6a9y2qhjwk","one_one","1","direct_first","1","ig05nk07","1","22","1","1","3","1","","0","1","0","null","","","<div style=""font-size:60px;"">+</div>","null","","","","","","","","","",""
"","html-keyboard-response","136","479301","0.0-10.0-1.3","6a9y2qhjwk","one_one","1","direct_first","1","ig05nk07","1","22","1","1","3","1","","0","1","0","null","","","<img src = 'category1/CS4.png' width = '100%;'>","null","","","","","","","","","",""
"","html-keyboard-response","137","479552","0.0-10.0-2.3","6a9y2qhjwk","one_one","1","direct_first","1","ig05nk07","1","22","1","1","3","1","","0","1","0","null","","","<img src = 'targets/13.png' width = '100%;'>","null","","","","","","","","","",""
"","html-keyboard-response","138","480152","0.0-10.0-3.3","6a9y2qhjwk","one_one","1","direct_first","1","ig05nk07","1","22","1","1","3","1","","0","1","0","599.055000115186","","","<img src = 'targets/mask.png' width = '100%;'>","75","neg","GS","GSold","1","category1/CS4.png","","targets/13.png","indirect","1","3"
"","html-keyboard-response","139","481654","0.0-10.0-0.4","6a9y2qhjwk","one_one","1","direct_first","1","ig05nk07","1","22","1","1","3","1","","0","1","0","null","","","<div style=""font-size:60px;"">+</div>","null","","","","","","","","","",""
"","html-keyboard-response","140","481747","0.0-10.0-1.4","6a9y2qhjwk","one_one","1","direct_first","1","ig05nk07","1","22","1","1","3","1","","0","1","0","null","","","<img src = 'category1/CS9.png' width = '100%;'>","null","","","","","","","","","",""
"","html-keyboard-response","141","481999","0.0-10.0-2.4","6a9y2qhjwk","one_one","1","direct_first","1","ig05nk07","1","22","1","1","3","1","","0","1","0","null","","","<img src = 'targets/48.png' width = '100%;'>","null","","","","","","","","","",""
"","html-keyboard-response","142","482792","0.0-10.0-3.4","6a9y2qhjwk","one_one","1","direct_first","1","ig05nk07","1","22","1","1","3","1","","0","1","0","792.1199998818338","","","<img src = 'targets/mask.png' width = '100%;'>","68","neg","GS","GSold","1","category1/CS9.png","","targets/48.png","indirect","0","4"
"","html-keyboard-response","143","484294","0.0-10.0-0.5","6a9y2qhjwk","one_one","1","direct_first","1","ig05nk07","1","22","1","1","3","1","","0","1","0","null","","","<div style=""font-size:60px;"">+</div>","null","","","","","","","","","",""
"","html-keyboard-response","144","484387","0.0-10.0-1.5","6a9y2qhjwk","one_one","1","direct_first","1","ig05nk07","1","22","1","1","3","1","","0","1","0","null","","","<img src = 'category4/CS5.png' width = '100%;'>","null","","","","","","","","","",""
"","html-keyboard-response","145","484641","0.0-10.0-2.5","6a9y2qhjwk","one_one","1","direct_first","1","ig05nk07","1","22","1","1","3","1","","0","1","0","null","","","<img src = 'targets/1.png' width = '100%;'>","null","","","","","","","","","",""
"","html-keyboard-response","146","485335","0.0-10.0-3.5","6a9y2qhjwk","one_one","1","direct_first","1","ig05nk07","1","22","1","1","3","1","","0","1","0","692.9599998984486","","","<img src = 'targets/mask.png' width = '100%;'>","75","pos","GS","GSold","4","category4/CS5.png","","targets/1.png","indirect","1","5"
"","html-keyboard-response","147","486837","0.0-10.0-0.6","6a9y2qhjwk","one_one","1","direct_first","1","ig05nk07","1","22","1","1","3","1","","0","1","0","null","","","<div style=""font-size:60px;"">+</div>","null","","","","","","","","","",""
"","html-keyboard-response","148","486929","0.0-10.0-1.6","6a9y2qhjwk","one_one","1","direct_first","1","ig05nk07","1","22","1","1","3","1","","0","1","0","null","","","<img src = 'category4/CS7.png' width = '100%;'>","null","","","","","","","","","",""
"","html-keyboard-response","149","487181","0.0-10.0-2.6","6a9y2qhjwk","one_one","1","direct_first","1","ig05nk07","1","22","1","1","3","1","","0","1","0","null","","","<img src = 'targets/32.png' width = '100%;'>","null","","","","","","","","","",""
"","html-keyboard-response","150","487781","0.0-10.0-3.6","6a9y2qhjwk","one_one","1","direct_first","1","ig05nk07","1","22","1","1","3","1","","0","1","0","598.7199998926371","","","<img src = 'targets/mask.png' width = '100%;'>","68","pos","CS","CS","4","category4/CS7.png","","targets/32.png","indirect","0","6"
"","html-keyboard-response","151","489283","0.0-10.0-0.7","6a9y2qhjwk","one_one","1","direct_first","1","ig05nk07","1","22","1","1","3","1","","0","1","0","null","","","<div style=""font-size:60px;"">+</div>","null","","","","","","","","","",""
"","html-keyboard-response","152","489374","0.0-10.0-1.7","6a9y2qhjwk","one_one","1","direct_first","1","ig05nk07","1","22","1","1","3","1","","0","1","0","null","","","<img src = 'category1/CS6.png' width = '100%;'>","null","","","","","","","","","",""
"","html-keyboard-response","153","489628","0.0-10.0-2.7","6a9y2qhjwk","one_one","1","direct_first","1","ig05nk07","1","22","1","1","3","1","","0","1","0","null","","","<img src = 'targets/21.png' width = '100%;'>","null","","","","","","","","","",""
"","html-keyboard-response","154","490264","0.0-10.0-3.7","6a9y2qhjwk","one_one","1","direct_first","1","ig05nk07","1","22","1","1","3","1","","0","1","0","635.1850000210106","","","<img src = 'targets/mask.png' width = '100%;'>","68","neg","CS","CS","1","category1/CS6.png","","targets/21.png","indirect","0","7"
"","html-keyboard-response","155","491766","0.0-10.0-0.8","6a9y2qhjwk","one_one","1","direct_first","1","ig05nk07","1","22","1","1","3","1","","0","1","0","null","","","<div style=""font-size:60px;"">+</div>","null","","","","","","","","","",""
"","html-keyboard-response","156","491857","0.0-10.0-1.8","6a9y2qhjwk","one_one","1","direct_first","1","ig05nk07","1","22","1","1","3","1","","0","1","0","null","","","<img src = 'category2/CS8.png' width = '100%;'>","null","","","","","","","","","",""
"","html-keyboard-response","157","492109","0.0-10.0-2.8","6a9y2qhjwk","one_one","1","direct_first","1","ig05nk07","1","22","1","1","3","1","","0","1","0","null","","","<img src = 'targets/22.png' width = '100%;'>","null","","","","","","","","","",""
"","html-keyboard-response","158","492898","0.0-10.0-3.8","6a9y2qhjwk","one_one","1","direct_first","1","ig05nk07","1","22","1","1","3","1","","0","1","0","788.7949999421835","","","<img src = 'targets/mask.png' width = '100%;'>","68","pos","GS","GSold","2","category2/CS8.png","","targets/22.png","indirect","0","8"
"","html-keyboard-response","159","494400","0.0-10.0-0.9","6a9y2qhjwk","one_one","1","direct_first","1","ig05nk07","1","22","1","1","3","1","","0","1","0","null","","","<div style=""font-size:60px;"">+</div>","null","","","","","","","","","",""
"","html-keyboard-response","160","494491","0.0-10.0-1.9","6a9y2qhjwk","one_one","1","direct_first","1","ig05nk07","1","22","1","1","3","1","","0","1","0","null","","","<img src = 'category3/CS6.png' width = '100%;'>","null","","","","","","","","","",""
"","html-keyboard-response","161","494743","0.0-10.0-2.9","6a9y2qhjwk","one_one","1","direct_first","1","ig05nk07","1","22","1","1","3","1","","0","1","0","null","","","<img src = 'targets/37.png' width = '100%;'>","null","","","","","","","","","",""
"","html-keyboard-response","162","495294","0.0-10.0-3.9","6a9y2qhjwk","one_one","1","direct_first","1","ig05nk07","1","22","1","1","3","1","","0","1","0","549.1750000510365","","","<img src = 'targets/mask.png' width = '100%;'>","75","neg","GS","GSold","3","category3/CS6.png","","targets/37.png","indirect","1","9"
"","html-keyboard-response","163","496796","0.0-10.0-0.10","6a9y2qhjwk","one_one","1","direct_first","1","ig05nk07","1","22","1","1","3","1","","0","1","0","null","","","<div style=""font-size:60px;"">+</div>","null","","","","","","","","","",""
"","html-keyboard-response","164","496888","0.0-10.0-1.10","6a9y2qhjwk","one_one","1","direct_first","1","ig05nk07","1","22","1","1","3","1","","0","1","0","null","","","<img src = 'category1/CS2.png' width = '100%;'>","null","","","","","","","","","",""
"","html-keyboard-response","165","497141","0.0-10.0-2.10","6a9y2qhjwk","one_one","1","direct_first","1","ig05nk07","1","22","1","1","3","1","","0","1","0","null","","","<img src = 'targets/39.png' width = '100%;'>","null","","","","","","","","","",""
"","html-keyboard-response","166","497653","0.0-10.0-3.10","6a9y2qhjwk","one_one","1","direct_first","1","ig05nk07","1","22","1","1","3","1","","0","1","0","510.7100000604987","","","<img src = 'targets/mask.png' width = '100%;'>","75","neg","GS","GSold","1","category1/CS2.png","","targets/39.png","indirect","1","10"
"","html-keyboard-response","167","499156","0.0-10.0-0.11","6a9y2qhjwk","one_one","1","direct_first","1","ig05nk07","1","22","1","1","3","1","","0","1","0","null","","","<div style=""font-size:60px;"">+</div>","null","","","","","","","","","",""
"","html-keyboard-response","168","499248","0.0-10.0-1.11","6a9y2qhjwk","one_one","1","direct_first","1","ig05nk07","1","22","1","1","3","1","","0","1","0","null","","","<img src = 'category2/CS2.png' width = '100%;'>","null","","","","","","","","","",""
"","html-keyboard-response","169","499500","0.0-10.0-2.11","6a9y2qhjwk","one_one","1","direct_first","1","ig05nk07","1","22","1","1","3","1","","0","1","0","null","","","<img src = 'targets/30.png' width = '100%;'>","null","","","","","","","","","",""
"","html-keyboard-response","170","500091","0.0-10.0-3.11","6a9y2qhjwk","one_one","1","direct_first","1","ig05nk07","1","22","1","1","3","1","","0","1","0","589.9000000208616","","","<img src = 'targets/mask.png' width = '100%;'>","68","pos","CS","CS","2","category2/CS2.png","","targets/30.png","indirect","0","11"
"","html-keyboard-response","171","501592","0.0-10.0-0.12","6a9y2qhjwk","one_one","1","direct_first","1","ig05nk07","1","22","1","1","3","1","","0","1","0","null","","","<div style=""font-size:60px;"">+</div>","null","","","","","","","","","",""
"","html-keyboard-response","172","501684","0.0-10.0-1.12","6a9y2qhjwk","one_one","1","direct_first","1","ig05nk07","1","22","1","1","3","1","","0","1","0","null","","","<img src = 'category3/CS4.png' width = '100%;'>","null","","","","","","","","","",""
"","html-keyboard-response","173","501935","0.0-10.0-2.12","6a9y2qhjwk","one_one","1","direct_first","1","ig05nk07","1","22","1","1","3","1","","0","1","0","null","","","<img src = 'targets/11.png' width = '100%;'>","null","","","","","","","","","",""
"","html-keyboard-response","174","502478","0.0-10.0-3.12","6a9y2qhjwk","one_one","1","direct_first","1","ig05nk07","1","22","1","1","3","1","","0","1","0","541.7649999726564","","","<img src = 'targets/mask.png' width = '100%;'>","75","neg","GS","GSold","3","category3/CS4.png","","targets/11.png","indirect","1","12"
"","html-keyboard-response","175","503981","0.0-10.0-0.13","6a9y2qhjwk","one_one","1","direct_first","1","ig05nk07","1","22","1","1","3","1","","0","1","0","null","","","<div style=""font-size:60px;"">+</div>","null","","","","","","","","","",""
"","html-keyboard-response","176","504073","0.0-10.0-1.13","6a9y2qhjwk","one_one","1","direct_first","1","ig05nk07","1","22","1","1","3","1","","0","1","0","null","","","<img src = 'category4/CS3.png' width = '100%;'>","null","","","","","","","","","",""
"","html-keyboard-response","177","504324","0.0-10.0-2.13","6a9y2qhjwk","one_one","1","direct_first","1","ig05nk07","1","22","1","1","3","1","","0","1","0","null","","","<img src = 'targets/33.png' width = '100%;'>","null","","","","","","","","","",""
"","html-keyboard-response","178","504872","0.0-10.0-3.13","6a9y2qhjwk","one_one","1","direct_first","1","ig05nk07","1","22","1","1","3","1","","0","1","0","546.2950000073761","","","<img src = 'targets/mask.png' width = '100%;'>","75","pos","GS","GSold","4","category4/CS3.png","","targets/33.png","indirect","1","13"
"","html-keyboard-response","179","506375","0.0-10.0-0.14","6a9y2qhjwk","one_one","1","direct_first","1","ig05nk07","1","22","1","1","3","1","","0","1","0","null","","","<div style=""font-size:60px;"">+</div>","null","","","","","","","","","",""
"","html-keyboard-response","180","506467","0.0-10.0-1.14","6a9y2qhjwk","one_one","1","direct_first","1","ig05nk07","1","22","1","1","3","1","","0","1","0","null","","","<img src = 'category4/CS4.png' width = '100%;'>","null","","","","","","","","","",""
"","html-keyboard-response","181","506719","0.0-10.0-2.14","6a9y2qhjwk","one_one","1","direct_first","1","ig05nk07","1","22","1","1","3","1","","0","1","0","null","","","<img src = 'targets/23.png' width = '100%;'>","null","","","","","","","","","",""
"","html-keyboard-response","182","507185","0.0-10.0-3.14","6a9y2qhjwk","one_one","1","direct_first","1","ig05nk07","1","22","1","1","3","1","","0","1","0","465.3849999886006","","","<img src = 'targets/mask.png' width = '100%;'>","68","pos","GS","GSold","4","category4/CS4.png","","targets/23.png","indirect","0","14"
"","html-keyboard-response","183","508688","0.0-10.0-0.15","6a9y2qhjwk","one_one","1","direct_first","1","ig05nk07","1","22","1","1","3","1","","0","1","0","null","","","<div style=""font-size:60px;"">+</div>","null","","","","","","","","","",""
"","html-keyboard-response","184","508780","0.0-10.0-1.15","6a9y2qhjwk","one_one","1","direct_first","1","ig05nk07","1","22","1","1","3","1","","0","1","0","null","","","<img src = 'category3/CS8.png' width = '100%;'>","null","","","","","","","","","",""
"","html-keyboard-response","185","509032","0.0-10.0-2.15","6a9y2qhjwk","one_one","1","direct_first","1","ig05nk07","1","22","1","1","3","1","","0","1","0","null","","","<img src = 'targets/29.png' width = '100%;'>","null","","","","","","","","","",""
"","html-keyboard-response","186","509556","0.0-10.0-3.15","6a9y2qhjwk","one_one","1","direct_first","1","ig05nk07","1","22","1","1","3","1","","0","1","0","523.3649997971952","","","<img src = 'targets/mask.png' width = '100%;'>","75","neg","CS","CS","3","category3/CS8.png","","targets/29.png","indirect","1","15"
"","survey-html-form","187","515368","0.0-11.0","6a9y2qhjwk","one_one","1","direct_first","1","ig05nk07","1","22","1","1","3","1","","0","1","0","5311.040000058711","","{}","","","","","","","","","","","",""
"","html-keyboard-response","188","518370","0.0-12.0-0.0","6a9y2qhjwk","one_one","1","direct_first","1","ig05nk07","1","22","1","1","3","1","","0","1","0","null","","","<div style=""font-size:60px;"">+</div>","null","","","","","","","","","",""
"","html-keyboard-response","189","518462","0.0-12.0-1.0","6a9y2qhjwk","one_one","1","direct_first","1","ig05nk07","1","22","1","1","3","1","","0","1","0","null","","","<img src = 'category1/GS1.png' width = '100%;'>","null","","","","","","","","","",""
"","html-keyboard-response","190","518714","0.0-12.0-2.0","6a9y2qhjwk","one_one","1","direct_first","1","ig05nk07","1","22","1","1","3","1","","0","1","0","null","","","<img src = 'targets/46.png' width = '100%;'>","null","","","","","","","","","",""
"","html-keyboard-response","191","519359","0.0-12.0-3.0","6a9y2qhjwk","one_one","1","direct_first","1","ig05nk07","1","22","1","1","3","1","","0","1","0","643.9149999059737","","","<img src = 'targets/mask.png' width = '100%;'>","68","neg","GS","GSnew","1","category1/GS1.png","","targets/46.png","indirect","0","16"
"","html-keyboard-response","192","520861","0.0-12.0-0.1","6a9y2qhjwk","one_one","1","direct_first","1","ig05nk07","1","22","1","1","3","1","","0","1","0","null","","","<div style=""font-size:60px;"">+</div>","null","","","","","","","","","",""
"","html-keyboard-response","193","520953","0.0-12.0-1.1","6a9y2qhjwk","one_one","1","direct_first","1","ig05nk07","1","22","1","1","3","1","","0","1","0","null","","","<img src = 'category4/lin.png' width = '100%;'>","null","","","","","","","","","",""
"","html-keyboard-response","194","521206","0.0-12.0-2.1","6a9y2qhjwk","one_one","1","direct_first","1","ig05nk07","1","22","1","1","3","1","","0","1","0","null","","","<img src = 'targets/38.png' width = '100%;'>","null","","","","","","","","","",""
"","html-keyboard-response","195","521644","0.0-12.0-3.1","6a9y2qhjwk","one_one","1","direct_first","1","ig05nk07","1","22","1","1","3","1","","0","1","0","437.21000012010336","","","<img src = 'targets/mask.png' width = '100%;'>","75","pos","GS","abstract","4","category4/lin.png","","targets/38.png","indirect","1","17"
"","html-keyboard-response","196","523146","0.0-12.0-0.2","6a9y2qhjwk","one_one","1","direct_first","1","ig05nk07","1","22","1","1","3","1","","0","1","0","null","","","<div style=""font-size:60px;"">+</div>","null","","","","","","","","","",""
"","html-keyboard-response","197","523239","0.0-12.0-1.2","6a9y2qhjwk","one_one","1","direct_first","1","ig05nk07","1","22","1","1","3","1","","0","1","0","null","","","<img src = 'category2/GS1.png' width = '100%;'>","null","","","","","","","","","",""
"","html-keyboard-response","198","523491","0.0-12.0-2.2","6a9y2qhjwk","one_one","1","direct_first","1","ig05nk07","1","22","1","1","3","1","","0","1","0","null","","","<img src = 'targets/45.png' width = '100%;'>","null","","","","","","","","","",""
"","html-keyboard-response","199","524070","0.0-12.0-3.2","6a9y2qhjwk","one_one","1","direct_first","1","ig05nk07","1","22","1","1","3","1","","0","1","0","577.7849999722093","","","<img src = 'targets/mask.png' width = '100%;'>","75","pos","GS","GSnew","2","category2/GS1.png","","targets/45.png","indirect","1","18"
"","html-keyboard-response","200","525572","0.0-12.0-0.3","6a9y2qhjwk","one_one","1","direct_first","1","ig05nk07","1","22","1","1","3","1","","0","1","0","null","","","<div style=""font-size:60px;"">+</div>","null","","","","","","","","","",""
"","html-keyboard-response","201","525666","0.0-12.0-1.3","6a9y2qhjwk","one_one","1","direct_first","1","ig05nk07","1","22","1","1","3","1","","0","1","0","null","","","<img src = 'category2/GS2.png' width = '100%;'>","null","","","","","","","","","",""
"","html-keyboard-response","202","525919","0.0-12.0-2.3","6a9y2qhjwk","one_one","1","direct_first","1","ig05nk07","1","22","1","1","3","1","","0","1","0","null","","","<img src = 'targets/15.png' width = '100%;'>","null","","","","","","","","","",""
"","html-keyboard-response","203","526432","0.0-12.0-3.3","6a9y2qhjwk","one_one","1","direct_first","1","ig05nk07","1","22","1","1","3","1","","0","1","0","512.0300000999123","","","<img src = 'targets/mask.png' width = '100%;'>","68","pos","GS","GSnew","2","category2/GS2.png","","targets/15.png","indirect","0","19"
"","html-keyboard-response","204","527934","0.0-12.0-0.4","6a9y2qhjwk","one_one","1","direct_first","1","ig05nk07","1","22","1","1","3","1","","0","1","0","null","","","<div style=""font-size:60px;"">+</div>","null","","","","","","","","","",""
"","html-keyboard-response","205","528026","0.0-12.0-1.4","6a9y2qhjwk","one_one","1","direct_first","1","ig05nk07","1","22","1","1","3","1","","0","1","0","null","","","<img src = 'category3/GS2.png' width = '100%;'>","null","","","","","","","","","",""
"","html-keyboard-response","206","528279","0.0-12.0-2.4","6a9y2qhjwk","one_one","1","direct_first","1","ig05nk07","1","22","1","1","3","1","","0","1","0","null","","","<img src = 'targets/34.png' width = '100%;'>","null","","","","","","","","","",""
"","html-keyboard-response","207","528698","0.0-12.0-3.4","6a9y2qhjwk","one_one","1","direct_first","1","ig05nk07","1","22","1","1","3","1","","0","1","0","418.6400000471622","","","<img src = 'targets/mask.png' width = '100%;'>","68","neg","GS","GSnew","3","category3/GS2.png","","targets/34.png","indirect","0","20"
"","html-keyboard-response","208","530200","0.0-12.0-0.5","6a9y2qhjwk","one_one","1","direct_first","1","ig05nk07","1","22","1","1","3","1","","0","1","0","null","","","<div style=""font-size:60px;"">+</div>","null","","","","","","","","","",""
"","html-keyboard-response","209","530292","0.0-12.0-1.5","6a9y2qhjwk","one_one","1","direct_first","1","ig05nk07","1","22","1","1","3","1","","0","1","0","null","","","<img src = 'category3/GS3.png' width = '100%;'>","null","","","","","","","","","",""
"","html-keyboard-response","210","530545","0.0-12.0-2.5","6a9y2qhjwk","one_one","1","direct_first","1","ig05nk07","1","22","1","1","3","1","","0","1","0","null","","","<img src = 'targets/6.png' width = '100%;'>","null","","","","","","","","","",""
"","html-keyboard-response","211","530911","0.0-12.0-3.5","6a9y2qhjwk","one_one","1","direct_first","1","ig05nk07","1","22","1","1","3","1","","0","1","0","365.81999994814396","","","<img src = 'targets/mask.png' width = '100%;'>","68","neg","GS","GSnew","3","category3/GS3.png","","targets/6.png","indirect","0","21"
"","html-keyboard-response","212","532413","0.0-12.0-0.6","6a9y2qhjwk","one_one","1","direct_first","1","ig05nk07","1","22","1","1","3","1","","0","1","0","null","","","<div style=""font-size:60px;"">+</div>","null","","","","","","","","","",""
"","html-keyboard-response","213","532504","0.0-12.0-1.6","6a9y2qhjwk","one_one","1","direct_first","1","ig05nk07","1","22","1","1","3","1","","0","1","0","null","","","<img src = 'category1/ma.png' width = '100%;'>","null","","","","","","","","","",""
"","html-keyboard-response","214","532757","0.0-12.0-2.6","6a9y2qhjwk","one_one","1","direct_first","1","ig05nk07","1","22","1","1","3","1","","0","1","0","null","","","<img src = 'targets/26.png' width = '100%;'>","null","","","","","","","","","",""
"","html-keyboard-response","215","533138","0.0-12.0-3.6","6a9y2qhjwk","one_one","1","direct_first","1","ig05nk07","1","22","1","1","3","1","","0","1","0","380.60500007122755","","","<img src = 'targets/mask.png' width = '100%;'>","68","neg","GS","abstract","1","category1/ma.png","","targets/26.png","indirect","0","22"
"","html-keyboard-response","216","534640","0.0-12.0-0.7","6a9y2qhjwk","one_one","1","direct_first","1","ig05nk07","1","22","1","1","3","1","","0","1","0","null","","","<div style=""font-size:60px;"">+</div>","null","","","","","","","","","",""
"","html-keyboard-response","217","534732","0.0-12.0-1.7","6a9y2qhjwk","one_one","1","direct_first","1","ig05nk07","1","22","1","1","3","1","","0","1","0","null","","","<img src = 'category4/GS1.png' width = '100%;'>","null","","","","","","","","","",""
"","html-keyboard-response","218","534985","0.0-12.0-2.7","6a9y2qhjwk","one_one","1","direct_first","1","ig05nk07","1","22","1","1","3","1","","0","1","0","null","","","<img src = 'targets/24.png' width = '100%;'>","null","","","","","","","","","",""
"","html-keyboard-response","219","535357","0.0-12.0-3.7","6a9y2qhjwk","one_one","1","direct_first","1","ig05nk07","1","22","1","1","3","1","","0","1","0","371.67000002227724","","","<img src = 'targets/mask.png' width = '100%;'>","75","pos","GS","GSnew","4","category4/GS1.png","","targets/24.png","indirect","1","23"
"","html-keyboard-response","220","536860","0.0-12.0-0.8","6a9y2qhjwk","one_one","1","direct_first","1","ig05nk07","1","22","1","1","3","1","","0","1","0","null","","","<div style=""font-size:60px;"">+</div>","null","","","","","","","","","",""
"","html-keyboard-response","221","536951","0.0-12.0-1.8","6a9y2qhjwk","one_one","1","direct_first","1","ig05nk07","1","22","1","1","3","1","","0","1","0","null","","","<img src = 'category3/wang.png' width = '100%;'>","null","","","","","","","","","",""
"","html-keyboard-response","222","537202","0.0-12.0-2.8","6a9y2qhjwk","one_one","1","direct_first","1","ig05nk07","1","22","1","1","3","1","","0","1","0","null","","","<img src = 'targets/27.png' width = '100%;'>","null","","","","","","","","","",""
"","html-keyboard-response","223","537580","0.0-12.0-3.8","6a9y2qhjwk","one_one","1","direct_first","1","ig05nk07","1","22","1","1","3","1","","0","1","0","377.01499997638166","","","<img src = 'targets/mask.png' width = '100%;'>","75","neg","GS","abstract","3","category3/wang.png","","targets/27.png","indirect","1","24"
"","html-keyboard-response","224","539081","0.0-12.0-0.9","6a9y2qhjwk","one_one","1","direct_first","1","ig05nk07","1","22","1","1","3","1","","0","1","0","null","","","<div style=""font-size:60px;"">+</div>","null","","","","","","","","","",""
"","html-keyboard-response","225","539173","0.0-12.0-1.9","6a9y2qhjwk","one_one","1","direct_first","1","ig05nk07","1","22","1","1","3","1","","0","1","0","null","","","<img src = 'category2/men.png' width = '100%;'>","null","","","","","","","","","",""
"","html-keyboard-response","226","539427","0.0-12.0-2.9","6a9y2qhjwk","one_one","1","direct_first","1","ig05nk07","1","22","1","1","3","1","","0","1","0","null","","","<img src = 'targets/47.png' width = '100%;'>","null","","","","","","","","","",""
"","html-keyboard-response","227","540072","0.0-12.0-3.9","6a9y2qhjwk","one_one","1","direct_first","1","ig05nk07","1","22","1","1","3","1","","0","1","0","644.510000012815","","","<img src = 'targets/mask.png' width = '100%;'>","68","pos","GS","abstract","2","category2/men.png","","targets/47.png","indirect","0","25"
"","html-keyboard-response","228","541574","0.0-12.0-0.10","6a9y2qhjwk","one_one","1","direct_first","1","ig05nk07","1","22","1","1","3","1","","0","1","0","null","","","<div style=""font-size:60px;"">+</div>","null","","","","","","","","","",""
"","html-keyboard-response","229","541666","0.0-12.0-1.10","6a9y2qhjwk","one_one","1","direct_first","1","ig05nk07","1","22","1","1","3","1","","0","1","0","null","","","<img src = 'category2/GS3.png' width = '100%;'>","null","","","","","","","","","",""
"","html-keyboard-response","230","541918","0.0-12.0-2.10","6a9y2qhjwk","one_one","1","direct_first","1","ig05nk07","1","22","1","1","3","1","","0","1","0","null","","","<img src = 'targets/18.png' width = '100%;'>","null","","","","","","","","","",""
"","html-keyboard-response","231","542545","0.0-12.0-3.10","6a9y2qhjwk","one_one","1","direct_first","1","ig05nk07","1","22","1","1","3","1","","0","1","0","626.3349999208003","","","<img src = 'targets/mask.png' width = '100%;'>","75","pos","GS","GSnew","2","category2/GS3.png","","targets/18.png","indirect","1","26"
"","html-keyboard-response","232","544047","0.0-12.0-0.11","6a9y2qhjwk","one_one","1","direct_first","1","ig05nk07","1","22","1","1","3","1","","0","1","0","null","","","<div style=""font-size:60px;"">+</div>","null","","","","","","","","","",""
"","html-keyboard-response","233","544138","0.0-12.0-1.11","6a9y2qhjwk","one_one","1","direct_first","1","ig05nk07","1","22","1","1","3","1","","0","1","0","null","","","<img src = 'category4/GS2.png' width = '100%;'>","null","","","","","","","","","",""
"","html-keyboard-response","234","544391","0.0-12.0-2.11","6a9y2qhjwk","one_one","1","direct_first","1","ig05nk07","1","22","1","1","3","1","","0","1","0","null","","","<img src = 'targets/19.png' width = '100%;'>","null","","","","","","","","","",""
"","html-keyboard-response","235","545029","0.0-12.0-3.11","6a9y2qhjwk","one_one","1","direct_first","1","ig05nk07","1","22","1","1","3","1","","0","1","0","637.224999954924","","","<img src = 'targets/mask.png' width = '100%;'>","75","pos","GS","GSnew","4","category4/GS2.png","","targets/19.png","indirect","1","27"
"","html-keyboard-response","236","546530","0.0-12.0-0.12","6a9y2qhjwk","one_one","1","direct_first","1","ig05nk07","1","22","1","1","3","1","","0","1","0","null","","","<div style=""font-size:60px;"">+</div>","null","","","","","","","","","",""
"","html-keyboard-response","237","546621","0.0-12.0-1.12","6a9y2qhjwk","one_one","1","direct_first","1","ig05nk07","1","22","1","1","3","1","","0","1","0","null","","","<img src = 'category1/GS3.png' width = '100%;'>","null","","","","","","","","","",""
"","html-keyboard-response","238","546873","0.0-12.0-2.12","6a9y2qhjwk","one_one","1","direct_first","1","ig05nk07","1","22","1","1","3","1","","0","1","0","null","","","<img src = 'targets/12.png' width = '100%;'>","null","","","","","","","","","",""
"","html-keyboard-response","239","547413","0.0-12.0-3.12","6a9y2qhjwk","one_one","1","direct_first","1","ig05nk07","1","22","1","1","3","1","","0","1","0","539.2150001134723","","","<img src = 'targets/mask.png' width = '100%;'>","68","neg","GS","GSnew","1","category1/GS3.png","","targets/12.png","indirect","0","28"
"","html-keyboard-response","240","548915","0.0-12.0-0.13","6a9y2qhjwk","one_one","1","direct_first","1","ig05nk07","1","22","1","1","3","1","","0","1","0","null","","","<div style=""font-size:60px;"">+</div>","null","","","","","","","","","",""
"","html-keyboard-response","241","549006","0.0-12.0-1.13","6a9y2qhjwk","one_one","1","direct_first","1","ig05nk07","1","22","1","1","3","1","","0","1","0","null","","","<img src = 'category4/GS3.png' width = '100%;'>","null","","","","","","","","","",""
"","html-keyboard-response","242","549259","0.0-12.0-2.13","6a9y2qhjwk","one_one","1","direct_first","1","ig05nk07","1","22","1","1","3","1","","0","1","0","null","","","<img src = 'targets/40.png' width = '100%;'>","null","","","","","","","","","",""
"","html-keyboard-response","243","549718","0.0-12.0-3.13","6a9y2qhjwk","one_one","1","direct_first","1","ig05nk07","1","22","1","1","3","1","","0","1","0","458.85999989695847","","","<img src = 'targets/mask.png' width = '100%;'>","68","pos","GS","GSnew","4","category4/GS3.png","","targets/40.png","indirect","0","29"
"","html-keyboard-response","244","551222","0.0-12.0-0.14","6a9y2qhjwk","one_one","1","direct_first","1","ig05nk07","1","22","1","1","3","1","","0","1","0","null","","","<div style=""font-size:60px;"">+</div>","null","","","","","","","","","",""
"","html-keyboard-response","245","551314","0.0-12.0-1.14","6a9y2qhjwk","one_one","1","direct_first","1","ig05nk07","1","22","1","1","3","1","","0","1","0","null","","","<img src = 'category3/GS1.png' width = '100%;'>","null","","","","","","","","","",""
"","html-keyboard-response","246","551566","0.0-12.0-2.14","6a9y2qhjwk","one_one","1","direct_first","1","ig05nk07","1","22","1","1","3","1","","0","1","0","null","","","<img src = 'targets/43.png' width = '100%;'>","null","","","","","","","","","",""
"","html-keyboard-response","247","551942","0.0-12.0-3.14","6a9y2qhjwk","one_one","1","direct_first","1","ig05nk07","1","22","1","1","3","1","","0","1","0","375.8399998769164","","","<img src = 'targets/mask.png' width = '100%;'>","68","neg","GS","GSnew","3","category3/GS1.png","","targets/43.png","indirect","0","30"
"","html-keyboard-response","248","553444","0.0-12.0-0.15","6a9y2qhjwk","one_one","1","direct_first","1","ig05nk07","1","22","1","1","3","1","","0","1","0","null","","","<div style=""font-size:60px;"">+</div>","null","","","","","","","","","",""
"","html-keyboard-response","249","553536","0.0-12.0-1.15","6a9y2qhjwk","one_one","1","direct_first","1","ig05nk07","1","22","1","1","3","1","","0","1","0","null","","","<img src = 'category1/GS2.png' width = '100%;'>","null","","","","","","","","","",""
"","html-keyboard-response","250","553788","0.0-12.0-2.15","6a9y2qhjwk","one_one","1","direct_first","1","ig05nk07","1","22","1","1","3","1","","0","1","0","null","","","<img src = 'targets/17.png' width = '100%;'>","null","","","","","","","","","",""
"","html-keyboard-response","251","553968","0.0-12.0-3.15","6a9y2qhjwk","one_one","1","direct_first","1","ig05nk07","1","22","1","1","3","1","","0","1","0","179.28499984554946","","","<img src = 'targets/mask.png' width = '100%;'>","68","neg","GS","GSnew","1","category1/GS2.png","","targets/17.png","indirect","0","31"
"","survey-html-form","252","560282","0.0-13.0","6a9y2qhjwk","one_one","1","direct_first","1","ig05nk07","1","22","1","1","3","1","","0","1","0","5812.459999928251","","{}","","","","","","","","","","","",""
"","image-slider-response","253","565436","0.0-14.0-0.0","6a9y2qhjwk","one_one","1","direct_first","1","ig05nk07","1","22","1","1","3","1","","0","1","0","4152.149999979883","","","","","pos","All","all","4","category4/lin_all.png","-11","","all","",""
"","image-slider-response","254","567982","0.0-14.0-0.1","6a9y2qhjwk","one_one","1","direct_first","1","ig05nk07","1","22","1","1","3","1","","0","1","0","2543.759999796748","","","","","pos","All","all","2","category2/men_all.png","41","","all","",""
"","image-slider-response","255","570354","0.0-14.0-0.2","6a9y2qhjwk","one_one","1","direct_first","1","ig05nk07","1","22","1","1","3","1","","0","1","0","2370.7399999257177","","","","","neg","All","all","1","category1/ma_all.png","-17","","all","",""
"","image-slider-response","256","572380","0.0-14.0-0.3","6a9y2qhjwk","one_one","1","direct_first","1","ig05nk07","1","22","1","1","3","1","","0","1","0","2024.9550000298768","","","","","neg","All","all","3","category3/wang_all.png","47","","all","",""
"","survey-text","257","574868","0.0-15.0","6a9y2qhjwk","one_one","1","direct_first","1","ig05nk07","1","22","1","1","3","1","","0","1","0","2472.2100000362843","","{""comment"":""""}","","","","","","","","","","","",""
"","survey-html-form","258","587762","0.0-16.0","6a9y2qhjwk","one_one","1","direct_first","1","ig05nk07","1","22","1","1","3","1","","0","1","0","12890.929999994114","","{""hinschauen"":""0"",""ablenkung"":""1"",""gewissenhaft"":""0""}","","","","","","","","","","","",""
