"success","trial_type","trial_index","time_elapsed","internal_node_id","subject","condition","condition_code","measure","measure_code","codeword","gender","age","education","chinese","fach","handedness","rt","url","responses","stimulus","key_press","val","type","type_specific","category","cs_selected","target","indirect","task","nr_pres","response"
"true","fullscreen","0","1698","0.0-0.0","wjujvd90k9","one_one","1","indirect_first","0","ti06en13","0","32","1","1","3","1","","","","","","","","","","","","","","",""
"","external-html","1","140674","0.0-1.0","wjujvd90k9","one_one","1","indirect_first","0","ti06en13","0","32","1","1","3","1","138964","text/information.html","","","","","","","","","","","","",""
"","external-html","2","181505","0.0-2.0","wjujvd90k9","one_one","1","indirect_first","0","ti06en13","0","32","1","1","3","1","40813","text/consent.html","","","","","","","","","","","","",""
"","survey-html-form","3","256584","0.0-3.0","wjujvd90k9","one_one","1","indirect_first","0","ti06en13","0","32","1","1","3","1","75078","","{""codeword_enter"":""ti06en13""}","","","","","","","","","","","",""
"","survey-html-form","4","277377","0.0-4.0","wjujvd90k9","one_one","1","indirect_first","0","ti06en13","0","32","1","1","3","1","20792","","{""age"":""32"",""education"":""1"",""subject"":""3"",""gender"":""0"",""handedness"":""1"",""chinese"":""1""}","","","","","","","","","","","",""
"","survey-html-form","5","299128","0.0-5.0","wjujvd90k9","one_one","1","indirect_first","0","ti06en13","0","32","1","1","3","1","21751","","{}","","","","","","","","","","","",""
"","html-keyboard-response","6","303158","0.0-6.0-0.0-0.0","wjujvd90k9","one_one","1","indirect_first","0","ti06en13","0","32","1","1","3","1","null","","","<div class = 'row'><div class = 'column'><img src = 'usneg/9181.bmp' width = '100%;'></div><div class = 'column'><img src = 'category2/CS9.png' width = '70%;'></div></div>","null","neg","CS","CS","2","category2/CS9.png","","","","",""
"","html-keyboard-response","7","305698","0.0-6.0-0.0-0.1","wjujvd90k9","one_one","1","indirect_first","0","ti06en13","0","32","1","1","3","1","null","","","<div class = 'row'><div class = 'column'><img src = 'usneg/9421.bmp' width = '100%;'></div><div class = 'column'><img src = 'category4/CS3.png' width = '70%;'></div></div>","null","neg","CS","CS","4","category4/CS3.png","","","","",""
"","html-keyboard-response","8","308238","0.0-6.0-0.0-0.2","wjujvd90k9","one_one","1","indirect_first","0","ti06en13","0","32","1","1","3","1","null","","","<div class = 'row'><div class = 'column'><img src = 'uspos/2311.bmp' width = '100%;'></div><div class = 'column'><img src = 'category1/CS2.png' width = '70%;'></div></div>","null","pos","CS","CS","1","category1/CS2.png","","","","",""
"","html-keyboard-response","9","310758","0.0-6.0-0.0-0.3","wjujvd90k9","one_one","1","indirect_first","0","ti06en13","0","32","1","1","3","1","null","","","<div class = 'row'><div class = 'column'><img src = 'usneg/9421.bmp' width = '100%;'></div><div class = 'column'><img src = 'category4/CS3.png' width = '70%;'></div></div>","null","neg","CS","CS","4","category4/CS3.png","","","","",""
"","html-keyboard-response","10","313288","0.0-6.0-0.0-0.4","wjujvd90k9","one_one","1","indirect_first","0","ti06en13","0","32","1","1","3","1","null","","","<div class = 'row'><div class = 'column'><img src = 'category3/CS4.png' width = '70%;'></div><div class = 'column'><img src = 'uspos/1710.bmp' width = '100%;'></div></div>","null","pos","CS","CS","3","category3/CS4.png","","","","",""
"","html-keyboard-response","11","315827","0.0-6.0-0.0-0.5","wjujvd90k9","one_one","1","indirect_first","0","ti06en13","0","32","1","1","3","1","null","","","<div class = 'row'><div class = 'column'><img src = 'category2/CS9.png' width = '70%;'></div><div class = 'column'><img src = 'usneg/9181.bmp' width = '100%;'></div></div>","null","neg","CS","CS","2","category2/CS9.png","","","","",""
"","html-keyboard-response","12","318367","0.0-6.0-0.0-0.6","wjujvd90k9","one_one","1","indirect_first","0","ti06en13","0","32","1","1","3","1","null","","","<div class = 'row'><div class = 'column'><img src = 'category4/CS3.png' width = '70%;'></div><div class = 'column'><img src = 'usneg/9421.bmp' width = '100%;'></div></div>","null","neg","CS","CS","4","category4/CS3.png","","","","",""
"","html-keyboard-response","13","320887","0.0-6.0-0.0-0.7","wjujvd90k9","one_one","1","indirect_first","0","ti06en13","0","32","1","1","3","1","null","","","<div class = 'row'><div class = 'column'><img src = 'uspos/1710.bmp' width = '100%;'></div><div class = 'column'><img src = 'category3/CS4.png' width = '70%;'></div></div>","null","pos","CS","CS","3","category3/CS4.png","","","","",""
"","html-keyboard-response","14","323417","0.0-6.0-0.0-0.8","wjujvd90k9","one_one","1","indirect_first","0","ti06en13","0","32","1","1","3","1","null","","","<div class = 'row'><div class = 'column'><img src = 'uspos/2311.bmp' width = '100%;'></div><div class = 'column'><img src = 'category1/CS2.png' width = '70%;'></div></div>","null","pos","CS","CS","1","category1/CS2.png","","","","",""
"","html-keyboard-response","15","325957","0.0-6.0-0.0-0.9","wjujvd90k9","one_one","1","indirect_first","0","ti06en13","0","32","1","1","3","1","null","","","<div class = 'row'><div class = 'column'><img src = 'usneg/9181.bmp' width = '100%;'></div><div class = 'column'><img src = 'category2/CS9.png' width = '70%;'></div></div>","null","neg","CS","CS","2","category2/CS9.png","","","","",""
"","html-keyboard-response","16","328496","0.0-6.0-0.0-0.10","wjujvd90k9","one_one","1","indirect_first","0","ti06en13","0","32","1","1","3","1","null","","","<div class = 'row'><div class = 'column'><img src = 'usneg/9421.bmp' width = '100%;'></div><div class = 'column'><img src = 'category4/CS3.png' width = '70%;'></div></div>","null","neg","CS","CS","4","category4/CS3.png","","","","",""
"","html-keyboard-response","17","331037","0.0-6.0-0.0-0.11","wjujvd90k9","one_one","1","indirect_first","0","ti06en13","0","32","1","1","3","1","null","","","<div class = 'row'><div class = 'column'><img src = 'category3/CS4.png' width = '70%;'></div><div class = 'column'><img src = 'uspos/1710.bmp' width = '100%;'></div></div>","null","pos","CS","CS","3","category3/CS4.png","","","","",""
"","html-keyboard-response","18","333576","0.0-6.0-0.0-0.12","wjujvd90k9","one_one","1","indirect_first","0","ti06en13","0","32","1","1","3","1","null","","","<div class = 'row'><div class = 'column'><img src = 'uspos/2311.bmp' width = '100%;'></div><div class = 'column'><img src = 'category1/CS2.png' width = '70%;'></div></div>","null","pos","CS","CS","1","category1/CS2.png","","","","",""
"","html-keyboard-response","19","336117","0.0-6.0-0.0-0.13","wjujvd90k9","one_one","1","indirect_first","0","ti06en13","0","32","1","1","3","1","null","","","<div class = 'row'><div class = 'column'><img src = 'uspos/1710.bmp' width = '100%;'></div><div class = 'column'><img src = 'category3/CS4.png' width = '70%;'></div></div>","null","pos","CS","CS","3","category3/CS4.png","","","","",""
"","html-keyboard-response","20","338657","0.0-6.0-0.0-0.14","wjujvd90k9","one_one","1","indirect_first","0","ti06en13","0","32","1","1","3","1","null","","","<div class = 'row'><div class = 'column'><img src = 'category1/CS2.png' width = '70%;'></div><div class = 'column'><img src = 'uspos/2311.bmp' width = '100%;'></div></div>","null","pos","CS","CS","1","category1/CS2.png","","","","",""
"","html-keyboard-response","21","341196","0.0-6.0-0.0-0.15","wjujvd90k9","one_one","1","indirect_first","0","ti06en13","0","32","1","1","3","1","null","","","<div class = 'row'><div class = 'column'><img src = 'usneg/9181.bmp' width = '100%;'></div><div class = 'column'><img src = 'category2/CS9.png' width = '70%;'></div></div>","null","neg","CS","CS","2","category2/CS9.png","","","","",""
"","html-keyboard-response","22","343727","0.0-6.0-0.0-0.16","wjujvd90k9","one_one","1","indirect_first","0","ti06en13","0","32","1","1","3","1","null","","","<div class = 'row'><div class = 'column'><img src = 'usneg/9421.bmp' width = '100%;'></div><div class = 'column'><img src = 'category4/CS3.png' width = '70%;'></div></div>","null","neg","CS","CS","4","category4/CS3.png","","","","",""
"","html-keyboard-response","23","346246","0.0-6.0-0.0-0.17","wjujvd90k9","one_one","1","indirect_first","0","ti06en13","0","32","1","1","3","1","null","","","<div class = 'row'><div class = 'column'><img src = 'category3/CS4.png' width = '70%;'></div><div class = 'column'><img src = 'uspos/1710.bmp' width = '100%;'></div></div>","null","pos","CS","CS","3","category3/CS4.png","","","","",""
"","html-keyboard-response","24","348777","0.0-6.0-0.0-0.18","wjujvd90k9","one_one","1","indirect_first","0","ti06en13","0","32","1","1","3","1","null","","","<div class = 'row'><div class = 'column'><img src = 'category2/CS9.png' width = '70%;'></div><div class = 'column'><img src = 'usneg/9181.bmp' width = '100%;'></div></div>","null","neg","CS","CS","2","category2/CS9.png","","","","",""
"","html-keyboard-response","25","351316","0.0-6.0-0.0-0.19","wjujvd90k9","one_one","1","indirect_first","0","ti06en13","0","32","1","1","3","1","null","","","<div class = 'row'><div class = 'column'><img src = 'category1/CS2.png' width = '70%;'></div><div class = 'column'><img src = 'uspos/2311.bmp' width = '100%;'></div></div>","null","pos","CS","CS","1","category1/CS2.png","","","","",""
"","survey-html-form","26","357503","0.0-6.0-1.0","wjujvd90k9","one_one","1","indirect_first","0","ti06en13","0","32","1","1","3","1","5665","","{}","","","","","","","","","","","",""
"","html-keyboard-response","27","361536","0.0-6.0-2.0-0.0","wjujvd90k9","one_one","1","indirect_first","0","ti06en13","0","32","1","1","3","1","null","","","<div class = 'row'><div class = 'column'><img src = 'usneg/9181.bmp' width = '100%;'></div><div class = 'column'><img src = 'category2/CS9.png' width = '70%;'></div></div>","null","neg","CS","CS","2","category2/CS9.png","","","","",""
"","html-keyboard-response","28","364076","0.0-6.0-2.0-0.1","wjujvd90k9","one_one","1","indirect_first","0","ti06en13","0","32","1","1","3","1","null","","","<div class = 'row'><div class = 'column'><img src = 'usneg/9421.bmp' width = '100%;'></div><div class = 'column'><img src = 'category4/CS3.png' width = '70%;'></div></div>","null","neg","CS","CS","4","category4/CS3.png","","","","",""
"","html-keyboard-response","29","366616","0.0-6.0-2.0-0.2","wjujvd90k9","one_one","1","indirect_first","0","ti06en13","0","32","1","1","3","1","null","","","<div class = 'row'><div class = 'column'><img src = 'uspos/2311.bmp' width = '100%;'></div><div class = 'column'><img src = 'category1/CS2.png' width = '70%;'></div></div>","null","pos","CS","CS","1","category1/CS2.png","","","","",""
"","html-keyboard-response","30","369156","0.0-6.0-2.0-0.3","wjujvd90k9","one_one","1","indirect_first","0","ti06en13","0","32","1","1","3","1","null","","","<div class = 'row'><div class = 'column'><img src = 'usneg/9421.bmp' width = '100%;'></div><div class = 'column'><img src = 'category4/CS3.png' width = '70%;'></div></div>","null","neg","CS","CS","4","category4/CS3.png","","","","",""
"","html-keyboard-response","31","371696","0.0-6.0-2.0-0.4","wjujvd90k9","one_one","1","indirect_first","0","ti06en13","0","32","1","1","3","1","null","","","<div class = 'row'><div class = 'column'><img src = 'category3/CS4.png' width = '70%;'></div><div class = 'column'><img src = 'uspos/1710.bmp' width = '100%;'></div></div>","null","pos","CS","CS","3","category3/CS4.png","","","","",""
"","html-keyboard-response","32","374216","0.0-6.0-2.0-0.5","wjujvd90k9","one_one","1","indirect_first","0","ti06en13","0","32","1","1","3","1","null","","","<div class = 'row'><div class = 'column'><img src = 'usneg/9181.bmp' width = '100%;'></div><div class = 'column'><img src = 'category2/CS9.png' width = '70%;'></div></div>","null","neg","CS","CS","2","category2/CS9.png","","","","",""
"","html-keyboard-response","33","376736","0.0-6.0-2.0-0.6","wjujvd90k9","one_one","1","indirect_first","0","ti06en13","0","32","1","1","3","1","null","","","<div class = 'row'><div class = 'column'><img src = 'category4/CS3.png' width = '70%;'></div><div class = 'column'><img src = 'usneg/9421.bmp' width = '100%;'></div></div>","null","neg","CS","CS","4","category4/CS3.png","","","","",""
"","html-keyboard-response","34","379275","0.0-6.0-2.0-0.7","wjujvd90k9","one_one","1","indirect_first","0","ti06en13","0","32","1","1","3","1","null","","","<div class = 'row'><div class = 'column'><img src = 'category3/CS4.png' width = '70%;'></div><div class = 'column'><img src = 'uspos/1710.bmp' width = '100%;'></div></div>","null","pos","CS","CS","3","category3/CS4.png","","","","",""
"","html-keyboard-response","35","381815","0.0-6.0-2.0-0.8","wjujvd90k9","one_one","1","indirect_first","0","ti06en13","0","32","1","1","3","1","null","","","<div class = 'row'><div class = 'column'><img src = 'uspos/2311.bmp' width = '100%;'></div><div class = 'column'><img src = 'category1/CS2.png' width = '70%;'></div></div>","null","pos","CS","CS","1","category1/CS2.png","","","","",""
"","html-keyboard-response","36","384335","0.0-6.0-2.0-0.9","wjujvd90k9","one_one","1","indirect_first","0","ti06en13","0","32","1","1","3","1","null","","","<div class = 'row'><div class = 'column'><img src = 'category2/CS9.png' width = '70%;'></div><div class = 'column'><img src = 'usneg/9181.bmp' width = '100%;'></div></div>","null","neg","CS","CS","2","category2/CS9.png","","","","",""
"","html-keyboard-response","37","386855","0.0-6.0-2.0-0.10","wjujvd90k9","one_one","1","indirect_first","0","ti06en13","0","32","1","1","3","1","null","","","<div class = 'row'><div class = 'column'><img src = 'usneg/9421.bmp' width = '100%;'></div><div class = 'column'><img src = 'category4/CS3.png' width = '70%;'></div></div>","null","neg","CS","CS","4","category4/CS3.png","","","","",""
"","html-keyboard-response","38","389376","0.0-6.0-2.0-0.11","wjujvd90k9","one_one","1","indirect_first","0","ti06en13","0","32","1","1","3","1","null","","","<div class = 'row'><div class = 'column'><img src = 'category3/CS4.png' width = '70%;'></div><div class = 'column'><img src = 'uspos/1710.bmp' width = '100%;'></div></div>","null","pos","CS","CS","3","category3/CS4.png","","","","",""
"","html-keyboard-response","39","391915","0.0-6.0-2.0-0.12","wjujvd90k9","one_one","1","indirect_first","0","ti06en13","0","32","1","1","3","1","null","","","<div class = 'row'><div class = 'column'><img src = 'uspos/2311.bmp' width = '100%;'></div><div class = 'column'><img src = 'category1/CS2.png' width = '70%;'></div></div>","null","pos","CS","CS","1","category1/CS2.png","","","","",""
"","html-keyboard-response","40","394455","0.0-6.0-2.0-0.13","wjujvd90k9","one_one","1","indirect_first","0","ti06en13","0","32","1","1","3","1","null","","","<div class = 'row'><div class = 'column'><img src = 'uspos/1710.bmp' width = '100%;'></div><div class = 'column'><img src = 'category3/CS4.png' width = '70%;'></div></div>","null","pos","CS","CS","3","category3/CS4.png","","","","",""
"","html-keyboard-response","41","396995","0.0-6.0-2.0-0.14","wjujvd90k9","one_one","1","indirect_first","0","ti06en13","0","32","1","1","3","1","null","","","<div class = 'row'><div class = 'column'><img src = 'category1/CS2.png' width = '70%;'></div><div class = 'column'><img src = 'uspos/2311.bmp' width = '100%;'></div></div>","null","pos","CS","CS","1","category1/CS2.png","","","","",""
"","html-keyboard-response","42","399535","0.0-6.0-2.0-0.15","wjujvd90k9","one_one","1","indirect_first","0","ti06en13","0","32","1","1","3","1","null","","","<div class = 'row'><div class = 'column'><img src = 'category2/CS9.png' width = '70%;'></div><div class = 'column'><img src = 'usneg/9181.bmp' width = '100%;'></div></div>","null","neg","CS","CS","2","category2/CS9.png","","","","",""
"","html-keyboard-response","43","402075","0.0-6.0-2.0-0.16","wjujvd90k9","one_one","1","indirect_first","0","ti06en13","0","32","1","1","3","1","null","","","<div class = 'row'><div class = 'column'><img src = 'category4/CS3.png' width = '70%;'></div><div class = 'column'><img src = 'usneg/9421.bmp' width = '100%;'></div></div>","null","neg","CS","CS","4","category4/CS3.png","","","","",""
"","html-keyboard-response","44","404615","0.0-6.0-2.0-0.17","wjujvd90k9","one_one","1","indirect_first","0","ti06en13","0","32","1","1","3","1","null","","","<div class = 'row'><div class = 'column'><img src = 'uspos/1710.bmp' width = '100%;'></div><div class = 'column'><img src = 'category3/CS4.png' width = '70%;'></div></div>","null","pos","CS","CS","3","category3/CS4.png","","","","",""
"","html-keyboard-response","45","407136","0.0-6.0-2.0-0.18","wjujvd90k9","one_one","1","indirect_first","0","ti06en13","0","32","1","1","3","1","null","","","<div class = 'row'><div class = 'column'><img src = 'category2/CS9.png' width = '70%;'></div><div class = 'column'><img src = 'usneg/9181.bmp' width = '100%;'></div></div>","null","neg","CS","CS","2","category2/CS9.png","","","","",""
"","html-keyboard-response","46","409675","0.0-6.0-2.0-0.19","wjujvd90k9","one_one","1","indirect_first","0","ti06en13","0","32","1","1","3","1","null","","","<div class = 'row'><div class = 'column'><img src = 'category1/CS2.png' width = '70%;'></div><div class = 'column'><img src = 'uspos/2311.bmp' width = '100%;'></div></div>","null","pos","CS","CS","1","category1/CS2.png","","","","",""
"","survey-html-form","47","414493","0.0-6.0-3.0","wjujvd90k9","one_one","1","indirect_first","0","ti06en13","0","32","1","1","3","1","4298","","{}","","","","","","","","","","","",""
"","html-keyboard-response","48","418515","0.0-6.0-4.0-0.0","wjujvd90k9","one_one","1","indirect_first","0","ti06en13","0","32","1","1","3","1","null","","","<div class = 'row'><div class = 'column'><img src = 'usneg/9181.bmp' width = '100%;'></div><div class = 'column'><img src = 'category2/CS9.png' width = '70%;'></div></div>","null","neg","CS","CS","2","category2/CS9.png","","","","",""
"","html-keyboard-response","49","421052","0.0-6.0-4.0-0.1","wjujvd90k9","one_one","1","indirect_first","0","ti06en13","0","32","1","1","3","1","null","","","<div class = 'row'><div class = 'column'><img src = 'category4/CS3.png' width = '70%;'></div><div class = 'column'><img src = 'usneg/9421.bmp' width = '100%;'></div></div>","null","neg","CS","CS","4","category4/CS3.png","","","","",""
"","html-keyboard-response","50","423555","0.0-6.0-4.0-0.2","wjujvd90k9","one_one","1","indirect_first","0","ti06en13","0","32","1","1","3","1","null","","","<div class = 'row'><div class = 'column'><img src = 'category1/CS2.png' width = '70%;'></div><div class = 'column'><img src = 'uspos/2311.bmp' width = '100%;'></div></div>","null","pos","CS","CS","1","category1/CS2.png","","","","",""
"","html-keyboard-response","51","426095","0.0-6.0-4.0-0.3","wjujvd90k9","one_one","1","indirect_first","0","ti06en13","0","32","1","1","3","1","null","","","<div class = 'row'><div class = 'column'><img src = 'usneg/9421.bmp' width = '100%;'></div><div class = 'column'><img src = 'category4/CS3.png' width = '70%;'></div></div>","null","neg","CS","CS","4","category4/CS3.png","","","","",""
"","html-keyboard-response","52","428635","0.0-6.0-4.0-0.4","wjujvd90k9","one_one","1","indirect_first","0","ti06en13","0","32","1","1","3","1","null","","","<div class = 'row'><div class = 'column'><img src = 'uspos/1710.bmp' width = '100%;'></div><div class = 'column'><img src = 'category3/CS4.png' width = '70%;'></div></div>","null","pos","CS","CS","3","category3/CS4.png","","","","",""
"","html-keyboard-response","53","431175","0.0-6.0-4.0-0.5","wjujvd90k9","one_one","1","indirect_first","0","ti06en13","0","32","1","1","3","1","null","","","<div class = 'row'><div class = 'column'><img src = 'category2/CS9.png' width = '70%;'></div><div class = 'column'><img src = 'usneg/9181.bmp' width = '100%;'></div></div>","null","neg","CS","CS","2","category2/CS9.png","","","","",""
"","html-keyboard-response","54","433714","0.0-6.0-4.0-0.6","wjujvd90k9","one_one","1","indirect_first","0","ti06en13","0","32","1","1","3","1","null","","","<div class = 'row'><div class = 'column'><img src = 'category4/CS3.png' width = '70%;'></div><div class = 'column'><img src = 'usneg/9421.bmp' width = '100%;'></div></div>","null","neg","CS","CS","4","category4/CS3.png","","","","",""
"","html-keyboard-response","55","436254","0.0-6.0-4.0-0.7","wjujvd90k9","one_one","1","indirect_first","0","ti06en13","0","32","1","1","3","1","null","","","<div class = 'row'><div class = 'column'><img src = 'category3/CS4.png' width = '70%;'></div><div class = 'column'><img src = 'uspos/1710.bmp' width = '100%;'></div></div>","null","pos","CS","CS","3","category3/CS4.png","","","","",""
"","html-keyboard-response","56","438794","0.0-6.0-4.0-0.8","wjujvd90k9","one_one","1","indirect_first","0","ti06en13","0","32","1","1","3","1","null","","","<div class = 'row'><div class = 'column'><img src = 'category1/CS2.png' width = '70%;'></div><div class = 'column'><img src = 'uspos/2311.bmp' width = '100%;'></div></div>","null","pos","CS","CS","1","category1/CS2.png","","","","",""
"","html-keyboard-response","57","441335","0.0-6.0-4.0-0.9","wjujvd90k9","one_one","1","indirect_first","0","ti06en13","0","32","1","1","3","1","null","","","<div class = 'row'><div class = 'column'><img src = 'category2/CS9.png' width = '70%;'></div><div class = 'column'><img src = 'usneg/9181.bmp' width = '100%;'></div></div>","null","neg","CS","CS","2","category2/CS9.png","","","","",""
"","html-keyboard-response","58","443875","0.0-6.0-4.0-0.10","wjujvd90k9","one_one","1","indirect_first","0","ti06en13","0","32","1","1","3","1","null","","","<div class = 'row'><div class = 'column'><img src = 'usneg/9421.bmp' width = '100%;'></div><div class = 'column'><img src = 'category4/CS3.png' width = '70%;'></div></div>","null","neg","CS","CS","4","category4/CS3.png","","","","",""
"","html-keyboard-response","59","446414","0.0-6.0-4.0-0.11","wjujvd90k9","one_one","1","indirect_first","0","ti06en13","0","32","1","1","3","1","null","","","<div class = 'row'><div class = 'column'><img src = 'uspos/1710.bmp' width = '100%;'></div><div class = 'column'><img src = 'category3/CS4.png' width = '70%;'></div></div>","null","pos","CS","CS","3","category3/CS4.png","","","","",""
"","html-keyboard-response","60","448953","0.0-6.0-4.0-0.12","wjujvd90k9","one_one","1","indirect_first","0","ti06en13","0","32","1","1","3","1","null","","","<div class = 'row'><div class = 'column'><img src = 'uspos/2311.bmp' width = '100%;'></div><div class = 'column'><img src = 'category1/CS2.png' width = '70%;'></div></div>","null","pos","CS","CS","1","category1/CS2.png","","","","",""
"","html-keyboard-response","61","451494","0.0-6.0-4.0-0.13","wjujvd90k9","one_one","1","indirect_first","0","ti06en13","0","32","1","1","3","1","null","","","<div class = 'row'><div class = 'column'><img src = 'uspos/1710.bmp' width = '100%;'></div><div class = 'column'><img src = 'category3/CS4.png' width = '70%;'></div></div>","null","pos","CS","CS","3","category3/CS4.png","","","","",""
"","html-keyboard-response","62","454034","0.0-6.0-4.0-0.14","wjujvd90k9","one_one","1","indirect_first","0","ti06en13","0","32","1","1","3","1","null","","","<div class = 'row'><div class = 'column'><img src = 'category1/CS2.png' width = '70%;'></div><div class = 'column'><img src = 'uspos/2311.bmp' width = '100%;'></div></div>","null","pos","CS","CS","1","category1/CS2.png","","","","",""
"","html-keyboard-response","63","456574","0.0-6.0-4.0-0.15","wjujvd90k9","one_one","1","indirect_first","0","ti06en13","0","32","1","1","3","1","null","","","<div class = 'row'><div class = 'column'><img src = 'usneg/9181.bmp' width = '100%;'></div><div class = 'column'><img src = 'category2/CS9.png' width = '70%;'></div></div>","null","neg","CS","CS","2","category2/CS9.png","","","","",""
"","html-keyboard-response","64","459114","0.0-6.0-4.0-0.16","wjujvd90k9","one_one","1","indirect_first","0","ti06en13","0","32","1","1","3","1","null","","","<div class = 'row'><div class = 'column'><img src = 'category4/CS3.png' width = '70%;'></div><div class = 'column'><img src = 'usneg/9421.bmp' width = '100%;'></div></div>","null","neg","CS","CS","4","category4/CS3.png","","","","",""
"","html-keyboard-response","65","461653","0.0-6.0-4.0-0.17","wjujvd90k9","one_one","1","indirect_first","0","ti06en13","0","32","1","1","3","1","null","","","<div class = 'row'><div class = 'column'><img src = 'uspos/1710.bmp' width = '100%;'></div><div class = 'column'><img src = 'category3/CS4.png' width = '70%;'></div></div>","null","pos","CS","CS","3","category3/CS4.png","","","","",""
"","html-keyboard-response","66","464172","0.0-6.0-4.0-0.18","wjujvd90k9","one_one","1","indirect_first","0","ti06en13","0","32","1","1","3","1","null","","","<div class = 'row'><div class = 'column'><img src = 'usneg/9181.bmp' width = '100%;'></div><div class = 'column'><img src = 'category2/CS9.png' width = '70%;'></div></div>","null","neg","CS","CS","2","category2/CS9.png","","","","",""
"","html-keyboard-response","67","466675","0.0-6.0-4.0-0.19","wjujvd90k9","one_one","1","indirect_first","0","ti06en13","0","32","1","1","3","1","null","","","<div class = 'row'><div class = 'column'><img src = 'category1/CS2.png' width = '70%;'></div><div class = 'column'><img src = 'uspos/2311.bmp' width = '100%;'></div></div>","null","pos","CS","CS","1","category1/CS2.png","","","","",""
"","survey-html-form","68","471172","0.0-6.0-5.0","wjujvd90k9","one_one","1","indirect_first","0","ti06en13","0","32","1","1","3","1","3997","","{}","","","","","","","","","","","",""
"","html-keyboard-response","69","475194","0.0-6.0-6.0-0.0","wjujvd90k9","one_one","1","indirect_first","0","ti06en13","0","32","1","1","3","1","null","","","<div class = 'row'><div class = 'column'><img src = 'usneg/9181.bmp' width = '100%;'></div><div class = 'column'><img src = 'category2/CS9.png' width = '70%;'></div></div>","null","neg","CS","CS","2","category2/CS9.png","","","","",""
"","html-keyboard-response","70","477734","0.0-6.0-6.0-0.1","wjujvd90k9","one_one","1","indirect_first","0","ti06en13","0","32","1","1","3","1","null","","","<div class = 'row'><div class = 'column'><img src = 'usneg/9421.bmp' width = '100%;'></div><div class = 'column'><img src = 'category4/CS3.png' width = '70%;'></div></div>","null","neg","CS","CS","4","category4/CS3.png","","","","",""
"","html-keyboard-response","71","480263","0.0-6.0-6.0-0.2","wjujvd90k9","one_one","1","indirect_first","0","ti06en13","0","32","1","1","3","1","null","","","<div class = 'row'><div class = 'column'><img src = 'category1/CS2.png' width = '70%;'></div><div class = 'column'><img src = 'uspos/2311.bmp' width = '100%;'></div></div>","null","pos","CS","CS","1","category1/CS2.png","","","","",""
"","html-keyboard-response","72","482803","0.0-6.0-6.0-0.3","wjujvd90k9","one_one","1","indirect_first","0","ti06en13","0","32","1","1","3","1","null","","","<div class = 'row'><div class = 'column'><img src = 'usneg/9421.bmp' width = '100%;'></div><div class = 'column'><img src = 'category4/CS3.png' width = '70%;'></div></div>","null","neg","CS","CS","4","category4/CS3.png","","","","",""
"","html-keyboard-response","73","485342","0.0-6.0-6.0-0.4","wjujvd90k9","one_one","1","indirect_first","0","ti06en13","0","32","1","1","3","1","null","","","<div class = 'row'><div class = 'column'><img src = 'uspos/1710.bmp' width = '100%;'></div><div class = 'column'><img src = 'category3/CS4.png' width = '70%;'></div></div>","null","pos","CS","CS","3","category3/CS4.png","","","","",""
"","html-keyboard-response","74","487863","0.0-6.0-6.0-0.5","wjujvd90k9","one_one","1","indirect_first","0","ti06en13","0","32","1","1","3","1","null","","","<div class = 'row'><div class = 'column'><img src = 'usneg/9181.bmp' width = '100%;'></div><div class = 'column'><img src = 'category2/CS9.png' width = '70%;'></div></div>","null","neg","CS","CS","2","category2/CS9.png","","","","",""
"","html-keyboard-response","75","490383","0.0-6.0-6.0-0.6","wjujvd90k9","one_one","1","indirect_first","0","ti06en13","0","32","1","1","3","1","null","","","<div class = 'row'><div class = 'column'><img src = 'usneg/9421.bmp' width = '100%;'></div><div class = 'column'><img src = 'category4/CS3.png' width = '70%;'></div></div>","null","neg","CS","CS","4","category4/CS3.png","","","","",""
"","html-keyboard-response","76","492913","0.0-6.0-6.0-0.7","wjujvd90k9","one_one","1","indirect_first","0","ti06en13","0","32","1","1","3","1","null","","","<div class = 'row'><div class = 'column'><img src = 'category3/CS4.png' width = '70%;'></div><div class = 'column'><img src = 'uspos/1710.bmp' width = '100%;'></div></div>","null","pos","CS","CS","3","category3/CS4.png","","","","",""
"","html-keyboard-response","77","495453","0.0-6.0-6.0-0.8","wjujvd90k9","one_one","1","indirect_first","0","ti06en13","0","32","1","1","3","1","null","","","<div class = 'row'><div class = 'column'><img src = 'uspos/2311.bmp' width = '100%;'></div><div class = 'column'><img src = 'category1/CS2.png' width = '70%;'></div></div>","null","pos","CS","CS","1","category1/CS2.png","","","","",""
"","html-keyboard-response","78","497983","0.0-6.0-6.0-0.9","wjujvd90k9","one_one","1","indirect_first","0","ti06en13","0","32","1","1","3","1","null","","","<div class = 'row'><div class = 'column'><img src = 'category2/CS9.png' width = '70%;'></div><div class = 'column'><img src = 'usneg/9181.bmp' width = '100%;'></div></div>","null","neg","CS","CS","2","category2/CS9.png","","","","",""
"","html-keyboard-response","79","500492","0.0-6.0-6.0-0.10","wjujvd90k9","one_one","1","indirect_first","0","ti06en13","0","32","1","1","3","1","null","","","<div class = 'row'><div class = 'column'><img src = 'category4/CS3.png' width = '70%;'></div><div class = 'column'><img src = 'usneg/9421.bmp' width = '100%;'></div></div>","null","neg","CS","CS","4","category4/CS3.png","","","","",""
"","html-keyboard-response","80","503033","0.0-6.0-6.0-0.11","wjujvd90k9","one_one","1","indirect_first","0","ti06en13","0","32","1","1","3","1","null","","","<div class = 'row'><div class = 'column'><img src = 'uspos/1710.bmp' width = '100%;'></div><div class = 'column'><img src = 'category3/CS4.png' width = '70%;'></div></div>","null","pos","CS","CS","3","category3/CS4.png","","","","",""
"","html-keyboard-response","81","505572","0.0-6.0-6.0-0.12","wjujvd90k9","one_one","1","indirect_first","0","ti06en13","0","32","1","1","3","1","null","","","<div class = 'row'><div class = 'column'><img src = 'uspos/2311.bmp' width = '100%;'></div><div class = 'column'><img src = 'category1/CS2.png' width = '70%;'></div></div>","null","pos","CS","CS","1","category1/CS2.png","","","","",""
"","html-keyboard-response","82","508113","0.0-6.0-6.0-0.13","wjujvd90k9","one_one","1","indirect_first","0","ti06en13","0","32","1","1","3","1","null","","","<div class = 'row'><div class = 'column'><img src = 'category3/CS4.png' width = '70%;'></div><div class = 'column'><img src = 'uspos/1710.bmp' width = '100%;'></div></div>","null","pos","CS","CS","3","category3/CS4.png","","","","",""
"","html-keyboard-response","83","510653","0.0-6.0-6.0-0.14","wjujvd90k9","one_one","1","indirect_first","0","ti06en13","0","32","1","1","3","1","null","","","<div class = 'row'><div class = 'column'><img src = 'uspos/2311.bmp' width = '100%;'></div><div class = 'column'><img src = 'category1/CS2.png' width = '70%;'></div></div>","null","pos","CS","CS","1","category1/CS2.png","","","","",""
"","html-keyboard-response","84","513192","0.0-6.0-6.0-0.15","wjujvd90k9","one_one","1","indirect_first","0","ti06en13","0","32","1","1","3","1","null","","","<div class = 'row'><div class = 'column'><img src = 'category2/CS9.png' width = '70%;'></div><div class = 'column'><img src = 'usneg/9181.bmp' width = '100%;'></div></div>","null","neg","CS","CS","2","category2/CS9.png","","","","",""
"","html-keyboard-response","85","515712","0.0-6.0-6.0-0.16","wjujvd90k9","one_one","1","indirect_first","0","ti06en13","0","32","1","1","3","1","null","","","<div class = 'row'><div class = 'column'><img src = 'usneg/9421.bmp' width = '100%;'></div><div class = 'column'><img src = 'category4/CS3.png' width = '70%;'></div></div>","null","neg","CS","CS","4","category4/CS3.png","","","","",""
"","html-keyboard-response","86","518233","0.0-6.0-6.0-0.17","wjujvd90k9","one_one","1","indirect_first","0","ti06en13","0","32","1","1","3","1","null","","","<div class = 'row'><div class = 'column'><img src = 'uspos/1710.bmp' width = '100%;'></div><div class = 'column'><img src = 'category3/CS4.png' width = '70%;'></div></div>","null","pos","CS","CS","3","category3/CS4.png","","","","",""
"","html-keyboard-response","87","520762","0.0-6.0-6.0-0.18","wjujvd90k9","one_one","1","indirect_first","0","ti06en13","0","32","1","1","3","1","null","","","<div class = 'row'><div class = 'column'><img src = 'usneg/9181.bmp' width = '100%;'></div><div class = 'column'><img src = 'category2/CS9.png' width = '70%;'></div></div>","null","neg","CS","CS","2","category2/CS9.png","","","","",""
"","html-keyboard-response","88","523302","0.0-6.0-6.0-0.19","wjujvd90k9","one_one","1","indirect_first","0","ti06en13","0","32","1","1","3","1","null","","","<div class = 'row'><div class = 'column'><img src = 'uspos/2311.bmp' width = '100%;'></div><div class = 'column'><img src = 'category1/CS2.png' width = '70%;'></div></div>","null","pos","CS","CS","1","category1/CS2.png","","","","",""
"","html-keyboard-response","89","566660","0.0-7.0","wjujvd90k9","one_one","1","indirect_first","0","ti06en13","0","32","1","1","3","1","42836","","","<p>Sie sehen nun die chinesischen Zeichen nur ganz kurz. Danach sehen Sie die jeweilige Aussprache der Zeichen als Silbe auf dem Bildschrim. Ihre Aufgabe ist es, für jede Silbe anzugeben, ob diese etwas angenehmes, oder unangenehmes bedeuten könnte. Verlassen Sie sich hier vor allem auf Ihre Intuition.<br><br>Die Zeichen werden nur zur Orientierung dargestellt, beachten Sie sie deshalb nicht. Konzentrieren Sie sich vor allem auf die Silben. <br>Reagieren Sie mit folgenden zwei Tasten: <br><br><b>'D' </b> wenn die Silbe etwas <b>unangenehmes</b> bedeuten könnte. <br><b>'K'</b> wenn die Silbe etwas <b>angenehmes</b> bedeuten könnte. <br><br>Bitte legen Sie nun den Zeigefinger der linken Hand auf die Taste 'D' und den Zeigefinger der rechten Hand auf die Taste 'K'. <br>Reagieren Sie auf jede Silbe so schnell wie möglich. Uns interessiert Ihre spontane Reaktion. <br> <br> <br>Drücken Sie 'D' oder 'K', um die nächste Aufgabe zu starten. </p>","75","","","","","","","","","",""
"","html-keyboard-response","90","569682","0.0-8.0-0.0","wjujvd90k9","one_one","1","indirect_first","0","ti06en13","0","32","1","1","3","1","null","","","<div style=""font-size:60px;"">+</div>","null","","","","","","","","","",""
"","html-keyboard-response","91","569781","0.0-8.0-1.0","wjujvd90k9","one_one","1","indirect_first","0","ti06en13","0","32","1","1","3","1","null","","","<img src = 'category3/CS6.png' width = '100%;'>","null","","","","","","","","","",""
"","html-keyboard-response","92","570062","0.0-8.0-2.0","wjujvd90k9","one_one","1","indirect_first","0","ti06en13","0","32","1","1","3","1","null","","","<img src = 'targets/22.png' width = '100%;'>","null","","","","","","","","","",""
"","html-keyboard-response","93","576602","0.0-8.0-3.0","wjujvd90k9","one_one","1","indirect_first","0","ti06en13","0","32","1","1","3","1","6537","","","<img src = 'targets/mask.png' width = '100%;'>","75","pos","GS","GSold","3","category3/CS6.png","targets/22.png","1","indirect","0",""
"","html-keyboard-response","94","578112","0.0-8.0-0.1","wjujvd90k9","one_one","1","indirect_first","0","ti06en13","0","32","1","1","3","1","null","","","<div style=""font-size:60px;"">+</div>","null","","","","","","","","","",""
"","html-keyboard-response","95","578212","0.0-8.0-1.1","wjujvd90k9","one_one","1","indirect_first","0","ti06en13","0","32","1","1","3","1","null","","","<img src = 'category4/CS9.png' width = '100%;'>","null","","","","","","","","","",""
"","html-keyboard-response","96","578492","0.0-8.0-2.1","wjujvd90k9","one_one","1","indirect_first","0","ti06en13","0","32","1","1","3","1","null","","","<img src = 'targets/8.png' width = '100%;'>","null","","","","","","","","","",""
"","html-keyboard-response","97","587643","0.0-8.0-3.1","wjujvd90k9","one_one","1","indirect_first","0","ti06en13","0","32","1","1","3","1","9149","","","<img src = 'targets/mask.png' width = '100%;'>","68","neg","GS","GSold","4","category4/CS9.png","targets/8.png","0","indirect","1",""
"","html-keyboard-response","98","589153","0.0-8.0-0.2","wjujvd90k9","one_one","1","indirect_first","0","ti06en13","0","32","1","1","3","1","null","","","<div style=""font-size:60px;"">+</div>","null","","","","","","","","","",""
"","html-keyboard-response","99","589244","0.0-8.0-1.2","wjujvd90k9","one_one","1","indirect_first","0","ti06en13","0","32","1","1","3","1","null","","","<img src = 'category1/CS1.png' width = '100%;'>","null","","","","","","","","","",""
"","html-keyboard-response","100","589512","0.0-8.0-2.2","wjujvd90k9","one_one","1","indirect_first","0","ti06en13","0","32","1","1","3","1","null","","","<img src = 'targets/41.png' width = '100%;'>","null","","","","","","","","","",""
"","html-keyboard-response","101","600954","0.0-8.0-3.2","wjujvd90k9","one_one","1","indirect_first","0","ti06en13","0","32","1","1","3","1","11441","","","<img src = 'targets/mask.png' width = '100%;'>","68","pos","GS","GSold","1","category1/CS1.png","targets/41.png","0","indirect","2",""
"","html-keyboard-response","102","602471","0.0-8.0-0.3","wjujvd90k9","one_one","1","indirect_first","0","ti06en13","0","32","1","1","3","1","null","","","<div style=""font-size:60px;"">+</div>","null","","","","","","","","","",""
"","html-keyboard-response","103","602571","0.0-8.0-1.3","wjujvd90k9","one_one","1","indirect_first","0","ti06en13","0","32","1","1","3","1","null","","","<img src = 'category3/CS1.png' width = '100%;'>","null","","","","","","","","","",""
"","html-keyboard-response","104","602852","0.0-8.0-2.3","wjujvd90k9","one_one","1","indirect_first","0","ti06en13","0","32","1","1","3","1","null","","","<img src = 'targets/48.png' width = '100%;'>","null","","","","","","","","","",""
"","html-keyboard-response","105","608498","0.0-8.0-3.3","wjujvd90k9","one_one","1","indirect_first","0","ti06en13","0","32","1","1","3","1","5645","","","<img src = 'targets/mask.png' width = '100%;'>","68","pos","GS","GSold","3","category3/CS1.png","targets/48.png","0","indirect","3",""
"","html-keyboard-response","106","610011","0.0-8.0-0.4","wjujvd90k9","one_one","1","indirect_first","0","ti06en13","0","32","1","1","3","1","null","","","<div style=""font-size:60px;"">+</div>","null","","","","","","","","","",""
"","html-keyboard-response","107","610111","0.0-8.0-1.4","wjujvd90k9","one_one","1","indirect_first","0","ti06en13","0","32","1","1","3","1","null","","","<img src = 'category3/CS9.png' width = '100%;'>","null","","","","","","","","","",""
"","html-keyboard-response","108","610392","0.0-8.0-2.4","wjujvd90k9","one_one","1","indirect_first","0","ti06en13","0","32","1","1","3","1","null","","","<img src = 'targets/25.png' width = '100%;'>","null","","","","","","","","","",""
"","html-keyboard-response","109","614978","0.0-8.0-3.4","wjujvd90k9","one_one","1","indirect_first","0","ti06en13","0","32","1","1","3","1","4586","","","<img src = 'targets/mask.png' width = '100%;'>","75","pos","GS","GSold","3","category3/CS9.png","targets/25.png","1","indirect","4",""
"","html-keyboard-response","110","616511","0.0-8.0-0.5","wjujvd90k9","one_one","1","indirect_first","0","ti06en13","0","32","1","1","3","1","null","","","<div style=""font-size:60px;"">+</div>","null","","","","","","","","","",""
"","html-keyboard-response","111","616611","0.0-8.0-1.5","wjujvd90k9","one_one","1","indirect_first","0","ti06en13","0","32","1","1","3","1","null","","","<img src = 'category2/CS3.png' width = '100%;'>","null","","","","","","","","","",""
"","html-keyboard-response","112","616891","0.0-8.0-2.5","wjujvd90k9","one_one","1","indirect_first","0","ti06en13","0","32","1","1","3","1","null","","","<img src = 'targets/4.png' width = '100%;'>","null","","","","","","","","","",""
"","html-keyboard-response","113","619050","0.0-8.0-3.5","wjujvd90k9","one_one","1","indirect_first","0","ti06en13","0","32","1","1","3","1","2157","","","<img src = 'targets/mask.png' width = '100%;'>","68","neg","GS","GSold","2","category2/CS3.png","targets/4.png","0","indirect","5",""
"","html-keyboard-response","114","620571","0.0-8.0-0.6","wjujvd90k9","one_one","1","indirect_first","0","ti06en13","0","32","1","1","3","1","null","","","<div style=""font-size:60px;"">+</div>","null","","","","","","","","","",""
"","html-keyboard-response","115","620671","0.0-8.0-1.6","wjujvd90k9","one_one","1","indirect_first","0","ti06en13","0","32","1","1","3","1","null","","","<img src = 'category3/CS4.png' width = '100%;'>","null","","","","","","","","","",""
"","html-keyboard-response","116","620951","0.0-8.0-2.6","wjujvd90k9","one_one","1","indirect_first","0","ti06en13","0","32","1","1","3","1","null","","","<img src = 'targets/2.png' width = '100%;'>","null","","","","","","","","","",""
"","html-keyboard-response","117","623962","0.0-8.0-3.6","wjujvd90k9","one_one","1","indirect_first","0","ti06en13","0","32","1","1","3","1","3009","","","<img src = 'targets/mask.png' width = '100%;'>","68","pos","CS","CS","3","category3/CS4.png","targets/2.png","0","indirect","6",""
"","html-keyboard-response","118","625491","0.0-8.0-0.7","wjujvd90k9","one_one","1","indirect_first","0","ti06en13","0","32","1","1","3","1","null","","","<div style=""font-size:60px;"">+</div>","null","","","","","","","","","",""
"","html-keyboard-response","119","625591","0.0-8.0-1.7","wjujvd90k9","one_one","1","indirect_first","0","ti06en13","0","32","1","1","3","1","null","","","<img src = 'category2/CS2.png' width = '100%;'>","null","","","","","","","","","",""
"","html-keyboard-response","120","625861","0.0-8.0-2.7","wjujvd90k9","one_one","1","indirect_first","0","ti06en13","0","32","1","1","3","1","null","","","<img src = 'targets/38.png' width = '100%;'>","null","","","","","","","","","",""
"","html-keyboard-response","121","629097","0.0-8.0-3.7","wjujvd90k9","one_one","1","indirect_first","0","ti06en13","0","32","1","1","3","1","3236","","","<img src = 'targets/mask.png' width = '100%;'>","75","neg","GS","GSold","2","category2/CS2.png","targets/38.png","1","indirect","7",""
"","html-keyboard-response","122","630621","0.0-8.0-0.8","wjujvd90k9","one_one","1","indirect_first","0","ti06en13","0","32","1","1","3","1","null","","","<div style=""font-size:60px;"">+</div>","null","","","","","","","","","",""
"","html-keyboard-response","123","630721","0.0-8.0-1.8","wjujvd90k9","one_one","1","indirect_first","0","ti06en13","0","32","1","1","3","1","null","","","<img src = 'category4/CS8.png' width = '100%;'>","null","","","","","","","","","",""
"","html-keyboard-response","124","631000","0.0-8.0-2.8","wjujvd90k9","one_one","1","indirect_first","0","ti06en13","0","32","1","1","3","1","null","","","<img src = 'targets/10.png' width = '100%;'>","null","","","","","","","","","",""
"","html-keyboard-response","125","632753","0.0-8.0-3.8","wjujvd90k9","one_one","1","indirect_first","0","ti06en13","0","32","1","1","3","1","1751","","","<img src = 'targets/mask.png' width = '100%;'>","75","neg","GS","GSold","4","category4/CS8.png","targets/10.png","1","indirect","8",""
"","html-keyboard-response","126","634271","0.0-8.0-0.9","wjujvd90k9","one_one","1","indirect_first","0","ti06en13","0","32","1","1","3","1","null","","","<div style=""font-size:60px;"">+</div>","null","","","","","","","","","",""
"","html-keyboard-response","127","634371","0.0-8.0-1.9","wjujvd90k9","one_one","1","indirect_first","0","ti06en13","0","32","1","1","3","1","null","","","<img src = 'category4/CS7.png' width = '100%;'>","null","","","","","","","","","",""
"","html-keyboard-response","128","634651","0.0-8.0-2.9","wjujvd90k9","one_one","1","indirect_first","0","ti06en13","0","32","1","1","3","1","null","","","<img src = 'targets/30.png' width = '100%;'>","null","","","","","","","","","",""
"","html-keyboard-response","129","635977","0.0-8.0-3.9","wjujvd90k9","one_one","1","indirect_first","0","ti06en13","0","32","1","1","3","1","1324","","","<img src = 'targets/mask.png' width = '100%;'>","75","neg","GS","GSold","4","category4/CS7.png","targets/30.png","1","indirect","9",""
"","html-keyboard-response","130","637511","0.0-8.0-0.10","wjujvd90k9","one_one","1","indirect_first","0","ti06en13","0","32","1","1","3","1","null","","","<div style=""font-size:60px;"">+</div>","null","","","","","","","","","",""
"","html-keyboard-response","131","637611","0.0-8.0-1.10","wjujvd90k9","one_one","1","indirect_first","0","ti06en13","0","32","1","1","3","1","null","","","<img src = 'category1/CS4.png' width = '100%;'>","null","","","","","","","","","",""
"","html-keyboard-response","132","637887","0.0-8.0-2.10","wjujvd90k9","one_one","1","indirect_first","0","ti06en13","0","32","1","1","3","1","null","","","<img src = 'targets/33.png' width = '100%;'>","null","","","","","","","","","",""
"","html-keyboard-response","133","639377","0.0-8.0-3.10","wjujvd90k9","one_one","1","indirect_first","0","ti06en13","0","32","1","1","3","1","1489","","","<img src = 'targets/mask.png' width = '100%;'>","75","pos","GS","GSold","1","category1/CS4.png","targets/33.png","1","indirect","10",""
"","html-keyboard-response","134","640911","0.0-8.0-0.11","wjujvd90k9","one_one","1","indirect_first","0","ti06en13","0","32","1","1","3","1","null","","","<div style=""font-size:60px;"">+</div>","null","","","","","","","","","",""
"","html-keyboard-response","135","641011","0.0-8.0-1.11","wjujvd90k9","one_one","1","indirect_first","0","ti06en13","0","32","1","1","3","1","null","","","<img src = 'category2/CS7.png' width = '100%;'>","null","","","","","","","","","",""
"","html-keyboard-response","136","641271","0.0-8.0-2.11","wjujvd90k9","one_one","1","indirect_first","0","ti06en13","0","32","1","1","3","1","null","","","<img src = 'targets/1.png' width = '100%;'>","null","","","","","","","","","",""
"","html-keyboard-response","137","643225","0.0-8.0-3.11","wjujvd90k9","one_one","1","indirect_first","0","ti06en13","0","32","1","1","3","1","1952","","","<img src = 'targets/mask.png' width = '100%;'>","75","neg","GS","GSold","2","category2/CS7.png","targets/1.png","1","indirect","11",""
"","html-keyboard-response","138","644730","0.0-8.0-0.12","wjujvd90k9","one_one","1","indirect_first","0","ti06en13","0","32","1","1","3","1","null","","","<div style=""font-size:60px;"">+</div>","null","","","","","","","","","",""
"","html-keyboard-response","139","644830","0.0-8.0-1.12","wjujvd90k9","one_one","1","indirect_first","0","ti06en13","0","32","1","1","3","1","null","","","<img src = 'category1/CS2.png' width = '100%;'>","null","","","","","","","","","",""
"","html-keyboard-response","140","645111","0.0-8.0-2.12","wjujvd90k9","one_one","1","indirect_first","0","ti06en13","0","32","1","1","3","1","null","","","<img src = 'targets/19.png' width = '100%;'>","null","","","","","","","","","",""
"","html-keyboard-response","141","646881","0.0-8.0-3.12","wjujvd90k9","one_one","1","indirect_first","0","ti06en13","0","32","1","1","3","1","1769","","","<img src = 'targets/mask.png' width = '100%;'>","68","pos","CS","CS","1","category1/CS2.png","targets/19.png","0","indirect","12",""
"","html-keyboard-response","142","648410","0.0-8.0-0.13","wjujvd90k9","one_one","1","indirect_first","0","ti06en13","0","32","1","1","3","1","null","","","<div style=""font-size:60px;"">+</div>","null","","","","","","","","","",""
"","html-keyboard-response","143","648511","0.0-8.0-1.13","wjujvd90k9","one_one","1","indirect_first","0","ti06en13","0","32","1","1","3","1","null","","","<img src = 'category2/CS9.png' width = '100%;'>","null","","","","","","","","","",""
"","html-keyboard-response","144","648791","0.0-8.0-2.13","wjujvd90k9","one_one","1","indirect_first","0","ti06en13","0","32","1","1","3","1","null","","","<img src = 'targets/43.png' width = '100%;'>","null","","","","","","","","","",""
"","html-keyboard-response","145","650849","0.0-8.0-3.13","wjujvd90k9","one_one","1","indirect_first","0","ti06en13","0","32","1","1","3","1","2057","","","<img src = 'targets/mask.png' width = '100%;'>","75","neg","CS","CS","2","category2/CS9.png","targets/43.png","1","indirect","13",""
"","html-keyboard-response","146","652351","0.0-8.0-0.14","wjujvd90k9","one_one","1","indirect_first","0","ti06en13","0","32","1","1","3","1","null","","","<div style=""font-size:60px;"">+</div>","null","","","","","","","","","",""
"","html-keyboard-response","147","652450","0.0-8.0-1.14","wjujvd90k9","one_one","1","indirect_first","0","ti06en13","0","32","1","1","3","1","null","","","<img src = 'category1/CS5.png' width = '100%;'>","null","","","","","","","","","",""
"","html-keyboard-response","148","652731","0.0-8.0-2.14","wjujvd90k9","one_one","1","indirect_first","0","ti06en13","0","32","1","1","3","1","null","","","<img src = 'targets/24.png' width = '100%;'>","null","","","","","","","","","",""
"","html-keyboard-response","149","655305","0.0-8.0-3.14","wjujvd90k9","one_one","1","indirect_first","0","ti06en13","0","32","1","1","3","1","2574","","","<img src = 'targets/mask.png' width = '100%;'>","75","pos","GS","GSold","1","category1/CS5.png","targets/24.png","1","indirect","14",""
"","html-keyboard-response","150","656831","0.0-8.0-0.15","wjujvd90k9","one_one","1","indirect_first","0","ti06en13","0","32","1","1","3","1","null","","","<div style=""font-size:60px;"">+</div>","null","","","","","","","","","",""
"","html-keyboard-response","151","656931","0.0-8.0-1.15","wjujvd90k9","one_one","1","indirect_first","0","ti06en13","0","32","1","1","3","1","null","","","<img src = 'category4/CS3.png' width = '100%;'>","null","","","","","","","","","",""
"","html-keyboard-response","152","657210","0.0-8.0-2.15","wjujvd90k9","one_one","1","indirect_first","0","ti06en13","0","32","1","1","3","1","null","","","<img src = 'targets/37.png' width = '100%;'>","null","","","","","","","","","",""
"","html-keyboard-response","153","658809","0.0-8.0-3.15","wjujvd90k9","one_one","1","indirect_first","0","ti06en13","0","32","1","1","3","1","1597","","","<img src = 'targets/mask.png' width = '100%;'>","75","neg","CS","CS","4","category4/CS3.png","targets/37.png","1","indirect","15",""
"","survey-html-form","154","664273","0.0-9.0","wjujvd90k9","one_one","1","indirect_first","0","ti06en13","0","32","1","1","3","1","4962","","{}","","","","","","","","","","","",""
"","html-keyboard-response","155","667311","0.0-10.0-0.0","wjujvd90k9","one_one","1","indirect_first","0","ti06en13","0","32","1","1","3","1","null","","","<div style=""font-size:60px;"">+</div>","null","","","","","","","","","",""
"","html-keyboard-response","156","667410","0.0-10.0-1.0","wjujvd90k9","one_one","1","indirect_first","0","ti06en13","0","32","1","1","3","1","null","","","<img src = 'category1/GS1.png' width = '100%;'>","null","","","","","","","","","",""
"","html-keyboard-response","157","667690","0.0-10.0-2.0","wjujvd90k9","one_one","1","indirect_first","0","ti06en13","0","32","1","1","3","1","null","","","<img src = 'targets/18.png' width = '100%;'>","null","","","","","","","","","",""
"","html-keyboard-response","158","670072","0.0-10.0-3.0","wjujvd90k9","one_one","1","indirect_first","0","ti06en13","0","32","1","1","3","1","2382","","","<img src = 'targets/mask.png' width = '100%;'>","68","pos","GS","GSnew","1","category1/GS1.png","targets/18.png","0","indirect","16",""
"","html-keyboard-response","159","671610","0.0-10.0-0.1","wjujvd90k9","one_one","1","indirect_first","0","ti06en13","0","32","1","1","3","1","null","","","<div style=""font-size:60px;"">+</div>","null","","","","","","","","","",""
"","html-keyboard-response","160","671711","0.0-10.0-1.1","wjujvd90k9","one_one","1","indirect_first","0","ti06en13","0","32","1","1","3","1","null","","","<img src = 'category3/wang.png' width = '100%;'>","null","","","","","","","","","",""
"","html-keyboard-response","161","671990","0.0-10.0-2.1","wjujvd90k9","one_one","1","indirect_first","0","ti06en13","0","32","1","1","3","1","null","","","<img src = 'targets/29.png' width = '100%;'>","null","","","","","","","","","",""
"","html-keyboard-response","162","674857","0.0-10.0-3.1","wjujvd90k9","one_one","1","indirect_first","0","ti06en13","0","32","1","1","3","1","2865","","","<img src = 'targets/mask.png' width = '100%;'>","68","pos","GS","abstract","3","category3/wang.png","targets/29.png","0","indirect","17",""
"","html-keyboard-response","163","676370","0.0-10.0-0.2","wjujvd90k9","one_one","1","indirect_first","0","ti06en13","0","32","1","1","3","1","null","","","<div style=""font-size:60px;"">+</div>","null","","","","","","","","","",""
"","html-keyboard-response","164","676470","0.0-10.0-1.2","wjujvd90k9","one_one","1","indirect_first","0","ti06en13","0","32","1","1","3","1","null","","","<img src = 'category2/GS3.png' width = '100%;'>","null","","","","","","","","","",""
"","html-keyboard-response","165","676750","0.0-10.0-2.2","wjujvd90k9","one_one","1","indirect_first","0","ti06en13","0","32","1","1","3","1","null","","","<img src = 'targets/47.png' width = '100%;'>","null","","","","","","","","","",""
"","html-keyboard-response","166","678681","0.0-10.0-3.2","wjujvd90k9","one_one","1","indirect_first","0","ti06en13","0","32","1","1","3","1","1929","","","<img src = 'targets/mask.png' width = '100%;'>","68","neg","GS","GSnew","2","category2/GS3.png","targets/47.png","0","indirect","18",""
"","html-keyboard-response","167","680190","0.0-10.0-0.3","wjujvd90k9","one_one","1","indirect_first","0","ti06en13","0","32","1","1","3","1","null","","","<div style=""font-size:60px;"">+</div>","null","","","","","","","","","",""
"","html-keyboard-response","168","680291","0.0-10.0-1.3","wjujvd90k9","one_one","1","indirect_first","0","ti06en13","0","32","1","1","3","1","null","","","<img src = 'category1/GS2.png' width = '100%;'>","null","","","","","","","","","",""
"","html-keyboard-response","169","680570","0.0-10.0-2.3","wjujvd90k9","one_one","1","indirect_first","0","ti06en13","0","32","1","1","3","1","null","","","<img src = 'targets/44.png' width = '100%;'>","null","","","","","","","","","",""
"","html-keyboard-response","170","684633","0.0-10.0-3.3","wjujvd90k9","one_one","1","indirect_first","0","ti06en13","0","32","1","1","3","1","4061","","","<img src = 'targets/mask.png' width = '100%;'>","75","pos","GS","GSnew","1","category1/GS2.png","targets/44.png","1","indirect","19",""
"","html-keyboard-response","171","686170","0.0-10.0-0.4","wjujvd90k9","one_one","1","indirect_first","0","ti06en13","0","32","1","1","3","1","null","","","<div style=""font-size:60px;"">+</div>","null","","","","","","","","","",""
"","html-keyboard-response","172","686270","0.0-10.0-1.4","wjujvd90k9","one_one","1","indirect_first","0","ti06en13","0","32","1","1","3","1","null","","","<img src = 'category4/GS2.png' width = '100%;'>","null","","","","","","","","","",""
"","html-keyboard-response","173","686550","0.0-10.0-2.4","wjujvd90k9","one_one","1","indirect_first","0","ti06en13","0","32","1","1","3","1","null","","","<img src = 'targets/26.png' width = '100%;'>","null","","","","","","","","","",""
"","html-keyboard-response","174","687920","0.0-10.0-3.4","wjujvd90k9","one_one","1","indirect_first","0","ti06en13","0","32","1","1","3","1","1370","","","<img src = 'targets/mask.png' width = '100%;'>","75","neg","GS","GSnew","4","category4/GS2.png","targets/26.png","1","indirect","20",""
"","html-keyboard-response","175","689449","0.0-10.0-0.5","wjujvd90k9","one_one","1","indirect_first","0","ti06en13","0","32","1","1","3","1","null","","","<div style=""font-size:60px;"">+</div>","null","","","","","","","","","",""
"","html-keyboard-response","176","689549","0.0-10.0-1.5","wjujvd90k9","one_one","1","indirect_first","0","ti06en13","0","32","1","1","3","1","null","","","<img src = 'category2/GS1.png' width = '100%;'>","null","","","","","","","","","",""
"","html-keyboard-response","177","689820","0.0-10.0-2.5","wjujvd90k9","one_one","1","indirect_first","0","ti06en13","0","32","1","1","3","1","null","","","<img src = 'targets/31.png' width = '100%;'>","null","","","","","","","","","",""
"","html-keyboard-response","178","691345","0.0-10.0-3.5","wjujvd90k9","one_one","1","indirect_first","0","ti06en13","0","32","1","1","3","1","1524","","","<img src = 'targets/mask.png' width = '100%;'>","75","neg","GS","GSnew","2","category2/GS1.png","targets/31.png","1","indirect","21",""
"","html-keyboard-response","179","692860","0.0-10.0-0.6","wjujvd90k9","one_one","1","indirect_first","0","ti06en13","0","32","1","1","3","1","null","","","<div style=""font-size:60px;"">+</div>","null","","","","","","","","","",""
"","html-keyboard-response","180","692960","0.0-10.0-1.6","wjujvd90k9","one_one","1","indirect_first","0","ti06en13","0","32","1","1","3","1","null","","","<img src = 'category2/GS2.png' width = '100%;'>","null","","","","","","","","","",""
"","html-keyboard-response","181","693240","0.0-10.0-2.6","wjujvd90k9","one_one","1","indirect_first","0","ti06en13","0","32","1","1","3","1","null","","","<img src = 'targets/12.png' width = '100%;'>","null","","","","","","","","","",""
"","html-keyboard-response","182","694640","0.0-10.0-3.6","wjujvd90k9","one_one","1","indirect_first","0","ti06en13","0","32","1","1","3","1","1400","","","<img src = 'targets/mask.png' width = '100%;'>","75","neg","GS","GSnew","2","category2/GS2.png","targets/12.png","1","indirect","22",""
"","html-keyboard-response","183","696179","0.0-10.0-0.7","wjujvd90k9","one_one","1","indirect_first","0","ti06en13","0","32","1","1","3","1","null","","","<div style=""font-size:60px;"">+</div>","null","","","","","","","","","",""
"","html-keyboard-response","184","696280","0.0-10.0-1.7","wjujvd90k9","one_one","1","indirect_first","0","ti06en13","0","32","1","1","3","1","null","","","<img src = 'category3/GS1.png' width = '100%;'>","null","","","","","","","","","",""
"","html-keyboard-response","185","696560","0.0-10.0-2.7","wjujvd90k9","one_one","1","indirect_first","0","ti06en13","0","32","1","1","3","1","null","","","<img src = 'targets/7.png' width = '100%;'>","null","","","","","","","","","",""
"","html-keyboard-response","186","699897","0.0-10.0-3.7","wjujvd90k9","one_one","1","indirect_first","0","ti06en13","0","32","1","1","3","1","3335","","","<img src = 'targets/mask.png' width = '100%;'>","75","pos","GS","GSnew","3","category3/GS1.png","targets/7.png","1","indirect","23",""
"","html-keyboard-response","187","701420","0.0-10.0-0.8","wjujvd90k9","one_one","1","indirect_first","0","ti06en13","0","32","1","1","3","1","null","","","<div style=""font-size:60px;"">+</div>","null","","","","","","","","","",""
"","html-keyboard-response","188","701520","0.0-10.0-1.8","wjujvd90k9","one_one","1","indirect_first","0","ti06en13","0","32","1","1","3","1","null","","","<img src = 'category3/GS3.png' width = '100%;'>","null","","","","","","","","","",""
"","html-keyboard-response","189","701799","0.0-10.0-2.8","wjujvd90k9","one_one","1","indirect_first","0","ti06en13","0","32","1","1","3","1","null","","","<img src = 'targets/40.png' width = '100%;'>","null","","","","","","","","","",""
"","html-keyboard-response","190","703432","0.0-10.0-3.8","wjujvd90k9","one_one","1","indirect_first","0","ti06en13","0","32","1","1","3","1","1632","","","<img src = 'targets/mask.png' width = '100%;'>","75","pos","GS","GSnew","3","category3/GS3.png","targets/40.png","1","indirect","24",""
"","html-keyboard-response","191","704939","0.0-10.0-0.9","wjujvd90k9","one_one","1","indirect_first","0","ti06en13","0","32","1","1","3","1","null","","","<div style=""font-size:60px;"">+</div>","null","","","","","","","","","",""
"","html-keyboard-response","192","705040","0.0-10.0-1.9","wjujvd90k9","one_one","1","indirect_first","0","ti06en13","0","32","1","1","3","1","null","","","<img src = 'category4/GS3.png' width = '100%;'>","null","","","","","","","","","",""
"","html-keyboard-response","193","705320","0.0-10.0-2.9","wjujvd90k9","one_one","1","indirect_first","0","ti06en13","0","32","1","1","3","1","null","","","<img src = 'targets/23.png' width = '100%;'>","null","","","","","","","","","",""
"","html-keyboard-response","194","707280","0.0-10.0-3.9","wjujvd90k9","one_one","1","indirect_first","0","ti06en13","0","32","1","1","3","1","1960","","","<img src = 'targets/mask.png' width = '100%;'>","68","neg","GS","GSnew","4","category4/GS3.png","targets/23.png","0","indirect","25",""
"","html-keyboard-response","195","708819","0.0-10.0-0.10","wjujvd90k9","one_one","1","indirect_first","0","ti06en13","0","32","1","1","3","1","null","","","<div style=""font-size:60px;"">+</div>","null","","","","","","","","","",""
"","html-keyboard-response","196","708919","0.0-10.0-1.10","wjujvd90k9","one_one","1","indirect_first","0","ti06en13","0","32","1","1","3","1","null","","","<img src = 'category1/ma.png' width = '100%;'>","null","","","","","","","","","",""
"","html-keyboard-response","197","709200","0.0-10.0-2.10","wjujvd90k9","one_one","1","indirect_first","0","ti06en13","0","32","1","1","3","1","null","","","<img src = 'targets/17.png' width = '100%;'>","null","","","","","","","","","",""
"","html-keyboard-response","198","711688","0.0-10.0-3.10","wjujvd90k9","one_one","1","indirect_first","0","ti06en13","0","32","1","1","3","1","2487","","","<img src = 'targets/mask.png' width = '100%;'>","75","pos","GS","abstract","1","category1/ma.png","targets/17.png","1","indirect","26",""
"","html-keyboard-response","199","713200","0.0-10.0-0.11","wjujvd90k9","one_one","1","indirect_first","0","ti06en13","0","32","1","1","3","1","null","","","<div style=""font-size:60px;"">+</div>","null","","","","","","","","","",""
"","html-keyboard-response","200","713299","0.0-10.0-1.11","wjujvd90k9","one_one","1","indirect_first","0","ti06en13","0","32","1","1","3","1","null","","","<img src = 'category4/lin.png' width = '100%;'>","null","","","","","","","","","",""
"","html-keyboard-response","201","713580","0.0-10.0-2.11","wjujvd90k9","one_one","1","indirect_first","0","ti06en13","0","32","1","1","3","1","null","","","<img src = 'targets/5.png' width = '100%;'>","null","","","","","","","","","",""
"","html-keyboard-response","202","715040","0.0-10.0-3.11","wjujvd90k9","one_one","1","indirect_first","0","ti06en13","0","32","1","1","3","1","1459","","","<img src = 'targets/mask.png' width = '100%;'>","75","neg","GS","abstract","4","category4/lin.png","targets/5.png","1","indirect","27",""
"","html-keyboard-response","203","716560","0.0-10.0-0.12","wjujvd90k9","one_one","1","indirect_first","0","ti06en13","0","32","1","1","3","1","null","","","<div style=""font-size:60px;"">+</div>","null","","","","","","","","","",""
"","html-keyboard-response","204","716659","0.0-10.0-1.12","wjujvd90k9","one_one","1","indirect_first","0","ti06en13","0","32","1","1","3","1","null","","","<img src = 'category3/GS2.png' width = '100%;'>","null","","","","","","","","","",""
"","html-keyboard-response","205","716939","0.0-10.0-2.12","wjujvd90k9","one_one","1","indirect_first","0","ti06en13","0","32","1","1","3","1","null","","","<img src = 'targets/15.png' width = '100%;'>","null","","","","","","","","","",""
"","html-keyboard-response","206","719464","0.0-10.0-3.12","wjujvd90k9","one_one","1","indirect_first","0","ti06en13","0","32","1","1","3","1","2523","","","<img src = 'targets/mask.png' width = '100%;'>","75","pos","GS","GSnew","3","category3/GS2.png","targets/15.png","1","indirect","28",""
"","html-keyboard-response","207","720999","0.0-10.0-0.13","wjujvd90k9","one_one","1","indirect_first","0","ti06en13","0","32","1","1","3","1","null","","","<div style=""font-size:60px;"">+</div>","null","","","","","","","","","",""
"","html-keyboard-response","208","721100","0.0-10.0-1.13","wjujvd90k9","one_one","1","indirect_first","0","ti06en13","0","32","1","1","3","1","null","","","<img src = 'category4/GS1.png' width = '100%;'>","null","","","","","","","","","",""
"","html-keyboard-response","209","721379","0.0-10.0-2.13","wjujvd90k9","one_one","1","indirect_first","0","ti06en13","0","32","1","1","3","1","null","","","<img src = 'targets/3.png' width = '100%;'>","null","","","","","","","","","",""
"","html-keyboard-response","210","724560","0.0-10.0-3.13","wjujvd90k9","one_one","1","indirect_first","0","ti06en13","0","32","1","1","3","1","3180","","","<img src = 'targets/mask.png' width = '100%;'>","68","neg","GS","GSnew","4","category4/GS1.png","targets/3.png","0","indirect","29",""
"","html-keyboard-response","211","726089","0.0-10.0-0.14","wjujvd90k9","one_one","1","indirect_first","0","ti06en13","0","32","1","1","3","1","null","","","<div style=""font-size:60px;"">+</div>","null","","","","","","","","","",""
"","html-keyboard-response","212","726190","0.0-10.0-1.14","wjujvd90k9","one_one","1","indirect_first","0","ti06en13","0","32","1","1","3","1","null","","","<img src = 'category2/men.png' width = '100%;'>","null","","","","","","","","","",""
"","html-keyboard-response","213","726469","0.0-10.0-2.14","wjujvd90k9","one_one","1","indirect_first","0","ti06en13","0","32","1","1","3","1","null","","","<img src = 'targets/45.png' width = '100%;'>","null","","","","","","","","","",""
"","html-keyboard-response","214","728168","0.0-10.0-3.14","wjujvd90k9","one_one","1","indirect_first","0","ti06en13","0","32","1","1","3","1","1697","","","<img src = 'targets/mask.png' width = '100%;'>","68","neg","GS","abstract","2","category2/men.png","targets/45.png","0","indirect","30",""
"","html-keyboard-response","215","729689","0.0-10.0-0.15","wjujvd90k9","one_one","1","indirect_first","0","ti06en13","0","32","1","1","3","1","null","","","<div style=""font-size:60px;"">+</div>","null","","","","","","","","","",""
"","html-keyboard-response","216","729789","0.0-10.0-1.15","wjujvd90k9","one_one","1","indirect_first","0","ti06en13","0","32","1","1","3","1","null","","","<img src = 'category1/GS3.png' width = '100%;'>","null","","","","","","","","","",""
"","html-keyboard-response","217","730069","0.0-10.0-2.15","wjujvd90k9","one_one","1","indirect_first","0","ti06en13","0","32","1","1","3","1","null","","","<img src = 'targets/27.png' width = '100%;'>","null","","","","","","","","","",""
"","html-keyboard-response","218","731576","0.0-10.0-3.15","wjujvd90k9","one_one","1","indirect_first","0","ti06en13","0","32","1","1","3","1","1506","","","<img src = 'targets/mask.png' width = '100%;'>","68","pos","GS","GSnew","1","category1/GS3.png","targets/27.png","0","indirect","31",""
"","survey-html-form","219","744952","0.0-11.0","wjujvd90k9","one_one","1","indirect_first","0","ti06en13","0","32","1","1","3","1","12873","","{}","","","","","","","","","","","",""
"","image-slider-response","220","759054","0.0-12.0-0.0","wjujvd90k9","one_one","1","indirect_first","0","ti06en13","0","32","1","1","3","1","12082","","","","","neg","GS","GSnew","4","category4/GS2.png","targets/26.png","","direct","","33"
"","image-slider-response","221","762606","0.0-12.0-0.1","wjujvd90k9","one_one","1","indirect_first","0","ti06en13","0","32","1","1","3","1","3550","","","","","pos","GS","GSold","1","category1/CS4.png","targets/33.png","","direct","","-47"
"","image-slider-response","222","767902","0.0-12.0-0.2","wjujvd90k9","one_one","1","indirect_first","0","ti06en13","0","32","1","1","3","1","5295","","","","","pos","CS","CS","1","category1/CS2.png","targets/19.png","","direct","","-16"
"","image-slider-response","223","772646","0.0-12.0-0.3","wjujvd90k9","one_one","1","indirect_first","0","ti06en13","0","32","1","1","3","1","4743","","","","","pos","GS","GSnew","3","category3/GS2.png","targets/15.png","","direct","","-59"
"","image-slider-response","224","777294","0.0-12.0-0.4","wjujvd90k9","one_one","1","indirect_first","0","ti06en13","0","32","1","1","3","1","4648","","","","","pos","GS","GSnew","1","category1/GS2.png","targets/44.png","","direct","","-33"
"","image-slider-response","225","781374","0.0-12.0-0.5","wjujvd90k9","one_one","1","indirect_first","0","ti06en13","0","32","1","1","3","1","4079","","","","","neg","GS","GSold","4","category4/CS7.png","targets/30.png","","direct","","26"
"","image-slider-response","226","785109","0.0-12.0-0.6","wjujvd90k9","one_one","1","indirect_first","0","ti06en13","0","32","1","1","3","1","3734","","","","","pos","GS","GSold","3","category3/CS1.png","targets/48.png","","direct","","26"
"","image-slider-response","227","789973","0.0-12.0-0.7","wjujvd90k9","one_one","1","indirect_first","0","ti06en13","0","32","1","1","3","1","4864","","","","","pos","GS","abstract","3","category3/wang.png","targets/29.png","","direct","","22"
"","image-slider-response","228","793405","0.0-12.0-0.8","wjujvd90k9","one_one","1","indirect_first","0","ti06en13","0","32","1","1","3","1","3431","","","","","neg","GS","GSnew","2","category2/GS2.png","targets/12.png","","direct","","-35"
"","image-slider-response","229","797527","0.0-12.0-0.9","wjujvd90k9","one_one","1","indirect_first","0","ti06en13","0","32","1","1","3","1","4119","","","","","pos","GS","GSold","1","category1/CS1.png","targets/41.png","","direct","","-36"
"","image-slider-response","230","803870","0.0-12.0-0.10","wjujvd90k9","one_one","1","indirect_first","0","ti06en13","0","32","1","1","3","1","6343","","","","","neg","GS","GSold","2","category2/CS2.png","targets/38.png","","direct","","-15"
"","image-slider-response","231","806750","0.0-12.0-0.11","wjujvd90k9","one_one","1","indirect_first","0","ti06en13","0","32","1","1","3","1","2878","","","","","neg","GS","GSnew","4","category4/GS3.png","targets/23.png","","direct","","-22"
"","image-slider-response","232","813662","0.0-12.0-0.12","wjujvd90k9","one_one","1","indirect_first","0","ti06en13","0","32","1","1","3","1","6911","","","","","pos","CS","CS","3","category3/CS4.png","targets/2.png","","direct","","49"
"","image-slider-response","233","816893","0.0-12.0-0.13","wjujvd90k9","one_one","1","indirect_first","0","ti06en13","0","32","1","1","3","1","3232","","","","","pos","GS","GSnew","3","category3/GS1.png","targets/7.png","","direct","","-45"
"","image-slider-response","234","820669","0.0-12.0-0.14","wjujvd90k9","one_one","1","indirect_first","0","ti06en13","0","32","1","1","3","1","3774","","","","","pos","GS","GSold","3","category3/CS6.png","targets/22.png","","direct","","34"
"","image-slider-response","235","834213","0.0-12.0-0.15","wjujvd90k9","one_one","1","indirect_first","0","ti06en13","0","32","1","1","3","1","13543","","","","","neg","CS","CS","2","category2/CS9.png","targets/43.png","","direct","","2"
"","image-slider-response","236","838406","0.0-12.0-0.16","wjujvd90k9","one_one","1","indirect_first","0","ti06en13","0","32","1","1","3","1","4190","","","","","pos","GS","GSnew","1","category1/GS1.png","targets/18.png","","direct","","-33"
"","image-slider-response","237","841325","0.0-12.0-0.17","wjujvd90k9","one_one","1","indirect_first","0","ti06en13","0","32","1","1","3","1","2918","","","","","neg","GS","abstract","2","category2/men.png","targets/45.png","","direct","","-23"
"","image-slider-response","238","844133","0.0-12.0-0.18","wjujvd90k9","one_one","1","indirect_first","0","ti06en13","0","32","1","1","3","1","2806","","","","","neg","GS","GSold","4","category4/CS9.png","targets/8.png","","direct","","-30"
"","image-slider-response","239","847221","0.0-12.0-0.19","wjujvd90k9","one_one","1","indirect_first","0","ti06en13","0","32","1","1","3","1","3087","","","","","neg","GS","GSnew","2","category2/GS1.png","targets/31.png","","direct","","-37"
"","image-slider-response","240","851142","0.0-12.0-0.20","wjujvd90k9","one_one","1","indirect_first","0","ti06en13","0","32","1","1","3","1","3919","","","","","pos","GS","GSnew","3","category3/GS3.png","targets/40.png","","direct","","39"
"","image-slider-response","241","854069","0.0-12.0-0.21","wjujvd90k9","one_one","1","indirect_first","0","ti06en13","0","32","1","1","3","1","2927","","","","","neg","GS","GSold","4","category4/CS8.png","targets/10.png","","direct","","42"
"","image-slider-response","242","857725","0.0-12.0-0.22","wjujvd90k9","one_one","1","indirect_first","0","ti06en13","0","32","1","1","3","1","3655","","","","","pos","GS","GSold","1","category1/CS5.png","targets/24.png","","direct","","30"
"","image-slider-response","243","862141","0.0-12.0-0.23","wjujvd90k9","one_one","1","indirect_first","0","ti06en13","0","32","1","1","3","1","4414","","","","","neg","GS","GSold","2","category2/CS3.png","targets/4.png","","direct","","17"
"","image-slider-response","244","866086","0.0-12.0-0.24","wjujvd90k9","one_one","1","indirect_first","0","ti06en13","0","32","1","1","3","1","3944","","","","","neg","GS","GSold","2","category2/CS7.png","targets/1.png","","direct","","50"
"","image-slider-response","245","869565","0.0-12.0-0.25","wjujvd90k9","one_one","1","indirect_first","0","ti06en13","0","32","1","1","3","1","3478","","","","","pos","GS","GSold","3","category3/CS9.png","targets/25.png","","direct","","53"
"","image-slider-response","246","872581","0.0-12.0-0.26","wjujvd90k9","one_one","1","indirect_first","0","ti06en13","0","32","1","1","3","1","3015","","","","","pos","GS","abstract","1","category1/ma.png","targets/17.png","","direct","","33"
"","image-slider-response","247","875653","0.0-12.0-0.27","wjujvd90k9","one_one","1","indirect_first","0","ti06en13","0","32","1","1","3","1","3071","","","","","neg","GS","GSnew","4","category4/GS1.png","targets/3.png","","direct","","50"
"","image-slider-response","248","878701","0.0-12.0-0.28","wjujvd90k9","one_one","1","indirect_first","0","ti06en13","0","32","1","1","3","1","3046","","","","","neg","GS","GSnew","2","category2/GS3.png","targets/47.png","","direct","","-48"
"","image-slider-response","249","881484","0.0-12.0-0.29","wjujvd90k9","one_one","1","indirect_first","0","ti06en13","0","32","1","1","3","1","2782","","","","","neg","GS","abstract","4","category4/lin.png","targets/5.png","","direct","","57"
"","image-slider-response","250","884812","0.0-12.0-0.30","wjujvd90k9","one_one","1","indirect_first","0","ti06en13","0","32","1","1","3","1","3327","","","","","neg","CS","CS","4","category4/CS3.png","targets/37.png","","direct","","28"
"","image-slider-response","251","887428","0.0-12.0-0.31","wjujvd90k9","one_one","1","indirect_first","0","ti06en13","0","32","1","1","3","1","2616","","","","","pos","GS","GSnew","1","category1/GS3.png","targets/27.png","","direct","","-40"
"","survey-html-form","252","893005","0.0-13.0","wjujvd90k9","one_one","1","indirect_first","0","ti06en13","0","32","1","1","3","1","5576","","{}","","","","","","","","","","","",""
"","image-slider-response","253","898373","0.0-14.0-0.0","wjujvd90k9","one_one","1","indirect_first","0","ti06en13","0","32","1","1","3","1","4353","","","","","pos","All","all","1","category1/ma_all.png","","","all","","-43"
"","image-slider-response","254","901741","0.0-14.0-0.1","wjujvd90k9","one_one","1","indirect_first","0","ti06en13","0","32","1","1","3","1","3366","","","","","pos","All","all","3","category3/wang_all.png","","","all","","-42"
"","image-slider-response","255","905756","0.0-14.0-0.2","wjujvd90k9","one_one","1","indirect_first","0","ti06en13","0","32","1","1","3","1","4015","","","","","neg","All","all","2","category2/men_all.png","","","all","","-28"
"","image-slider-response","256","908797","0.0-14.0-0.3","wjujvd90k9","one_one","1","indirect_first","0","ti06en13","0","32","1","1","3","1","3039","","","","","neg","All","all","4","category4/lin_all.png","","","all","","43"
"","survey-text","257","1010605","0.0-15.0","wjujvd90k9","one_one","1","indirect_first","0","ti06en13","0","32","1","1","3","1","101807","","{""Q0"":""teilweise habe ich gedacht, die chinesischen Schriftzeichen wiederzuerkennen und zu wissen, mit welchem Bild es kombiniert wurde und habe mir dann bei der Bewertung überlegt, ob mich das Bild nun beeinflusst hat oder nicht.""}","","","","","","","","","","","",""
