"success","trial_type","trial_index","time_elapsed","internal_node_id","subject","condition","condition_code","measure","measure_code","codeword","gender","age","education","chinese","fach","handedness","rt","url","responses","stimulus","key_press","val","type","type_specific","category","cs_selected","target","indirect","task","nr_pres","response"
"true","fullscreen","0","6634","0.0-0.0","2maobvb2kf","many_one","0","indirect_first","0","12345678","0","24","2","1","3","1","","","","","","","","","","","","","","",""
"","external-html","1","18285","0.0-1.0","2maobvb2kf","many_one","0","indirect_first","0","12345678","0","24","2","1","3","1","11598","text/information.html","","","","","","","","","","","","",""
"","external-html","2","24943","0.0-2.0","2maobvb2kf","many_one","0","indirect_first","0","12345678","0","24","2","1","3","1","6598","text/consent.html","","","","","","","","","","","","",""
"","survey-html-form","3","32564","0.0-3.0","2maobvb2kf","many_one","0","indirect_first","0","12345678","0","24","2","1","3","1","7617","","{""codeword_enter"":""12345678""}","","","","","","","","","","","",""
"","survey-html-form","4","65856","0.0-4.0","2maobvb2kf","many_one","0","indirect_first","0","12345678","0","24","2","1","3","1","33288","","{""age"":""24"",""education"":""2"",""subject"":""3"",""gender"":""0"",""handedness"":""1"",""chinese"":""1""}","","","","","","","","","","","",""
"","survey-html-form","5","82503","0.0-5.0","2maobvb2kf","many_one","0","indirect_first","0","12345678","0","24","2","1","3","1","16642","","{}","","","","","","","","","","","",""
"","html-keyboard-response","6","86514","0.0-6.0-0.0-0.0","2maobvb2kf","many_one","0","indirect_first","0","12345678","0","24","2","1","3","1","null","","","<div class = 'row'><div class = 'column'><img src = 'usneg/6212.bmp' width = '100%;'></div><div class = 'column'><img src = 'category1/CS10.png' width = '70%;'></div></div>","null","neg","CS","CS","1","category1/CS10.png","","","","",""
"","html-keyboard-response","7","89020","0.0-6.0-0.0-0.1","2maobvb2kf","many_one","0","indirect_first","0","12345678","0","24","2","1","3","1","null","","","<div class = 'row'><div class = 'column'><img src = 'category3/CS2.png' width = '70%;'></div><div class = 'column'><img src = 'uspos/7325.bmp' width = '100%;'></div></div>","null","pos","CS","CS","3","category3/CS2.png","","","","",""
"","html-keyboard-response","8","91526","0.0-6.0-0.0-0.2","2maobvb2kf","many_one","0","indirect_first","0","12345678","0","24","2","1","3","1","null","","","<div class = 'row'><div class = 'column'><img src = 'usneg/9342.bmp' width = '100%;'></div><div class = 'column'><img src = 'category2/CS4.png' width = '70%;'></div></div>","null","neg","CS","CS","2","category2/CS4.png","","","","",""
"","html-keyboard-response","9","94033","0.0-6.0-0.0-0.3","2maobvb2kf","many_one","0","indirect_first","0","12345678","0","24","2","1","3","1","null","","","<div class = 'row'><div class = 'column'><img src = 'category3/CS6.png' width = '70%;'></div><div class = 'column'><img src = 'uspos/2058.bmp' width = '100%;'></div></div>","null","pos","CS","CS","3","category3/CS6.png","","","","",""
"","html-keyboard-response","10","96537","0.0-6.0-0.0-0.4","2maobvb2kf","many_one","0","indirect_first","0","12345678","0","24","2","1","3","1","null","","","<div class = 'row'><div class = 'column'><img src = 'category4/CS6.png' width = '70%;'></div><div class = 'column'><img src = 'uspos/5629.bmp' width = '100%;'></div></div>","null","pos","CS","CS","4","category4/CS6.png","","","","",""
"","html-keyboard-response","11","99042","0.0-6.0-0.0-0.5","2maobvb2kf","many_one","0","indirect_first","0","12345678","0","24","2","1","3","1","null","","","<div class = 'row'><div class = 'column'><img src = 'uspos/2030.bmp' width = '100%;'></div><div class = 'column'><img src = 'category3/CS9.png' width = '70%;'></div></div>","null","pos","CS","CS","3","category3/CS9.png","","","","",""
"","html-keyboard-response","12","101547","0.0-6.0-0.0-0.6","2maobvb2kf","many_one","0","indirect_first","0","12345678","0","24","2","1","3","1","null","","","<div class = 'row'><div class = 'column'><img src = 'category1/CS6.png' width = '70%;'></div><div class = 'column'><img src = 'usneg/8485.bmp' width = '100%;'></div></div>","null","neg","CS","CS","1","category1/CS6.png","","","","",""
"","html-keyboard-response","13","104051","0.0-6.0-0.0-0.7","2maobvb2kf","many_one","0","indirect_first","0","12345678","0","24","2","1","3","1","null","","","<div class = 'row'><div class = 'column'><img src = 'usneg/9415.bmp' width = '100%;'></div><div class = 'column'><img src = 'category1/CS8.png' width = '70%;'></div></div>","null","neg","CS","CS","1","category1/CS8.png","","","","",""
"","html-keyboard-response","14","106558","0.0-6.0-0.0-0.8","2maobvb2kf","many_one","0","indirect_first","0","12345678","0","24","2","1","3","1","null","","","<div class = 'row'><div class = 'column'><img src = 'category1/CS7.png' width = '70%;'></div><div class = 'column'><img src = 'usneg/9435.bmp' width = '100%;'></div></div>","null","neg","CS","CS","1","category1/CS7.png","","","","",""
"","html-keyboard-response","15","109062","0.0-6.0-0.0-0.9","2maobvb2kf","many_one","0","indirect_first","0","12345678","0","24","2","1","3","1","null","","","<div class = 'row'><div class = 'column'><img src = 'category4/CS3.png' width = '70%;'></div><div class = 'column'><img src = 'uspos/8540.bmp' width = '100%;'></div></div>","null","pos","CS","CS","4","category4/CS3.png","","","","",""
"","html-keyboard-response","16","111567","0.0-6.0-0.0-0.10","2maobvb2kf","many_one","0","indirect_first","0","12345678","0","24","2","1","3","1","null","","","<div class = 'row'><div class = 'column'><img src = 'category2/CS2.png' width = '70%;'></div><div class = 'column'><img src = 'usneg/9050.bmp' width = '100%;'></div></div>","null","neg","CS","CS","2","category2/CS2.png","","","","",""
"","html-keyboard-response","17","114071","0.0-6.0-0.0-0.11","2maobvb2kf","many_one","0","indirect_first","0","12345678","0","24","2","1","3","1","null","","","<div class = 'row'><div class = 'column'><img src = 'category4/CS5.png' width = '70%;'></div><div class = 'column'><img src = 'uspos/1463.bmp' width = '100%;'></div></div>","null","pos","CS","CS","4","category4/CS5.png","","","","",""
"","html-keyboard-response","18","116575","0.0-6.0-0.0-0.12","2maobvb2kf","many_one","0","indirect_first","0","12345678","0","24","2","1","3","1","null","","","<div class = 'row'><div class = 'column'><img src = 'category2/CS1.png' width = '70%;'></div><div class = 'column'><img src = 'usneg/9290.bmp' width = '100%;'></div></div>","null","neg","CS","CS","2","category2/CS1.png","","","","",""
"","html-keyboard-response","19","119079","0.0-6.0-0.0-0.13","2maobvb2kf","many_one","0","indirect_first","0","12345678","0","24","2","1","3","1","null","","","<div class = 'row'><div class = 'column'><img src = 'category1/CS3.png' width = '70%;'></div><div class = 'column'><img src = 'usneg/6570.1.bmp' width = '100%;'></div></div>","null","neg","CS","CS","1","category1/CS3.png","","","","",""
"","html-keyboard-response","20","121583","0.0-6.0-0.0-0.14","2maobvb2kf","many_one","0","indirect_first","0","12345678","0","24","2","1","3","1","null","","","<div class = 'row'><div class = 'column'><img src = 'category2/CS6.png' width = '70%;'></div><div class = 'column'><img src = 'usneg/9404.bmp' width = '100%;'></div></div>","null","neg","CS","CS","2","category2/CS6.png","","","","",""
"","html-keyboard-response","21","124089","0.0-6.0-0.0-0.15","2maobvb2kf","many_one","0","indirect_first","0","12345678","0","24","2","1","3","1","null","","","<div class = 'row'><div class = 'column'><img src = 'uspos/8190.bmp' width = '100%;'></div><div class = 'column'><img src = 'category4/CS8.png' width = '70%;'></div></div>","null","pos","CS","CS","4","category4/CS8.png","","","","",""
"","html-keyboard-response","22","126592","0.0-6.0-0.0-0.16","2maobvb2kf","many_one","0","indirect_first","0","12345678","0","24","2","1","3","1","null","","","<div class = 'row'><div class = 'column'><img src = 'category3/CS10.png' width = '70%;'></div><div class = 'column'><img src = 'uspos/2341.bmp' width = '100%;'></div></div>","null","pos","CS","CS","3","category3/CS10.png","","","","",""
"","html-keyboard-response","23","129096","0.0-6.0-0.0-0.17","2maobvb2kf","many_one","0","indirect_first","0","12345678","0","24","2","1","3","1","null","","","<div class = 'row'><div class = 'column'><img src = 'category3/CS1.png' width = '70%;'></div><div class = 'column'><img src = 'uspos/8461.bmp' width = '100%;'></div></div>","null","pos","CS","CS","3","category3/CS1.png","","","","",""
"","html-keyboard-response","24","131600","0.0-6.0-0.0-0.18","2maobvb2kf","many_one","0","indirect_first","0","12345678","0","24","2","1","3","1","null","","","<div class = 'row'><div class = 'column'><img src = 'category2/CS5.png' width = '70%;'></div><div class = 'column'><img src = 'usneg/6838.bmp' width = '100%;'></div></div>","null","neg","CS","CS","2","category2/CS5.png","","","","",""
"","html-keyboard-response","25","134104","0.0-6.0-0.0-0.19","2maobvb2kf","many_one","0","indirect_first","0","12345678","0","24","2","1","3","1","null","","","<div class = 'row'><div class = 'column'><img src = 'category4/CS10.png' width = '70%;'></div><div class = 'column'><img src = 'uspos/4625.bmp' width = '100%;'></div></div>","null","pos","CS","CS","4","category4/CS10.png","","","","",""
"","survey-html-form","26","145453","0.0-6.0-1.0","2maobvb2kf","many_one","0","indirect_first","0","12345678","0","24","2","1","3","1","10845","","{}","","","","","","","","","","","",""
"","html-keyboard-response","27","149458","0.0-6.0-2.0-0.0","2maobvb2kf","many_one","0","indirect_first","0","12345678","0","24","2","1","3","1","null","","","<div class = 'row'><div class = 'column'><img src = 'category1/CS7.png' width = '70%;'></div><div class = 'column'><img src = 'usneg/9435.bmp' width = '100%;'></div></div>","null","neg","CS","CS","1","category1/CS7.png","","","","",""
"","html-keyboard-response","28","151962","0.0-6.0-2.0-0.1","2maobvb2kf","many_one","0","indirect_first","0","12345678","0","24","2","1","3","1","null","","","<div class = 'row'><div class = 'column'><img src = 'category2/CS6.png' width = '70%;'></div><div class = 'column'><img src = 'usneg/9404.bmp' width = '100%;'></div></div>","null","neg","CS","CS","2","category2/CS6.png","","","","",""
"","html-keyboard-response","29","154466","0.0-6.0-2.0-0.2","2maobvb2kf","many_one","0","indirect_first","0","12345678","0","24","2","1","3","1","null","","","<div class = 'row'><div class = 'column'><img src = 'category1/CS3.png' width = '70%;'></div><div class = 'column'><img src = 'usneg/6570.1.bmp' width = '100%;'></div></div>","null","neg","CS","CS","1","category1/CS3.png","","","","",""
"","html-keyboard-response","30","156970","0.0-6.0-2.0-0.3","2maobvb2kf","many_one","0","indirect_first","0","12345678","0","24","2","1","3","1","null","","","<div class = 'row'><div class = 'column'><img src = 'category4/CS8.png' width = '70%;'></div><div class = 'column'><img src = 'uspos/8190.bmp' width = '100%;'></div></div>","null","pos","CS","CS","4","category4/CS8.png","","","","",""
"","html-keyboard-response","31","159473","0.0-6.0-2.0-0.4","2maobvb2kf","many_one","0","indirect_first","0","12345678","0","24","2","1","3","1","null","","","<div class = 'row'><div class = 'column'><img src = 'usneg/6212.bmp' width = '100%;'></div><div class = 'column'><img src = 'category1/CS10.png' width = '70%;'></div></div>","null","neg","CS","CS","1","category1/CS10.png","","","","",""
"","html-keyboard-response","32","161980","0.0-6.0-2.0-0.5","2maobvb2kf","many_one","0","indirect_first","0","12345678","0","24","2","1","3","1","null","","","<div class = 'row'><div class = 'column'><img src = 'uspos/1463.bmp' width = '100%;'></div><div class = 'column'><img src = 'category4/CS5.png' width = '70%;'></div></div>","null","pos","CS","CS","4","category4/CS5.png","","","","",""
"","html-keyboard-response","33","164484","0.0-6.0-2.0-0.6","2maobvb2kf","many_one","0","indirect_first","0","12345678","0","24","2","1","3","1","null","","","<div class = 'row'><div class = 'column'><img src = 'uspos/2058.bmp' width = '100%;'></div><div class = 'column'><img src = 'category3/CS6.png' width = '70%;'></div></div>","null","pos","CS","CS","3","category3/CS6.png","","","","",""
"","html-keyboard-response","34","166989","0.0-6.0-2.0-0.7","2maobvb2kf","many_one","0","indirect_first","0","12345678","0","24","2","1","3","1","null","","","<div class = 'row'><div class = 'column'><img src = 'category3/CS1.png' width = '70%;'></div><div class = 'column'><img src = 'uspos/8461.bmp' width = '100%;'></div></div>","null","pos","CS","CS","3","category3/CS1.png","","","","",""
"","html-keyboard-response","35","169492","0.0-6.0-2.0-0.8","2maobvb2kf","many_one","0","indirect_first","0","12345678","0","24","2","1","3","1","null","","","<div class = 'row'><div class = 'column'><img src = 'usneg/9342.bmp' width = '100%;'></div><div class = 'column'><img src = 'category2/CS4.png' width = '70%;'></div></div>","null","neg","CS","CS","2","category2/CS4.png","","","","",""
"","html-keyboard-response","36","171996","0.0-6.0-2.0-0.9","2maobvb2kf","many_one","0","indirect_first","0","12345678","0","24","2","1","3","1","null","","","<div class = 'row'><div class = 'column'><img src = 'usneg/6838.bmp' width = '100%;'></div><div class = 'column'><img src = 'category2/CS5.png' width = '70%;'></div></div>","null","neg","CS","CS","2","category2/CS5.png","","","","",""
"","html-keyboard-response","37","174501","0.0-6.0-2.0-0.10","2maobvb2kf","many_one","0","indirect_first","0","12345678","0","24","2","1","3","1","null","","","<div class = 'row'><div class = 'column'><img src = 'category3/CS2.png' width = '70%;'></div><div class = 'column'><img src = 'uspos/7325.bmp' width = '100%;'></div></div>","null","pos","CS","CS","3","category3/CS2.png","","","","",""
"","html-keyboard-response","38","177005","0.0-6.0-2.0-0.11","2maobvb2kf","many_one","0","indirect_first","0","12345678","0","24","2","1","3","1","null","","","<div class = 'row'><div class = 'column'><img src = 'uspos/4625.bmp' width = '100%;'></div><div class = 'column'><img src = 'category4/CS10.png' width = '70%;'></div></div>","null","pos","CS","CS","4","category4/CS10.png","","","","",""
"","html-keyboard-response","39","179509","0.0-6.0-2.0-0.12","2maobvb2kf","many_one","0","indirect_first","0","12345678","0","24","2","1","3","1","null","","","<div class = 'row'><div class = 'column'><img src = 'usneg/9050.bmp' width = '100%;'></div><div class = 'column'><img src = 'category2/CS2.png' width = '70%;'></div></div>","null","neg","CS","CS","2","category2/CS2.png","","","","",""
"","html-keyboard-response","40","182014","0.0-6.0-2.0-0.13","2maobvb2kf","many_one","0","indirect_first","0","12345678","0","24","2","1","3","1","null","","","<div class = 'row'><div class = 'column'><img src = 'category4/CS3.png' width = '70%;'></div><div class = 'column'><img src = 'uspos/8540.bmp' width = '100%;'></div></div>","null","pos","CS","CS","4","category4/CS3.png","","","","",""
"","html-keyboard-response","41","184517","0.0-6.0-2.0-0.14","2maobvb2kf","many_one","0","indirect_first","0","12345678","0","24","2","1","3","1","null","","","<div class = 'row'><div class = 'column'><img src = 'category1/CS8.png' width = '70%;'></div><div class = 'column'><img src = 'usneg/9415.bmp' width = '100%;'></div></div>","null","neg","CS","CS","1","category1/CS8.png","","","","",""
"","html-keyboard-response","42","187021","0.0-6.0-2.0-0.15","2maobvb2kf","many_one","0","indirect_first","0","12345678","0","24","2","1","3","1","null","","","<div class = 'row'><div class = 'column'><img src = 'uspos/2030.bmp' width = '100%;'></div><div class = 'column'><img src = 'category3/CS9.png' width = '70%;'></div></div>","null","pos","CS","CS","3","category3/CS9.png","","","","",""
"","html-keyboard-response","43","189524","0.0-6.0-2.0-0.16","2maobvb2kf","many_one","0","indirect_first","0","12345678","0","24","2","1","3","1","null","","","<div class = 'row'><div class = 'column'><img src = 'usneg/8485.bmp' width = '100%;'></div><div class = 'column'><img src = 'category1/CS6.png' width = '70%;'></div></div>","null","neg","CS","CS","1","category1/CS6.png","","","","",""
"","html-keyboard-response","44","192028","0.0-6.0-2.0-0.17","2maobvb2kf","many_one","0","indirect_first","0","12345678","0","24","2","1","3","1","null","","","<div class = 'row'><div class = 'column'><img src = 'uspos/5629.bmp' width = '100%;'></div><div class = 'column'><img src = 'category4/CS6.png' width = '70%;'></div></div>","null","pos","CS","CS","4","category4/CS6.png","","","","",""
"","html-keyboard-response","45","194531","0.0-6.0-2.0-0.18","2maobvb2kf","many_one","0","indirect_first","0","12345678","0","24","2","1","3","1","null","","","<div class = 'row'><div class = 'column'><img src = 'usneg/9290.bmp' width = '100%;'></div><div class = 'column'><img src = 'category2/CS1.png' width = '70%;'></div></div>","null","neg","CS","CS","2","category2/CS1.png","","","","",""
"","html-keyboard-response","46","197035","0.0-6.0-2.0-0.19","2maobvb2kf","many_one","0","indirect_first","0","12345678","0","24","2","1","3","1","null","","","<div class = 'row'><div class = 'column'><img src = 'category3/CS10.png' width = '70%;'></div><div class = 'column'><img src = 'uspos/2341.bmp' width = '100%;'></div></div>","null","pos","CS","CS","3","category3/CS10.png","","","","",""
"","survey-html-form","47","209853","0.0-6.0-3.0","2maobvb2kf","many_one","0","indirect_first","0","12345678","0","24","2","1","3","1","12313","","{}","","","","","","","","","","","",""
"","html-keyboard-response","48","213858","0.0-6.0-4.0-0.0","2maobvb2kf","many_one","0","indirect_first","0","12345678","0","24","2","1","3","1","null","","","<div class = 'row'><div class = 'column'><img src = 'category3/CS6.png' width = '70%;'></div><div class = 'column'><img src = 'uspos/2058.bmp' width = '100%;'></div></div>","null","pos","CS","CS","3","category3/CS6.png","","","","",""
"","html-keyboard-response","49","216362","0.0-6.0-4.0-0.1","2maobvb2kf","many_one","0","indirect_first","0","12345678","0","24","2","1","3","1","null","","","<div class = 'row'><div class = 'column'><img src = 'uspos/8461.bmp' width = '100%;'></div><div class = 'column'><img src = 'category3/CS1.png' width = '70%;'></div></div>","null","pos","CS","CS","3","category3/CS1.png","","","","",""
"","html-keyboard-response","50","218866","0.0-6.0-4.0-0.2","2maobvb2kf","many_one","0","indirect_first","0","12345678","0","24","2","1","3","1","null","","","<div class = 'row'><div class = 'column'><img src = 'usneg/6212.bmp' width = '100%;'></div><div class = 'column'><img src = 'category1/CS10.png' width = '70%;'></div></div>","null","neg","CS","CS","1","category1/CS10.png","","","","",""
"","html-keyboard-response","51","221370","0.0-6.0-4.0-0.3","2maobvb2kf","many_one","0","indirect_first","0","12345678","0","24","2","1","3","1","null","","","<div class = 'row'><div class = 'column'><img src = 'category4/CS6.png' width = '70%;'></div><div class = 'column'><img src = 'uspos/5629.bmp' width = '100%;'></div></div>","null","pos","CS","CS","4","category4/CS6.png","","","","",""
"","html-keyboard-response","52","223874","0.0-6.0-4.0-0.4","2maobvb2kf","many_one","0","indirect_first","0","12345678","0","24","2","1","3","1","null","","","<div class = 'row'><div class = 'column'><img src = 'usneg/9050.bmp' width = '100%;'></div><div class = 'column'><img src = 'category2/CS2.png' width = '70%;'></div></div>","null","neg","CS","CS","2","category2/CS2.png","","","","",""
"","html-keyboard-response","53","226380","0.0-6.0-4.0-0.5","2maobvb2kf","many_one","0","indirect_first","0","12345678","0","24","2","1","3","1","null","","","<div class = 'row'><div class = 'column'><img src = 'category2/CS4.png' width = '70%;'></div><div class = 'column'><img src = 'usneg/9342.bmp' width = '100%;'></div></div>","null","neg","CS","CS","2","category2/CS4.png","","","","",""
"","html-keyboard-response","54","228884","0.0-6.0-4.0-0.6","2maobvb2kf","many_one","0","indirect_first","0","12345678","0","24","2","1","3","1","null","","","<div class = 'row'><div class = 'column'><img src = 'uspos/8540.bmp' width = '100%;'></div><div class = 'column'><img src = 'category4/CS3.png' width = '70%;'></div></div>","null","pos","CS","CS","4","category4/CS3.png","","","","",""
"","html-keyboard-response","55","231387","0.0-6.0-4.0-0.7","2maobvb2kf","many_one","0","indirect_first","0","12345678","0","24","2","1","3","1","null","","","<div class = 'row'><div class = 'column'><img src = 'category4/CS10.png' width = '70%;'></div><div class = 'column'><img src = 'uspos/4625.bmp' width = '100%;'></div></div>","null","pos","CS","CS","4","category4/CS10.png","","","","",""
"","html-keyboard-response","56","233892","0.0-6.0-4.0-0.8","2maobvb2kf","many_one","0","indirect_first","0","12345678","0","24","2","1","3","1","null","","","<div class = 'row'><div class = 'column'><img src = 'category3/CS2.png' width = '70%;'></div><div class = 'column'><img src = 'uspos/7325.bmp' width = '100%;'></div></div>","null","pos","CS","CS","3","category3/CS2.png","","","","",""
"","html-keyboard-response","57","236396","0.0-6.0-4.0-0.9","2maobvb2kf","many_one","0","indirect_first","0","12345678","0","24","2","1","3","1","null","","","<div class = 'row'><div class = 'column'><img src = 'usneg/6838.bmp' width = '100%;'></div><div class = 'column'><img src = 'category2/CS5.png' width = '70%;'></div></div>","null","neg","CS","CS","2","category2/CS5.png","","","","",""
"","html-keyboard-response","58","238900","0.0-6.0-4.0-0.10","2maobvb2kf","many_one","0","indirect_first","0","12345678","0","24","2","1","3","1","null","","","<div class = 'row'><div class = 'column'><img src = 'usneg/6570.1.bmp' width = '100%;'></div><div class = 'column'><img src = 'category1/CS3.png' width = '70%;'></div></div>","null","neg","CS","CS","1","category1/CS3.png","","","","",""
"","html-keyboard-response","59","241404","0.0-6.0-4.0-0.11","2maobvb2kf","many_one","0","indirect_first","0","12345678","0","24","2","1","3","1","null","","","<div class = 'row'><div class = 'column'><img src = 'usneg/9415.bmp' width = '100%;'></div><div class = 'column'><img src = 'category1/CS8.png' width = '70%;'></div></div>","null","neg","CS","CS","1","category1/CS8.png","","","","",""
"","html-keyboard-response","60","243908","0.0-6.0-4.0-0.12","2maobvb2kf","many_one","0","indirect_first","0","12345678","0","24","2","1","3","1","null","","","<div class = 'row'><div class = 'column'><img src = 'category2/CS6.png' width = '70%;'></div><div class = 'column'><img src = 'usneg/9404.bmp' width = '100%;'></div></div>","null","neg","CS","CS","2","category2/CS6.png","","","","",""
"","html-keyboard-response","61","246416","0.0-6.0-4.0-0.13","2maobvb2kf","many_one","0","indirect_first","0","12345678","0","24","2","1","3","1","null","","","<div class = 'row'><div class = 'column'><img src = 'usneg/9290.bmp' width = '100%;'></div><div class = 'column'><img src = 'category2/CS1.png' width = '70%;'></div></div>","null","neg","CS","CS","2","category2/CS1.png","","","","",""
"","html-keyboard-response","62","248920","0.0-6.0-4.0-0.14","2maobvb2kf","many_one","0","indirect_first","0","12345678","0","24","2","1","3","1","null","","","<div class = 'row'><div class = 'column'><img src = 'category1/CS7.png' width = '70%;'></div><div class = 'column'><img src = 'usneg/9435.bmp' width = '100%;'></div></div>","null","neg","CS","CS","1","category1/CS7.png","","","","",""
"","html-keyboard-response","63","251425","0.0-6.0-4.0-0.15","2maobvb2kf","many_one","0","indirect_first","0","12345678","0","24","2","1","3","1","null","","","<div class = 'row'><div class = 'column'><img src = 'uspos/1463.bmp' width = '100%;'></div><div class = 'column'><img src = 'category4/CS5.png' width = '70%;'></div></div>","null","pos","CS","CS","4","category4/CS5.png","","","","",""
"","html-keyboard-response","64","253929","0.0-6.0-4.0-0.16","2maobvb2kf","many_one","0","indirect_first","0","12345678","0","24","2","1","3","1","null","","","<div class = 'row'><div class = 'column'><img src = 'uspos/8190.bmp' width = '100%;'></div><div class = 'column'><img src = 'category4/CS8.png' width = '70%;'></div></div>","null","pos","CS","CS","4","category4/CS8.png","","","","",""
"","html-keyboard-response","65","256433","0.0-6.0-4.0-0.17","2maobvb2kf","many_one","0","indirect_first","0","12345678","0","24","2","1","3","1","null","","","<div class = 'row'><div class = 'column'><img src = 'uspos/2341.bmp' width = '100%;'></div><div class = 'column'><img src = 'category3/CS10.png' width = '70%;'></div></div>","null","pos","CS","CS","3","category3/CS10.png","","","","",""
"","html-keyboard-response","66","258937","0.0-6.0-4.0-0.18","2maobvb2kf","many_one","0","indirect_first","0","12345678","0","24","2","1","3","1","null","","","<div class = 'row'><div class = 'column'><img src = 'category3/CS9.png' width = '70%;'></div><div class = 'column'><img src = 'uspos/2030.bmp' width = '100%;'></div></div>","null","pos","CS","CS","3","category3/CS9.png","","","","",""
"","html-keyboard-response","67","261441","0.0-6.0-4.0-0.19","2maobvb2kf","many_one","0","indirect_first","0","12345678","0","24","2","1","3","1","null","","","<div class = 'row'><div class = 'column'><img src = 'usneg/8485.bmp' width = '100%;'></div><div class = 'column'><img src = 'category1/CS6.png' width = '70%;'></div></div>","null","neg","CS","CS","1","category1/CS6.png","","","","",""
"","survey-html-form","68","284696","0.0-6.0-5.0","2maobvb2kf","many_one","0","indirect_first","0","12345678","0","24","2","1","3","1","22752","","{}","","","","","","","","","","","",""
"","html-keyboard-response","69","288703","0.0-6.0-6.0-0.0","2maobvb2kf","many_one","0","indirect_first","0","12345678","0","24","2","1","3","1","null","","","<div class = 'row'><div class = 'column'><img src = 'category2/CS6.png' width = '70%;'></div><div class = 'column'><img src = 'usneg/9404.bmp' width = '100%;'></div></div>","null","neg","CS","CS","2","category2/CS6.png","","","","",""
"","html-keyboard-response","70","291207","0.0-6.0-6.0-0.1","2maobvb2kf","many_one","0","indirect_first","0","12345678","0","24","2","1","3","1","null","","","<div class = 'row'><div class = 'column'><img src = 'usneg/9050.bmp' width = '100%;'></div><div class = 'column'><img src = 'category2/CS2.png' width = '70%;'></div></div>","null","neg","CS","CS","2","category2/CS2.png","","","","",""
"","html-keyboard-response","71","293713","0.0-6.0-6.0-0.2","2maobvb2kf","many_one","0","indirect_first","0","12345678","0","24","2","1","3","1","null","","","<div class = 'row'><div class = 'column'><img src = 'uspos/2030.bmp' width = '100%;'></div><div class = 'column'><img src = 'category3/CS9.png' width = '70%;'></div></div>","null","pos","CS","CS","3","category3/CS9.png","","","","",""
"","html-keyboard-response","72","296218","0.0-6.0-6.0-0.3","2maobvb2kf","many_one","0","indirect_first","0","12345678","0","24","2","1","3","1","null","","","<div class = 'row'><div class = 'column'><img src = 'category4/CS6.png' width = '70%;'></div><div class = 'column'><img src = 'uspos/5629.bmp' width = '100%;'></div></div>","null","pos","CS","CS","4","category4/CS6.png","","","","",""
"","html-keyboard-response","73","298722","0.0-6.0-6.0-0.4","2maobvb2kf","many_one","0","indirect_first","0","12345678","0","24","2","1","3","1","null","","","<div class = 'row'><div class = 'column'><img src = 'category1/CS6.png' width = '70%;'></div><div class = 'column'><img src = 'usneg/8485.bmp' width = '100%;'></div></div>","null","neg","CS","CS","1","category1/CS6.png","","","","",""
"","html-keyboard-response","74","301226","0.0-6.0-6.0-0.5","2maobvb2kf","many_one","0","indirect_first","0","12345678","0","24","2","1","3","1","null","","","<div class = 'row'><div class = 'column'><img src = 'uspos/1463.bmp' width = '100%;'></div><div class = 'column'><img src = 'category4/CS5.png' width = '70%;'></div></div>","null","pos","CS","CS","4","category4/CS5.png","","","","",""
"","html-keyboard-response","75","303731","0.0-6.0-6.0-0.6","2maobvb2kf","many_one","0","indirect_first","0","12345678","0","24","2","1","3","1","null","","","<div class = 'row'><div class = 'column'><img src = 'uspos/4625.bmp' width = '100%;'></div><div class = 'column'><img src = 'category4/CS10.png' width = '70%;'></div></div>","null","pos","CS","CS","4","category4/CS10.png","","","","",""
"","html-keyboard-response","76","306235","0.0-6.0-6.0-0.7","2maobvb2kf","many_one","0","indirect_first","0","12345678","0","24","2","1","3","1","null","","","<div class = 'row'><div class = 'column'><img src = 'category3/CS2.png' width = '70%;'></div><div class = 'column'><img src = 'uspos/7325.bmp' width = '100%;'></div></div>","null","pos","CS","CS","3","category3/CS2.png","","","","",""
"","html-keyboard-response","77","308739","0.0-6.0-6.0-0.8","2maobvb2kf","many_one","0","indirect_first","0","12345678","0","24","2","1","3","1","null","","","<div class = 'row'><div class = 'column'><img src = 'category2/CS1.png' width = '70%;'></div><div class = 'column'><img src = 'usneg/9290.bmp' width = '100%;'></div></div>","null","neg","CS","CS","2","category2/CS1.png","","","","",""
"","html-keyboard-response","78","311245","0.0-6.0-6.0-0.9","2maobvb2kf","many_one","0","indirect_first","0","12345678","0","24","2","1","3","1","null","","","<div class = 'row'><div class = 'column'><img src = 'uspos/8190.bmp' width = '100%;'></div><div class = 'column'><img src = 'category4/CS8.png' width = '70%;'></div></div>","null","pos","CS","CS","4","category4/CS8.png","","","","",""
"","html-keyboard-response","79","313749","0.0-6.0-6.0-0.10","2maobvb2kf","many_one","0","indirect_first","0","12345678","0","24","2","1","3","1","null","","","<div class = 'row'><div class = 'column'><img src = 'category1/CS3.png' width = '70%;'></div><div class = 'column'><img src = 'usneg/6570.1.bmp' width = '100%;'></div></div>","null","neg","CS","CS","1","category1/CS3.png","","","","",""
"","html-keyboard-response","80","316253","0.0-6.0-6.0-0.11","2maobvb2kf","many_one","0","indirect_first","0","12345678","0","24","2","1","3","1","null","","","<div class = 'row'><div class = 'column'><img src = 'usneg/6838.bmp' width = '100%;'></div><div class = 'column'><img src = 'category2/CS5.png' width = '70%;'></div></div>","null","neg","CS","CS","2","category2/CS5.png","","","","",""
"","html-keyboard-response","81","318757","0.0-6.0-6.0-0.12","2maobvb2kf","many_one","0","indirect_first","0","12345678","0","24","2","1","3","1","null","","","<div class = 'row'><div class = 'column'><img src = 'category2/CS4.png' width = '70%;'></div><div class = 'column'><img src = 'usneg/9342.bmp' width = '100%;'></div></div>","null","neg","CS","CS","2","category2/CS4.png","","","","",""
"","html-keyboard-response","82","321261","0.0-6.0-6.0-0.13","2maobvb2kf","many_one","0","indirect_first","0","12345678","0","24","2","1","3","1","null","","","<div class = 'row'><div class = 'column'><img src = 'uspos/2058.bmp' width = '100%;'></div><div class = 'column'><img src = 'category3/CS6.png' width = '70%;'></div></div>","null","pos","CS","CS","3","category3/CS6.png","","","","",""
"","html-keyboard-response","83","323764","0.0-6.0-6.0-0.14","2maobvb2kf","many_one","0","indirect_first","0","12345678","0","24","2","1","3","1","null","","","<div class = 'row'><div class = 'column'><img src = 'category4/CS3.png' width = '70%;'></div><div class = 'column'><img src = 'uspos/8540.bmp' width = '100%;'></div></div>","null","pos","CS","CS","4","category4/CS3.png","","","","",""
"","html-keyboard-response","84","326270","0.0-6.0-6.0-0.15","2maobvb2kf","many_one","0","indirect_first","0","12345678","0","24","2","1","3","1","null","","","<div class = 'row'><div class = 'column'><img src = 'category3/CS1.png' width = '70%;'></div><div class = 'column'><img src = 'uspos/8461.bmp' width = '100%;'></div></div>","null","pos","CS","CS","3","category3/CS1.png","","","","",""
"","html-keyboard-response","85","328774","0.0-6.0-6.0-0.16","2maobvb2kf","many_one","0","indirect_first","0","12345678","0","24","2","1","3","1","null","","","<div class = 'row'><div class = 'column'><img src = 'usneg/6212.bmp' width = '100%;'></div><div class = 'column'><img src = 'category1/CS10.png' width = '70%;'></div></div>","null","neg","CS","CS","1","category1/CS10.png","","","","",""
"","html-keyboard-response","86","331279","0.0-6.0-6.0-0.17","2maobvb2kf","many_one","0","indirect_first","0","12345678","0","24","2","1","3","1","null","","","<div class = 'row'><div class = 'column'><img src = 'uspos/2341.bmp' width = '100%;'></div><div class = 'column'><img src = 'category3/CS10.png' width = '70%;'></div></div>","null","pos","CS","CS","3","category3/CS10.png","","","","",""
"","html-keyboard-response","87","333783","0.0-6.0-6.0-0.18","2maobvb2kf","many_one","0","indirect_first","0","12345678","0","24","2","1","3","1","null","","","<div class = 'row'><div class = 'column'><img src = 'usneg/9415.bmp' width = '100%;'></div><div class = 'column'><img src = 'category1/CS8.png' width = '70%;'></div></div>","null","neg","CS","CS","1","category1/CS8.png","","","","",""
"","html-keyboard-response","88","336287","0.0-6.0-6.0-0.19","2maobvb2kf","many_one","0","indirect_first","0","12345678","0","24","2","1","3","1","null","","","<div class = 'row'><div class = 'column'><img src = 'usneg/9435.bmp' width = '100%;'></div><div class = 'column'><img src = 'category1/CS7.png' width = '70%;'></div></div>","null","neg","CS","CS","1","category1/CS7.png","","","","",""
"","html-keyboard-response","89","380948","0.0-7.0","2maobvb2kf","many_one","0","indirect_first","0","12345678","0","24","2","1","3","1","44156.99999999994","","","<p>Sie sehen nun die chinesischen Zeichen nur ganz kurz. Danach sehen Sie die jeweilige Aussprache der Zeichen als Silbe auf dem Bildschrim. Ihre Aufgabe ist es, für jede Silbe anzugeben, ob diese etwas angenehmes, oder unangenehmes bedeuten könnte. Verlassen Sie sich hier vor allem auf Ihre Intuition.<br><br>Die Zeichen werden nur zur Orientierung dargestellt, beachten Sie sie deshalb nicht. Konzentrieren Sie sich vor allem auf die Silben. <br>Reagieren Sie mit folgenden zwei Tasten: <br><br><b>'D' </b> wenn die Silbe etwas <b>unangenehmes</b> bedeuten könnte. <br><b>'K'</b> wenn die Silbe etwas <b>angenehmes</b> bedeuten könnte. <br><br>Bitte legen Sie nun den Zeigefinger der linken Hand auf die Taste 'D' und den Zeigefinger der rechten Hand auf die Taste 'K'. <br>Reagieren Sie auf jede Silbe so schnell wie möglich. Uns interessiert Ihre spontane Reaktion. <br> <br> <br>Drücken Sie 'D' oder 'K', um die nächste Aufgabe zu starten. </p>","75","","","","","","","","","",""
"","html-keyboard-response","90","383952","0.0-8.0-0.0","2maobvb2kf","many_one","0","indirect_first","0","12345678","0","24","2","1","3","1","null","","","<div style=""font-size:60px;"">+</div>","null","","","","","","","","","",""
"","html-keyboard-response","91","384045","0.0-8.0-1.0","2maobvb2kf","many_one","0","indirect_first","0","12345678","0","24","2","1","3","1","null","","","<img src = 'category2/CS2.png' width = '100%;'>","null","","","","","","","","","",""
"","html-keyboard-response","92","384297","0.0-8.0-2.0","2maobvb2kf","many_one","0","indirect_first","0","12345678","0","24","2","1","3","1","null","","","<img src = 'targets/24.png' width = '100%;'>","null","","","","","","","","","",""
"","html-keyboard-response","93","395351","0.0-8.0-3.0","2maobvb2kf","many_one","0","indirect_first","0","12345678","0","24","2","1","3","1","11052.000000000058","","","<img src = 'targets/mask.png' width = '100%;'>","68","neg","CS","CS","2","category2/CS2.png","targets/24.png","0","indirect","0",""
"","html-keyboard-response","94","396858","0.0-8.0-0.1","2maobvb2kf","many_one","0","indirect_first","0","12345678","0","24","2","1","3","1","null","","","<div style=""font-size:60px;"">+</div>","null","","","","","","","","","",""
"","html-keyboard-response","95","396951","0.0-8.0-1.1","2maobvb2kf","many_one","0","indirect_first","0","12345678","0","24","2","1","3","1","null","","","<img src = 'category1/CS7.png' width = '100%;'>","null","","","","","","","","","",""
"","html-keyboard-response","96","397204","0.0-8.0-2.1","2maobvb2kf","many_one","0","indirect_first","0","12345678","0","24","2","1","3","1","null","","","<img src = 'targets/9.png' width = '100%;'>","null","","","","","","","","","",""
"","html-keyboard-response","97","400594","0.0-8.0-3.1","2maobvb2kf","many_one","0","indirect_first","0","12345678","0","24","2","1","3","1","3389.000000000058","","","<img src = 'targets/mask.png' width = '100%;'>","68","neg","CS","CS","1","category1/CS7.png","targets/9.png","0","indirect","1",""
"","html-keyboard-response","98","402098","0.0-8.0-0.2","2maobvb2kf","many_one","0","indirect_first","0","12345678","0","24","2","1","3","1","null","","","<div style=""font-size:60px;"">+</div>","null","","","","","","","","","",""
"","html-keyboard-response","99","402190","0.0-8.0-1.2","2maobvb2kf","many_one","0","indirect_first","0","12345678","0","24","2","1","3","1","null","","","<img src = 'category1/CS5.png' width = '100%;'>","null","","","","","","","","","",""
"","html-keyboard-response","100","402444","0.0-8.0-2.2","2maobvb2kf","many_one","0","indirect_first","0","12345678","0","24","2","1","3","1","null","","","<img src = 'targets/38.png' width = '100%;'>","null","","","","","","","","","",""
"","html-keyboard-response","101","404670","0.0-8.0-3.2","2maobvb2kf","many_one","0","indirect_first","0","12345678","0","24","2","1","3","1","2225","","","<img src = 'targets/mask.png' width = '100%;'>","75","neg","GS","GSold","1","category1/CS5.png","targets/38.png","1","indirect","2",""
"","html-keyboard-response","102","406174","0.0-8.0-0.3","2maobvb2kf","many_one","0","indirect_first","0","12345678","0","24","2","1","3","1","null","","","<div style=""font-size:60px;"">+</div>","null","","","","","","","","","",""
"","html-keyboard-response","103","406266","0.0-8.0-1.3","2maobvb2kf","many_one","0","indirect_first","0","12345678","0","24","2","1","3","1","null","","","<img src = 'category2/CS6.png' width = '100%;'>","null","","","","","","","","","",""
"","html-keyboard-response","104","406519","0.0-8.0-2.3","2maobvb2kf","many_one","0","indirect_first","0","12345678","0","24","2","1","3","1","null","","","<img src = 'targets/23.png' width = '100%;'>","null","","","","","","","","","",""
"","html-keyboard-response","105","408286","0.0-8.0-3.3","2maobvb2kf","many_one","0","indirect_first","0","12345678","0","24","2","1","3","1","1765","","","<img src = 'targets/mask.png' width = '100%;'>","75","neg","CS","CS","2","category2/CS6.png","targets/23.png","1","indirect","3",""
"","html-keyboard-response","106","409790","0.0-8.0-0.4","2maobvb2kf","many_one","0","indirect_first","0","12345678","0","24","2","1","3","1","null","","","<div style=""font-size:60px;"">+</div>","null","","","","","","","","","",""
"","html-keyboard-response","107","409882","0.0-8.0-1.4","2maobvb2kf","many_one","0","indirect_first","0","12345678","0","24","2","1","3","1","null","","","<img src = 'category1/CS10.png' width = '100%;'>","null","","","","","","","","","",""
"","html-keyboard-response","108","410136","0.0-8.0-2.4","2maobvb2kf","many_one","0","indirect_first","0","12345678","0","24","2","1","3","1","null","","","<img src = 'targets/28.png' width = '100%;'>","null","","","","","","","","","",""
"","html-keyboard-response","109","411727","0.0-8.0-3.4","2maobvb2kf","many_one","0","indirect_first","0","12345678","0","24","2","1","3","1","1590.0000000000582","","","<img src = 'targets/mask.png' width = '100%;'>","68","neg","CS","CS","1","category1/CS10.png","targets/28.png","0","indirect","4",""
"","html-keyboard-response","110","413231","0.0-8.0-0.5","2maobvb2kf","many_one","0","indirect_first","0","12345678","0","24","2","1","3","1","null","","","<div style=""font-size:60px;"">+</div>","null","","","","","","","","","",""
"","html-keyboard-response","111","413323","0.0-8.0-1.5","2maobvb2kf","many_one","0","indirect_first","0","12345678","0","24","2","1","3","1","null","","","<img src = 'category3/CS9.png' width = '100%;'>","null","","","","","","","","","",""
"","html-keyboard-response","112","413576","0.0-8.0-2.5","2maobvb2kf","many_one","0","indirect_first","0","12345678","0","24","2","1","3","1","null","","","<img src = 'targets/21.png' width = '100%;'>","null","","","","","","","","","",""
"","html-keyboard-response","113","414997","0.0-8.0-3.5","2maobvb2kf","many_one","0","indirect_first","0","12345678","0","24","2","1","3","1","1418.9999999999418","","","<img src = 'targets/mask.png' width = '100%;'>","75","pos","CS","CS","3","category3/CS9.png","targets/21.png","1","indirect","5",""
"","html-keyboard-response","114","416501","0.0-8.0-0.6","2maobvb2kf","many_one","0","indirect_first","0","12345678","0","24","2","1","3","1","null","","","<div style=""font-size:60px;"">+</div>","null","","","","","","","","","",""
"","html-keyboard-response","115","416593","0.0-8.0-1.6","2maobvb2kf","many_one","0","indirect_first","0","12345678","0","24","2","1","3","1","null","","","<img src = 'category3/CS6.png' width = '100%;'>","null","","","","","","","","","",""
"","html-keyboard-response","116","416848","0.0-8.0-2.6","2maobvb2kf","many_one","0","indirect_first","0","12345678","0","24","2","1","3","1","null","","","<img src = 'targets/35.png' width = '100%;'>","null","","","","","","","","","",""
"","html-keyboard-response","117","419198","0.0-8.0-3.6","2maobvb2kf","many_one","0","indirect_first","0","12345678","0","24","2","1","3","1","2348","","","<img src = 'targets/mask.png' width = '100%;'>","68","pos","CS","CS","3","category3/CS6.png","targets/35.png","0","indirect","6",""
"","html-keyboard-response","118","420702","0.0-8.0-0.7","2maobvb2kf","many_one","0","indirect_first","0","12345678","0","24","2","1","3","1","null","","","<div style=""font-size:60px;"">+</div>","null","","","","","","","","","",""
"","html-keyboard-response","119","420794","0.0-8.0-1.7","2maobvb2kf","many_one","0","indirect_first","0","12345678","0","24","2","1","3","1","null","","","<img src = 'category4/CS10.png' width = '100%;'>","null","","","","","","","","","",""
"","html-keyboard-response","120","421047","0.0-8.0-2.7","2maobvb2kf","many_one","0","indirect_first","0","12345678","0","24","2","1","3","1","null","","","<img src = 'targets/3.png' width = '100%;'>","null","","","","","","","","","",""
"","html-keyboard-response","121","422576","0.0-8.0-3.7","2maobvb2kf","many_one","0","indirect_first","0","12345678","0","24","2","1","3","1","1528.9999999999418","","","<img src = 'targets/mask.png' width = '100%;'>","75","pos","CS","CS","4","category4/CS10.png","targets/3.png","1","indirect","7",""
"","html-keyboard-response","122","424080","0.0-8.0-0.8","2maobvb2kf","many_one","0","indirect_first","0","12345678","0","24","2","1","3","1","null","","","<div style=""font-size:60px;"">+</div>","null","","","","","","","","","",""
"","html-keyboard-response","123","424172","0.0-8.0-1.8","2maobvb2kf","many_one","0","indirect_first","0","12345678","0","24","2","1","3","1","null","","","<img src = 'category4/CS6.png' width = '100%;'>","null","","","","","","","","","",""
"","html-keyboard-response","124","424426","0.0-8.0-2.8","2maobvb2kf","many_one","0","indirect_first","0","12345678","0","24","2","1","3","1","null","","","<img src = 'targets/19.png' width = '100%;'>","null","","","","","","","","","",""
"","html-keyboard-response","125","425601","0.0-8.0-3.8","2maobvb2kf","many_one","0","indirect_first","0","12345678","0","24","2","1","3","1","1174","","","<img src = 'targets/mask.png' width = '100%;'>","75","pos","CS","CS","4","category4/CS6.png","targets/19.png","1","indirect","8",""
"","html-keyboard-response","126","427105","0.0-8.0-0.9","2maobvb2kf","many_one","0","indirect_first","0","12345678","0","24","2","1","3","1","null","","","<div style=""font-size:60px;"">+</div>","null","","","","","","","","","",""
"","html-keyboard-response","127","427197","0.0-8.0-1.9","2maobvb2kf","many_one","0","indirect_first","0","12345678","0","24","2","1","3","1","null","","","<img src = 'category1/CS1.png' width = '100%;'>","null","","","","","","","","","",""
"","html-keyboard-response","128","427449","0.0-8.0-2.9","2maobvb2kf","many_one","0","indirect_first","0","12345678","0","24","2","1","3","1","null","","","<img src = 'targets/41.png' width = '100%;'>","null","","","","","","","","","",""
"","html-keyboard-response","129","428390","0.0-8.0-3.9","2maobvb2kf","many_one","0","indirect_first","0","12345678","0","24","2","1","3","1","940","","","<img src = 'targets/mask.png' width = '100%;'>","68","neg","GS","GSold","1","category1/CS1.png","targets/41.png","0","indirect","9",""
"","html-keyboard-response","130","429894","0.0-8.0-0.10","2maobvb2kf","many_one","0","indirect_first","0","12345678","0","24","2","1","3","1","null","","","<div style=""font-size:60px;"">+</div>","null","","","","","","","","","",""
"","html-keyboard-response","131","429985","0.0-8.0-1.10","2maobvb2kf","many_one","0","indirect_first","0","12345678","0","24","2","1","3","1","null","","","<img src = 'category3/CS1.png' width = '100%;'>","null","","","","","","","","","",""
"","html-keyboard-response","132","430238","0.0-8.0-2.10","2maobvb2kf","many_one","0","indirect_first","0","12345678","0","24","2","1","3","1","null","","","<img src = 'targets/17.png' width = '100%;'>","null","","","","","","","","","",""
"","html-keyboard-response","133","431608","0.0-8.0-3.10","2maobvb2kf","many_one","0","indirect_first","0","12345678","0","24","2","1","3","1","1368.9999999999418","","","<img src = 'targets/mask.png' width = '100%;'>","68","pos","CS","CS","3","category3/CS1.png","targets/17.png","0","indirect","10",""
"","html-keyboard-response","134","433112","0.0-8.0-0.11","2maobvb2kf","many_one","0","indirect_first","0","12345678","0","24","2","1","3","1","null","","","<div style=""font-size:60px;"">+</div>","null","","","","","","","","","",""
"","html-keyboard-response","135","433204","0.0-8.0-1.11","2maobvb2kf","many_one","0","indirect_first","0","12345678","0","24","2","1","3","1","null","","","<img src = 'category1/CS6.png' width = '100%;'>","null","","","","","","","","","",""
"","html-keyboard-response","136","433457","0.0-8.0-2.11","2maobvb2kf","many_one","0","indirect_first","0","12345678","0","24","2","1","3","1","null","","","<img src = 'targets/48.png' width = '100%;'>","null","","","","","","","","","",""
"","html-keyboard-response","137","434371","0.0-8.0-3.11","2maobvb2kf","many_one","0","indirect_first","0","12345678","0","24","2","1","3","1","911.9999999999418","","","<img src = 'targets/mask.png' width = '100%;'>","75","neg","CS","CS","1","category1/CS6.png","targets/48.png","1","indirect","11",""
"","html-keyboard-response","138","435875","0.0-8.0-0.12","2maobvb2kf","many_one","0","indirect_first","0","12345678","0","24","2","1","3","1","null","","","<div style=""font-size:60px;"">+</div>","null","","","","","","","","","",""
"","html-keyboard-response","139","435967","0.0-8.0-1.12","2maobvb2kf","many_one","0","indirect_first","0","12345678","0","24","2","1","3","1","null","","","<img src = 'category1/CS2.png' width = '100%;'>","null","","","","","","","","","",""
"","html-keyboard-response","140","436220","0.0-8.0-2.12","2maobvb2kf","many_one","0","indirect_first","0","12345678","0","24","2","1","3","1","null","","","<img src = 'targets/2.png' width = '100%;'>","null","","","","","","","","","",""
"","html-keyboard-response","141","437144","0.0-8.0-3.12","2maobvb2kf","many_one","0","indirect_first","0","12345678","0","24","2","1","3","1","922.0000000000582","","","<img src = 'targets/mask.png' width = '100%;'>","68","neg","GS","GSold","1","category1/CS2.png","targets/2.png","0","indirect","12",""
"","html-keyboard-response","142","438650","0.0-8.0-0.13","2maobvb2kf","many_one","0","indirect_first","0","12345678","0","24","2","1","3","1","null","","","<div style=""font-size:60px;"">+</div>","null","","","","","","","","","",""
"","html-keyboard-response","143","438741","0.0-8.0-1.13","2maobvb2kf","many_one","0","indirect_first","0","12345678","0","24","2","1","3","1","null","","","<img src = 'category4/CS2.png' width = '100%;'>","null","","","","","","","","","",""
"","html-keyboard-response","144","438994","0.0-8.0-2.13","2maobvb2kf","many_one","0","indirect_first","0","12345678","0","24","2","1","3","1","null","","","<img src = 'targets/7.png' width = '100%;'>","null","","","","","","","","","",""
"","html-keyboard-response","145","440022","0.0-8.0-3.13","2maobvb2kf","many_one","0","indirect_first","0","12345678","0","24","2","1","3","1","1026","","","<img src = 'targets/mask.png' width = '100%;'>","75","pos","GS","GSold","4","category4/CS2.png","targets/7.png","1","indirect","13",""
"","html-keyboard-response","146","441526","0.0-8.0-0.14","2maobvb2kf","many_one","0","indirect_first","0","12345678","0","24","2","1","3","1","null","","","<div style=""font-size:60px;"">+</div>","null","","","","","","","","","",""
"","html-keyboard-response","147","441618","0.0-8.0-1.14","2maobvb2kf","many_one","0","indirect_first","0","12345678","0","24","2","1","3","1","null","","","<img src = 'category1/CS3.png' width = '100%;'>","null","","","","","","","","","",""
"","html-keyboard-response","148","441872","0.0-8.0-2.14","2maobvb2kf","many_one","0","indirect_first","0","12345678","0","24","2","1","3","1","null","","","<img src = 'targets/11.png' width = '100%;'>","null","","","","","","","","","",""
"","html-keyboard-response","149","443129","0.0-8.0-3.14","2maobvb2kf","many_one","0","indirect_first","0","12345678","0","24","2","1","3","1","1256","","","<img src = 'targets/mask.png' width = '100%;'>","75","neg","CS","CS","1","category1/CS3.png","targets/11.png","1","indirect","14",""
"","html-keyboard-response","150","444633","0.0-8.0-0.15","2maobvb2kf","many_one","0","indirect_first","0","12345678","0","24","2","1","3","1","null","","","<div style=""font-size:60px;"">+</div>","null","","","","","","","","","",""
"","html-keyboard-response","151","444725","0.0-8.0-1.15","2maobvb2kf","many_one","0","indirect_first","0","12345678","0","24","2","1","3","1","null","","","<img src = 'category4/CS5.png' width = '100%;'>","null","","","","","","","","","",""
"","html-keyboard-response","152","444978","0.0-8.0-2.15","2maobvb2kf","many_one","0","indirect_first","0","12345678","0","24","2","1","3","1","null","","","<img src = 'targets/32.png' width = '100%;'>","null","","","","","","","","","",""
"","html-keyboard-response","153","446267","0.0-8.0-3.15","2maobvb2kf","many_one","0","indirect_first","0","12345678","0","24","2","1","3","1","1288","","","<img src = 'targets/mask.png' width = '100%;'>","68","pos","CS","CS","4","category4/CS5.png","targets/32.png","0","indirect","15",""
"","html-keyboard-response","154","447769","0.0-8.0-0.16","2maobvb2kf","many_one","0","indirect_first","0","12345678","0","24","2","1","3","1","null","","","<div style=""font-size:60px;"">+</div>","null","","","","","","","","","",""
"","html-keyboard-response","155","447861","0.0-8.0-1.16","2maobvb2kf","many_one","0","indirect_first","0","12345678","0","24","2","1","3","1","null","","","<img src = 'category2/CS1.png' width = '100%;'>","null","","","","","","","","","",""
"","html-keyboard-response","156","448113","0.0-8.0-2.16","2maobvb2kf","many_one","0","indirect_first","0","12345678","0","24","2","1","3","1","null","","","<img src = 'targets/14.png' width = '100%;'>","null","","","","","","","","","",""
"","html-keyboard-response","157","449512","0.0-8.0-3.16","2maobvb2kf","many_one","0","indirect_first","0","12345678","0","24","2","1","3","1","1398","","","<img src = 'targets/mask.png' width = '100%;'>","68","neg","CS","CS","2","category2/CS1.png","targets/14.png","0","indirect","16",""
"","html-keyboard-response","158","451016","0.0-8.0-0.17","2maobvb2kf","many_one","0","indirect_first","0","12345678","0","24","2","1","3","1","null","","","<div style=""font-size:60px;"">+</div>","null","","","","","","","","","",""
"","html-keyboard-response","159","451108","0.0-8.0-1.17","2maobvb2kf","many_one","0","indirect_first","0","12345678","0","24","2","1","3","1","null","","","<img src = 'category2/CS5.png' width = '100%;'>","null","","","","","","","","","",""
"","html-keyboard-response","160","451361","0.0-8.0-2.17","2maobvb2kf","many_one","0","indirect_first","0","12345678","0","24","2","1","3","1","null","","","<img src = 'targets/43.png' width = '100%;'>","null","","","","","","","","","",""
"","html-keyboard-response","161","452399","0.0-8.0-3.17","2maobvb2kf","many_one","0","indirect_first","0","12345678","0","24","2","1","3","1","1035","","","<img src = 'targets/mask.png' width = '100%;'>","75","neg","CS","CS","2","category2/CS5.png","targets/43.png","1","indirect","17",""
"","html-keyboard-response","162","453902","0.0-8.0-0.18","2maobvb2kf","many_one","0","indirect_first","0","12345678","0","24","2","1","3","1","null","","","<div style=""font-size:60px;"">+</div>","null","","","","","","","","","",""
"","html-keyboard-response","163","453995","0.0-8.0-1.18","2maobvb2kf","many_one","0","indirect_first","0","12345678","0","24","2","1","3","1","null","","","<img src = 'category4/CS3.png' width = '100%;'>","null","","","","","","","","","",""
"","html-keyboard-response","164","454247","0.0-8.0-2.18","2maobvb2kf","many_one","0","indirect_first","0","12345678","0","24","2","1","3","1","null","","","<img src = 'targets/39.png' width = '100%;'>","null","","","","","","","","","",""
"","html-keyboard-response","165","455472","0.0-8.0-3.18","2maobvb2kf","many_one","0","indirect_first","0","12345678","0","24","2","1","3","1","1224","","","<img src = 'targets/mask.png' width = '100%;'>","75","pos","CS","CS","4","category4/CS3.png","targets/39.png","1","indirect","18",""
"","html-keyboard-response","166","456976","0.0-8.0-0.19","2maobvb2kf","many_one","0","indirect_first","0","12345678","0","24","2","1","3","1","null","","","<div style=""font-size:60px;"">+</div>","null","","","","","","","","","",""
"","html-keyboard-response","167","457068","0.0-8.0-1.19","2maobvb2kf","many_one","0","indirect_first","0","12345678","0","24","2","1","3","1","null","","","<img src = 'category4/CS8.png' width = '100%;'>","null","","","","","","","","","",""
"","html-keyboard-response","168","457321","0.0-8.0-2.19","2maobvb2kf","many_one","0","indirect_first","0","12345678","0","24","2","1","3","1","null","","","<img src = 'targets/42.png' width = '100%;'>","null","","","","","","","","","",""
"","html-keyboard-response","169","458259","0.0-8.0-3.19","2maobvb2kf","many_one","0","indirect_first","0","12345678","0","24","2","1","3","1","936.9999999999418","","","<img src = 'targets/mask.png' width = '100%;'>","68","pos","CS","CS","4","category4/CS8.png","targets/42.png","0","indirect","19",""
"","html-keyboard-response","170","459763","0.0-8.0-0.20","2maobvb2kf","many_one","0","indirect_first","0","12345678","0","24","2","1","3","1","null","","","<div style=""font-size:60px;"">+</div>","null","","","","","","","","","",""
"","html-keyboard-response","171","459854","0.0-8.0-1.20","2maobvb2kf","many_one","0","indirect_first","0","12345678","0","24","2","1","3","1","null","","","<img src = 'category3/CS2.png' width = '100%;'>","null","","","","","","","","","",""
"","html-keyboard-response","172","460108","0.0-8.0-2.20","2maobvb2kf","many_one","0","indirect_first","0","12345678","0","24","2","1","3","1","null","","","<img src = 'targets/47.png' width = '100%;'>","null","","","","","","","","","",""
"","html-keyboard-response","173","461357","0.0-8.0-3.20","2maobvb2kf","many_one","0","indirect_first","0","12345678","0","24","2","1","3","1","1248.9999999999418","","","<img src = 'targets/mask.png' width = '100%;'>","68","pos","CS","CS","3","category3/CS2.png","targets/47.png","0","indirect","20",""
"","html-keyboard-response","174","462861","0.0-8.0-0.21","2maobvb2kf","many_one","0","indirect_first","0","12345678","0","24","2","1","3","1","null","","","<div style=""font-size:60px;"">+</div>","null","","","","","","","","","",""
"","html-keyboard-response","175","462953","0.0-8.0-1.21","2maobvb2kf","many_one","0","indirect_first","0","12345678","0","24","2","1","3","1","null","","","<img src = 'category3/CS10.png' width = '100%;'>","null","","","","","","","","","",""
"","html-keyboard-response","176","463208","0.0-8.0-2.21","2maobvb2kf","many_one","0","indirect_first","0","12345678","0","24","2","1","3","1","null","","","<img src = 'targets/34.png' width = '100%;'>","null","","","","","","","","","",""
"","html-keyboard-response","177","463787","0.0-8.0-3.21","2maobvb2kf","many_one","0","indirect_first","0","12345678","0","24","2","1","3","1","577.9999999999418","","","<img src = 'targets/mask.png' width = '100%;'>","75","pos","CS","CS","3","category3/CS10.png","targets/34.png","1","indirect","21",""
"","html-keyboard-response","178","465291","0.0-8.0-0.22","2maobvb2kf","many_one","0","indirect_first","0","12345678","0","24","2","1","3","1","null","","","<div style=""font-size:60px;"">+</div>","null","","","","","","","","","",""
"","html-keyboard-response","179","465383","0.0-8.0-1.22","2maobvb2kf","many_one","0","indirect_first","0","12345678","0","24","2","1","3","1","null","","","<img src = 'category1/CS8.png' width = '100%;'>","null","","","","","","","","","",""
"","html-keyboard-response","180","465636","0.0-8.0-2.22","2maobvb2kf","many_one","0","indirect_first","0","12345678","0","24","2","1","3","1","null","","","<img src = 'targets/12.png' width = '100%;'>","null","","","","","","","","","",""
"","html-keyboard-response","181","467437","0.0-8.0-3.22","2maobvb2kf","many_one","0","indirect_first","0","12345678","0","24","2","1","3","1","1799","","","<img src = 'targets/mask.png' width = '100%;'>","68","neg","CS","CS","1","category1/CS8.png","targets/12.png","0","indirect","22",""
"","html-keyboard-response","182","468940","0.0-8.0-0.23","2maobvb2kf","many_one","0","indirect_first","0","12345678","0","24","2","1","3","1","null","","","<div style=""font-size:60px;"">+</div>","null","","","","","","","","","",""
"","html-keyboard-response","183","469031","0.0-8.0-1.23","2maobvb2kf","many_one","0","indirect_first","0","12345678","0","24","2","1","3","1","null","","","<img src = 'category2/CS4.png' width = '100%;'>","null","","","","","","","","","",""
"","html-keyboard-response","184","469284","0.0-8.0-2.23","2maobvb2kf","many_one","0","indirect_first","0","12345678","0","24","2","1","3","1","null","","","<img src = 'targets/26.png' width = '100%;'>","null","","","","","","","","","",""
"","html-keyboard-response","185","470516","0.0-8.0-3.23","2maobvb2kf","many_one","0","indirect_first","0","12345678","0","24","2","1","3","1","1231","","","<img src = 'targets/mask.png' width = '100%;'>","68","neg","CS","CS","2","category2/CS4.png","targets/26.png","0","indirect","23",""
"","survey-html-form","186","477776","0.0-9.0","2maobvb2kf","many_one","0","indirect_first","0","12345678","0","24","2","1","3","1","6757","","{}","","","","","","","","","","","",""
"","html-keyboard-response","187","480779","0.0-10.0-0.0","2maobvb2kf","many_one","0","indirect_first","0","12345678","0","24","2","1","3","1","null","","","<div style=""font-size:60px;"">+</div>","null","","","","","","","","","",""
"","html-keyboard-response","188","480873","0.0-10.0-1.0","2maobvb2kf","many_one","0","indirect_first","0","12345678","0","24","2","1","3","1","null","","","<img src = 'category2/CS7.png' width = '100%;'>","null","","","","","","","","","",""
"","html-keyboard-response","189","481127","0.0-10.0-2.0","2maobvb2kf","many_one","0","indirect_first","0","12345678","0","24","2","1","3","1","null","","","<img src = 'targets/31.png' width = '100%;'>","null","","","","","","","","","",""
"","html-keyboard-response","190","484313","0.0-10.0-3.0","2maobvb2kf","many_one","0","indirect_first","0","12345678","0","24","2","1","3","1","3184.999999999942","","","<img src = 'targets/mask.png' width = '100%;'>","68","neg","GS","GSold","2","category2/CS7.png","targets/31.png","0","indirect","24",""
"","html-keyboard-response","191","485816","0.0-10.0-0.1","2maobvb2kf","many_one","0","indirect_first","0","12345678","0","24","2","1","3","1","null","","","<div style=""font-size:60px;"">+</div>","null","","","","","","","","","",""
"","html-keyboard-response","192","485908","0.0-10.0-1.1","2maobvb2kf","many_one","0","indirect_first","0","12345678","0","24","2","1","3","1","null","","","<img src = 'category1/GS1.png' width = '100%;'>","null","","","","","","","","","",""
"","html-keyboard-response","193","486162","0.0-10.0-2.1","2maobvb2kf","many_one","0","indirect_first","0","12345678","0","24","2","1","3","1","null","","","<img src = 'targets/37.png' width = '100%;'>","null","","","","","","","","","",""
"","html-keyboard-response","194","486267","0.0-10.0-3.1","2maobvb2kf","many_one","0","indirect_first","0","12345678","0","24","2","1","3","1","104","","","<img src = 'targets/mask.png' width = '100%;'>","75","neg","GS","GSnew","1","category1/GS1.png","targets/37.png","1","indirect","25",""
"","html-keyboard-response","195","487771","0.0-10.0-0.2","2maobvb2kf","many_one","0","indirect_first","0","12345678","0","24","2","1","3","1","null","","","<div style=""font-size:60px;"">+</div>","null","","","","","","","","","",""
"","html-keyboard-response","196","487862","0.0-10.0-1.2","2maobvb2kf","many_one","0","indirect_first","0","12345678","0","24","2","1","3","1","null","","","<img src = 'category4/GS1.png' width = '100%;'>","null","","","","","","","","","",""
"","html-keyboard-response","197","488115","0.0-10.0-2.2","2maobvb2kf","many_one","0","indirect_first","0","12345678","0","24","2","1","3","1","null","","","<img src = 'targets/25.png' width = '100%;'>","null","","","","","","","","","",""
"","html-keyboard-response","198","488171","0.0-10.0-3.2","2maobvb2kf","many_one","0","indirect_first","0","12345678","0","24","2","1","3","1","54.99999999994179","","","<img src = 'targets/mask.png' width = '100%;'>","75","pos","GS","GSnew","4","category4/GS1.png","targets/25.png","1","indirect","26",""
"","html-keyboard-response","199","489675","0.0-10.0-0.3","2maobvb2kf","many_one","0","indirect_first","0","12345678","0","24","2","1","3","1","null","","","<div style=""font-size:60px;"">+</div>","null","","","","","","","","","",""
"","html-keyboard-response","200","489767","0.0-10.0-1.3","2maobvb2kf","many_one","0","indirect_first","0","12345678","0","24","2","1","3","1","null","","","<img src = 'category3/GS2.png' width = '100%;'>","null","","","","","","","","","",""
"","html-keyboard-response","201","490020","0.0-10.0-2.3","2maobvb2kf","many_one","0","indirect_first","0","12345678","0","24","2","1","3","1","null","","","<img src = 'targets/4.png' width = '100%;'>","null","","","","","","","","","",""
"","html-keyboard-response","202","492329","0.0-10.0-3.3","2maobvb2kf","many_one","0","indirect_first","0","12345678","0","24","2","1","3","1","2308","","","<img src = 'targets/mask.png' width = '100%;'>","68","pos","GS","GSnew","3","category3/GS2.png","targets/4.png","0","indirect","27",""
"","html-keyboard-response","203","493833","0.0-10.0-0.4","2maobvb2kf","many_one","0","indirect_first","0","12345678","0","24","2","1","3","1","null","","","<div style=""font-size:60px;"">+</div>","null","","","","","","","","","",""
"","html-keyboard-response","204","493927","0.0-10.0-1.4","2maobvb2kf","many_one","0","indirect_first","0","12345678","0","24","2","1","3","1","null","","","<img src = 'category2/CS3.png' width = '100%;'>","null","","","","","","","","","",""
"","html-keyboard-response","205","494180","0.0-10.0-2.4","2maobvb2kf","many_one","0","indirect_first","0","12345678","0","24","2","1","3","1","null","","","<img src = 'targets/46.png' width = '100%;'>","null","","","","","","","","","",""
"","html-keyboard-response","206","494495","0.0-10.0-3.4","2maobvb2kf","many_one","0","indirect_first","0","12345678","0","24","2","1","3","1","313.9999999999418","","","<img src = 'targets/mask.png' width = '100%;'>","75","neg","GS","GSold","2","category2/CS3.png","targets/46.png","1","indirect","28",""
"","html-keyboard-response","207","495999","0.0-10.0-0.5","2maobvb2kf","many_one","0","indirect_first","0","12345678","0","24","2","1","3","1","null","","","<div style=""font-size:60px;"">+</div>","null","","","","","","","","","",""
"","html-keyboard-response","208","496091","0.0-10.0-1.5","2maobvb2kf","many_one","0","indirect_first","0","12345678","0","24","2","1","3","1","null","","","<img src = 'category4/GS3.png' width = '100%;'>","null","","","","","","","","","",""
"","html-keyboard-response","209","496344","0.0-10.0-2.5","2maobvb2kf","many_one","0","indirect_first","0","12345678","0","24","2","1","3","1","null","","","<img src = 'targets/8.png' width = '100%;'>","null","","","","","","","","","",""
"","html-keyboard-response","210","496865","0.0-10.0-3.5","2maobvb2kf","many_one","0","indirect_first","0","12345678","0","24","2","1","3","1","519","","","<img src = 'targets/mask.png' width = '100%;'>","75","pos","GS","GSnew","4","category4/GS3.png","targets/8.png","1","indirect","29",""
"","html-keyboard-response","211","498369","0.0-10.0-0.6","2maobvb2kf","many_one","0","indirect_first","0","12345678","0","24","2","1","3","1","null","","","<div style=""font-size:60px;"">+</div>","null","","","","","","","","","",""
"","html-keyboard-response","212","498461","0.0-10.0-1.6","2maobvb2kf","many_one","0","indirect_first","0","12345678","0","24","2","1","3","1","null","","","<img src = 'category3/CS7.png' width = '100%;'>","null","","","","","","","","","",""
"","html-keyboard-response","213","498714","0.0-10.0-2.6","2maobvb2kf","many_one","0","indirect_first","0","12345678","0","24","2","1","3","1","null","","","<img src = 'targets/20.png' width = '100%;'>","null","","","","","","","","","",""
"","html-keyboard-response","214","498834","0.0-10.0-3.6","2maobvb2kf","many_one","0","indirect_first","0","12345678","0","24","2","1","3","1","119","","","<img src = 'targets/mask.png' width = '100%;'>","68","pos","GS","GSold","3","category3/CS7.png","targets/20.png","0","indirect","30",""
"","html-keyboard-response","215","500337","0.0-10.0-0.7","2maobvb2kf","many_one","0","indirect_first","0","12345678","0","24","2","1","3","1","null","","","<div style=""font-size:60px;"">+</div>","null","","","","","","","","","",""
"","html-keyboard-response","216","500430","0.0-10.0-1.7","2maobvb2kf","many_one","0","indirect_first","0","12345678","0","24","2","1","3","1","null","","","<img src = 'category3/wang.png' width = '100%;'>","null","","","","","","","","","",""
"","html-keyboard-response","217","500683","0.0-10.0-2.7","2maobvb2kf","many_one","0","indirect_first","0","12345678","0","24","2","1","3","1","null","","","<img src = 'targets/1.png' width = '100%;'>","null","","","","","","","","","",""
"","html-keyboard-response","218","501316","0.0-10.0-3.7","2maobvb2kf","many_one","0","indirect_first","0","12345678","0","24","2","1","3","1","632","","","<img src = 'targets/mask.png' width = '100%;'>","75","pos","GS","abstract","3","category3/wang.png","targets/1.png","1","indirect","31",""
"","html-keyboard-response","219","502819","0.0-10.0-0.8","2maobvb2kf","many_one","0","indirect_first","0","12345678","0","24","2","1","3","1","null","","","<div style=""font-size:60px;"">+</div>","null","","","","","","","","","",""
"","html-keyboard-response","220","502913","0.0-10.0-1.8","2maobvb2kf","many_one","0","indirect_first","0","12345678","0","24","2","1","3","1","null","","","<img src = 'category1/GS3.png' width = '100%;'>","null","","","","","","","","","",""
"","html-keyboard-response","221","503166","0.0-10.0-2.8","2maobvb2kf","many_one","0","indirect_first","0","12345678","0","24","2","1","3","1","null","","","<img src = 'targets/30.png' width = '100%;'>","null","","","","","","","","","",""
"","html-keyboard-response","222","503368","0.0-10.0-3.8","2maobvb2kf","many_one","0","indirect_first","0","12345678","0","24","2","1","3","1","200","","","<img src = 'targets/mask.png' width = '100%;'>","68","neg","GS","GSnew","1","category1/GS3.png","targets/30.png","0","indirect","32",""
"","html-keyboard-response","223","504872","0.0-10.0-0.9","2maobvb2kf","many_one","0","indirect_first","0","12345678","0","24","2","1","3","1","null","","","<div style=""font-size:60px;"">+</div>","null","","","","","","","","","",""
"","html-keyboard-response","224","504964","0.0-10.0-1.9","2maobvb2kf","many_one","0","indirect_first","0","12345678","0","24","2","1","3","1","null","","","<img src = 'category2/GS3.png' width = '100%;'>","null","","","","","","","","","",""
"","html-keyboard-response","225","505217","0.0-10.0-2.9","2maobvb2kf","many_one","0","indirect_first","0","12345678","0","24","2","1","3","1","null","","","<img src = 'targets/22.png' width = '100%;'>","null","","","","","","","","","",""
"","html-keyboard-response","226","505419","0.0-10.0-3.9","2maobvb2kf","many_one","0","indirect_first","0","12345678","0","24","2","1","3","1","201","","","<img src = 'targets/mask.png' width = '100%;'>","75","neg","GS","GSnew","2","category2/GS3.png","targets/22.png","1","indirect","33",""
"","html-keyboard-response","227","506922","0.0-10.0-0.10","2maobvb2kf","many_one","0","indirect_first","0","12345678","0","24","2","1","3","1","null","","","<div style=""font-size:60px;"">+</div>","null","","","","","","","","","",""
"","html-keyboard-response","228","507015","0.0-10.0-1.10","2maobvb2kf","many_one","0","indirect_first","0","12345678","0","24","2","1","3","1","null","","","<img src = 'category4/lin.png' width = '100%;'>","null","","","","","","","","","",""
"","html-keyboard-response","229","507268","0.0-10.0-2.10","2maobvb2kf","many_one","0","indirect_first","0","12345678","0","24","2","1","3","1","null","","","<img src = 'targets/33.png' width = '100%;'>","null","","","","","","","","","",""
"","html-keyboard-response","230","507339","0.0-10.0-3.10","2maobvb2kf","many_one","0","indirect_first","0","12345678","0","24","2","1","3","1","69.99999999994179","","","<img src = 'targets/mask.png' width = '100%;'>","68","pos","GS","abstract","4","category4/lin.png","targets/33.png","0","indirect","34",""
"","html-keyboard-response","231","508842","0.0-10.0-0.11","2maobvb2kf","many_one","0","indirect_first","0","12345678","0","24","2","1","3","1","null","","","<div style=""font-size:60px;"">+</div>","null","","","","","","","","","",""
"","html-keyboard-response","232","508934","0.0-10.0-1.11","2maobvb2kf","many_one","0","indirect_first","0","12345678","0","24","2","1","3","1","null","","","<img src = 'category2/GS1.png' width = '100%;'>","null","","","","","","","","","",""
"","html-keyboard-response","233","509187","0.0-10.0-2.11","2maobvb2kf","many_one","0","indirect_first","0","12345678","0","24","2","1","3","1","null","","","<img src = 'targets/16.png' width = '100%;'>","null","","","","","","","","","",""
"","html-keyboard-response","234","509205","0.0-10.0-3.11","2maobvb2kf","many_one","0","indirect_first","0","12345678","0","24","2","1","3","1","16.000000000058208","","","<img src = 'targets/mask.png' width = '100%;'>","68","neg","GS","GSnew","2","category2/GS1.png","targets/16.png","0","indirect","35",""
"","html-keyboard-response","235","510709","0.0-10.0-0.12","2maobvb2kf","many_one","0","indirect_first","0","12345678","0","24","2","1","3","1","null","","","<div style=""font-size:60px;"">+</div>","null","","","","","","","","","",""
"","html-keyboard-response","236","510801","0.0-10.0-1.12","2maobvb2kf","many_one","0","indirect_first","0","12345678","0","24","2","1","3","1","null","","","<img src = 'category3/CS4.png' width = '100%;'>","null","","","","","","","","","",""
"","html-keyboard-response","237","511055","0.0-10.0-2.12","2maobvb2kf","many_one","0","indirect_first","0","12345678","0","24","2","1","3","1","null","","","<img src = 'targets/6.png' width = '100%;'>","null","","","","","","","","","",""
"","html-keyboard-response","238","511125","0.0-10.0-3.12","2maobvb2kf","many_one","0","indirect_first","0","12345678","0","24","2","1","3","1","68.99999999994179","","","<img src = 'targets/mask.png' width = '100%;'>","68","pos","GS","GSold","3","category3/CS4.png","targets/6.png","0","indirect","36",""
"","html-keyboard-response","239","512629","0.0-10.0-0.13","2maobvb2kf","many_one","0","indirect_first","0","12345678","0","24","2","1","3","1","null","","","<div style=""font-size:60px;"">+</div>","null","","","","","","","","","",""
"","html-keyboard-response","240","512723","0.0-10.0-1.13","2maobvb2kf","many_one","0","indirect_first","0","12345678","0","24","2","1","3","1","null","","","<img src = 'category2/GS2.png' width = '100%;'>","null","","","","","","","","","",""
"","html-keyboard-response","241","512976","0.0-10.0-2.13","2maobvb2kf","many_one","0","indirect_first","0","12345678","0","24","2","1","3","1","null","","","<img src = 'targets/18.png' width = '100%;'>","null","","","","","","","","","",""
"","html-keyboard-response","242","513331","0.0-10.0-3.13","2maobvb2kf","many_one","0","indirect_first","0","12345678","0","24","2","1","3","1","353.0000000001164","","","<img src = 'targets/mask.png' width = '100%;'>","75","neg","GS","GSnew","2","category2/GS2.png","targets/18.png","1","indirect","37",""
"","html-keyboard-response","243","514835","0.0-10.0-0.14","2maobvb2kf","many_one","0","indirect_first","0","12345678","0","24","2","1","3","1","null","","","<div style=""font-size:60px;"">+</div>","null","","","","","","","","","",""
"","html-keyboard-response","244","514926","0.0-10.0-1.14","2maobvb2kf","many_one","0","indirect_first","0","12345678","0","24","2","1","3","1","null","","","<img src = 'category4/CS1.png' width = '100%;'>","null","","","","","","","","","",""
"","html-keyboard-response","245","515180","0.0-10.0-2.14","2maobvb2kf","many_one","0","indirect_first","0","12345678","0","24","2","1","3","1","null","","","<img src = 'targets/5.png' width = '100%;'>","null","","","","","","","","","",""
"","html-keyboard-response","246","515797","0.0-10.0-3.14","2maobvb2kf","many_one","0","indirect_first","0","12345678","0","24","2","1","3","1","616","","","<img src = 'targets/mask.png' width = '100%;'>","68","pos","GS","GSold","4","category4/CS1.png","targets/5.png","0","indirect","38",""
"","html-keyboard-response","247","517301","0.0-10.0-0.15","2maobvb2kf","many_one","0","indirect_first","0","12345678","0","24","2","1","3","1","null","","","<div style=""font-size:60px;"">+</div>","null","","","","","","","","","",""
"","html-keyboard-response","248","517393","0.0-10.0-1.15","2maobvb2kf","many_one","0","indirect_first","0","12345678","0","24","2","1","3","1","null","","","<img src = 'category2/men.png' width = '100%;'>","null","","","","","","","","","",""
"","html-keyboard-response","249","517647","0.0-10.0-2.15","2maobvb2kf","many_one","0","indirect_first","0","12345678","0","24","2","1","3","1","null","","","<img src = 'targets/40.png' width = '100%;'>","null","","","","","","","","","",""
"","html-keyboard-response","250","517866","0.0-10.0-3.15","2maobvb2kf","many_one","0","indirect_first","0","12345678","0","24","2","1","3","1","218","","","<img src = 'targets/mask.png' width = '100%;'>","75","neg","GS","abstract","2","category2/men.png","targets/40.png","1","indirect","39",""
"","html-keyboard-response","251","519370","0.0-10.0-0.16","2maobvb2kf","many_one","0","indirect_first","0","12345678","0","24","2","1","3","1","null","","","<div style=""font-size:60px;"">+</div>","null","","","","","","","","","",""
"","html-keyboard-response","252","519461","0.0-10.0-1.16","2maobvb2kf","many_one","0","indirect_first","0","12345678","0","24","2","1","3","1","null","","","<img src = 'category4/GS2.png' width = '100%;'>","null","","","","","","","","","",""
"","html-keyboard-response","253","519714","0.0-10.0-2.16","2maobvb2kf","many_one","0","indirect_first","0","12345678","0","24","2","1","3","1","null","","","<img src = 'targets/10.png' width = '100%;'>","null","","","","","","","","","",""
"","html-keyboard-response","254","519947","0.0-10.0-3.16","2maobvb2kf","many_one","0","indirect_first","0","12345678","0","24","2","1","3","1","232","","","<img src = 'targets/mask.png' width = '100%;'>","75","pos","GS","GSnew","4","category4/GS2.png","targets/10.png","1","indirect","40",""
"","html-keyboard-response","255","521450","0.0-10.0-0.17","2maobvb2kf","many_one","0","indirect_first","0","12345678","0","24","2","1","3","1","null","","","<div style=""font-size:60px;"">+</div>","null","","","","","","","","","",""
"","html-keyboard-response","256","521543","0.0-10.0-1.17","2maobvb2kf","many_one","0","indirect_first","0","12345678","0","24","2","1","3","1","null","","","<img src = 'category3/GS1.png' width = '100%;'>","null","","","","","","","","","",""
"","html-keyboard-response","257","521796","0.0-10.0-2.17","2maobvb2kf","many_one","0","indirect_first","0","12345678","0","24","2","1","3","1","null","","","<img src = 'targets/15.png' width = '100%;'>","null","","","","","","","","","",""
"","html-keyboard-response","258","521857","0.0-10.0-3.17","2maobvb2kf","many_one","0","indirect_first","0","12345678","0","24","2","1","3","1","59","","","<img src = 'targets/mask.png' width = '100%;'>","68","pos","GS","GSnew","3","category3/GS1.png","targets/15.png","0","indirect","41",""
"","html-keyboard-response","259","523361","0.0-10.0-0.18","2maobvb2kf","many_one","0","indirect_first","0","12345678","0","24","2","1","3","1","null","","","<div style=""font-size:60px;"">+</div>","null","","","","","","","","","",""
"","html-keyboard-response","260","523453","0.0-10.0-1.18","2maobvb2kf","many_one","0","indirect_first","0","12345678","0","24","2","1","3","1","null","","","<img src = 'category4/CS4.png' width = '100%;'>","null","","","","","","","","","",""
"","html-keyboard-response","261","523706","0.0-10.0-2.18","2maobvb2kf","many_one","0","indirect_first","0","12345678","0","24","2","1","3","1","null","","","<img src = 'targets/45.png' width = '100%;'>","null","","","","","","","","","",""
"","html-keyboard-response","262","523761","0.0-10.0-3.18","2maobvb2kf","many_one","0","indirect_first","0","12345678","0","24","2","1","3","1","54","","","<img src = 'targets/mask.png' width = '100%;'>","75","pos","GS","GSold","4","category4/CS4.png","targets/45.png","1","indirect","42",""
"","html-keyboard-response","263","525265","0.0-10.0-0.19","2maobvb2kf","many_one","0","indirect_first","0","12345678","0","24","2","1","3","1","null","","","<div style=""font-size:60px;"">+</div>","null","","","","","","","","","",""
"","html-keyboard-response","264","525357","0.0-10.0-1.19","2maobvb2kf","many_one","0","indirect_first","0","12345678","0","24","2","1","3","1","null","","","<img src = 'category1/ma.png' width = '100%;'>","null","","","","","","","","","",""
"","html-keyboard-response","265","525610","0.0-10.0-2.19","2maobvb2kf","many_one","0","indirect_first","0","12345678","0","24","2","1","3","1","null","","","<img src = 'targets/27.png' width = '100%;'>","null","","","","","","","","","",""
"","html-keyboard-response","266","526016","0.0-10.0-3.19","2maobvb2kf","many_one","0","indirect_first","0","12345678","0","24","2","1","3","1","405","","","<img src = 'targets/mask.png' width = '100%;'>","68","neg","GS","abstract","1","category1/ma.png","targets/27.png","0","indirect","43",""
"","html-keyboard-response","267","527520","0.0-10.0-0.20","2maobvb2kf","many_one","0","indirect_first","0","12345678","0","24","2","1","3","1","null","","","<div style=""font-size:60px;"">+</div>","null","","","","","","","","","",""
"","html-keyboard-response","268","527611","0.0-10.0-1.20","2maobvb2kf","many_one","0","indirect_first","0","12345678","0","24","2","1","3","1","null","","","<img src = 'category2/CS9.png' width = '100%;'>","null","","","","","","","","","",""
"","html-keyboard-response","269","527864","0.0-10.0-2.20","2maobvb2kf","many_one","0","indirect_first","0","12345678","0","24","2","1","3","1","null","","","<img src = 'targets/13.png' width = '100%;'>","null","","","","","","","","","",""
"","html-keyboard-response","270","528601","0.0-10.0-3.20","2maobvb2kf","many_one","0","indirect_first","0","12345678","0","24","2","1","3","1","736","","","<img src = 'targets/mask.png' width = '100%;'>","75","neg","GS","GSold","2","category2/CS9.png","targets/13.png","1","indirect","44",""
"","html-keyboard-response","271","530105","0.0-10.0-0.21","2maobvb2kf","many_one","0","indirect_first","0","12345678","0","24","2","1","3","1","null","","","<div style=""font-size:60px;"">+</div>","null","","","","","","","","","",""
"","html-keyboard-response","272","530197","0.0-10.0-1.21","2maobvb2kf","many_one","0","indirect_first","0","12345678","0","24","2","1","3","1","null","","","<img src = 'category3/GS3.png' width = '100%;'>","null","","","","","","","","","",""
"","html-keyboard-response","273","530450","0.0-10.0-2.21","2maobvb2kf","many_one","0","indirect_first","0","12345678","0","24","2","1","3","1","null","","","<img src = 'targets/36.png' width = '100%;'>","null","","","","","","","","","",""
"","html-keyboard-response","274","530791","0.0-10.0-3.21","2maobvb2kf","many_one","0","indirect_first","0","12345678","0","24","2","1","3","1","339","","","<img src = 'targets/mask.png' width = '100%;'>","68","pos","GS","GSnew","3","category3/GS3.png","targets/36.png","0","indirect","45",""
"","html-keyboard-response","275","532296","0.0-10.0-0.22","2maobvb2kf","many_one","0","indirect_first","0","12345678","0","24","2","1","3","1","null","","","<div style=""font-size:60px;"">+</div>","null","","","","","","","","","",""
"","html-keyboard-response","276","532388","0.0-10.0-1.22","2maobvb2kf","many_one","0","indirect_first","0","12345678","0","24","2","1","3","1","null","","","<img src = 'category3/CS5.png' width = '100%;'>","null","","","","","","","","","",""
"","html-keyboard-response","277","532641","0.0-10.0-2.22","2maobvb2kf","many_one","0","indirect_first","0","12345678","0","24","2","1","3","1","null","","","<img src = 'targets/44.png' width = '100%;'>","null","","","","","","","","","",""
"","html-keyboard-response","278","533317","0.0-10.0-3.22","2maobvb2kf","many_one","0","indirect_first","0","12345678","0","24","2","1","3","1","674","","","<img src = 'targets/mask.png' width = '100%;'>","75","pos","GS","GSold","3","category3/CS5.png","targets/44.png","1","indirect","46",""
"","html-keyboard-response","279","534821","0.0-10.0-0.23","2maobvb2kf","many_one","0","indirect_first","0","12345678","0","24","2","1","3","1","null","","","<div style=""font-size:60px;"">+</div>","null","","","","","","","","","",""
"","html-keyboard-response","280","534912","0.0-10.0-1.23","2maobvb2kf","many_one","0","indirect_first","0","12345678","0","24","2","1","3","1","null","","","<img src = 'category1/GS2.png' width = '100%;'>","null","","","","","","","","","",""
"","html-keyboard-response","281","535165","0.0-10.0-2.23","2maobvb2kf","many_one","0","indirect_first","0","12345678","0","24","2","1","3","1","null","","","<img src = 'targets/29.png' width = '100%;'>","null","","","","","","","","","",""
"","html-keyboard-response","282","535655","0.0-10.0-3.23","2maobvb2kf","many_one","0","indirect_first","0","12345678","0","24","2","1","3","1","489","","","<img src = 'targets/mask.png' width = '100%;'>","75","neg","GS","GSnew","1","category1/GS2.png","targets/29.png","1","indirect","47",""
"","survey-html-form","283","550792","0.0-11.0","2maobvb2kf","many_one","0","indirect_first","0","12345678","0","24","2","1","3","1","14633","","{}","","","","","","","","","","","",""
"","image-slider-response","284","559541","0.0-12.0-0.0","2maobvb2kf","many_one","0","indirect_first","0","12345678","0","24","2","1","3","1","6746","","","","","pos","GS","GSnew","4","category4/GS3.png","targets/8.png","","direct","","-67"
"","image-slider-response","285","565025","0.0-12.0-0.1","2maobvb2kf","many_one","0","indirect_first","0","12345678","0","24","2","1","3","1","5481","","","","","pos","GS","GSold","3","category3/CS4.png","targets/6.png","","direct","","-56"
"","image-slider-response","286","570502","0.0-12.0-0.2","2maobvb2kf","many_one","0","indirect_first","0","12345678","0","24","2","1","3","1","5475","","","","","neg","GS","GSold","1","category1/CS1.png","targets/41.png","","direct","","-58"
"","image-slider-response","287","574421","0.0-12.0-0.3","2maobvb2kf","many_one","0","indirect_first","0","12345678","0","24","2","1","3","1","3918","","","","","pos","CS","CS","3","category3/CS10.png","targets/34.png","","direct","","46"
"","image-slider-response","288","578272","0.0-12.0-0.4","2maobvb2kf","many_one","0","indirect_first","0","12345678","0","24","2","1","3","1","3850","","","","","pos","GS","GSnew","3","category3/GS3.png","targets/36.png","","direct","","51"
"","image-slider-response","289","581950","0.0-12.0-0.5","2maobvb2kf","many_one","0","indirect_first","0","12345678","0","24","2","1","3","1","3677","","","","","pos","CS","CS","3","category3/CS6.png","targets/35.png","","direct","","64"
"","image-slider-response","290","586724","0.0-12.0-0.6","2maobvb2kf","many_one","0","indirect_first","0","12345678","0","24","2","1","3","1","4771.999999999884","","","","","neg","GS","GSold","2","category2/CS9.png","targets/13.png","","direct","","-88"
"","image-slider-response","291","590471","0.0-12.0-0.7","2maobvb2kf","many_one","0","indirect_first","0","12345678","0","24","2","1","3","1","3745","","","","","neg","CS","CS","2","category2/CS1.png","targets/14.png","","direct","","-78"
"","image-slider-response","292","595188","0.0-12.0-0.8","2maobvb2kf","many_one","0","indirect_first","0","12345678","0","24","2","1","3","1","4715","","","","","neg","GS","GSnew","1","category1/GS2.png","targets/29.png","","direct","","-8"
"","image-slider-response","293","600110","0.0-12.0-0.9","2maobvb2kf","many_one","0","indirect_first","0","12345678","0","24","2","1","3","1","4920","","","","","neg","CS","CS","1","category1/CS10.png","targets/28.png","","direct","","-89"
"","image-slider-response","294","603740","0.0-12.0-0.10","2maobvb2kf","many_one","0","indirect_first","0","12345678","0","24","2","1","3","1","3628","","","","","neg","GS","GSold","2","category2/CS3.png","targets/46.png","","direct","","-60"
"","image-slider-response","295","609178","0.0-12.0-0.11","2maobvb2kf","many_one","0","indirect_first","0","12345678","0","24","2","1","3","1","5437","","","","","pos","GS","GSnew","3","category3/GS1.png","targets/15.png","","direct","","-38"
"","image-slider-response","296","613740","0.0-12.0-0.12","2maobvb2kf","many_one","0","indirect_first","0","12345678","0","24","2","1","3","1","4560","","","","","pos","GS","GSnew","4","category4/GS2.png","targets/10.png","","direct","","-34"
"","image-slider-response","297","619251","0.0-12.0-0.13","2maobvb2kf","many_one","0","indirect_first","0","12345678","0","24","2","1","3","1","5510.000000000116","","","","","neg","CS","CS","1","category1/CS7.png","targets/9.png","","direct","","-85"
"","image-slider-response","298","629839","0.0-12.0-0.14","2maobvb2kf","many_one","0","indirect_first","0","12345678","0","24","2","1","3","1","10585","","","","","neg","GS","GSold","1","category1/CS5.png","targets/38.png","","direct","","-100"
"","image-slider-response","299","635505","0.0-12.0-0.15","2maobvb2kf","many_one","0","indirect_first","0","12345678","0","24","2","1","3","1","5664","","","","","pos","GS","abstract","4","category4/lin.png","targets/33.png","","direct","","-84"
"","image-slider-response","300","638509","0.0-12.0-0.16","2maobvb2kf","many_one","0","indirect_first","0","12345678","0","24","2","1","3","1","3003","","","","","pos","CS","CS","4","category4/CS3.png","targets/39.png","","direct","","66"
"","image-slider-response","301","641780","0.0-12.0-0.17","2maobvb2kf","many_one","0","indirect_first","0","12345678","0","24","2","1","3","1","3269","","","","","neg","CS","CS","2","category2/CS2.png","targets/24.png","","direct","","-36"
"","image-slider-response","302","645904","0.0-12.0-0.18","2maobvb2kf","many_one","0","indirect_first","0","12345678","0","24","2","1","3","1","4121","","","","","neg","CS","CS","1","category1/CS6.png","targets/48.png","","direct","","-81"
"","image-slider-response","303","648933","0.0-12.0-0.19","2maobvb2kf","many_one","0","indirect_first","0","12345678","0","24","2","1","3","1","3026.9999999998836","","","","","pos","GS","GSold","3","category3/CS5.png","targets/44.png","","direct","","70"
"","image-slider-response","304","655697","0.0-12.0-0.20","2maobvb2kf","many_one","0","indirect_first","0","12345678","0","24","2","1","3","1","6761","","","","","neg","GS","abstract","2","category2/men.png","targets/40.png","","direct","","-78"
"","image-slider-response","305","659296","0.0-12.0-0.21","2maobvb2kf","many_one","0","indirect_first","0","12345678","0","24","2","1","3","1","3598","","","","","neg","GS","GSnew","2","category2/GS2.png","targets/18.png","","direct","","-30"
"","image-slider-response","306","663654","0.0-12.0-0.22","2maobvb2kf","many_one","0","indirect_first","0","12345678","0","24","2","1","3","1","4356","","","","","pos","CS","CS","3","category3/CS9.png","targets/21.png","","direct","","100"
"","image-slider-response","307","667566","0.0-12.0-0.23","2maobvb2kf","many_one","0","indirect_first","0","12345678","0","24","2","1","3","1","3910","","","","","neg","CS","CS","2","category2/CS4.png","targets/26.png","","direct","","-33"
"","image-slider-response","308","671037","0.0-12.0-0.24","2maobvb2kf","many_one","0","indirect_first","0","12345678","0","24","2","1","3","1","3470","","","","","neg","GS","GSnew","2","category2/GS3.png","targets/22.png","","direct","","72"
"","image-slider-response","309","679298","0.0-12.0-0.25","2maobvb2kf","many_one","0","indirect_first","0","12345678","0","24","2","1","3","1","8258","","","","","pos","GS","abstract","3","category3/wang.png","targets/1.png","","direct","","-100"
"","image-slider-response","310","684699","0.0-12.0-0.26","2maobvb2kf","many_one","0","indirect_first","0","12345678","0","24","2","1","3","1","5399","","","","","pos","GS","GSnew","3","category3/GS2.png","targets/4.png","","direct","","-90"
"","image-slider-response","311","688210","0.0-12.0-0.27","2maobvb2kf","many_one","0","indirect_first","0","12345678","0","24","2","1","3","1","3510","","","","","pos","GS","GSnew","4","category4/GS1.png","targets/25.png","","direct","","-99"
"","image-slider-response","312","690821","0.0-12.0-0.28","2maobvb2kf","many_one","0","indirect_first","0","12345678","0","24","2","1","3","1","2610","","","","","neg","CS","CS","2","category2/CS5.png","targets/43.png","","direct","","-82"
"","image-slider-response","313","694429","0.0-12.0-0.29","2maobvb2kf","many_one","0","indirect_first","0","12345678","0","24","2","1","3","1","3606","","","","","pos","CS","CS","3","category3/CS1.png","targets/17.png","","direct","","-96"
"","image-slider-response","314","698470","0.0-12.0-0.30","2maobvb2kf","many_one","0","indirect_first","0","12345678","0","24","2","1","3","1","4039","","","","","pos","GS","GSold","4","category4/CS2.png","targets/7.png","","direct","","-89"
"","image-slider-response","315","701715","0.0-12.0-0.31","2maobvb2kf","many_one","0","indirect_first","0","12345678","0","24","2","1","3","1","3243","","","","","neg","CS","CS","1","category1/CS3.png","targets/11.png","","direct","","-99"
"","image-slider-response","316","705130","0.0-12.0-0.32","2maobvb2kf","many_one","0","indirect_first","0","12345678","0","24","2","1","3","1","3413","","","","","pos","CS","CS","4","category4/CS8.png","targets/42.png","","direct","","74"
"","image-slider-response","317","708829","0.0-12.0-0.33","2maobvb2kf","many_one","0","indirect_first","0","12345678","0","24","2","1","3","1","3698","","","","","neg","CS","CS","1","category1/CS8.png","targets/12.png","","direct","","-99"
"","image-slider-response","318","711858","0.0-12.0-0.34","2maobvb2kf","many_one","0","indirect_first","0","12345678","0","24","2","1","3","1","3028","","","","","neg","GS","GSold","2","category2/CS7.png","targets/31.png","","direct","","-73"
"","image-slider-response","319","714610","0.0-12.0-0.35","2maobvb2kf","many_one","0","indirect_first","0","12345678","0","24","2","1","3","1","2750","","","","","neg","GS","GSnew","1","category1/GS3.png","targets/30.png","","direct","","-12"
"","image-slider-response","320","717828","0.0-12.0-0.36","2maobvb2kf","many_one","0","indirect_first","0","12345678","0","24","2","1","3","1","3216","","","","","pos","CS","CS","4","category4/CS6.png","targets/19.png","","direct","","39"
"","image-slider-response","321","720388","0.0-12.0-0.37","2maobvb2kf","many_one","0","indirect_first","0","12345678","0","24","2","1","3","1","2558","","","","","neg","GS","GSnew","2","category2/GS1.png","targets/16.png","","direct","","-91"
"","image-slider-response","322","723320","0.0-12.0-0.38","2maobvb2kf","many_one","0","indirect_first","0","12345678","0","24","2","1","3","1","2931","","","","","neg","GS","abstract","1","category1/ma.png","targets/27.png","","direct","","-39"
"","image-slider-response","323","725587","0.0-12.0-0.39","2maobvb2kf","many_one","0","indirect_first","0","12345678","0","24","2","1","3","1","2265","","","","","pos","GS","GSold","4","category4/CS1.png","targets/5.png","","direct","","43"
"","image-slider-response","324","727738","0.0-12.0-0.40","2maobvb2kf","many_one","0","indirect_first","0","12345678","0","24","2","1","3","1","2149","","","","","pos","CS","CS","3","category3/CS2.png","targets/47.png","","direct","","-50"
"","image-slider-response","325","730341","0.0-12.0-0.41","2maobvb2kf","many_one","0","indirect_first","0","12345678","0","24","2","1","3","1","2602","","","","","neg","GS","GSold","1","category1/CS2.png","targets/2.png","","direct","","44"
"","image-slider-response","326","733008","0.0-12.0-0.42","2maobvb2kf","many_one","0","indirect_first","0","12345678","0","24","2","1","3","1","2665","","","","","neg","CS","CS","2","category2/CS6.png","targets/23.png","","direct","","-86"
"","image-slider-response","327","735408","0.0-12.0-0.43","2maobvb2kf","many_one","0","indirect_first","0","12345678","0","24","2","1","3","1","2397.9999999998836","","","","","pos","GS","GSold","4","category4/CS4.png","targets/45.png","","direct","","-56"
"","image-slider-response","328","741049","0.0-12.0-0.44","2maobvb2kf","many_one","0","indirect_first","0","12345678","0","24","2","1","3","1","5639.999999999884","","","","","pos","GS","GSold","3","category3/CS7.png","targets/20.png","","direct","","53"
"","image-slider-response","329","746300","0.0-12.0-0.45","2maobvb2kf","many_one","0","indirect_first","0","12345678","0","24","2","1","3","1","5250","","","","","pos","CS","CS","4","category4/CS5.png","targets/32.png","","direct","","-52"
"","image-slider-response","330","749056","0.0-12.0-0.46","2maobvb2kf","many_one","0","indirect_first","0","12345678","0","24","2","1","3","1","2755","","","","","neg","GS","GSnew","1","category1/GS1.png","targets/37.png","","direct","","-64"
"","image-slider-response","331","751512","0.0-12.0-0.47","2maobvb2kf","many_one","0","indirect_first","0","12345678","0","24","2","1","3","1","2453.9999999998836","","","","","pos","CS","CS","4","category4/CS10.png","targets/3.png","","direct","","-22"
"","survey-html-form","332","758100","0.0-13.0","2maobvb2kf","many_one","0","indirect_first","0","12345678","0","24","2","1","3","1","6586","","{}","","","","","","","","","","","",""
"","image-slider-response","333","764152","0.0-14.0-0.0","2maobvb2kf","many_one","0","indirect_first","0","12345678","0","24","2","1","3","1","5048","","","","","neg","All","all","1","category1/ma_all.png","","","all","","-100"
"","image-slider-response","334","766965","0.0-14.0-0.1","2maobvb2kf","many_one","0","indirect_first","0","12345678","0","24","2","1","3","1","2811","","","","","neg","All","all","2","category2/men_all.png","","","all","","-56"
"","image-slider-response","335","772210","0.0-14.0-0.2","2maobvb2kf","many_one","0","indirect_first","0","12345678","0","24","2","1","3","1","5243","","","","","pos","All","all","3","category3/wang_all.png","","","all","","53"
"","image-slider-response","336","774999","0.0-14.0-0.3","2maobvb2kf","many_one","0","indirect_first","0","12345678","0","24","2","1","3","1","2787","","","","","pos","All","all","4","category4/lin_all.png","","","all","","-60"
"","survey-text","337","781817","0.0-15.0","2maobvb2kf","many_one","0","indirect_first","0","12345678","0","24","2","1","3","1","6815.999999999884","","{""Q0"":""""}","","","","","","","","","","","",""
