"success","trial_type","trial_index","time_elapsed","internal_node_id","subject","condition","condition_code","measure","measure_code","codeword","gender","age","education","chinese","fach","handedness","comment","hinschauen","ablenkung","gewissenhaft","rt","url","responses","stimulus","key_press","val","type","type_specific","category","cs_selected","response","target","task","indirect","nr_pres"
"true","fullscreen","0","25441","0.0-0.0","mjw6wchufp","one_one","1","direct_first","1","wy06ck23","0","24","1","1","3","1","Ein Probedurchlauf bei dem Teil mit Zeichen und silben hätte mir geholfen, weil das erste Paar von Zeichen und Silbe so schnell wieder weg war, dass ich beides nicht gesehen habe. Danach war das kein Problem mehr, weil ich wusste was passiert. 

Sonst sehr interessant. Ich werde versuchen zu recherchieren, was die Zeichen wirklich bedeuten. :)","0","1","0","","","","","","","","","","","","","","",""
"","external-html","1","31445","0.0-1.0","mjw6wchufp","one_one","1","direct_first","1","wy06ck23","0","24","1","1","3","1","Ein Probedurchlauf bei dem Teil mit Zeichen und silben hätte mir geholfen, weil das erste Paar von Zeichen und Silbe so schnell wieder weg war, dass ich beides nicht gesehen habe. Danach war das kein Problem mehr, weil ich wusste was passiert. 

Sonst sehr interessant. Ich werde versuchen zu recherchieren, was die Zeichen wirklich bedeuten. :)","0","1","0","5936","text/information.html","","","","","","","","","","","","",""
"","external-html","2","38333","0.0-2.0","mjw6wchufp","one_one","1","direct_first","1","wy06ck23","0","24","1","1","3","1","Ein Probedurchlauf bei dem Teil mit Zeichen und silben hätte mir geholfen, weil das erste Paar von Zeichen und Silbe so schnell wieder weg war, dass ich beides nicht gesehen habe. Danach war das kein Problem mehr, weil ich wusste was passiert. 

Sonst sehr interessant. Ich werde versuchen zu recherchieren, was die Zeichen wirklich bedeuten. :)","0","1","0","6857","text/consent.html","","","","","","","","","","","","",""
"","survey-html-form","3","92340","0.0-3.0","mjw6wchufp","one_one","1","direct_first","1","wy06ck23","0","24","1","1","3","1","Ein Probedurchlauf bei dem Teil mit Zeichen und silben hätte mir geholfen, weil das erste Paar von Zeichen und Silbe so schnell wieder weg war, dass ich beides nicht gesehen habe. Danach war das kein Problem mehr, weil ich wusste was passiert. 

Sonst sehr interessant. Ich werde versuchen zu recherchieren, was die Zeichen wirklich bedeuten. :)","0","1","0","54004","","{""codeword_enter"":""wy06ck23""}","","","","","","","","","","","",""
"","survey-html-form","4","129785","0.0-4.0","mjw6wchufp","one_one","1","direct_first","1","wy06ck23","0","24","1","1","3","1","Ein Probedurchlauf bei dem Teil mit Zeichen und silben hätte mir geholfen, weil das erste Paar von Zeichen und Silbe so schnell wieder weg war, dass ich beides nicht gesehen habe. Danach war das kein Problem mehr, weil ich wusste was passiert. 

Sonst sehr interessant. Ich werde versuchen zu recherchieren, was die Zeichen wirklich bedeuten. :)","0","1","0","37442","","{""age"":""24"",""education"":""1"",""subject"":""3"",""gender"":""0"",""handedness"":""1"",""chinese"":""1""}","","","","","","","","","","","",""
"","survey-html-form","5","132420","0.0-5.0","mjw6wchufp","one_one","1","direct_first","1","wy06ck23","0","24","1","1","3","1","Ein Probedurchlauf bei dem Teil mit Zeichen und silben hätte mir geholfen, weil das erste Paar von Zeichen und Silbe so schnell wieder weg war, dass ich beides nicht gesehen habe. Danach war das kein Problem mehr, weil ich wusste was passiert. 

Sonst sehr interessant. Ich werde versuchen zu recherchieren, was die Zeichen wirklich bedeuten. :)","0","1","0","2634","","{}","","","","","","","","","","","",""
"","html-keyboard-response","6","136435","0.0-6.0-0.0-0.0","mjw6wchufp","one_one","1","direct_first","1","wy06ck23","0","24","1","1","3","1","Ein Probedurchlauf bei dem Teil mit Zeichen und silben hätte mir geholfen, weil das erste Paar von Zeichen und Silbe so schnell wieder weg war, dass ich beides nicht gesehen habe. Danach war das kein Problem mehr, weil ich wusste was passiert. 

Sonst sehr interessant. Ich werde versuchen zu recherchieren, was die Zeichen wirklich bedeuten. :)","0","1","0","null","","","<div class = 'row'><div class = 'column'><img src = 'usneg/6212.bmp' width = '100%;'></div><div class = 'column'><img src = 'category3/CS4.png' width = '70%;'></div></div>","null","neg","CS","CS","3","category3/CS4.png","","","","",""
"","html-keyboard-response","7","138956","0.0-6.0-0.0-0.1","mjw6wchufp","one_one","1","direct_first","1","wy06ck23","0","24","1","1","3","1","Ein Probedurchlauf bei dem Teil mit Zeichen und silben hätte mir geholfen, weil das erste Paar von Zeichen und Silbe so schnell wieder weg war, dass ich beides nicht gesehen habe. Danach war das kein Problem mehr, weil ich wusste was passiert. 

Sonst sehr interessant. Ich werde versuchen zu recherchieren, was die Zeichen wirklich bedeuten. :)","0","1","0","null","","","<div class = 'row'><div class = 'column'><img src = 'uspos/2311.bmp' width = '100%;'></div><div class = 'column'><img src = 'category2/CS6.png' width = '70%;'></div></div>","null","pos","CS","CS","2","category2/CS6.png","","","","",""
"","html-keyboard-response","8","141464","0.0-6.0-0.0-0.2","mjw6wchufp","one_one","1","direct_first","1","wy06ck23","0","24","1","1","3","1","Ein Probedurchlauf bei dem Teil mit Zeichen und silben hätte mir geholfen, weil das erste Paar von Zeichen und Silbe so schnell wieder weg war, dass ich beides nicht gesehen habe. Danach war das kein Problem mehr, weil ich wusste was passiert. 

Sonst sehr interessant. Ich werde versuchen zu recherchieren, was die Zeichen wirklich bedeuten. :)","0","1","0","null","","","<div class = 'row'><div class = 'column'><img src = 'usneg/9181.bmp' width = '100%;'></div><div class = 'column'><img src = 'category4/CS9.png' width = '70%;'></div></div>","null","neg","CS","CS","4","category4/CS9.png","","","","",""
"","html-keyboard-response","9","143977","0.0-6.0-0.0-0.3","mjw6wchufp","one_one","1","direct_first","1","wy06ck23","0","24","1","1","3","1","Ein Probedurchlauf bei dem Teil mit Zeichen und silben hätte mir geholfen, weil das erste Paar von Zeichen und Silbe so schnell wieder weg war, dass ich beides nicht gesehen habe. Danach war das kein Problem mehr, weil ich wusste was passiert. 

Sonst sehr interessant. Ich werde versuchen zu recherchieren, was die Zeichen wirklich bedeuten. :)","0","1","0","null","","","<div class = 'row'><div class = 'column'><img src = 'uspos/2311.bmp' width = '100%;'></div><div class = 'column'><img src = 'category2/CS6.png' width = '70%;'></div></div>","null","pos","CS","CS","2","category2/CS6.png","","","","",""
"","html-keyboard-response","10","146490","0.0-6.0-0.0-0.4","mjw6wchufp","one_one","1","direct_first","1","wy06ck23","0","24","1","1","3","1","Ein Probedurchlauf bei dem Teil mit Zeichen und silben hätte mir geholfen, weil das erste Paar von Zeichen und Silbe so schnell wieder weg war, dass ich beides nicht gesehen habe. Danach war das kein Problem mehr, weil ich wusste was passiert. 

Sonst sehr interessant. Ich werde versuchen zu recherchieren, was die Zeichen wirklich bedeuten. :)","0","1","0","null","","","<div class = 'row'><div class = 'column'><img src = 'uspos/7325.bmp' width = '100%;'></div><div class = 'column'><img src = 'category1/CS7.png' width = '70%;'></div></div>","null","pos","CS","CS","1","category1/CS7.png","","","","",""
"","html-keyboard-response","11","149008","0.0-6.0-0.0-0.5","mjw6wchufp","one_one","1","direct_first","1","wy06ck23","0","24","1","1","3","1","Ein Probedurchlauf bei dem Teil mit Zeichen und silben hätte mir geholfen, weil das erste Paar von Zeichen und Silbe so schnell wieder weg war, dass ich beides nicht gesehen habe. Danach war das kein Problem mehr, weil ich wusste was passiert. 

Sonst sehr interessant. Ich werde versuchen zu recherchieren, was die Zeichen wirklich bedeuten. :)","0","1","0","null","","","<div class = 'row'><div class = 'column'><img src = 'category4/CS9.png' width = '70%;'></div><div class = 'column'><img src = 'usneg/9181.bmp' width = '100%;'></div></div>","null","neg","CS","CS","4","category4/CS9.png","","","","",""
"","html-keyboard-response","12","151527","0.0-6.0-0.0-0.6","mjw6wchufp","one_one","1","direct_first","1","wy06ck23","0","24","1","1","3","1","Ein Probedurchlauf bei dem Teil mit Zeichen und silben hätte mir geholfen, weil das erste Paar von Zeichen und Silbe so schnell wieder weg war, dass ich beides nicht gesehen habe. Danach war das kein Problem mehr, weil ich wusste was passiert. 

Sonst sehr interessant. Ich werde versuchen zu recherchieren, was die Zeichen wirklich bedeuten. :)","0","1","0","null","","","<div class = 'row'><div class = 'column'><img src = 'usneg/6212.bmp' width = '100%;'></div><div class = 'column'><img src = 'category3/CS4.png' width = '70%;'></div></div>","null","neg","CS","CS","3","category3/CS4.png","","","","",""
"","html-keyboard-response","13","154043","0.0-6.0-0.0-0.7","mjw6wchufp","one_one","1","direct_first","1","wy06ck23","0","24","1","1","3","1","Ein Probedurchlauf bei dem Teil mit Zeichen und silben hätte mir geholfen, weil das erste Paar von Zeichen und Silbe so schnell wieder weg war, dass ich beides nicht gesehen habe. Danach war das kein Problem mehr, weil ich wusste was passiert. 

Sonst sehr interessant. Ich werde versuchen zu recherchieren, was die Zeichen wirklich bedeuten. :)","0","1","0","null","","","<div class = 'row'><div class = 'column'><img src = 'uspos/2311.bmp' width = '100%;'></div><div class = 'column'><img src = 'category2/CS6.png' width = '70%;'></div></div>","null","pos","CS","CS","2","category2/CS6.png","","","","",""
"","html-keyboard-response","14","156562","0.0-6.0-0.0-0.8","mjw6wchufp","one_one","1","direct_first","1","wy06ck23","0","24","1","1","3","1","Ein Probedurchlauf bei dem Teil mit Zeichen und silben hätte mir geholfen, weil das erste Paar von Zeichen und Silbe so schnell wieder weg war, dass ich beides nicht gesehen habe. Danach war das kein Problem mehr, weil ich wusste was passiert. 

Sonst sehr interessant. Ich werde versuchen zu recherchieren, was die Zeichen wirklich bedeuten. :)","0","1","0","null","","","<div class = 'row'><div class = 'column'><img src = 'usneg/6212.bmp' width = '100%;'></div><div class = 'column'><img src = 'category3/CS4.png' width = '70%;'></div></div>","null","neg","CS","CS","3","category3/CS4.png","","","","",""
"","html-keyboard-response","15","159079","0.0-6.0-0.0-0.9","mjw6wchufp","one_one","1","direct_first","1","wy06ck23","0","24","1","1","3","1","Ein Probedurchlauf bei dem Teil mit Zeichen und silben hätte mir geholfen, weil das erste Paar von Zeichen und Silbe so schnell wieder weg war, dass ich beides nicht gesehen habe. Danach war das kein Problem mehr, weil ich wusste was passiert. 

Sonst sehr interessant. Ich werde versuchen zu recherchieren, was die Zeichen wirklich bedeuten. :)","0","1","0","null","","","<div class = 'row'><div class = 'column'><img src = 'category2/CS6.png' width = '70%;'></div><div class = 'column'><img src = 'uspos/2311.bmp' width = '100%;'></div></div>","null","pos","CS","CS","2","category2/CS6.png","","","","",""
"","html-keyboard-response","16","161595","0.0-6.0-0.0-0.10","mjw6wchufp","one_one","1","direct_first","1","wy06ck23","0","24","1","1","3","1","Ein Probedurchlauf bei dem Teil mit Zeichen und silben hätte mir geholfen, weil das erste Paar von Zeichen und Silbe so schnell wieder weg war, dass ich beides nicht gesehen habe. Danach war das kein Problem mehr, weil ich wusste was passiert. 

Sonst sehr interessant. Ich werde versuchen zu recherchieren, was die Zeichen wirklich bedeuten. :)","0","1","0","null","","","<div class = 'row'><div class = 'column'><img src = 'category1/CS7.png' width = '70%;'></div><div class = 'column'><img src = 'uspos/7325.bmp' width = '100%;'></div></div>","null","pos","CS","CS","1","category1/CS7.png","","","","",""
"","html-keyboard-response","17","164112","0.0-6.0-0.0-0.11","mjw6wchufp","one_one","1","direct_first","1","wy06ck23","0","24","1","1","3","1","Ein Probedurchlauf bei dem Teil mit Zeichen und silben hätte mir geholfen, weil das erste Paar von Zeichen und Silbe so schnell wieder weg war, dass ich beides nicht gesehen habe. Danach war das kein Problem mehr, weil ich wusste was passiert. 

Sonst sehr interessant. Ich werde versuchen zu recherchieren, was die Zeichen wirklich bedeuten. :)","0","1","0","null","","","<div class = 'row'><div class = 'column'><img src = 'category3/CS4.png' width = '70%;'></div><div class = 'column'><img src = 'usneg/6212.bmp' width = '100%;'></div></div>","null","neg","CS","CS","3","category3/CS4.png","","","","",""
"","html-keyboard-response","18","166633","0.0-6.0-0.0-0.12","mjw6wchufp","one_one","1","direct_first","1","wy06ck23","0","24","1","1","3","1","Ein Probedurchlauf bei dem Teil mit Zeichen und silben hätte mir geholfen, weil das erste Paar von Zeichen und Silbe so schnell wieder weg war, dass ich beides nicht gesehen habe. Danach war das kein Problem mehr, weil ich wusste was passiert. 

Sonst sehr interessant. Ich werde versuchen zu recherchieren, was die Zeichen wirklich bedeuten. :)","0","1","0","null","","","<div class = 'row'><div class = 'column'><img src = 'usneg/9181.bmp' width = '100%;'></div><div class = 'column'><img src = 'category4/CS9.png' width = '70%;'></div></div>","null","neg","CS","CS","4","category4/CS9.png","","","","",""
"","html-keyboard-response","19","169146","0.0-6.0-0.0-0.13","mjw6wchufp","one_one","1","direct_first","1","wy06ck23","0","24","1","1","3","1","Ein Probedurchlauf bei dem Teil mit Zeichen und silben hätte mir geholfen, weil das erste Paar von Zeichen und Silbe so schnell wieder weg war, dass ich beides nicht gesehen habe. Danach war das kein Problem mehr, weil ich wusste was passiert. 

Sonst sehr interessant. Ich werde versuchen zu recherchieren, was die Zeichen wirklich bedeuten. :)","0","1","0","null","","","<div class = 'row'><div class = 'column'><img src = 'category1/CS7.png' width = '70%;'></div><div class = 'column'><img src = 'uspos/7325.bmp' width = '100%;'></div></div>","null","pos","CS","CS","1","category1/CS7.png","","","","",""
"","html-keyboard-response","20","171656","0.0-6.0-0.0-0.14","mjw6wchufp","one_one","1","direct_first","1","wy06ck23","0","24","1","1","3","1","Ein Probedurchlauf bei dem Teil mit Zeichen und silben hätte mir geholfen, weil das erste Paar von Zeichen und Silbe so schnell wieder weg war, dass ich beides nicht gesehen habe. Danach war das kein Problem mehr, weil ich wusste was passiert. 

Sonst sehr interessant. Ich werde versuchen zu recherchieren, was die Zeichen wirklich bedeuten. :)","0","1","0","null","","","<div class = 'row'><div class = 'column'><img src = 'usneg/9181.bmp' width = '100%;'></div><div class = 'column'><img src = 'category4/CS9.png' width = '70%;'></div></div>","null","neg","CS","CS","4","category4/CS9.png","","","","",""
"","html-keyboard-response","21","174173","0.0-6.0-0.0-0.15","mjw6wchufp","one_one","1","direct_first","1","wy06ck23","0","24","1","1","3","1","Ein Probedurchlauf bei dem Teil mit Zeichen und silben hätte mir geholfen, weil das erste Paar von Zeichen und Silbe so schnell wieder weg war, dass ich beides nicht gesehen habe. Danach war das kein Problem mehr, weil ich wusste was passiert. 

Sonst sehr interessant. Ich werde versuchen zu recherchieren, was die Zeichen wirklich bedeuten. :)","0","1","0","null","","","<div class = 'row'><div class = 'column'><img src = 'category1/CS7.png' width = '70%;'></div><div class = 'column'><img src = 'uspos/7325.bmp' width = '100%;'></div></div>","null","pos","CS","CS","1","category1/CS7.png","","","","",""
"","html-keyboard-response","22","176692","0.0-6.0-0.0-0.16","mjw6wchufp","one_one","1","direct_first","1","wy06ck23","0","24","1","1","3","1","Ein Probedurchlauf bei dem Teil mit Zeichen und silben hätte mir geholfen, weil das erste Paar von Zeichen und Silbe so schnell wieder weg war, dass ich beides nicht gesehen habe. Danach war das kein Problem mehr, weil ich wusste was passiert. 

Sonst sehr interessant. Ich werde versuchen zu recherchieren, was die Zeichen wirklich bedeuten. :)","0","1","0","null","","","<div class = 'row'><div class = 'column'><img src = 'category2/CS6.png' width = '70%;'></div><div class = 'column'><img src = 'uspos/2311.bmp' width = '100%;'></div></div>","null","pos","CS","CS","2","category2/CS6.png","","","","",""
"","html-keyboard-response","23","179201","0.0-6.0-0.0-0.17","mjw6wchufp","one_one","1","direct_first","1","wy06ck23","0","24","1","1","3","1","Ein Probedurchlauf bei dem Teil mit Zeichen und silben hätte mir geholfen, weil das erste Paar von Zeichen und Silbe so schnell wieder weg war, dass ich beides nicht gesehen habe. Danach war das kein Problem mehr, weil ich wusste was passiert. 

Sonst sehr interessant. Ich werde versuchen zu recherchieren, was die Zeichen wirklich bedeuten. :)","0","1","0","null","","","<div class = 'row'><div class = 'column'><img src = 'category3/CS4.png' width = '70%;'></div><div class = 'column'><img src = 'usneg/6212.bmp' width = '100%;'></div></div>","null","neg","CS","CS","3","category3/CS4.png","","","","",""
"","html-keyboard-response","24","181721","0.0-6.0-0.0-0.18","mjw6wchufp","one_one","1","direct_first","1","wy06ck23","0","24","1","1","3","1","Ein Probedurchlauf bei dem Teil mit Zeichen und silben hätte mir geholfen, weil das erste Paar von Zeichen und Silbe so schnell wieder weg war, dass ich beides nicht gesehen habe. Danach war das kein Problem mehr, weil ich wusste was passiert. 

Sonst sehr interessant. Ich werde versuchen zu recherchieren, was die Zeichen wirklich bedeuten. :)","0","1","0","null","","","<div class = 'row'><div class = 'column'><img src = 'usneg/9181.bmp' width = '100%;'></div><div class = 'column'><img src = 'category4/CS9.png' width = '70%;'></div></div>","null","neg","CS","CS","4","category4/CS9.png","","","","",""
"","html-keyboard-response","25","184240","0.0-6.0-0.0-0.19","mjw6wchufp","one_one","1","direct_first","1","wy06ck23","0","24","1","1","3","1","Ein Probedurchlauf bei dem Teil mit Zeichen und silben hätte mir geholfen, weil das erste Paar von Zeichen und Silbe so schnell wieder weg war, dass ich beides nicht gesehen habe. Danach war das kein Problem mehr, weil ich wusste was passiert. 

Sonst sehr interessant. Ich werde versuchen zu recherchieren, was die Zeichen wirklich bedeuten. :)","0","1","0","null","","","<div class = 'row'><div class = 'column'><img src = 'uspos/7325.bmp' width = '100%;'></div><div class = 'column'><img src = 'category1/CS7.png' width = '70%;'></div></div>","null","pos","CS","CS","1","category1/CS7.png","","","","",""
"","survey-html-form","26","187133","0.0-6.0-1.0","mjw6wchufp","one_one","1","direct_first","1","wy06ck23","0","24","1","1","3","1","Ein Probedurchlauf bei dem Teil mit Zeichen und silben hätte mir geholfen, weil das erste Paar von Zeichen und Silbe so schnell wieder weg war, dass ich beides nicht gesehen habe. Danach war das kein Problem mehr, weil ich wusste was passiert. 

Sonst sehr interessant. Ich werde versuchen zu recherchieren, was die Zeichen wirklich bedeuten. :)","0","1","0","2384","","{}","","","","","","","","","","","",""
"","html-keyboard-response","27","191157","0.0-6.0-2.0-0.0","mjw6wchufp","one_one","1","direct_first","1","wy06ck23","0","24","1","1","3","1","Ein Probedurchlauf bei dem Teil mit Zeichen und silben hätte mir geholfen, weil das erste Paar von Zeichen und Silbe so schnell wieder weg war, dass ich beides nicht gesehen habe. Danach war das kein Problem mehr, weil ich wusste was passiert. 

Sonst sehr interessant. Ich werde versuchen zu recherchieren, was die Zeichen wirklich bedeuten. :)","0","1","0","null","","","<div class = 'row'><div class = 'column'><img src = 'category3/CS4.png' width = '70%;'></div><div class = 'column'><img src = 'usneg/6212.bmp' width = '100%;'></div></div>","null","neg","CS","CS","3","category3/CS4.png","","","","",""
"","html-keyboard-response","28","193676","0.0-6.0-2.0-0.1","mjw6wchufp","one_one","1","direct_first","1","wy06ck23","0","24","1","1","3","1","Ein Probedurchlauf bei dem Teil mit Zeichen und silben hätte mir geholfen, weil das erste Paar von Zeichen und Silbe so schnell wieder weg war, dass ich beides nicht gesehen habe. Danach war das kein Problem mehr, weil ich wusste was passiert. 

Sonst sehr interessant. Ich werde versuchen zu recherchieren, was die Zeichen wirklich bedeuten. :)","0","1","0","null","","","<div class = 'row'><div class = 'column'><img src = 'uspos/2311.bmp' width = '100%;'></div><div class = 'column'><img src = 'category2/CS6.png' width = '70%;'></div></div>","null","pos","CS","CS","2","category2/CS6.png","","","","",""
"","html-keyboard-response","29","196191","0.0-6.0-2.0-0.2","mjw6wchufp","one_one","1","direct_first","1","wy06ck23","0","24","1","1","3","1","Ein Probedurchlauf bei dem Teil mit Zeichen und silben hätte mir geholfen, weil das erste Paar von Zeichen und Silbe so schnell wieder weg war, dass ich beides nicht gesehen habe. Danach war das kein Problem mehr, weil ich wusste was passiert. 

Sonst sehr interessant. Ich werde versuchen zu recherchieren, was die Zeichen wirklich bedeuten. :)","0","1","0","null","","","<div class = 'row'><div class = 'column'><img src = 'category4/CS9.png' width = '70%;'></div><div class = 'column'><img src = 'usneg/9181.bmp' width = '100%;'></div></div>","null","neg","CS","CS","4","category4/CS9.png","","","","",""
"","html-keyboard-response","30","198703","0.0-6.0-2.0-0.3","mjw6wchufp","one_one","1","direct_first","1","wy06ck23","0","24","1","1","3","1","Ein Probedurchlauf bei dem Teil mit Zeichen und silben hätte mir geholfen, weil das erste Paar von Zeichen und Silbe so schnell wieder weg war, dass ich beides nicht gesehen habe. Danach war das kein Problem mehr, weil ich wusste was passiert. 

Sonst sehr interessant. Ich werde versuchen zu recherchieren, was die Zeichen wirklich bedeuten. :)","0","1","0","null","","","<div class = 'row'><div class = 'column'><img src = 'uspos/7325.bmp' width = '100%;'></div><div class = 'column'><img src = 'category1/CS7.png' width = '70%;'></div></div>","null","pos","CS","CS","1","category1/CS7.png","","","","",""
"","html-keyboard-response","31","201221","0.0-6.0-2.0-0.4","mjw6wchufp","one_one","1","direct_first","1","wy06ck23","0","24","1","1","3","1","Ein Probedurchlauf bei dem Teil mit Zeichen und silben hätte mir geholfen, weil das erste Paar von Zeichen und Silbe so schnell wieder weg war, dass ich beides nicht gesehen habe. Danach war das kein Problem mehr, weil ich wusste was passiert. 

Sonst sehr interessant. Ich werde versuchen zu recherchieren, was die Zeichen wirklich bedeuten. :)","0","1","0","null","","","<div class = 'row'><div class = 'column'><img src = 'usneg/6212.bmp' width = '100%;'></div><div class = 'column'><img src = 'category3/CS4.png' width = '70%;'></div></div>","null","neg","CS","CS","3","category3/CS4.png","","","","",""
"","html-keyboard-response","32","203736","0.0-6.0-2.0-0.5","mjw6wchufp","one_one","1","direct_first","1","wy06ck23","0","24","1","1","3","1","Ein Probedurchlauf bei dem Teil mit Zeichen und silben hätte mir geholfen, weil das erste Paar von Zeichen und Silbe so schnell wieder weg war, dass ich beides nicht gesehen habe. Danach war das kein Problem mehr, weil ich wusste was passiert. 

Sonst sehr interessant. Ich werde versuchen zu recherchieren, was die Zeichen wirklich bedeuten. :)","0","1","0","null","","","<div class = 'row'><div class = 'column'><img src = 'usneg/9181.bmp' width = '100%;'></div><div class = 'column'><img src = 'category4/CS9.png' width = '70%;'></div></div>","null","neg","CS","CS","4","category4/CS9.png","","","","",""
"","html-keyboard-response","33","206251","0.0-6.0-2.0-0.6","mjw6wchufp","one_one","1","direct_first","1","wy06ck23","0","24","1","1","3","1","Ein Probedurchlauf bei dem Teil mit Zeichen und silben hätte mir geholfen, weil das erste Paar von Zeichen und Silbe so schnell wieder weg war, dass ich beides nicht gesehen habe. Danach war das kein Problem mehr, weil ich wusste was passiert. 

Sonst sehr interessant. Ich werde versuchen zu recherchieren, was die Zeichen wirklich bedeuten. :)","0","1","0","null","","","<div class = 'row'><div class = 'column'><img src = 'uspos/2311.bmp' width = '100%;'></div><div class = 'column'><img src = 'category2/CS6.png' width = '70%;'></div></div>","null","pos","CS","CS","2","category2/CS6.png","","","","",""
"","html-keyboard-response","34","208769","0.0-6.0-2.0-0.7","mjw6wchufp","one_one","1","direct_first","1","wy06ck23","0","24","1","1","3","1","Ein Probedurchlauf bei dem Teil mit Zeichen und silben hätte mir geholfen, weil das erste Paar von Zeichen und Silbe so schnell wieder weg war, dass ich beides nicht gesehen habe. Danach war das kein Problem mehr, weil ich wusste was passiert. 

Sonst sehr interessant. Ich werde versuchen zu recherchieren, was die Zeichen wirklich bedeuten. :)","0","1","0","null","","","<div class = 'row'><div class = 'column'><img src = 'usneg/9181.bmp' width = '100%;'></div><div class = 'column'><img src = 'category4/CS9.png' width = '70%;'></div></div>","null","neg","CS","CS","4","category4/CS9.png","","","","",""
"","html-keyboard-response","35","211288","0.0-6.0-2.0-0.8","mjw6wchufp","one_one","1","direct_first","1","wy06ck23","0","24","1","1","3","1","Ein Probedurchlauf bei dem Teil mit Zeichen und silben hätte mir geholfen, weil das erste Paar von Zeichen und Silbe so schnell wieder weg war, dass ich beides nicht gesehen habe. Danach war das kein Problem mehr, weil ich wusste was passiert. 

Sonst sehr interessant. Ich werde versuchen zu recherchieren, was die Zeichen wirklich bedeuten. :)","0","1","0","null","","","<div class = 'row'><div class = 'column'><img src = 'uspos/2311.bmp' width = '100%;'></div><div class = 'column'><img src = 'category2/CS6.png' width = '70%;'></div></div>","null","pos","CS","CS","2","category2/CS6.png","","","","",""
"","html-keyboard-response","36","213806","0.0-6.0-2.0-0.9","mjw6wchufp","one_one","1","direct_first","1","wy06ck23","0","24","1","1","3","1","Ein Probedurchlauf bei dem Teil mit Zeichen und silben hätte mir geholfen, weil das erste Paar von Zeichen und Silbe so schnell wieder weg war, dass ich beides nicht gesehen habe. Danach war das kein Problem mehr, weil ich wusste was passiert. 

Sonst sehr interessant. Ich werde versuchen zu recherchieren, was die Zeichen wirklich bedeuten. :)","0","1","0","null","","","<div class = 'row'><div class = 'column'><img src = 'category3/CS4.png' width = '70%;'></div><div class = 'column'><img src = 'usneg/6212.bmp' width = '100%;'></div></div>","null","neg","CS","CS","3","category3/CS4.png","","","","",""
"","html-keyboard-response","37","216322","0.0-6.0-2.0-0.10","mjw6wchufp","one_one","1","direct_first","1","wy06ck23","0","24","1","1","3","1","Ein Probedurchlauf bei dem Teil mit Zeichen und silben hätte mir geholfen, weil das erste Paar von Zeichen und Silbe so schnell wieder weg war, dass ich beides nicht gesehen habe. Danach war das kein Problem mehr, weil ich wusste was passiert. 

Sonst sehr interessant. Ich werde versuchen zu recherchieren, was die Zeichen wirklich bedeuten. :)","0","1","0","null","","","<div class = 'row'><div class = 'column'><img src = 'uspos/7325.bmp' width = '100%;'></div><div class = 'column'><img src = 'category1/CS7.png' width = '70%;'></div></div>","null","pos","CS","CS","1","category1/CS7.png","","","","",""
"","html-keyboard-response","38","218828","0.0-6.0-2.0-0.11","mjw6wchufp","one_one","1","direct_first","1","wy06ck23","0","24","1","1","3","1","Ein Probedurchlauf bei dem Teil mit Zeichen und silben hätte mir geholfen, weil das erste Paar von Zeichen und Silbe so schnell wieder weg war, dass ich beides nicht gesehen habe. Danach war das kein Problem mehr, weil ich wusste was passiert. 

Sonst sehr interessant. Ich werde versuchen zu recherchieren, was die Zeichen wirklich bedeuten. :)","0","1","0","null","","","<div class = 'row'><div class = 'column'><img src = 'usneg/9181.bmp' width = '100%;'></div><div class = 'column'><img src = 'category4/CS9.png' width = '70%;'></div></div>","null","neg","CS","CS","4","category4/CS9.png","","","","",""
"","html-keyboard-response","39","221345","0.0-6.0-2.0-0.12","mjw6wchufp","one_one","1","direct_first","1","wy06ck23","0","24","1","1","3","1","Ein Probedurchlauf bei dem Teil mit Zeichen und silben hätte mir geholfen, weil das erste Paar von Zeichen und Silbe so schnell wieder weg war, dass ich beides nicht gesehen habe. Danach war das kein Problem mehr, weil ich wusste was passiert. 

Sonst sehr interessant. Ich werde versuchen zu recherchieren, was die Zeichen wirklich bedeuten. :)","0","1","0","null","","","<div class = 'row'><div class = 'column'><img src = 'category1/CS7.png' width = '70%;'></div><div class = 'column'><img src = 'uspos/7325.bmp' width = '100%;'></div></div>","null","pos","CS","CS","1","category1/CS7.png","","","","",""
"","html-keyboard-response","40","223861","0.0-6.0-2.0-0.13","mjw6wchufp","one_one","1","direct_first","1","wy06ck23","0","24","1","1","3","1","Ein Probedurchlauf bei dem Teil mit Zeichen und silben hätte mir geholfen, weil das erste Paar von Zeichen und Silbe so schnell wieder weg war, dass ich beides nicht gesehen habe. Danach war das kein Problem mehr, weil ich wusste was passiert. 

Sonst sehr interessant. Ich werde versuchen zu recherchieren, was die Zeichen wirklich bedeuten. :)","0","1","0","null","","","<div class = 'row'><div class = 'column'><img src = 'uspos/2311.bmp' width = '100%;'></div><div class = 'column'><img src = 'category2/CS6.png' width = '70%;'></div></div>","null","pos","CS","CS","2","category2/CS6.png","","","","",""
"","html-keyboard-response","41","226368","0.0-6.0-2.0-0.14","mjw6wchufp","one_one","1","direct_first","1","wy06ck23","0","24","1","1","3","1","Ein Probedurchlauf bei dem Teil mit Zeichen und silben hätte mir geholfen, weil das erste Paar von Zeichen und Silbe so schnell wieder weg war, dass ich beides nicht gesehen habe. Danach war das kein Problem mehr, weil ich wusste was passiert. 

Sonst sehr interessant. Ich werde versuchen zu recherchieren, was die Zeichen wirklich bedeuten. :)","0","1","0","null","","","<div class = 'row'><div class = 'column'><img src = 'uspos/7325.bmp' width = '100%;'></div><div class = 'column'><img src = 'category1/CS7.png' width = '70%;'></div></div>","null","pos","CS","CS","1","category1/CS7.png","","","","",""
"","html-keyboard-response","42","228884","0.0-6.0-2.0-0.15","mjw6wchufp","one_one","1","direct_first","1","wy06ck23","0","24","1","1","3","1","Ein Probedurchlauf bei dem Teil mit Zeichen und silben hätte mir geholfen, weil das erste Paar von Zeichen und Silbe so schnell wieder weg war, dass ich beides nicht gesehen habe. Danach war das kein Problem mehr, weil ich wusste was passiert. 

Sonst sehr interessant. Ich werde versuchen zu recherchieren, was die Zeichen wirklich bedeuten. :)","0","1","0","null","","","<div class = 'row'><div class = 'column'><img src = 'usneg/9181.bmp' width = '100%;'></div><div class = 'column'><img src = 'category4/CS9.png' width = '70%;'></div></div>","null","neg","CS","CS","4","category4/CS9.png","","","","",""
"","html-keyboard-response","43","231399","0.0-6.0-2.0-0.16","mjw6wchufp","one_one","1","direct_first","1","wy06ck23","0","24","1","1","3","1","Ein Probedurchlauf bei dem Teil mit Zeichen und silben hätte mir geholfen, weil das erste Paar von Zeichen und Silbe so schnell wieder weg war, dass ich beides nicht gesehen habe. Danach war das kein Problem mehr, weil ich wusste was passiert. 

Sonst sehr interessant. Ich werde versuchen zu recherchieren, was die Zeichen wirklich bedeuten. :)","0","1","0","null","","","<div class = 'row'><div class = 'column'><img src = 'usneg/6212.bmp' width = '100%;'></div><div class = 'column'><img src = 'category3/CS4.png' width = '70%;'></div></div>","null","neg","CS","CS","3","category3/CS4.png","","","","",""
"","html-keyboard-response","44","233916","0.0-6.0-2.0-0.17","mjw6wchufp","one_one","1","direct_first","1","wy06ck23","0","24","1","1","3","1","Ein Probedurchlauf bei dem Teil mit Zeichen und silben hätte mir geholfen, weil das erste Paar von Zeichen und Silbe so schnell wieder weg war, dass ich beides nicht gesehen habe. Danach war das kein Problem mehr, weil ich wusste was passiert. 

Sonst sehr interessant. Ich werde versuchen zu recherchieren, was die Zeichen wirklich bedeuten. :)","0","1","0","null","","","<div class = 'row'><div class = 'column'><img src = 'uspos/7325.bmp' width = '100%;'></div><div class = 'column'><img src = 'category1/CS7.png' width = '70%;'></div></div>","null","pos","CS","CS","1","category1/CS7.png","","","","",""
"","html-keyboard-response","45","236431","0.0-6.0-2.0-0.18","mjw6wchufp","one_one","1","direct_first","1","wy06ck23","0","24","1","1","3","1","Ein Probedurchlauf bei dem Teil mit Zeichen und silben hätte mir geholfen, weil das erste Paar von Zeichen und Silbe so schnell wieder weg war, dass ich beides nicht gesehen habe. Danach war das kein Problem mehr, weil ich wusste was passiert. 

Sonst sehr interessant. Ich werde versuchen zu recherchieren, was die Zeichen wirklich bedeuten. :)","0","1","0","null","","","<div class = 'row'><div class = 'column'><img src = 'category3/CS4.png' width = '70%;'></div><div class = 'column'><img src = 'usneg/6212.bmp' width = '100%;'></div></div>","null","neg","CS","CS","3","category3/CS4.png","","","","",""
"","html-keyboard-response","46","238947","0.0-6.0-2.0-0.19","mjw6wchufp","one_one","1","direct_first","1","wy06ck23","0","24","1","1","3","1","Ein Probedurchlauf bei dem Teil mit Zeichen und silben hätte mir geholfen, weil das erste Paar von Zeichen und Silbe so schnell wieder weg war, dass ich beides nicht gesehen habe. Danach war das kein Problem mehr, weil ich wusste was passiert. 

Sonst sehr interessant. Ich werde versuchen zu recherchieren, was die Zeichen wirklich bedeuten. :)","0","1","0","null","","","<div class = 'row'><div class = 'column'><img src = 'uspos/2311.bmp' width = '100%;'></div><div class = 'column'><img src = 'category2/CS6.png' width = '70%;'></div></div>","null","pos","CS","CS","2","category2/CS6.png","","","","",""
"","survey-html-form","47","243224","0.0-6.0-3.0","mjw6wchufp","one_one","1","direct_first","1","wy06ck23","0","24","1","1","3","1","Ein Probedurchlauf bei dem Teil mit Zeichen und silben hätte mir geholfen, weil das erste Paar von Zeichen und Silbe so schnell wieder weg war, dass ich beides nicht gesehen habe. Danach war das kein Problem mehr, weil ich wusste was passiert. 

Sonst sehr interessant. Ich werde versuchen zu recherchieren, was die Zeichen wirklich bedeuten. :)","0","1","0","3767","","{}","","","","","","","","","","","",""
"","html-keyboard-response","48","247229","0.0-6.0-4.0-0.0","mjw6wchufp","one_one","1","direct_first","1","wy06ck23","0","24","1","1","3","1","Ein Probedurchlauf bei dem Teil mit Zeichen und silben hätte mir geholfen, weil das erste Paar von Zeichen und Silbe so schnell wieder weg war, dass ich beides nicht gesehen habe. Danach war das kein Problem mehr, weil ich wusste was passiert. 

Sonst sehr interessant. Ich werde versuchen zu recherchieren, was die Zeichen wirklich bedeuten. :)","0","1","0","null","","","<div class = 'row'><div class = 'column'><img src = 'category4/CS9.png' width = '70%;'></div><div class = 'column'><img src = 'usneg/9181.bmp' width = '100%;'></div></div>","null","neg","CS","CS","4","category4/CS9.png","","","","",""
"","html-keyboard-response","49","249748","0.0-6.0-4.0-0.1","mjw6wchufp","one_one","1","direct_first","1","wy06ck23","0","24","1","1","3","1","Ein Probedurchlauf bei dem Teil mit Zeichen und silben hätte mir geholfen, weil das erste Paar von Zeichen und Silbe so schnell wieder weg war, dass ich beides nicht gesehen habe. Danach war das kein Problem mehr, weil ich wusste was passiert. 

Sonst sehr interessant. Ich werde versuchen zu recherchieren, was die Zeichen wirklich bedeuten. :)","0","1","0","null","","","<div class = 'row'><div class = 'column'><img src = 'category1/CS7.png' width = '70%;'></div><div class = 'column'><img src = 'uspos/7325.bmp' width = '100%;'></div></div>","null","pos","CS","CS","1","category1/CS7.png","","","","",""
"","html-keyboard-response","50","252260","0.0-6.0-4.0-0.2","mjw6wchufp","one_one","1","direct_first","1","wy06ck23","0","24","1","1","3","1","Ein Probedurchlauf bei dem Teil mit Zeichen und silben hätte mir geholfen, weil das erste Paar von Zeichen und Silbe so schnell wieder weg war, dass ich beides nicht gesehen habe. Danach war das kein Problem mehr, weil ich wusste was passiert. 

Sonst sehr interessant. Ich werde versuchen zu recherchieren, was die Zeichen wirklich bedeuten. :)","0","1","0","null","","","<div class = 'row'><div class = 'column'><img src = 'uspos/2311.bmp' width = '100%;'></div><div class = 'column'><img src = 'category2/CS6.png' width = '70%;'></div></div>","null","pos","CS","CS","2","category2/CS6.png","","","","",""
"","html-keyboard-response","51","254776","0.0-6.0-4.0-0.3","mjw6wchufp","one_one","1","direct_first","1","wy06ck23","0","24","1","1","3","1","Ein Probedurchlauf bei dem Teil mit Zeichen und silben hätte mir geholfen, weil das erste Paar von Zeichen und Silbe so schnell wieder weg war, dass ich beides nicht gesehen habe. Danach war das kein Problem mehr, weil ich wusste was passiert. 

Sonst sehr interessant. Ich werde versuchen zu recherchieren, was die Zeichen wirklich bedeuten. :)","0","1","0","null","","","<div class = 'row'><div class = 'column'><img src = 'usneg/9181.bmp' width = '100%;'></div><div class = 'column'><img src = 'category4/CS9.png' width = '70%;'></div></div>","null","neg","CS","CS","4","category4/CS9.png","","","","",""
"","html-keyboard-response","52","257291","0.0-6.0-4.0-0.4","mjw6wchufp","one_one","1","direct_first","1","wy06ck23","0","24","1","1","3","1","Ein Probedurchlauf bei dem Teil mit Zeichen und silben hätte mir geholfen, weil das erste Paar von Zeichen und Silbe so schnell wieder weg war, dass ich beides nicht gesehen habe. Danach war das kein Problem mehr, weil ich wusste was passiert. 

Sonst sehr interessant. Ich werde versuchen zu recherchieren, was die Zeichen wirklich bedeuten. :)","0","1","0","null","","","<div class = 'row'><div class = 'column'><img src = 'uspos/7325.bmp' width = '100%;'></div><div class = 'column'><img src = 'category1/CS7.png' width = '70%;'></div></div>","null","pos","CS","CS","1","category1/CS7.png","","","","",""
"","html-keyboard-response","53","259803","0.0-6.0-4.0-0.5","mjw6wchufp","one_one","1","direct_first","1","wy06ck23","0","24","1","1","3","1","Ein Probedurchlauf bei dem Teil mit Zeichen und silben hätte mir geholfen, weil das erste Paar von Zeichen und Silbe so schnell wieder weg war, dass ich beides nicht gesehen habe. Danach war das kein Problem mehr, weil ich wusste was passiert. 

Sonst sehr interessant. Ich werde versuchen zu recherchieren, was die Zeichen wirklich bedeuten. :)","0","1","0","null","","","<div class = 'row'><div class = 'column'><img src = 'category3/CS4.png' width = '70%;'></div><div class = 'column'><img src = 'usneg/6212.bmp' width = '100%;'></div></div>","null","neg","CS","CS","3","category3/CS4.png","","","","",""
"","html-keyboard-response","54","262321","0.0-6.0-4.0-0.6","mjw6wchufp","one_one","1","direct_first","1","wy06ck23","0","24","1","1","3","1","Ein Probedurchlauf bei dem Teil mit Zeichen und silben hätte mir geholfen, weil das erste Paar von Zeichen und Silbe so schnell wieder weg war, dass ich beides nicht gesehen habe. Danach war das kein Problem mehr, weil ich wusste was passiert. 

Sonst sehr interessant. Ich werde versuchen zu recherchieren, was die Zeichen wirklich bedeuten. :)","0","1","0","null","","","<div class = 'row'><div class = 'column'><img src = 'usneg/9181.bmp' width = '100%;'></div><div class = 'column'><img src = 'category4/CS9.png' width = '70%;'></div></div>","null","neg","CS","CS","4","category4/CS9.png","","","","",""
"","html-keyboard-response","55","264839","0.0-6.0-4.0-0.7","mjw6wchufp","one_one","1","direct_first","1","wy06ck23","0","24","1","1","3","1","Ein Probedurchlauf bei dem Teil mit Zeichen und silben hätte mir geholfen, weil das erste Paar von Zeichen und Silbe so schnell wieder weg war, dass ich beides nicht gesehen habe. Danach war das kein Problem mehr, weil ich wusste was passiert. 

Sonst sehr interessant. Ich werde versuchen zu recherchieren, was die Zeichen wirklich bedeuten. :)","0","1","0","null","","","<div class = 'row'><div class = 'column'><img src = 'uspos/2311.bmp' width = '100%;'></div><div class = 'column'><img src = 'category2/CS6.png' width = '70%;'></div></div>","null","pos","CS","CS","2","category2/CS6.png","","","","",""
"","html-keyboard-response","56","267359","0.0-6.0-4.0-0.8","mjw6wchufp","one_one","1","direct_first","1","wy06ck23","0","24","1","1","3","1","Ein Probedurchlauf bei dem Teil mit Zeichen und silben hätte mir geholfen, weil das erste Paar von Zeichen und Silbe so schnell wieder weg war, dass ich beides nicht gesehen habe. Danach war das kein Problem mehr, weil ich wusste was passiert. 

Sonst sehr interessant. Ich werde versuchen zu recherchieren, was die Zeichen wirklich bedeuten. :)","0","1","0","null","","","<div class = 'row'><div class = 'column'><img src = 'usneg/6212.bmp' width = '100%;'></div><div class = 'column'><img src = 'category3/CS4.png' width = '70%;'></div></div>","null","neg","CS","CS","3","category3/CS4.png","","","","",""
"","html-keyboard-response","57","269879","0.0-6.0-4.0-0.9","mjw6wchufp","one_one","1","direct_first","1","wy06ck23","0","24","1","1","3","1","Ein Probedurchlauf bei dem Teil mit Zeichen und silben hätte mir geholfen, weil das erste Paar von Zeichen und Silbe so schnell wieder weg war, dass ich beides nicht gesehen habe. Danach war das kein Problem mehr, weil ich wusste was passiert. 

Sonst sehr interessant. Ich werde versuchen zu recherchieren, was die Zeichen wirklich bedeuten. :)","0","1","0","null","","","<div class = 'row'><div class = 'column'><img src = 'uspos/2311.bmp' width = '100%;'></div><div class = 'column'><img src = 'category2/CS6.png' width = '70%;'></div></div>","null","pos","CS","CS","2","category2/CS6.png","","","","",""
"","html-keyboard-response","58","272396","0.0-6.0-4.0-0.10","mjw6wchufp","one_one","1","direct_first","1","wy06ck23","0","24","1","1","3","1","Ein Probedurchlauf bei dem Teil mit Zeichen und silben hätte mir geholfen, weil das erste Paar von Zeichen und Silbe so schnell wieder weg war, dass ich beides nicht gesehen habe. Danach war das kein Problem mehr, weil ich wusste was passiert. 

Sonst sehr interessant. Ich werde versuchen zu recherchieren, was die Zeichen wirklich bedeuten. :)","0","1","0","null","","","<div class = 'row'><div class = 'column'><img src = 'category4/CS9.png' width = '70%;'></div><div class = 'column'><img src = 'usneg/9181.bmp' width = '100%;'></div></div>","null","neg","CS","CS","4","category4/CS9.png","","","","",""
"","html-keyboard-response","59","274905","0.0-6.0-4.0-0.11","mjw6wchufp","one_one","1","direct_first","1","wy06ck23","0","24","1","1","3","1","Ein Probedurchlauf bei dem Teil mit Zeichen und silben hätte mir geholfen, weil das erste Paar von Zeichen und Silbe so schnell wieder weg war, dass ich beides nicht gesehen habe. Danach war das kein Problem mehr, weil ich wusste was passiert. 

Sonst sehr interessant. Ich werde versuchen zu recherchieren, was die Zeichen wirklich bedeuten. :)","0","1","0","null","","","<div class = 'row'><div class = 'column'><img src = 'usneg/6212.bmp' width = '100%;'></div><div class = 'column'><img src = 'category3/CS4.png' width = '70%;'></div></div>","null","neg","CS","CS","3","category3/CS4.png","","","","",""
"","html-keyboard-response","60","277413","0.0-6.0-4.0-0.12","mjw6wchufp","one_one","1","direct_first","1","wy06ck23","0","24","1","1","3","1","Ein Probedurchlauf bei dem Teil mit Zeichen und silben hätte mir geholfen, weil das erste Paar von Zeichen und Silbe so schnell wieder weg war, dass ich beides nicht gesehen habe. Danach war das kein Problem mehr, weil ich wusste was passiert. 

Sonst sehr interessant. Ich werde versuchen zu recherchieren, was die Zeichen wirklich bedeuten. :)","0","1","0","null","","","<div class = 'row'><div class = 'column'><img src = 'usneg/9181.bmp' width = '100%;'></div><div class = 'column'><img src = 'category4/CS9.png' width = '70%;'></div></div>","null","neg","CS","CS","4","category4/CS9.png","","","","",""
"","html-keyboard-response","61","279924","0.0-6.0-4.0-0.13","mjw6wchufp","one_one","1","direct_first","1","wy06ck23","0","24","1","1","3","1","Ein Probedurchlauf bei dem Teil mit Zeichen und silben hätte mir geholfen, weil das erste Paar von Zeichen und Silbe so schnell wieder weg war, dass ich beides nicht gesehen habe. Danach war das kein Problem mehr, weil ich wusste was passiert. 

Sonst sehr interessant. Ich werde versuchen zu recherchieren, was die Zeichen wirklich bedeuten. :)","0","1","0","null","","","<div class = 'row'><div class = 'column'><img src = 'category1/CS7.png' width = '70%;'></div><div class = 'column'><img src = 'uspos/7325.bmp' width = '100%;'></div></div>","null","pos","CS","CS","1","category1/CS7.png","","","","",""
"","html-keyboard-response","62","282438","0.0-6.0-4.0-0.14","mjw6wchufp","one_one","1","direct_first","1","wy06ck23","0","24","1","1","3","1","Ein Probedurchlauf bei dem Teil mit Zeichen und silben hätte mir geholfen, weil das erste Paar von Zeichen und Silbe so schnell wieder weg war, dass ich beides nicht gesehen habe. Danach war das kein Problem mehr, weil ich wusste was passiert. 

Sonst sehr interessant. Ich werde versuchen zu recherchieren, was die Zeichen wirklich bedeuten. :)","0","1","0","null","","","<div class = 'row'><div class = 'column'><img src = 'category2/CS6.png' width = '70%;'></div><div class = 'column'><img src = 'uspos/2311.bmp' width = '100%;'></div></div>","null","pos","CS","CS","2","category2/CS6.png","","","","",""
"","html-keyboard-response","63","284956","0.0-6.0-4.0-0.15","mjw6wchufp","one_one","1","direct_first","1","wy06ck23","0","24","1","1","3","1","Ein Probedurchlauf bei dem Teil mit Zeichen und silben hätte mir geholfen, weil das erste Paar von Zeichen und Silbe so schnell wieder weg war, dass ich beides nicht gesehen habe. Danach war das kein Problem mehr, weil ich wusste was passiert. 

Sonst sehr interessant. Ich werde versuchen zu recherchieren, was die Zeichen wirklich bedeuten. :)","0","1","0","null","","","<div class = 'row'><div class = 'column'><img src = 'category3/CS4.png' width = '70%;'></div><div class = 'column'><img src = 'usneg/6212.bmp' width = '100%;'></div></div>","null","neg","CS","CS","3","category3/CS4.png","","","","",""
"","html-keyboard-response","64","287473","0.0-6.0-4.0-0.16","mjw6wchufp","one_one","1","direct_first","1","wy06ck23","0","24","1","1","3","1","Ein Probedurchlauf bei dem Teil mit Zeichen und silben hätte mir geholfen, weil das erste Paar von Zeichen und Silbe so schnell wieder weg war, dass ich beides nicht gesehen habe. Danach war das kein Problem mehr, weil ich wusste was passiert. 

Sonst sehr interessant. Ich werde versuchen zu recherchieren, was die Zeichen wirklich bedeuten. :)","0","1","0","null","","","<div class = 'row'><div class = 'column'><img src = 'uspos/7325.bmp' width = '100%;'></div><div class = 'column'><img src = 'category1/CS7.png' width = '70%;'></div></div>","null","pos","CS","CS","1","category1/CS7.png","","","","",""
"","html-keyboard-response","65","289985","0.0-6.0-4.0-0.17","mjw6wchufp","one_one","1","direct_first","1","wy06ck23","0","24","1","1","3","1","Ein Probedurchlauf bei dem Teil mit Zeichen und silben hätte mir geholfen, weil das erste Paar von Zeichen und Silbe so schnell wieder weg war, dass ich beides nicht gesehen habe. Danach war das kein Problem mehr, weil ich wusste was passiert. 

Sonst sehr interessant. Ich werde versuchen zu recherchieren, was die Zeichen wirklich bedeuten. :)","0","1","0","null","","","<div class = 'row'><div class = 'column'><img src = 'category2/CS6.png' width = '70%;'></div><div class = 'column'><img src = 'uspos/2311.bmp' width = '100%;'></div></div>","null","pos","CS","CS","2","category2/CS6.png","","","","",""
"","html-keyboard-response","66","292500","0.0-6.0-4.0-0.18","mjw6wchufp","one_one","1","direct_first","1","wy06ck23","0","24","1","1","3","1","Ein Probedurchlauf bei dem Teil mit Zeichen und silben hätte mir geholfen, weil das erste Paar von Zeichen und Silbe so schnell wieder weg war, dass ich beides nicht gesehen habe. Danach war das kein Problem mehr, weil ich wusste was passiert. 

Sonst sehr interessant. Ich werde versuchen zu recherchieren, was die Zeichen wirklich bedeuten. :)","0","1","0","null","","","<div class = 'row'><div class = 'column'><img src = 'usneg/6212.bmp' width = '100%;'></div><div class = 'column'><img src = 'category3/CS4.png' width = '70%;'></div></div>","null","neg","CS","CS","3","category3/CS4.png","","","","",""
"","html-keyboard-response","67","295019","0.0-6.0-4.0-0.19","mjw6wchufp","one_one","1","direct_first","1","wy06ck23","0","24","1","1","3","1","Ein Probedurchlauf bei dem Teil mit Zeichen und silben hätte mir geholfen, weil das erste Paar von Zeichen und Silbe so schnell wieder weg war, dass ich beides nicht gesehen habe. Danach war das kein Problem mehr, weil ich wusste was passiert. 

Sonst sehr interessant. Ich werde versuchen zu recherchieren, was die Zeichen wirklich bedeuten. :)","0","1","0","null","","","<div class = 'row'><div class = 'column'><img src = 'uspos/7325.bmp' width = '100%;'></div><div class = 'column'><img src = 'category1/CS7.png' width = '70%;'></div></div>","null","pos","CS","CS","1","category1/CS7.png","","","","",""
"","survey-html-form","68","300245","0.0-6.0-5.0","mjw6wchufp","one_one","1","direct_first","1","wy06ck23","0","24","1","1","3","1","Ein Probedurchlauf bei dem Teil mit Zeichen und silben hätte mir geholfen, weil das erste Paar von Zeichen und Silbe so schnell wieder weg war, dass ich beides nicht gesehen habe. Danach war das kein Problem mehr, weil ich wusste was passiert. 

Sonst sehr interessant. Ich werde versuchen zu recherchieren, was die Zeichen wirklich bedeuten. :)","0","1","0","4725","","{}","","","","","","","","","","","",""
"","html-keyboard-response","69","304256","0.0-6.0-6.0-0.0","mjw6wchufp","one_one","1","direct_first","1","wy06ck23","0","24","1","1","3","1","Ein Probedurchlauf bei dem Teil mit Zeichen und silben hätte mir geholfen, weil das erste Paar von Zeichen und Silbe so schnell wieder weg war, dass ich beides nicht gesehen habe. Danach war das kein Problem mehr, weil ich wusste was passiert. 

Sonst sehr interessant. Ich werde versuchen zu recherchieren, was die Zeichen wirklich bedeuten. :)","0","1","0","null","","","<div class = 'row'><div class = 'column'><img src = 'category3/CS4.png' width = '70%;'></div><div class = 'column'><img src = 'usneg/6212.bmp' width = '100%;'></div></div>","null","neg","CS","CS","3","category3/CS4.png","","","","",""
"","html-keyboard-response","70","306762","0.0-6.0-6.0-0.1","mjw6wchufp","one_one","1","direct_first","1","wy06ck23","0","24","1","1","3","1","Ein Probedurchlauf bei dem Teil mit Zeichen und silben hätte mir geholfen, weil das erste Paar von Zeichen und Silbe so schnell wieder weg war, dass ich beides nicht gesehen habe. Danach war das kein Problem mehr, weil ich wusste was passiert. 

Sonst sehr interessant. Ich werde versuchen zu recherchieren, was die Zeichen wirklich bedeuten. :)","0","1","0","null","","","<div class = 'row'><div class = 'column'><img src = 'uspos/2311.bmp' width = '100%;'></div><div class = 'column'><img src = 'category2/CS6.png' width = '70%;'></div></div>","null","pos","CS","CS","2","category2/CS6.png","","","","",""
"","html-keyboard-response","71","309278","0.0-6.0-6.0-0.2","mjw6wchufp","one_one","1","direct_first","1","wy06ck23","0","24","1","1","3","1","Ein Probedurchlauf bei dem Teil mit Zeichen und silben hätte mir geholfen, weil das erste Paar von Zeichen und Silbe so schnell wieder weg war, dass ich beides nicht gesehen habe. Danach war das kein Problem mehr, weil ich wusste was passiert. 

Sonst sehr interessant. Ich werde versuchen zu recherchieren, was die Zeichen wirklich bedeuten. :)","0","1","0","null","","","<div class = 'row'><div class = 'column'><img src = 'category4/CS9.png' width = '70%;'></div><div class = 'column'><img src = 'usneg/9181.bmp' width = '100%;'></div></div>","null","neg","CS","CS","4","category4/CS9.png","","","","",""
"","html-keyboard-response","72","311794","0.0-6.0-6.0-0.3","mjw6wchufp","one_one","1","direct_first","1","wy06ck23","0","24","1","1","3","1","Ein Probedurchlauf bei dem Teil mit Zeichen und silben hätte mir geholfen, weil das erste Paar von Zeichen und Silbe so schnell wieder weg war, dass ich beides nicht gesehen habe. Danach war das kein Problem mehr, weil ich wusste was passiert. 

Sonst sehr interessant. Ich werde versuchen zu recherchieren, was die Zeichen wirklich bedeuten. :)","0","1","0","null","","","<div class = 'row'><div class = 'column'><img src = 'category3/CS4.png' width = '70%;'></div><div class = 'column'><img src = 'usneg/6212.bmp' width = '100%;'></div></div>","null","neg","CS","CS","3","category3/CS4.png","","","","",""
"","html-keyboard-response","73","314312","0.0-6.0-6.0-0.4","mjw6wchufp","one_one","1","direct_first","1","wy06ck23","0","24","1","1","3","1","Ein Probedurchlauf bei dem Teil mit Zeichen und silben hätte mir geholfen, weil das erste Paar von Zeichen und Silbe so schnell wieder weg war, dass ich beides nicht gesehen habe. Danach war das kein Problem mehr, weil ich wusste was passiert. 

Sonst sehr interessant. Ich werde versuchen zu recherchieren, was die Zeichen wirklich bedeuten. :)","0","1","0","null","","","<div class = 'row'><div class = 'column'><img src = 'usneg/9181.bmp' width = '100%;'></div><div class = 'column'><img src = 'category4/CS9.png' width = '70%;'></div></div>","null","neg","CS","CS","4","category4/CS9.png","","","","",""
"","html-keyboard-response","74","316822","0.0-6.0-6.0-0.5","mjw6wchufp","one_one","1","direct_first","1","wy06ck23","0","24","1","1","3","1","Ein Probedurchlauf bei dem Teil mit Zeichen und silben hätte mir geholfen, weil das erste Paar von Zeichen und Silbe so schnell wieder weg war, dass ich beides nicht gesehen habe. Danach war das kein Problem mehr, weil ich wusste was passiert. 

Sonst sehr interessant. Ich werde versuchen zu recherchieren, was die Zeichen wirklich bedeuten. :)","0","1","0","null","","","<div class = 'row'><div class = 'column'><img src = 'uspos/2311.bmp' width = '100%;'></div><div class = 'column'><img src = 'category2/CS6.png' width = '70%;'></div></div>","null","pos","CS","CS","2","category2/CS6.png","","","","",""
"","html-keyboard-response","75","319337","0.0-6.0-6.0-0.6","mjw6wchufp","one_one","1","direct_first","1","wy06ck23","0","24","1","1","3","1","Ein Probedurchlauf bei dem Teil mit Zeichen und silben hätte mir geholfen, weil das erste Paar von Zeichen und Silbe so schnell wieder weg war, dass ich beides nicht gesehen habe. Danach war das kein Problem mehr, weil ich wusste was passiert. 

Sonst sehr interessant. Ich werde versuchen zu recherchieren, was die Zeichen wirklich bedeuten. :)","0","1","0","null","","","<div class = 'row'><div class = 'column'><img src = 'category1/CS7.png' width = '70%;'></div><div class = 'column'><img src = 'uspos/7325.bmp' width = '100%;'></div></div>","null","pos","CS","CS","1","category1/CS7.png","","","","",""
"","html-keyboard-response","76","321855","0.0-6.0-6.0-0.7","mjw6wchufp","one_one","1","direct_first","1","wy06ck23","0","24","1","1","3","1","Ein Probedurchlauf bei dem Teil mit Zeichen und silben hätte mir geholfen, weil das erste Paar von Zeichen und Silbe so schnell wieder weg war, dass ich beides nicht gesehen habe. Danach war das kein Problem mehr, weil ich wusste was passiert. 

Sonst sehr interessant. Ich werde versuchen zu recherchieren, was die Zeichen wirklich bedeuten. :)","0","1","0","null","","","<div class = 'row'><div class = 'column'><img src = 'usneg/6212.bmp' width = '100%;'></div><div class = 'column'><img src = 'category3/CS4.png' width = '70%;'></div></div>","null","neg","CS","CS","3","category3/CS4.png","","","","",""
"","html-keyboard-response","77","324376","0.0-6.0-6.0-0.8","mjw6wchufp","one_one","1","direct_first","1","wy06ck23","0","24","1","1","3","1","Ein Probedurchlauf bei dem Teil mit Zeichen und silben hätte mir geholfen, weil das erste Paar von Zeichen und Silbe so schnell wieder weg war, dass ich beides nicht gesehen habe. Danach war das kein Problem mehr, weil ich wusste was passiert. 

Sonst sehr interessant. Ich werde versuchen zu recherchieren, was die Zeichen wirklich bedeuten. :)","0","1","0","null","","","<div class = 'row'><div class = 'column'><img src = 'usneg/9181.bmp' width = '100%;'></div><div class = 'column'><img src = 'category4/CS9.png' width = '70%;'></div></div>","null","neg","CS","CS","4","category4/CS9.png","","","","",""
"","html-keyboard-response","78","326896","0.0-6.0-6.0-0.9","mjw6wchufp","one_one","1","direct_first","1","wy06ck23","0","24","1","1","3","1","Ein Probedurchlauf bei dem Teil mit Zeichen und silben hätte mir geholfen, weil das erste Paar von Zeichen und Silbe so schnell wieder weg war, dass ich beides nicht gesehen habe. Danach war das kein Problem mehr, weil ich wusste was passiert. 

Sonst sehr interessant. Ich werde versuchen zu recherchieren, was die Zeichen wirklich bedeuten. :)","0","1","0","null","","","<div class = 'row'><div class = 'column'><img src = 'usneg/6212.bmp' width = '100%;'></div><div class = 'column'><img src = 'category3/CS4.png' width = '70%;'></div></div>","null","neg","CS","CS","3","category3/CS4.png","","","","",""
"","html-keyboard-response","79","329413","0.0-6.0-6.0-0.10","mjw6wchufp","one_one","1","direct_first","1","wy06ck23","0","24","1","1","3","1","Ein Probedurchlauf bei dem Teil mit Zeichen und silben hätte mir geholfen, weil das erste Paar von Zeichen und Silbe so schnell wieder weg war, dass ich beides nicht gesehen habe. Danach war das kein Problem mehr, weil ich wusste was passiert. 

Sonst sehr interessant. Ich werde versuchen zu recherchieren, was die Zeichen wirklich bedeuten. :)","0","1","0","null","","","<div class = 'row'><div class = 'column'><img src = 'category1/CS7.png' width = '70%;'></div><div class = 'column'><img src = 'uspos/7325.bmp' width = '100%;'></div></div>","null","pos","CS","CS","1","category1/CS7.png","","","","",""
"","html-keyboard-response","80","331934","0.0-6.0-6.0-0.11","mjw6wchufp","one_one","1","direct_first","1","wy06ck23","0","24","1","1","3","1","Ein Probedurchlauf bei dem Teil mit Zeichen und silben hätte mir geholfen, weil das erste Paar von Zeichen und Silbe so schnell wieder weg war, dass ich beides nicht gesehen habe. Danach war das kein Problem mehr, weil ich wusste was passiert. 

Sonst sehr interessant. Ich werde versuchen zu recherchieren, was die Zeichen wirklich bedeuten. :)","0","1","0","null","","","<div class = 'row'><div class = 'column'><img src = 'uspos/2311.bmp' width = '100%;'></div><div class = 'column'><img src = 'category2/CS6.png' width = '70%;'></div></div>","null","pos","CS","CS","2","category2/CS6.png","","","","",""
"","html-keyboard-response","81","334446","0.0-6.0-6.0-0.12","mjw6wchufp","one_one","1","direct_first","1","wy06ck23","0","24","1","1","3","1","Ein Probedurchlauf bei dem Teil mit Zeichen und silben hätte mir geholfen, weil das erste Paar von Zeichen und Silbe so schnell wieder weg war, dass ich beides nicht gesehen habe. Danach war das kein Problem mehr, weil ich wusste was passiert. 

Sonst sehr interessant. Ich werde versuchen zu recherchieren, was die Zeichen wirklich bedeuten. :)","0","1","0","null","","","<div class = 'row'><div class = 'column'><img src = 'category4/CS9.png' width = '70%;'></div><div class = 'column'><img src = 'usneg/9181.bmp' width = '100%;'></div></div>","null","neg","CS","CS","4","category4/CS9.png","","","","",""
"","html-keyboard-response","82","336964","0.0-6.0-6.0-0.13","mjw6wchufp","one_one","1","direct_first","1","wy06ck23","0","24","1","1","3","1","Ein Probedurchlauf bei dem Teil mit Zeichen und silben hätte mir geholfen, weil das erste Paar von Zeichen und Silbe so schnell wieder weg war, dass ich beides nicht gesehen habe. Danach war das kein Problem mehr, weil ich wusste was passiert. 

Sonst sehr interessant. Ich werde versuchen zu recherchieren, was die Zeichen wirklich bedeuten. :)","0","1","0","null","","","<div class = 'row'><div class = 'column'><img src = 'category1/CS7.png' width = '70%;'></div><div class = 'column'><img src = 'uspos/7325.bmp' width = '100%;'></div></div>","null","pos","CS","CS","1","category1/CS7.png","","","","",""
"","html-keyboard-response","83","339470","0.0-6.0-6.0-0.14","mjw6wchufp","one_one","1","direct_first","1","wy06ck23","0","24","1","1","3","1","Ein Probedurchlauf bei dem Teil mit Zeichen und silben hätte mir geholfen, weil das erste Paar von Zeichen und Silbe so schnell wieder weg war, dass ich beides nicht gesehen habe. Danach war das kein Problem mehr, weil ich wusste was passiert. 

Sonst sehr interessant. Ich werde versuchen zu recherchieren, was die Zeichen wirklich bedeuten. :)","0","1","0","null","","","<div class = 'row'><div class = 'column'><img src = 'category2/CS6.png' width = '70%;'></div><div class = 'column'><img src = 'uspos/2311.bmp' width = '100%;'></div></div>","null","pos","CS","CS","2","category2/CS6.png","","","","",""
"","html-keyboard-response","84","341977","0.0-6.0-6.0-0.15","mjw6wchufp","one_one","1","direct_first","1","wy06ck23","0","24","1","1","3","1","Ein Probedurchlauf bei dem Teil mit Zeichen und silben hätte mir geholfen, weil das erste Paar von Zeichen und Silbe so schnell wieder weg war, dass ich beides nicht gesehen habe. Danach war das kein Problem mehr, weil ich wusste was passiert. 

Sonst sehr interessant. Ich werde versuchen zu recherchieren, was die Zeichen wirklich bedeuten. :)","0","1","0","null","","","<div class = 'row'><div class = 'column'><img src = 'category1/CS7.png' width = '70%;'></div><div class = 'column'><img src = 'uspos/7325.bmp' width = '100%;'></div></div>","null","pos","CS","CS","1","category1/CS7.png","","","","",""
"","html-keyboard-response","85","344493","0.0-6.0-6.0-0.16","mjw6wchufp","one_one","1","direct_first","1","wy06ck23","0","24","1","1","3","1","Ein Probedurchlauf bei dem Teil mit Zeichen und silben hätte mir geholfen, weil das erste Paar von Zeichen und Silbe so schnell wieder weg war, dass ich beides nicht gesehen habe. Danach war das kein Problem mehr, weil ich wusste was passiert. 

Sonst sehr interessant. Ich werde versuchen zu recherchieren, was die Zeichen wirklich bedeuten. :)","0","1","0","null","","","<div class = 'row'><div class = 'column'><img src = 'usneg/9181.bmp' width = '100%;'></div><div class = 'column'><img src = 'category4/CS9.png' width = '70%;'></div></div>","null","neg","CS","CS","4","category4/CS9.png","","","","",""
"","html-keyboard-response","86","347009","0.0-6.0-6.0-0.17","mjw6wchufp","one_one","1","direct_first","1","wy06ck23","0","24","1","1","3","1","Ein Probedurchlauf bei dem Teil mit Zeichen und silben hätte mir geholfen, weil das erste Paar von Zeichen und Silbe so schnell wieder weg war, dass ich beides nicht gesehen habe. Danach war das kein Problem mehr, weil ich wusste was passiert. 

Sonst sehr interessant. Ich werde versuchen zu recherchieren, was die Zeichen wirklich bedeuten. :)","0","1","0","null","","","<div class = 'row'><div class = 'column'><img src = 'category3/CS4.png' width = '70%;'></div><div class = 'column'><img src = 'usneg/6212.bmp' width = '100%;'></div></div>","null","neg","CS","CS","3","category3/CS4.png","","","","",""
"","html-keyboard-response","87","349531","0.0-6.0-6.0-0.18","mjw6wchufp","one_one","1","direct_first","1","wy06ck23","0","24","1","1","3","1","Ein Probedurchlauf bei dem Teil mit Zeichen und silben hätte mir geholfen, weil das erste Paar von Zeichen und Silbe so schnell wieder weg war, dass ich beides nicht gesehen habe. Danach war das kein Problem mehr, weil ich wusste was passiert. 

Sonst sehr interessant. Ich werde versuchen zu recherchieren, was die Zeichen wirklich bedeuten. :)","0","1","0","null","","","<div class = 'row'><div class = 'column'><img src = 'uspos/7325.bmp' width = '100%;'></div><div class = 'column'><img src = 'category1/CS7.png' width = '70%;'></div></div>","null","pos","CS","CS","1","category1/CS7.png","","","","",""
"","html-keyboard-response","88","352040","0.0-6.0-6.0-0.19","mjw6wchufp","one_one","1","direct_first","1","wy06ck23","0","24","1","1","3","1","Ein Probedurchlauf bei dem Teil mit Zeichen und silben hätte mir geholfen, weil das erste Paar von Zeichen und Silbe so schnell wieder weg war, dass ich beides nicht gesehen habe. Danach war das kein Problem mehr, weil ich wusste was passiert. 

Sonst sehr interessant. Ich werde versuchen zu recherchieren, was die Zeichen wirklich bedeuten. :)","0","1","0","null","","","<div class = 'row'><div class = 'column'><img src = 'category2/CS6.png' width = '70%;'></div><div class = 'column'><img src = 'uspos/2311.bmp' width = '100%;'></div></div>","null","pos","CS","CS","2","category2/CS6.png","","","","",""
"","survey-html-form","89","367357","0.0-7.0","mjw6wchufp","one_one","1","direct_first","1","wy06ck23","0","24","1","1","3","1","Ein Probedurchlauf bei dem Teil mit Zeichen und silben hätte mir geholfen, weil das erste Paar von Zeichen und Silbe so schnell wieder weg war, dass ich beides nicht gesehen habe. Danach war das kein Problem mehr, weil ich wusste was passiert. 

Sonst sehr interessant. Ich werde versuchen zu recherchieren, was die Zeichen wirklich bedeuten. :)","0","1","0","14809","","{}","","","","","","","","","","","",""
"","image-slider-response","90","382365","0.0-8.0-0.0","mjw6wchufp","one_one","1","direct_first","1","wy06ck23","0","24","1","1","3","1","Ein Probedurchlauf bei dem Teil mit Zeichen und silben hätte mir geholfen, weil das erste Paar von Zeichen und Silbe so schnell wieder weg war, dass ich beides nicht gesehen habe. Danach war das kein Problem mehr, weil ich wusste was passiert. 

Sonst sehr interessant. Ich werde versuchen zu recherchieren, was die Zeichen wirklich bedeuten. :)","0","1","0","12994","","","","","pos","GS","GSnew","1","category1/GS2.png","31","targets/44.png","direct","",""
"","image-slider-response","91","391188","0.0-8.0-0.1","mjw6wchufp","one_one","1","direct_first","1","wy06ck23","0","24","1","1","3","1","Ein Probedurchlauf bei dem Teil mit Zeichen und silben hätte mir geholfen, weil das erste Paar von Zeichen und Silbe so schnell wieder weg war, dass ich beides nicht gesehen habe. Danach war das kein Problem mehr, weil ich wusste was passiert. 

Sonst sehr interessant. Ich werde versuchen zu recherchieren, was die Zeichen wirklich bedeuten. :)","0","1","0","8820","","","","","neg","GS","GSold","4","category4/CS5.png","-40","targets/25.png","direct","",""
"","image-slider-response","92","400065","0.0-8.0-0.2","mjw6wchufp","one_one","1","direct_first","1","wy06ck23","0","24","1","1","3","1","Ein Probedurchlauf bei dem Teil mit Zeichen und silben hätte mir geholfen, weil das erste Paar von Zeichen und Silbe so schnell wieder weg war, dass ich beides nicht gesehen habe. Danach war das kein Problem mehr, weil ich wusste was passiert. 

Sonst sehr interessant. Ich werde versuchen zu recherchieren, was die Zeichen wirklich bedeuten. :)","0","1","0","8875","","","","","neg","GS","GSold","3","category3/CS9.png","-64","targets/14.png","direct","",""
"","image-slider-response","93","406667","0.0-8.0-0.3","mjw6wchufp","one_one","1","direct_first","1","wy06ck23","0","24","1","1","3","1","Ein Probedurchlauf bei dem Teil mit Zeichen und silben hätte mir geholfen, weil das erste Paar von Zeichen und Silbe so schnell wieder weg war, dass ich beides nicht gesehen habe. Danach war das kein Problem mehr, weil ich wusste was passiert. 

Sonst sehr interessant. Ich werde versuchen zu recherchieren, was die Zeichen wirklich bedeuten. :)","0","1","0","6599","","","","","neg","GS","GSold","3","category3/CS10.png","-66","targets/5.png","direct","",""
"","image-slider-response","94","412301","0.0-8.0-0.4","mjw6wchufp","one_one","1","direct_first","1","wy06ck23","0","24","1","1","3","1","Ein Probedurchlauf bei dem Teil mit Zeichen und silben hätte mir geholfen, weil das erste Paar von Zeichen und Silbe so schnell wieder weg war, dass ich beides nicht gesehen habe. Danach war das kein Problem mehr, weil ich wusste was passiert. 

Sonst sehr interessant. Ich werde versuchen zu recherchieren, was die Zeichen wirklich bedeuten. :)","0","1","0","5633","","","","","pos","GS","GSold","2","category2/CS3.png","88","targets/36.png","direct","",""
"","image-slider-response","95","416824","0.0-8.0-0.5","mjw6wchufp","one_one","1","direct_first","1","wy06ck23","0","24","1","1","3","1","Ein Probedurchlauf bei dem Teil mit Zeichen und silben hätte mir geholfen, weil das erste Paar von Zeichen und Silbe so schnell wieder weg war, dass ich beides nicht gesehen habe. Danach war das kein Problem mehr, weil ich wusste was passiert. 

Sonst sehr interessant. Ich werde versuchen zu recherchieren, was die Zeichen wirklich bedeuten. :)","0","1","0","4520","","","","","neg","GS","GSold","4","category4/CS1.png","-43","targets/18.png","direct","",""
"","image-slider-response","96","423153","0.0-8.0-0.6","mjw6wchufp","one_one","1","direct_first","1","wy06ck23","0","24","1","1","3","1","Ein Probedurchlauf bei dem Teil mit Zeichen und silben hätte mir geholfen, weil das erste Paar von Zeichen und Silbe so schnell wieder weg war, dass ich beides nicht gesehen habe. Danach war das kein Problem mehr, weil ich wusste was passiert. 

Sonst sehr interessant. Ich werde versuchen zu recherchieren, was die Zeichen wirklich bedeuten. :)","0","1","0","6328","","","","","pos","GS","GSnew","2","category2/GS2.png","-20","targets/8.png","direct","",""
"","image-slider-response","97","429074","0.0-8.0-0.7","mjw6wchufp","one_one","1","direct_first","1","wy06ck23","0","24","1","1","3","1","Ein Probedurchlauf bei dem Teil mit Zeichen und silben hätte mir geholfen, weil das erste Paar von Zeichen und Silbe so schnell wieder weg war, dass ich beides nicht gesehen habe. Danach war das kein Problem mehr, weil ich wusste was passiert. 

Sonst sehr interessant. Ich werde versuchen zu recherchieren, was die Zeichen wirklich bedeuten. :)","0","1","0","5917","","","","","neg","GS","GSnew","4","category4/GS3.png","-60","targets/20.png","direct","",""
"","image-slider-response","98","441465","0.0-8.0-0.8","mjw6wchufp","one_one","1","direct_first","1","wy06ck23","0","24","1","1","3","1","Ein Probedurchlauf bei dem Teil mit Zeichen und silben hätte mir geholfen, weil das erste Paar von Zeichen und Silbe so schnell wieder weg war, dass ich beides nicht gesehen habe. Danach war das kein Problem mehr, weil ich wusste was passiert. 

Sonst sehr interessant. Ich werde versuchen zu recherchieren, was die Zeichen wirklich bedeuten. :)","0","1","0","12389","","","","","neg","GS","GSnew","3","category3/GS2.png","14","targets/47.png","direct","",""
"","image-slider-response","99","450080","0.0-8.0-0.9","mjw6wchufp","one_one","1","direct_first","1","wy06ck23","0","24","1","1","3","1","Ein Probedurchlauf bei dem Teil mit Zeichen und silben hätte mir geholfen, weil das erste Paar von Zeichen und Silbe so schnell wieder weg war, dass ich beides nicht gesehen habe. Danach war das kein Problem mehr, weil ich wusste was passiert. 

Sonst sehr interessant. Ich werde versuchen zu recherchieren, was die Zeichen wirklich bedeuten. :)","0","1","0","8613","","","","","pos","GS","GSnew","1","category1/GS1.png","-63","targets/41.png","direct","",""
"","image-slider-response","100","458345","0.0-8.0-0.10","mjw6wchufp","one_one","1","direct_first","1","wy06ck23","0","24","1","1","3","1","Ein Probedurchlauf bei dem Teil mit Zeichen und silben hätte mir geholfen, weil das erste Paar von Zeichen und Silbe so schnell wieder weg war, dass ich beides nicht gesehen habe. Danach war das kein Problem mehr, weil ich wusste was passiert. 

Sonst sehr interessant. Ich werde versuchen zu recherchieren, was die Zeichen wirklich bedeuten. :)","0","1","0","8264","","","","","neg","GS","GSnew","4","category4/GS1.png","-40","targets/31.png","direct","",""
"","image-slider-response","101","465086","0.0-8.0-0.11","mjw6wchufp","one_one","1","direct_first","1","wy06ck23","0","24","1","1","3","1","Ein Probedurchlauf bei dem Teil mit Zeichen und silben hätte mir geholfen, weil das erste Paar von Zeichen und Silbe so schnell wieder weg war, dass ich beides nicht gesehen habe. Danach war das kein Problem mehr, weil ich wusste was passiert. 

Sonst sehr interessant. Ich werde versuchen zu recherchieren, was die Zeichen wirklich bedeuten. :)","0","1","0","6739","","","","","pos","GS","abstract","1","category1/ma.png","-26","targets/32.png","direct","",""
"","image-slider-response","102","471573","0.0-8.0-0.12","mjw6wchufp","one_one","1","direct_first","1","wy06ck23","0","24","1","1","3","1","Ein Probedurchlauf bei dem Teil mit Zeichen und silben hätte mir geholfen, weil das erste Paar von Zeichen und Silbe so schnell wieder weg war, dass ich beides nicht gesehen habe. Danach war das kein Problem mehr, weil ich wusste was passiert. 

Sonst sehr interessant. Ich werde versuchen zu recherchieren, was die Zeichen wirklich bedeuten. :)","0","1","0","6484","","","","","neg","GS","GSnew","3","category3/GS3.png","-28","targets/38.png","direct","",""
"","image-slider-response","103","479003","0.0-8.0-0.13","mjw6wchufp","one_one","1","direct_first","1","wy06ck23","0","24","1","1","3","1","Ein Probedurchlauf bei dem Teil mit Zeichen und silben hätte mir geholfen, weil das erste Paar von Zeichen und Silbe so schnell wieder weg war, dass ich beides nicht gesehen habe. Danach war das kein Problem mehr, weil ich wusste was passiert. 

Sonst sehr interessant. Ich werde versuchen zu recherchieren, was die Zeichen wirklich bedeuten. :)","0","1","0","7427","","","","","pos","GS","abstract","2","category2/men.png","70","targets/13.png","direct","",""
"","image-slider-response","104","483384","0.0-8.0-0.14","mjw6wchufp","one_one","1","direct_first","1","wy06ck23","0","24","1","1","3","1","Ein Probedurchlauf bei dem Teil mit Zeichen und silben hätte mir geholfen, weil das erste Paar von Zeichen und Silbe so schnell wieder weg war, dass ich beides nicht gesehen habe. Danach war das kein Problem mehr, weil ich wusste was passiert. 

Sonst sehr interessant. Ich werde versuchen zu recherchieren, was die Zeichen wirklich bedeuten. :)","0","1","0","4378","","","","","pos","GS","GSold","2","category2/CS5.png","77","targets/24.png","direct","",""
"","image-slider-response","105","491882","0.0-8.0-0.15","mjw6wchufp","one_one","1","direct_first","1","wy06ck23","0","24","1","1","3","1","Ein Probedurchlauf bei dem Teil mit Zeichen und silben hätte mir geholfen, weil das erste Paar von Zeichen und Silbe so schnell wieder weg war, dass ich beides nicht gesehen habe. Danach war das kein Problem mehr, weil ich wusste was passiert. 

Sonst sehr interessant. Ich werde versuchen zu recherchieren, was die Zeichen wirklich bedeuten. :)","0","1","0","8496","","","","","neg","GS","GSold","4","category4/CS8.png","-2","targets/30.png","direct","",""
"","image-slider-response","106","496480","0.0-8.0-0.16","mjw6wchufp","one_one","1","direct_first","1","wy06ck23","0","24","1","1","3","1","Ein Probedurchlauf bei dem Teil mit Zeichen und silben hätte mir geholfen, weil das erste Paar von Zeichen und Silbe so schnell wieder weg war, dass ich beides nicht gesehen habe. Danach war das kein Problem mehr, weil ich wusste was passiert. 

Sonst sehr interessant. Ich werde versuchen zu recherchieren, was die Zeichen wirklich bedeuten. :)","0","1","0","4596","","","","","neg","CS","CS","3","category3/CS4.png","-96","targets/7.png","direct","",""
"","image-slider-response","107","502649","0.0-8.0-0.17","mjw6wchufp","one_one","1","direct_first","1","wy06ck23","0","24","1","1","3","1","Ein Probedurchlauf bei dem Teil mit Zeichen und silben hätte mir geholfen, weil das erste Paar von Zeichen und Silbe so schnell wieder weg war, dass ich beides nicht gesehen habe. Danach war das kein Problem mehr, weil ich wusste was passiert. 

Sonst sehr interessant. Ich werde versuchen zu recherchieren, was die Zeichen wirklich bedeuten. :)","0","1","0","6166","","","","","neg","GS","abstract","3","category3/wang.png","-17","targets/9.png","direct","",""
"","image-slider-response","108","509475","0.0-8.0-0.18","mjw6wchufp","one_one","1","direct_first","1","wy06ck23","0","24","1","1","3","1","Ein Probedurchlauf bei dem Teil mit Zeichen und silben hätte mir geholfen, weil das erste Paar von Zeichen und Silbe so schnell wieder weg war, dass ich beides nicht gesehen habe. Danach war das kein Problem mehr, weil ich wusste was passiert. 

Sonst sehr interessant. Ich werde versuchen zu recherchieren, was die Zeichen wirklich bedeuten. :)","0","1","0","6823","","","","","neg","GS","GSnew","4","category4/GS2.png","19","targets/42.png","direct","",""
"","image-slider-response","109","513648","0.0-8.0-0.19","mjw6wchufp","one_one","1","direct_first","1","wy06ck23","0","24","1","1","3","1","Ein Probedurchlauf bei dem Teil mit Zeichen und silben hätte mir geholfen, weil das erste Paar von Zeichen und Silbe so schnell wieder weg war, dass ich beides nicht gesehen habe. Danach war das kein Problem mehr, weil ich wusste was passiert. 

Sonst sehr interessant. Ich werde versuchen zu recherchieren, was die Zeichen wirklich bedeuten. :)","0","1","0","4172","","","","","pos","GS","GSold","1","category1/CS8.png","6","targets/1.png","direct","",""
"","image-slider-response","110","517542","0.0-8.0-0.20","mjw6wchufp","one_one","1","direct_first","1","wy06ck23","0","24","1","1","3","1","Ein Probedurchlauf bei dem Teil mit Zeichen und silben hätte mir geholfen, weil das erste Paar von Zeichen und Silbe so schnell wieder weg war, dass ich beides nicht gesehen habe. Danach war das kein Problem mehr, weil ich wusste was passiert. 

Sonst sehr interessant. Ich werde versuchen zu recherchieren, was die Zeichen wirklich bedeuten. :)","0","1","0","3891","","","","","pos","CS","CS","1","category1/CS7.png","56","targets/28.png","direct","",""
"","image-slider-response","111","522984","0.0-8.0-0.21","mjw6wchufp","one_one","1","direct_first","1","wy06ck23","0","24","1","1","3","1","Ein Probedurchlauf bei dem Teil mit Zeichen und silben hätte mir geholfen, weil das erste Paar von Zeichen und Silbe so schnell wieder weg war, dass ich beides nicht gesehen habe. Danach war das kein Problem mehr, weil ich wusste was passiert. 

Sonst sehr interessant. Ich werde versuchen zu recherchieren, was die Zeichen wirklich bedeuten. :)","0","1","0","5441","","","","","pos","GS","GSnew","2","category2/GS3.png","13","targets/2.png","direct","",""
"","image-slider-response","112","527326","0.0-8.0-0.22","mjw6wchufp","one_one","1","direct_first","1","wy06ck23","0","24","1","1","3","1","Ein Probedurchlauf bei dem Teil mit Zeichen und silben hätte mir geholfen, weil das erste Paar von Zeichen und Silbe so schnell wieder weg war, dass ich beides nicht gesehen habe. Danach war das kein Problem mehr, weil ich wusste was passiert. 

Sonst sehr interessant. Ich werde versuchen zu recherchieren, was die Zeichen wirklich bedeuten. :)","0","1","0","4339","","","","","pos","GS","GSold","2","category2/CS1.png","89","targets/11.png","direct","",""
"","image-slider-response","113","532713","0.0-8.0-0.23","mjw6wchufp","one_one","1","direct_first","1","wy06ck23","0","24","1","1","3","1","Ein Probedurchlauf bei dem Teil mit Zeichen und silben hätte mir geholfen, weil das erste Paar von Zeichen und Silbe so schnell wieder weg war, dass ich beides nicht gesehen habe. Danach war das kein Problem mehr, weil ich wusste was passiert. 

Sonst sehr interessant. Ich werde versuchen zu recherchieren, was die Zeichen wirklich bedeuten. :)","0","1","0","5386","","","","","neg","GS","GSnew","3","category3/GS1.png","32","targets/34.png","direct","",""
"","image-slider-response","114","535972","0.0-8.0-0.24","mjw6wchufp","one_one","1","direct_first","1","wy06ck23","0","24","1","1","3","1","Ein Probedurchlauf bei dem Teil mit Zeichen und silben hätte mir geholfen, weil das erste Paar von Zeichen und Silbe so schnell wieder weg war, dass ich beides nicht gesehen habe. Danach war das kein Problem mehr, weil ich wusste was passiert. 

Sonst sehr interessant. Ich werde versuchen zu recherchieren, was die Zeichen wirklich bedeuten. :)","0","1","0","3256","","","","","pos","CS","CS","2","category2/CS6.png","92","targets/3.png","direct","",""
"","image-slider-response","115","541623","0.0-8.0-0.25","mjw6wchufp","one_one","1","direct_first","1","wy06ck23","0","24","1","1","3","1","Ein Probedurchlauf bei dem Teil mit Zeichen und silben hätte mir geholfen, weil das erste Paar von Zeichen und Silbe so schnell wieder weg war, dass ich beides nicht gesehen habe. Danach war das kein Problem mehr, weil ich wusste was passiert. 

Sonst sehr interessant. Ich werde versuchen zu recherchieren, was die Zeichen wirklich bedeuten. :)","0","1","0","5649","","","","","pos","GS","GSnew","1","category1/GS3.png","11","targets/4.png","direct","",""
"","image-slider-response","116","548535","0.0-8.0-0.26","mjw6wchufp","one_one","1","direct_first","1","wy06ck23","0","24","1","1","3","1","Ein Probedurchlauf bei dem Teil mit Zeichen und silben hätte mir geholfen, weil das erste Paar von Zeichen und Silbe so schnell wieder weg war, dass ich beides nicht gesehen habe. Danach war das kein Problem mehr, weil ich wusste was passiert. 

Sonst sehr interessant. Ich werde versuchen zu recherchieren, was die Zeichen wirklich bedeuten. :)","0","1","0","6911","","","","","pos","GS","GSold","1","category1/CS10.png","-24","targets/16.png","direct","",""
"","image-slider-response","117","553295","0.0-8.0-0.27","mjw6wchufp","one_one","1","direct_first","1","wy06ck23","0","24","1","1","3","1","Ein Probedurchlauf bei dem Teil mit Zeichen und silben hätte mir geholfen, weil das erste Paar von Zeichen und Silbe so schnell wieder weg war, dass ich beides nicht gesehen habe. Danach war das kein Problem mehr, weil ich wusste was passiert. 

Sonst sehr interessant. Ich werde versuchen zu recherchieren, was die Zeichen wirklich bedeuten. :)","0","1","0","4757","","","","","neg","GS","GSold","3","category3/CS8.png","-31","targets/40.png","direct","",""
"","image-slider-response","118","562297","0.0-8.0-0.28","mjw6wchufp","one_one","1","direct_first","1","wy06ck23","0","24","1","1","3","1","Ein Probedurchlauf bei dem Teil mit Zeichen und silben hätte mir geholfen, weil das erste Paar von Zeichen und Silbe so schnell wieder weg war, dass ich beides nicht gesehen habe. Danach war das kein Problem mehr, weil ich wusste was passiert. 

Sonst sehr interessant. Ich werde versuchen zu recherchieren, was die Zeichen wirklich bedeuten. :)","0","1","0","8999","","","","","neg","CS","CS","4","category4/CS9.png","-49","targets/10.png","direct","",""
"","image-slider-response","119","567647","0.0-8.0-0.29","mjw6wchufp","one_one","1","direct_first","1","wy06ck23","0","24","1","1","3","1","Ein Probedurchlauf bei dem Teil mit Zeichen und silben hätte mir geholfen, weil das erste Paar von Zeichen und Silbe so schnell wieder weg war, dass ich beides nicht gesehen habe. Danach war das kein Problem mehr, weil ich wusste was passiert. 

Sonst sehr interessant. Ich werde versuchen zu recherchieren, was die Zeichen wirklich bedeuten. :)","0","1","0","5347","","","","","pos","GS","GSnew","2","category2/GS1.png","18","targets/21.png","direct","",""
"","image-slider-response","120","573986","0.0-8.0-0.30","mjw6wchufp","one_one","1","direct_first","1","wy06ck23","0","24","1","1","3","1","Ein Probedurchlauf bei dem Teil mit Zeichen und silben hätte mir geholfen, weil das erste Paar von Zeichen und Silbe so schnell wieder weg war, dass ich beides nicht gesehen habe. Danach war das kein Problem mehr, weil ich wusste was passiert. 

Sonst sehr interessant. Ich werde versuchen zu recherchieren, was die Zeichen wirklich bedeuten. :)","0","1","0","6338","","","","","neg","GS","abstract","4","category4/lin.png","-54","targets/6.png","direct","",""
"","image-slider-response","121","578585","0.0-8.0-0.31","mjw6wchufp","one_one","1","direct_first","1","wy06ck23","0","24","1","1","3","1","Ein Probedurchlauf bei dem Teil mit Zeichen und silben hätte mir geholfen, weil das erste Paar von Zeichen und Silbe so schnell wieder weg war, dass ich beides nicht gesehen habe. Danach war das kein Problem mehr, weil ich wusste was passiert. 

Sonst sehr interessant. Ich werde versuchen zu recherchieren, was die Zeichen wirklich bedeuten. :)","0","1","0","4596","","","","","pos","GS","GSold","1","category1/CS9.png","33","targets/37.png","direct","",""
"","html-keyboard-response","122","628733","0.0-9.0","mjw6wchufp","one_one","1","direct_first","1","wy06ck23","0","24","1","1","3","1","Ein Probedurchlauf bei dem Teil mit Zeichen und silben hätte mir geholfen, weil das erste Paar von Zeichen und Silbe so schnell wieder weg war, dass ich beides nicht gesehen habe. Danach war das kein Problem mehr, weil ich wusste was passiert. 

Sonst sehr interessant. Ich werde versuchen zu recherchieren, was die Zeichen wirklich bedeuten. :)","0","1","0","50147","","","<p>Sie sehen nun die chinesischen Zeichen nur ganz kurz. Danach sehen Sie die jeweilige Aussprache der Zeichen als Silbe auf dem Bildschrim. Ihre Aufgabe ist es, für jede Silbe anzugeben, ob diese etwas angenehmes, oder unangenehmes bedeuten könnte. Verlassen Sie sich hier vor allem auf Ihre Intuition.<br><br>Die Zeichen werden nur zur Orientierung dargestellt, beachten Sie sie deshalb nicht. Konzentrieren Sie sich vor allem auf die Silben. <br>Reagieren Sie mit folgenden zwei Tasten: <br><br><b>'D' </b> wenn die Silbe etwas <b>unangenehmes</b> bedeuten könnte. <br><b>'K'</b> wenn die Silbe etwas <b>angenehmes</b> bedeuten könnte. <br><br>Bitte legen Sie nun den Zeigefinger der linken Hand auf die Taste 'D' und den Zeigefinger der rechten Hand auf die Taste 'K'. <br>Reagieren Sie auf jede Silbe so schnell wie möglich. Uns interessiert Ihre spontane Reaktion. <br> <br> <br>Drücken Sie 'D' oder 'K', um die nächste Aufgabe zu starten. </p>","68","","","","","","","","","",""
"","html-keyboard-response","123","631748","0.0-10.0-0.0","mjw6wchufp","one_one","1","direct_first","1","wy06ck23","0","24","1","1","3","1","Ein Probedurchlauf bei dem Teil mit Zeichen und silben hätte mir geholfen, weil das erste Paar von Zeichen und Silbe so schnell wieder weg war, dass ich beides nicht gesehen habe. Danach war das kein Problem mehr, weil ich wusste was passiert. 

Sonst sehr interessant. Ich werde versuchen zu recherchieren, was die Zeichen wirklich bedeuten. :)","0","1","0","null","","","<div style=""font-size:60px;"">+</div>","null","","","","","","","","","",""
"","html-keyboard-response","124","631842","0.0-10.0-1.0","mjw6wchufp","one_one","1","direct_first","1","wy06ck23","0","24","1","1","3","1","Ein Probedurchlauf bei dem Teil mit Zeichen und silben hätte mir geholfen, weil das erste Paar von Zeichen und Silbe so schnell wieder weg war, dass ich beides nicht gesehen habe. Danach war das kein Problem mehr, weil ich wusste was passiert. 

Sonst sehr interessant. Ich werde versuchen zu recherchieren, was die Zeichen wirklich bedeuten. :)","0","1","0","null","","","<img src = 'category3/CS8.png' width = '100%;'>","null","","","","","","","","","",""
"","html-keyboard-response","125","632094","0.0-10.0-2.0","mjw6wchufp","one_one","1","direct_first","1","wy06ck23","0","24","1","1","3","1","Ein Probedurchlauf bei dem Teil mit Zeichen und silben hätte mir geholfen, weil das erste Paar von Zeichen und Silbe so schnell wieder weg war, dass ich beides nicht gesehen habe. Danach war das kein Problem mehr, weil ich wusste was passiert. 

Sonst sehr interessant. Ich werde versuchen zu recherchieren, was die Zeichen wirklich bedeuten. :)","0","1","0","null","","","<img src = 'targets/40.png' width = '100%;'>","null","","","","","","","","","",""
"","html-keyboard-response","126","640748","0.0-10.0-3.0","mjw6wchufp","one_one","1","direct_first","1","wy06ck23","0","24","1","1","3","1","Ein Probedurchlauf bei dem Teil mit Zeichen und silben hätte mir geholfen, weil das erste Paar von Zeichen und Silbe so schnell wieder weg war, dass ich beides nicht gesehen habe. Danach war das kein Problem mehr, weil ich wusste was passiert. 

Sonst sehr interessant. Ich werde versuchen zu recherchieren, was die Zeichen wirklich bedeuten. :)","0","1","0","8652","","","<img src = 'targets/mask.png' width = '100%;'>","75","neg","GS","GSold","3","category3/CS8.png","","targets/40.png","indirect","1","0"
"","html-keyboard-response","127","642277","0.0-10.0-0.1","mjw6wchufp","one_one","1","direct_first","1","wy06ck23","0","24","1","1","3","1","Ein Probedurchlauf bei dem Teil mit Zeichen und silben hätte mir geholfen, weil das erste Paar von Zeichen und Silbe so schnell wieder weg war, dass ich beides nicht gesehen habe. Danach war das kein Problem mehr, weil ich wusste was passiert. 

Sonst sehr interessant. Ich werde versuchen zu recherchieren, was die Zeichen wirklich bedeuten. :)","0","1","0","null","","","<div style=""font-size:60px;"">+</div>","null","","","","","","","","","",""
"","html-keyboard-response","128","642372","0.0-10.0-1.1","mjw6wchufp","one_one","1","direct_first","1","wy06ck23","0","24","1","1","3","1","Ein Probedurchlauf bei dem Teil mit Zeichen und silben hätte mir geholfen, weil das erste Paar von Zeichen und Silbe so schnell wieder weg war, dass ich beides nicht gesehen habe. Danach war das kein Problem mehr, weil ich wusste was passiert. 

Sonst sehr interessant. Ich werde versuchen zu recherchieren, was die Zeichen wirklich bedeuten. :)","0","1","0","null","","","<img src = 'category3/CS4.png' width = '100%;'>","null","","","","","","","","","",""
"","html-keyboard-response","129","642626","0.0-10.0-2.1","mjw6wchufp","one_one","1","direct_first","1","wy06ck23","0","24","1","1","3","1","Ein Probedurchlauf bei dem Teil mit Zeichen und silben hätte mir geholfen, weil das erste Paar von Zeichen und Silbe so schnell wieder weg war, dass ich beides nicht gesehen habe. Danach war das kein Problem mehr, weil ich wusste was passiert. 

Sonst sehr interessant. Ich werde versuchen zu recherchieren, was die Zeichen wirklich bedeuten. :)","0","1","0","null","","","<img src = 'targets/7.png' width = '100%;'>","null","","","","","","","","","",""
"","html-keyboard-response","130","643880","0.0-10.0-3.1","mjw6wchufp","one_one","1","direct_first","1","wy06ck23","0","24","1","1","3","1","Ein Probedurchlauf bei dem Teil mit Zeichen und silben hätte mir geholfen, weil das erste Paar von Zeichen und Silbe so schnell wieder weg war, dass ich beides nicht gesehen habe. Danach war das kein Problem mehr, weil ich wusste was passiert. 

Sonst sehr interessant. Ich werde versuchen zu recherchieren, was die Zeichen wirklich bedeuten. :)","0","1","0","1253","","","<img src = 'targets/mask.png' width = '100%;'>","68","neg","CS","CS","3","category3/CS4.png","","targets/7.png","indirect","0","1"
"","html-keyboard-response","131","645406","0.0-10.0-0.2","mjw6wchufp","one_one","1","direct_first","1","wy06ck23","0","24","1","1","3","1","Ein Probedurchlauf bei dem Teil mit Zeichen und silben hätte mir geholfen, weil das erste Paar von Zeichen und Silbe so schnell wieder weg war, dass ich beides nicht gesehen habe. Danach war das kein Problem mehr, weil ich wusste was passiert. 

Sonst sehr interessant. Ich werde versuchen zu recherchieren, was die Zeichen wirklich bedeuten. :)","0","1","0","null","","","<div style=""font-size:60px;"">+</div>","null","","","","","","","","","",""
"","html-keyboard-response","132","645501","0.0-10.0-1.2","mjw6wchufp","one_one","1","direct_first","1","wy06ck23","0","24","1","1","3","1","Ein Probedurchlauf bei dem Teil mit Zeichen und silben hätte mir geholfen, weil das erste Paar von Zeichen und Silbe so schnell wieder weg war, dass ich beides nicht gesehen habe. Danach war das kein Problem mehr, weil ich wusste was passiert. 

Sonst sehr interessant. Ich werde versuchen zu recherchieren, was die Zeichen wirklich bedeuten. :)","0","1","0","null","","","<img src = 'category4/CS8.png' width = '100%;'>","null","","","","","","","","","",""
"","html-keyboard-response","133","645768","0.0-10.0-2.2","mjw6wchufp","one_one","1","direct_first","1","wy06ck23","0","24","1","1","3","1","Ein Probedurchlauf bei dem Teil mit Zeichen und silben hätte mir geholfen, weil das erste Paar von Zeichen und Silbe so schnell wieder weg war, dass ich beides nicht gesehen habe. Danach war das kein Problem mehr, weil ich wusste was passiert. 

Sonst sehr interessant. Ich werde versuchen zu recherchieren, was die Zeichen wirklich bedeuten. :)","0","1","0","null","","","<img src = 'targets/30.png' width = '100%;'>","null","","","","","","","","","",""
"","html-keyboard-response","134","647333","0.0-10.0-3.2","mjw6wchufp","one_one","1","direct_first","1","wy06ck23","0","24","1","1","3","1","Ein Probedurchlauf bei dem Teil mit Zeichen und silben hätte mir geholfen, weil das erste Paar von Zeichen und Silbe so schnell wieder weg war, dass ich beides nicht gesehen habe. Danach war das kein Problem mehr, weil ich wusste was passiert. 

Sonst sehr interessant. Ich werde versuchen zu recherchieren, was die Zeichen wirklich bedeuten. :)","0","1","0","1564","","","<img src = 'targets/mask.png' width = '100%;'>","75","neg","GS","GSold","4","category4/CS8.png","","targets/30.png","indirect","1","2"
"","html-keyboard-response","135","648855","0.0-10.0-0.3","mjw6wchufp","one_one","1","direct_first","1","wy06ck23","0","24","1","1","3","1","Ein Probedurchlauf bei dem Teil mit Zeichen und silben hätte mir geholfen, weil das erste Paar von Zeichen und Silbe so schnell wieder weg war, dass ich beides nicht gesehen habe. Danach war das kein Problem mehr, weil ich wusste was passiert. 

Sonst sehr interessant. Ich werde versuchen zu recherchieren, was die Zeichen wirklich bedeuten. :)","0","1","0","null","","","<div style=""font-size:60px;"">+</div>","null","","","","","","","","","",""
"","html-keyboard-response","136","648951","0.0-10.0-1.3","mjw6wchufp","one_one","1","direct_first","1","wy06ck23","0","24","1","1","3","1","Ein Probedurchlauf bei dem Teil mit Zeichen und silben hätte mir geholfen, weil das erste Paar von Zeichen und Silbe so schnell wieder weg war, dass ich beides nicht gesehen habe. Danach war das kein Problem mehr, weil ich wusste was passiert. 

Sonst sehr interessant. Ich werde versuchen zu recherchieren, was die Zeichen wirklich bedeuten. :)","0","1","0","null","","","<img src = 'category2/CS5.png' width = '100%;'>","null","","","","","","","","","",""
"","html-keyboard-response","137","649220","0.0-10.0-2.3","mjw6wchufp","one_one","1","direct_first","1","wy06ck23","0","24","1","1","3","1","Ein Probedurchlauf bei dem Teil mit Zeichen und silben hätte mir geholfen, weil das erste Paar von Zeichen und Silbe so schnell wieder weg war, dass ich beides nicht gesehen habe. Danach war das kein Problem mehr, weil ich wusste was passiert. 

Sonst sehr interessant. Ich werde versuchen zu recherchieren, was die Zeichen wirklich bedeuten. :)","0","1","0","null","","","<img src = 'targets/24.png' width = '100%;'>","null","","","","","","","","","",""
"","html-keyboard-response","138","653467","0.0-10.0-3.3","mjw6wchufp","one_one","1","direct_first","1","wy06ck23","0","24","1","1","3","1","Ein Probedurchlauf bei dem Teil mit Zeichen und silben hätte mir geholfen, weil das erste Paar von Zeichen und Silbe so schnell wieder weg war, dass ich beides nicht gesehen habe. Danach war das kein Problem mehr, weil ich wusste was passiert. 

Sonst sehr interessant. Ich werde versuchen zu recherchieren, was die Zeichen wirklich bedeuten. :)","0","1","0","4246","","","<img src = 'targets/mask.png' width = '100%;'>","75","pos","GS","GSold","2","category2/CS5.png","","targets/24.png","indirect","1","3"
"","html-keyboard-response","139","654976","0.0-10.0-0.4","mjw6wchufp","one_one","1","direct_first","1","wy06ck23","0","24","1","1","3","1","Ein Probedurchlauf bei dem Teil mit Zeichen und silben hätte mir geholfen, weil das erste Paar von Zeichen und Silbe so schnell wieder weg war, dass ich beides nicht gesehen habe. Danach war das kein Problem mehr, weil ich wusste was passiert. 

Sonst sehr interessant. Ich werde versuchen zu recherchieren, was die Zeichen wirklich bedeuten. :)","0","1","0","null","","","<div style=""font-size:60px;"">+</div>","null","","","","","","","","","",""
"","html-keyboard-response","140","655071","0.0-10.0-1.4","mjw6wchufp","one_one","1","direct_first","1","wy06ck23","0","24","1","1","3","1","Ein Probedurchlauf bei dem Teil mit Zeichen und silben hätte mir geholfen, weil das erste Paar von Zeichen und Silbe so schnell wieder weg war, dass ich beides nicht gesehen habe. Danach war das kein Problem mehr, weil ich wusste was passiert. 

Sonst sehr interessant. Ich werde versuchen zu recherchieren, was die Zeichen wirklich bedeuten. :)","0","1","0","null","","","<img src = 'category2/CS3.png' width = '100%;'>","null","","","","","","","","","",""
"","html-keyboard-response","141","655328","0.0-10.0-2.4","mjw6wchufp","one_one","1","direct_first","1","wy06ck23","0","24","1","1","3","1","Ein Probedurchlauf bei dem Teil mit Zeichen und silben hätte mir geholfen, weil das erste Paar von Zeichen und Silbe so schnell wieder weg war, dass ich beides nicht gesehen habe. Danach war das kein Problem mehr, weil ich wusste was passiert. 

Sonst sehr interessant. Ich werde versuchen zu recherchieren, was die Zeichen wirklich bedeuten. :)","0","1","0","null","","","<img src = 'targets/36.png' width = '100%;'>","null","","","","","","","","","",""
"","html-keyboard-response","142","658282","0.0-10.0-3.4","mjw6wchufp","one_one","1","direct_first","1","wy06ck23","0","24","1","1","3","1","Ein Probedurchlauf bei dem Teil mit Zeichen und silben hätte mir geholfen, weil das erste Paar von Zeichen und Silbe so schnell wieder weg war, dass ich beides nicht gesehen habe. Danach war das kein Problem mehr, weil ich wusste was passiert. 

Sonst sehr interessant. Ich werde versuchen zu recherchieren, was die Zeichen wirklich bedeuten. :)","0","1","0","2954","","","<img src = 'targets/mask.png' width = '100%;'>","68","pos","GS","GSold","2","category2/CS3.png","","targets/36.png","indirect","0","4"
"","html-keyboard-response","143","659787","0.0-10.0-0.5","mjw6wchufp","one_one","1","direct_first","1","wy06ck23","0","24","1","1","3","1","Ein Probedurchlauf bei dem Teil mit Zeichen und silben hätte mir geholfen, weil das erste Paar von Zeichen und Silbe so schnell wieder weg war, dass ich beides nicht gesehen habe. Danach war das kein Problem mehr, weil ich wusste was passiert. 

Sonst sehr interessant. Ich werde versuchen zu recherchieren, was die Zeichen wirklich bedeuten. :)","0","1","0","null","","","<div style=""font-size:60px;"">+</div>","null","","","","","","","","","",""
"","html-keyboard-response","144","659881","0.0-10.0-1.5","mjw6wchufp","one_one","1","direct_first","1","wy06ck23","0","24","1","1","3","1","Ein Probedurchlauf bei dem Teil mit Zeichen und silben hätte mir geholfen, weil das erste Paar von Zeichen und Silbe so schnell wieder weg war, dass ich beides nicht gesehen habe. Danach war das kein Problem mehr, weil ich wusste was passiert. 

