"success","trial_type","trial_index","time_elapsed","internal_node_id","subject","condition","condition_code","measure","measure_code","codeword","gender","age","education","chinese","fach","handedness","rt","url","responses","stimulus","key_press","val","type","type_specific","category","cs_selected","response","target","task","indirect","nr_pres"
"true","fullscreen","0","19216","0.0-0.0","zokm9vz8ou","many_one","0","direct_first","1","os08as07","0","20","1","1","1","2","","","","","","","","","","","","","","",""
"","external-html","1","55019","0.0-1.0","zokm9vz8ou","many_one","0","direct_first","1","os08as07","0","20","1","1","1","2","35787","text/information.html","","","","","","","","","","","","",""
"","external-html","2","73251","0.0-2.0","zokm9vz8ou","many_one","0","direct_first","1","os08as07","0","20","1","1","1","2","18225","text/consent.html","","","","","","","","","","","","",""
"","survey-html-form","3","112914","0.0-3.0","zokm9vz8ou","many_one","0","direct_first","1","os08as07","0","20","1","1","1","2","39662","","{""codeword_enter"":""os08as07""}","","","","","","","","","","","",""
"","survey-html-form","4","129148","0.0-4.0","zokm9vz8ou","many_one","0","direct_first","1","os08as07","0","20","1","1","1","2","16231","","{""age"":""20"",""education"":""1"",""subject"":""1"",""gender"":""0"",""handedness"":""2"",""chinese"":""1""}","","","","","","","","","","","",""
"","survey-html-form","5","147034","0.0-5.0","zokm9vz8ou","many_one","0","direct_first","1","os08as07","0","20","1","1","1","2","17886","","{}","","","","","","","","","","","",""
"","html-keyboard-response","6","151061","0.0-6.0-0.0-0.0","zokm9vz8ou","many_one","0","direct_first","1","os08as07","0","20","1","1","1","2","null","","","<div class = 'row'><div class = 'column'><img src = 'category1/CS9.png' width = '70%;'></div><div class = 'column'><img src = 'usneg/9404.bmp' width = '100%;'></div></div>","null","neg","CS","CS","1","category1/CS9.png","","","","",""
"","html-keyboard-response","7","153600","0.0-6.0-0.0-0.1","zokm9vz8ou","many_one","0","direct_first","1","os08as07","0","20","1","1","1","2","null","","","<div class = 'row'><div class = 'column'><img src = 'uspos/2208.bmp' width = '100%;'></div><div class = 'column'><img src = 'category4/CS8.png' width = '70%;'></div></div>","null","pos","CS","CS","4","category4/CS8.png","","","","",""
"","html-keyboard-response","8","156140","0.0-6.0-0.0-0.2","zokm9vz8ou","many_one","0","direct_first","1","os08as07","0","20","1","1","1","2","null","","","<div class = 'row'><div class = 'column'><img src = 'category2/CS2.png' width = '70%;'></div><div class = 'column'><img src = 'uspos/2360.bmp' width = '100%;'></div></div>","null","pos","CS","CS","2","category2/CS2.png","","","","",""
"","html-keyboard-response","9","158679","0.0-6.0-0.0-0.3","zokm9vz8ou","many_one","0","direct_first","1","os08as07","0","20","1","1","1","2","null","","","<div class = 'row'><div class = 'column'><img src = 'category3/CS4.png' width = '70%;'></div><div class = 'column'><img src = 'usneg/9041.bmp' width = '100%;'></div></div>","null","neg","CS","CS","3","category3/CS4.png","","","","",""
"","html-keyboard-response","10","161220","0.0-6.0-0.0-0.4","zokm9vz8ou","many_one","0","direct_first","1","os08as07","0","20","1","1","1","2","null","","","<div class = 'row'><div class = 'column'><img src = 'usneg/9220.bmp' width = '100%;'></div><div class = 'column'><img src = 'category1/CS2.png' width = '70%;'></div></div>","null","neg","CS","CS","1","category1/CS2.png","","","","",""
"","html-keyboard-response","11","163749","0.0-6.0-0.0-0.5","zokm9vz8ou","many_one","0","direct_first","1","os08as07","0","20","1","1","1","2","null","","","<div class = 'row'><div class = 'column'><img src = 'category4/CS9.png' width = '70%;'></div><div class = 'column'><img src = 'uspos/2150.bmp' width = '100%;'></div></div>","null","pos","CS","CS","4","category4/CS9.png","","","","",""
"","html-keyboard-response","12","166289","0.0-6.0-0.0-0.6","zokm9vz8ou","many_one","0","direct_first","1","os08as07","0","20","1","1","1","2","null","","","<div class = 'row'><div class = 'column'><img src = 'usneg/2900.bmp' width = '100%;'></div><div class = 'column'><img src = 'category3/CS8.png' width = '70%;'></div></div>","null","neg","CS","CS","3","category3/CS8.png","","","","",""
"","html-keyboard-response","13","168829","0.0-6.0-0.0-0.7","zokm9vz8ou","many_one","0","direct_first","1","os08as07","0","20","1","1","1","2","null","","","<div class = 'row'><div class = 'column'><img src = 'category3/CS6.png' width = '70%;'></div><div class = 'column'><img src = 'usneg/6212.bmp' width = '100%;'></div></div>","null","neg","CS","CS","3","category3/CS6.png","","","","",""
"","html-keyboard-response","14","171369","0.0-6.0-0.0-0.8","zokm9vz8ou","many_one","0","direct_first","1","os08as07","0","20","1","1","1","2","null","","","<div class = 'row'><div class = 'column'><img src = 'usneg/9635.2.bmp' width = '100%;'></div><div class = 'column'><img src = 'category1/CS3.png' width = '70%;'></div></div>","null","neg","CS","CS","1","category1/CS3.png","","","","",""
"","html-keyboard-response","15","173909","0.0-6.0-0.0-0.9","zokm9vz8ou","many_one","0","direct_first","1","os08as07","0","20","1","1","1","2","null","","","<div class = 'row'><div class = 'column'><img src = 'category2/CS4.png' width = '70%;'></div><div class = 'column'><img src = 'uspos/5830.bmp' width = '100%;'></div></div>","null","pos","CS","CS","2","category2/CS4.png","","","","",""
"","html-keyboard-response","16","176439","0.0-6.0-0.0-0.10","zokm9vz8ou","many_one","0","direct_first","1","os08as07","0","20","1","1","1","2","null","","","<div class = 'row'><div class = 'column'><img src = 'category2/CS10.png' width = '70%;'></div><div class = 'column'><img src = 'uspos/2550.bmp' width = '100%;'></div></div>","null","pos","CS","CS","2","category2/CS10.png","","","","",""
"","html-keyboard-response","17","178968","0.0-6.0-0.0-0.11","zokm9vz8ou","many_one","0","direct_first","1","os08as07","0","20","1","1","1","2","null","","","<div class = 'row'><div class = 'column'><img src = 'uspos/5470.bmp' width = '100%;'></div><div class = 'column'><img src = 'category2/CS8.png' width = '70%;'></div></div>","null","pos","CS","CS","2","category2/CS8.png","","","","",""
"","html-keyboard-response","18","181508","0.0-6.0-0.0-0.12","zokm9vz8ou","many_one","0","direct_first","1","os08as07","0","20","1","1","1","2","null","","","<div class = 'row'><div class = 'column'><img src = 'usneg/9050.bmp' width = '100%;'></div><div class = 'column'><img src = 'category1/CS5.png' width = '70%;'></div></div>","null","neg","CS","CS","1","category1/CS5.png","","","","",""
"","html-keyboard-response","19","184039","0.0-6.0-0.0-0.13","zokm9vz8ou","many_one","0","direct_first","1","os08as07","0","20","1","1","1","2","null","","","<div class = 'row'><div class = 'column'><img src = 'category3/CS5.png' width = '70%;'></div><div class = 'column'><img src = 'usneg/8485.bmp' width = '100%;'></div></div>","null","neg","CS","CS","3","category3/CS5.png","","","","",""
"","html-keyboard-response","20","186579","0.0-6.0-0.0-0.14","zokm9vz8ou","many_one","0","direct_first","1","os08as07","0","20","1","1","1","2","null","","","<div class = 'row'><div class = 'column'><img src = 'uspos/1340.bmp' width = '100%;'></div><div class = 'column'><img src = 'category4/CS10.png' width = '70%;'></div></div>","null","pos","CS","CS","4","category4/CS10.png","","","","",""
"","html-keyboard-response","21","189119","0.0-6.0-0.0-0.15","zokm9vz8ou","many_one","0","direct_first","1","os08as07","0","20","1","1","1","2","null","","","<div class = 'row'><div class = 'column'><img src = 'category4/CS1.png' width = '70%;'></div><div class = 'column'><img src = 'uspos/1460.bmp' width = '100%;'></div></div>","null","pos","CS","CS","4","category4/CS1.png","","","","",""
"","html-keyboard-response","22","191659","0.0-6.0-0.0-0.16","zokm9vz8ou","many_one","0","direct_first","1","os08as07","0","20","1","1","1","2","null","","","<div class = 'row'><div class = 'column'><img src = 'usneg/9000.bmp' width = '100%;'></div><div class = 'column'><img src = 'category1/CS6.png' width = '70%;'></div></div>","null","neg","CS","CS","1","category1/CS6.png","","","","",""
"","html-keyboard-response","23","194199","0.0-6.0-0.0-0.17","zokm9vz8ou","many_one","0","direct_first","1","os08as07","0","20","1","1","1","2","null","","","<div class = 'row'><div class = 'column'><img src = 'category4/CS3.png' width = '70%;'></div><div class = 'column'><img src = 'uspos/1440.bmp' width = '100%;'></div></div>","null","pos","CS","CS","4","category4/CS3.png","","","","",""
"","html-keyboard-response","24","196729","0.0-6.0-0.0-0.18","zokm9vz8ou","many_one","0","direct_first","1","os08as07","0","20","1","1","1","2","null","","","<div class = 'row'><div class = 'column'><img src = 'usneg/2141.bmp' width = '100%;'></div><div class = 'column'><img src = 'category3/CS7.png' width = '70%;'></div></div>","null","neg","CS","CS","3","category3/CS7.png","","","","",""
"","html-keyboard-response","25","199259","0.0-6.0-0.0-0.19","zokm9vz8ou","many_one","0","direct_first","1","os08as07","0","20","1","1","1","2","null","","","<div class = 'row'><div class = 'column'><img src = 'category2/CS3.png' width = '70%;'></div><div class = 'column'><img src = 'uspos/2900.2.bmp' width = '100%;'></div></div>","null","pos","CS","CS","2","category2/CS3.png","","","","",""
"","survey-html-form","26","206497","0.0-6.0-1.0","zokm9vz8ou","many_one","0","direct_first","1","os08as07","0","20","1","1","1","2","6718","","{}","","","","","","","","","","","",""
"","html-keyboard-response","27","210528","0.0-6.0-2.0-0.0","zokm9vz8ou","many_one","0","direct_first","1","os08as07","0","20","1","1","1","2","null","","","<div class = 'row'><div class = 'column'><img src = 'usneg/9000.bmp' width = '100%;'></div><div class = 'column'><img src = 'category1/CS6.png' width = '70%;'></div></div>","null","neg","CS","CS","1","category1/CS6.png","","","","",""
"","html-keyboard-response","28","213068","0.0-6.0-2.0-0.1","zokm9vz8ou","many_one","0","direct_first","1","os08as07","0","20","1","1","1","2","null","","","<div class = 'row'><div class = 'column'><img src = 'category3/CS5.png' width = '70%;'></div><div class = 'column'><img src = 'usneg/8485.bmp' width = '100%;'></div></div>","null","neg","CS","CS","3","category3/CS5.png","","","","",""
"","html-keyboard-response","29","215608","0.0-6.0-2.0-0.2","zokm9vz8ou","many_one","0","direct_first","1","os08as07","0","20","1","1","1","2","null","","","<div class = 'row'><div class = 'column'><img src = 'category1/CS2.png' width = '70%;'></div><div class = 'column'><img src = 'usneg/9220.bmp' width = '100%;'></div></div>","null","neg","CS","CS","1","category1/CS2.png","","","","",""
"","html-keyboard-response","30","218128","0.0-6.0-2.0-0.3","zokm9vz8ou","many_one","0","direct_first","1","os08as07","0","20","1","1","1","2","null","","","<div class = 'row'><div class = 'column'><img src = 'category3/CS4.png' width = '70%;'></div><div class = 'column'><img src = 'usneg/9041.bmp' width = '100%;'></div></div>","null","neg","CS","CS","3","category3/CS4.png","","","","",""
"","html-keyboard-response","31","220638","0.0-6.0-2.0-0.4","zokm9vz8ou","many_one","0","direct_first","1","os08as07","0","20","1","1","1","2","null","","","<div class = 'row'><div class = 'column'><img src = 'usneg/9050.bmp' width = '100%;'></div><div class = 'column'><img src = 'category1/CS5.png' width = '70%;'></div></div>","null","neg","CS","CS","1","category1/CS5.png","","","","",""
"","html-keyboard-response","32","223178","0.0-6.0-2.0-0.5","zokm9vz8ou","many_one","0","direct_first","1","os08as07","0","20","1","1","1","2","null","","","<div class = 'row'><div class = 'column'><img src = 'category4/CS10.png' width = '70%;'></div><div class = 'column'><img src = 'uspos/1340.bmp' width = '100%;'></div></div>","null","pos","CS","CS","4","category4/CS10.png","","","","",""
"","html-keyboard-response","33","225698","0.0-6.0-2.0-0.6","zokm9vz8ou","many_one","0","direct_first","1","os08as07","0","20","1","1","1","2","null","","","<div class = 'row'><div class = 'column'><img src = 'uspos/5470.bmp' width = '100%;'></div><div class = 'column'><img src = 'category2/CS8.png' width = '70%;'></div></div>","null","pos","CS","CS","2","category2/CS8.png","","","","",""
"","html-keyboard-response","34","228217","0.0-6.0-2.0-0.7","zokm9vz8ou","many_one","0","direct_first","1","os08as07","0","20","1","1","1","2","null","","","<div class = 'row'><div class = 'column'><img src = 'category3/CS7.png' width = '70%;'></div><div class = 'column'><img src = 'usneg/2141.bmp' width = '100%;'></div></div>","null","neg","CS","CS","3","category3/CS7.png","","","","",""
"","html-keyboard-response","35","230757","0.0-6.0-2.0-0.8","zokm9vz8ou","many_one","0","direct_first","1","os08as07","0","20","1","1","1","2","null","","","<div class = 'row'><div class = 'column'><img src = 'category4/CS1.png' width = '70%;'></div><div class = 'column'><img src = 'uspos/1460.bmp' width = '100%;'></div></div>","null","pos","CS","CS","4","category4/CS1.png","","","","",""
"","html-keyboard-response","36","233297","0.0-6.0-2.0-0.9","zokm9vz8ou","many_one","0","direct_first","1","os08as07","0","20","1","1","1","2","null","","","<div class = 'row'><div class = 'column'><img src = 'uspos/1440.bmp' width = '100%;'></div><div class = 'column'><img src = 'category4/CS3.png' width = '70%;'></div></div>","null","pos","CS","CS","4","category4/CS3.png","","","","",""
"","html-keyboard-response","37","235817","0.0-6.0-2.0-0.10","zokm9vz8ou","many_one","0","direct_first","1","os08as07","0","20","1","1","1","2","null","","","<div class = 'row'><div class = 'column'><img src = 'uspos/2150.bmp' width = '100%;'></div><div class = 'column'><img src = 'category4/CS9.png' width = '70%;'></div></div>","null","pos","CS","CS","4","category4/CS9.png","","","","",""
"","html-keyboard-response","38","238337","0.0-6.0-2.0-0.11","zokm9vz8ou","many_one","0","direct_first","1","os08as07","0","20","1","1","1","2","null","","","<div class = 'row'><div class = 'column'><img src = 'uspos/2550.bmp' width = '100%;'></div><div class = 'column'><img src = 'category2/CS10.png' width = '70%;'></div></div>","null","pos","CS","CS","2","category2/CS10.png","","","","",""
"","html-keyboard-response","39","240878","0.0-6.0-2.0-0.12","zokm9vz8ou","many_one","0","direct_first","1","os08as07","0","20","1","1","1","2","null","","","<div class = 'row'><div class = 'column'><img src = 'category4/CS8.png' width = '70%;'></div><div class = 'column'><img src = 'uspos/2208.bmp' width = '100%;'></div></div>","null","pos","CS","CS","4","category4/CS8.png","","","","",""
"","html-keyboard-response","40","243418","0.0-6.0-2.0-0.13","zokm9vz8ou","many_one","0","direct_first","1","os08as07","0","20","1","1","1","2","null","","","<div class = 'row'><div class = 'column'><img src = 'category1/CS3.png' width = '70%;'></div><div class = 'column'><img src = 'usneg/9635.2.bmp' width = '100%;'></div></div>","null","neg","CS","CS","1","category1/CS3.png","","","","",""
"","html-keyboard-response","41","245958","0.0-6.0-2.0-0.14","zokm9vz8ou","many_one","0","direct_first","1","os08as07","0","20","1","1","1","2","null","","","<div class = 'row'><div class = 'column'><img src = 'category2/CS3.png' width = '70%;'></div><div class = 'column'><img src = 'uspos/2900.2.bmp' width = '100%;'></div></div>","null","pos","CS","CS","2","category2/CS3.png","","","","",""
"","html-keyboard-response","42","248497","0.0-6.0-2.0-0.15","zokm9vz8ou","many_one","0","direct_first","1","os08as07","0","20","1","1","1","2","null","","","<div class = 'row'><div class = 'column'><img src = 'uspos/2360.bmp' width = '100%;'></div><div class = 'column'><img src = 'category2/CS2.png' width = '70%;'></div></div>","null","pos","CS","CS","2","category2/CS2.png","","","","",""
"","html-keyboard-response","43","251028","0.0-6.0-2.0-0.16","zokm9vz8ou","many_one","0","direct_first","1","os08as07","0","20","1","1","1","2","null","","","<div class = 'row'><div class = 'column'><img src = 'usneg/6212.bmp' width = '100%;'></div><div class = 'column'><img src = 'category3/CS6.png' width = '70%;'></div></div>","null","neg","CS","CS","3","category3/CS6.png","","","","",""
"","html-keyboard-response","44","253557","0.0-6.0-2.0-0.17","zokm9vz8ou","many_one","0","direct_first","1","os08as07","0","20","1","1","1","2","null","","","<div class = 'row'><div class = 'column'><img src = 'category2/CS4.png' width = '70%;'></div><div class = 'column'><img src = 'uspos/5830.bmp' width = '100%;'></div></div>","null","pos","CS","CS","2","category2/CS4.png","","","","",""
"","html-keyboard-response","45","256097","0.0-6.0-2.0-0.18","zokm9vz8ou","many_one","0","direct_first","1","os08as07","0","20","1","1","1","2","null","","","<div class = 'row'><div class = 'column'><img src = 'usneg/2900.bmp' width = '100%;'></div><div class = 'column'><img src = 'category3/CS8.png' width = '70%;'></div></div>","null","neg","CS","CS","3","category3/CS8.png","","","","",""
"","html-keyboard-response","46","258637","0.0-6.0-2.0-0.19","zokm9vz8ou","many_one","0","direct_first","1","os08as07","0","20","1","1","1","2","null","","","<div class = 'row'><div class = 'column'><img src = 'category1/CS9.png' width = '70%;'></div><div class = 'column'><img src = 'usneg/9404.bmp' width = '100%;'></div></div>","null","neg","CS","CS","1","category1/CS9.png","","","","",""
"","survey-html-form","47","268336","0.0-6.0-3.0","zokm9vz8ou","many_one","0","direct_first","1","os08as07","0","20","1","1","1","2","9177","","{}","","","","","","","","","","","",""
"","html-keyboard-response","48","272357","0.0-6.0-4.0-0.0","zokm9vz8ou","many_one","0","direct_first","1","os08as07","0","20","1","1","1","2","null","","","<div class = 'row'><div class = 'column'><img src = 'category2/CS4.png' width = '70%;'></div><div class = 'column'><img src = 'uspos/5830.bmp' width = '100%;'></div></div>","null","pos","CS","CS","2","category2/CS4.png","","","","",""
"","html-keyboard-response","49","274897","0.0-6.0-4.0-0.1","zokm9vz8ou","many_one","0","direct_first","1","os08as07","0","20","1","1","1","2","null","","","<div class = 'row'><div class = 'column'><img src = 'category1/CS3.png' width = '70%;'></div><div class = 'column'><img src = 'usneg/9635.2.bmp' width = '100%;'></div></div>","null","neg","CS","CS","1","category1/CS3.png","","","","",""
"","html-keyboard-response","50","277427","0.0-6.0-4.0-0.2","zokm9vz8ou","many_one","0","direct_first","1","os08as07","0","20","1","1","1","2","null","","","<div class = 'row'><div class = 'column'><img src = 'category2/CS10.png' width = '70%;'></div><div class = 'column'><img src = 'uspos/2550.bmp' width = '100%;'></div></div>","null","pos","CS","CS","2","category2/CS10.png","","","","",""
"","html-keyboard-response","51","279957","0.0-6.0-4.0-0.3","zokm9vz8ou","many_one","0","direct_first","1","os08as07","0","20","1","1","1","2","null","","","<div class = 'row'><div class = 'column'><img src = 'category4/CS1.png' width = '70%;'></div><div class = 'column'><img src = 'uspos/1460.bmp' width = '100%;'></div></div>","null","pos","CS","CS","4","category4/CS1.png","","","","",""
"","html-keyboard-response","52","282497","0.0-6.0-4.0-0.4","zokm9vz8ou","many_one","0","direct_first","1","os08as07","0","20","1","1","1","2","null","","","<div class = 'row'><div class = 'column'><img src = 'uspos/2360.bmp' width = '100%;'></div><div class = 'column'><img src = 'category2/CS2.png' width = '70%;'></div></div>","null","pos","CS","CS","2","category2/CS2.png","","","","",""
"","html-keyboard-response","53","285018","0.0-6.0-4.0-0.5","zokm9vz8ou","many_one","0","direct_first","1","os08as07","0","20","1","1","1","2","null","","","<div class = 'row'><div class = 'column'><img src = 'uspos/2150.bmp' width = '100%;'></div><div class = 'column'><img src = 'category4/CS9.png' width = '70%;'></div></div>","null","pos","CS","CS","4","category4/CS9.png","","","","",""
"","html-keyboard-response","54","287528","0.0-6.0-4.0-0.6","zokm9vz8ou","many_one","0","direct_first","1","os08as07","0","20","1","1","1","2","null","","","<div class = 'row'><div class = 'column'><img src = 'category1/CS6.png' width = '70%;'></div><div class = 'column'><img src = 'usneg/9000.bmp' width = '100%;'></div></div>","null","neg","CS","CS","1","category1/CS6.png","","","","",""
"","html-keyboard-response","55","290067","0.0-6.0-4.0-0.7","zokm9vz8ou","many_one","0","direct_first","1","os08as07","0","20","1","1","1","2","null","","","<div class = 'row'><div class = 'column'><img src = 'usneg/2141.bmp' width = '100%;'></div><div class = 'column'><img src = 'category3/CS7.png' width = '70%;'></div></div>","null","neg","CS","CS","3","category3/CS7.png","","","","",""
"","html-keyboard-response","56","292607","0.0-6.0-4.0-0.8","zokm9vz8ou","many_one","0","direct_first","1","os08as07","0","20","1","1","1","2","null","","","<div class = 'row'><div class = 'column'><img src = 'usneg/9220.bmp' width = '100%;'></div><div class = 'column'><img src = 'category1/CS2.png' width = '70%;'></div></div>","null","neg","CS","CS","1","category1/CS2.png","","","","",""
"","html-keyboard-response","57","295147","0.0-6.0-4.0-0.9","zokm9vz8ou","many_one","0","direct_first","1","os08as07","0","20","1","1","1","2","null","","","<div class = 'row'><div class = 'column'><img src = 'category4/CS3.png' width = '70%;'></div><div class = 'column'><img src = 'uspos/1440.bmp' width = '100%;'></div></div>","null","pos","CS","CS","4","category4/CS3.png","","","","",""
"","html-keyboard-response","58","297687","0.0-6.0-4.0-0.10","zokm9vz8ou","many_one","0","direct_first","1","os08as07","0","20","1","1","1","2","null","","","<div class = 'row'><div class = 'column'><img src = 'category3/CS5.png' width = '70%;'></div><div class = 'column'><img src = 'usneg/8485.bmp' width = '100%;'></div></div>","null","neg","CS","CS","3","category3/CS5.png","","","","",""
"","html-keyboard-response","59","300227","0.0-6.0-4.0-0.11","zokm9vz8ou","many_one","0","direct_first","1","os08as07","0","20","1","1","1","2","null","","","<div class = 'row'><div class = 'column'><img src = 'category4/CS10.png' width = '70%;'></div><div class = 'column'><img src = 'uspos/1340.bmp' width = '100%;'></div></div>","null","pos","CS","CS","4","category4/CS10.png","","","","",""
"","html-keyboard-response","60","302767","0.0-6.0-4.0-0.12","zokm9vz8ou","many_one","0","direct_first","1","os08as07","0","20","1","1","1","2","null","","","<div class = 'row'><div class = 'column'><img src = 'usneg/6212.bmp' width = '100%;'></div><div class = 'column'><img src = 'category3/CS6.png' width = '70%;'></div></div>","null","neg","CS","CS","3","category3/CS6.png","","","","",""
"","html-keyboard-response","61","305306","0.0-6.0-4.0-0.13","zokm9vz8ou","many_one","0","direct_first","1","os08as07","0","20","1","1","1","2","null","","","<div class = 'row'><div class = 'column'><img src = 'category3/CS8.png' width = '70%;'></div><div class = 'column'><img src = 'usneg/2900.bmp' width = '100%;'></div></div>","null","neg","CS","CS","3","category3/CS8.png","","","","",""
"","html-keyboard-response","62","307836","0.0-6.0-4.0-0.14","zokm9vz8ou","many_one","0","direct_first","1","os08as07","0","20","1","1","1","2","null","","","<div class = 'row'><div class = 'column'><img src = 'category1/CS5.png' width = '70%;'></div><div class = 'column'><img src = 'usneg/9050.bmp' width = '100%;'></div></div>","null","neg","CS","CS","1","category1/CS5.png","","","","",""
"","html-keyboard-response","63","310376","0.0-6.0-4.0-0.15","zokm9vz8ou","many_one","0","direct_first","1","os08as07","0","20","1","1","1","2","null","","","<div class = 'row'><div class = 'column'><img src = 'category3/CS4.png' width = '70%;'></div><div class = 'column'><img src = 'usneg/9041.bmp' width = '100%;'></div></div>","null","neg","CS","CS","3","category3/CS4.png","","","","",""
"","html-keyboard-response","64","312896","0.0-6.0-4.0-0.16","zokm9vz8ou","many_one","0","direct_first","1","os08as07","0","20","1","1","1","2","null","","","<div class = 'row'><div class = 'column'><img src = 'uspos/2208.bmp' width = '100%;'></div><div class = 'column'><img src = 'category4/CS8.png' width = '70%;'></div></div>","null","pos","CS","CS","4","category4/CS8.png","","","","",""
"","html-keyboard-response","65","315437","0.0-6.0-4.0-0.17","zokm9vz8ou","many_one","0","direct_first","1","os08as07","0","20","1","1","1","2","null","","","<div class = 'row'><div class = 'column'><img src = 'usneg/9404.bmp' width = '100%;'></div><div class = 'column'><img src = 'category1/CS9.png' width = '70%;'></div></div>","null","neg","CS","CS","1","category1/CS9.png","","","","",""
"","html-keyboard-response","66","317966","0.0-6.0-4.0-0.18","zokm9vz8ou","many_one","0","direct_first","1","os08as07","0","20","1","1","1","2","null","","","<div class = 'row'><div class = 'column'><img src = 'category2/CS8.png' width = '70%;'></div><div class = 'column'><img src = 'uspos/5470.bmp' width = '100%;'></div></div>","null","pos","CS","CS","2","category2/CS8.png","","","","",""
"","html-keyboard-response","67","320487","0.0-6.0-4.0-0.19","zokm9vz8ou","many_one","0","direct_first","1","os08as07","0","20","1","1","1","2","null","","","<div class = 'row'><div class = 'column'><img src = 'uspos/2900.2.bmp' width = '100%;'></div><div class = 'column'><img src = 'category2/CS3.png' width = '70%;'></div></div>","null","pos","CS","CS","2","category2/CS3.png","","","","",""
"","survey-html-form","68","329391","0.0-6.0-5.0","zokm9vz8ou","many_one","0","direct_first","1","os08as07","0","20","1","1","1","2","8385","","{}","","","","","","","","","","","",""
"","html-keyboard-response","69","333426","0.0-6.0-6.0-0.0","zokm9vz8ou","many_one","0","direct_first","1","os08as07","0","20","1","1","1","2","null","","","<div class = 'row'><div class = 'column'><img src = 'category2/CS2.png' width = '70%;'></div><div class = 'column'><img src = 'uspos/2360.bmp' width = '100%;'></div></div>","null","pos","CS","CS","2","category2/CS2.png","","","","",""
"","html-keyboard-response","70","335966","0.0-6.0-6.0-0.1","zokm9vz8ou","many_one","0","direct_first","1","os08as07","0","20","1","1","1","2","null","","","<div class = 'row'><div class = 'column'><img src = 'uspos/1340.bmp' width = '100%;'></div><div class = 'column'><img src = 'category4/CS10.png' width = '70%;'></div></div>","null","pos","CS","CS","4","category4/CS10.png","","","","",""
"","html-keyboard-response","71","338506","0.0-6.0-6.0-0.2","zokm9vz8ou","many_one","0","direct_first","1","os08as07","0","20","1","1","1","2","null","","","<div class = 'row'><div class = 'column'><img src = 'category1/CS2.png' width = '70%;'></div><div class = 'column'><img src = 'usneg/9220.bmp' width = '100%;'></div></div>","null","neg","CS","CS","1","category1/CS2.png","","","","",""
"","html-keyboard-response","72","341027","0.0-6.0-6.0-0.3","zokm9vz8ou","many_one","0","direct_first","1","os08as07","0","20","1","1","1","2","null","","","<div class = 'row'><div class = 'column'><img src = 'usneg/9041.bmp' width = '100%;'></div><div class = 'column'><img src = 'category3/CS4.png' width = '70%;'></div></div>","null","neg","CS","CS","3","category3/CS4.png","","","","",""
"","html-keyboard-response","73","343566","0.0-6.0-6.0-0.4","zokm9vz8ou","many_one","0","direct_first","1","os08as07","0","20","1","1","1","2","null","","","<div class = 'row'><div class = 'column'><img src = 'category4/CS3.png' width = '70%;'></div><div class = 'column'><img src = 'uspos/1440.bmp' width = '100%;'></div></div>","null","pos","CS","CS","4","category4/CS3.png","","","","",""
"","html-keyboard-response","74","346087","0.0-6.0-6.0-0.5","zokm9vz8ou","many_one","0","direct_first","1","os08as07","0","20","1","1","1","2","null","","","<div class = 'row'><div class = 'column'><img src = 'uspos/2150.bmp' width = '100%;'></div><div class = 'column'><img src = 'category4/CS9.png' width = '70%;'></div></div>","null","pos","CS","CS","4","category4/CS9.png","","","","",""
"","html-keyboard-response","75","348626","0.0-6.0-6.0-0.6","zokm9vz8ou","many_one","0","direct_first","1","os08as07","0","20","1","1","1","2","null","","","<div class = 'row'><div class = 'column'><img src = 'uspos/2208.bmp' width = '100%;'></div><div class = 'column'><img src = 'category4/CS8.png' width = '70%;'></div></div>","null","pos","CS","CS","4","category4/CS8.png","","","","",""
"","html-keyboard-response","76","351166","0.0-6.0-6.0-0.7","zokm9vz8ou","many_one","0","direct_first","1","os08as07","0","20","1","1","1","2","null","","","<div class = 'row'><div class = 'column'><img src = 'uspos/2900.2.bmp' width = '100%;'></div><div class = 'column'><img src = 'category2/CS3.png' width = '70%;'></div></div>","null","pos","CS","CS","2","category2/CS3.png","","","","",""
"","html-keyboard-response","77","353706","0.0-6.0-6.0-0.8","zokm9vz8ou","many_one","0","direct_first","1","os08as07","0","20","1","1","1","2","null","","","<div class = 'row'><div class = 'column'><img src = 'category3/CS7.png' width = '70%;'></div><div class = 'column'><img src = 'usneg/2141.bmp' width = '100%;'></div></div>","null","neg","CS","CS","3","category3/CS7.png","","","","",""
"","html-keyboard-response","78","356246","0.0-6.0-6.0-0.9","zokm9vz8ou","many_one","0","direct_first","1","os08as07","0","20","1","1","1","2","null","","","<div class = 'row'><div class = 'column'><img src = 'category3/CS8.png' width = '70%;'></div><div class = 'column'><img src = 'usneg/2900.bmp' width = '100%;'></div></div>","null","neg","CS","CS","3","category3/CS8.png","","","","",""
"","html-keyboard-response","79","358786","0.0-6.0-6.0-0.10","zokm9vz8ou","many_one","0","direct_first","1","os08as07","0","20","1","1","1","2","null","","","<div class = 'row'><div class = 'column'><img src = 'usneg/9404.bmp' width = '100%;'></div><div class = 'column'><img src = 'category1/CS9.png' width = '70%;'></div></div>","null","neg","CS","CS","1","category1/CS9.png","","","","",""
"","html-keyboard-response","80","361326","0.0-6.0-6.0-0.11","zokm9vz8ou","many_one","0","direct_first","1","os08as07","0","20","1","1","1","2","null","","","<div class = 'row'><div class = 'column'><img src = 'usneg/9050.bmp' width = '100%;'></div><div class = 'column'><img src = 'category1/CS5.png' width = '70%;'></div></div>","null","neg","CS","CS","1","category1/CS5.png","","","","",""
"","html-keyboard-response","81","363866","0.0-6.0-6.0-0.12","zokm9vz8ou","many_one","0","direct_first","1","os08as07","0","20","1","1","1","2","null","","","<div class = 'row'><div class = 'column'><img src = 'category4/CS1.png' width = '70%;'></div><div class = 'column'><img src = 'uspos/1460.bmp' width = '100%;'></div></div>","null","pos","CS","CS","4","category4/CS1.png","","","","",""
"","html-keyboard-response","82","366406","0.0-6.0-6.0-0.13","zokm9vz8ou","many_one","0","direct_first","1","os08as07","0","20","1","1","1","2","null","","","<div class = 'row'><div class = 'column'><img src = 'usneg/6212.bmp' width = '100%;'></div><div class = 'column'><img src = 'category3/CS6.png' width = '70%;'></div></div>","null","neg","CS","CS","3","category3/CS6.png","","","","",""
"","html-keyboard-response","83","368946","0.0-6.0-6.0-0.14","zokm9vz8ou","many_one","0","direct_first","1","os08as07","0","20","1","1","1","2","null","","","<div class = 'row'><div class = 'column'><img src = 'uspos/2550.bmp' width = '100%;'></div><div class = 'column'><img src = 'category2/CS10.png' width = '70%;'></div></div>","null","pos","CS","CS","2","category2/CS10.png","","","","",""
"","html-keyboard-response","84","371486","0.0-6.0-6.0-0.15","zokm9vz8ou","many_one","0","direct_first","1","os08as07","0","20","1","1","1","2","null","","","<div class = 'row'><div class = 'column'><img src = 'category2/CS4.png' width = '70%;'></div><div class = 'column'><img src = 'uspos/5830.bmp' width = '100%;'></div></div>","null","pos","CS","CS","2","category2/CS4.png","","","","",""
"","html-keyboard-response","85","373996","0.0-6.0-6.0-0.16","zokm9vz8ou","many_one","0","direct_first","1","os08as07","0","20","1","1","1","2","null","","","<div class = 'row'><div class = 'column'><img src = 'usneg/9000.bmp' width = '100%;'></div><div class = 'column'><img src = 'category1/CS6.png' width = '70%;'></div></div>","null","neg","CS","CS","1","category1/CS6.png","","","","",""
"","html-keyboard-response","86","376525","0.0-6.0-6.0-0.17","zokm9vz8ou","many_one","0","direct_first","1","os08as07","0","20","1","1","1","2","null","","","<div class = 'row'><div class = 'column'><img src = 'category3/CS5.png' width = '70%;'></div><div class = 'column'><img src = 'usneg/8485.bmp' width = '100%;'></div></div>","null","neg","CS","CS","3","category3/CS5.png","","","","",""
"","html-keyboard-response","87","379066","0.0-6.0-6.0-0.18","zokm9vz8ou","many_one","0","direct_first","1","os08as07","0","20","1","1","1","2","null","","","<div class = 'row'><div class = 'column'><img src = 'category2/CS8.png' width = '70%;'></div><div class = 'column'><img src = 'uspos/5470.bmp' width = '100%;'></div></div>","null","pos","CS","CS","2","category2/CS8.png","","","","",""
"","html-keyboard-response","88","381606","0.0-6.0-6.0-0.19","zokm9vz8ou","many_one","0","direct_first","1","os08as07","0","20","1","1","1","2","null","","","<div class = 'row'><div class = 'column'><img src = 'category1/CS3.png' width = '70%;'></div><div class = 'column'><img src = 'usneg/9635.2.bmp' width = '100%;'></div></div>","null","neg","CS","CS","1","category1/CS3.png","","","","",""
"","survey-html-form","89","390223","0.0-7.0","zokm9vz8ou","many_one","0","direct_first","1","os08as07","0","20","1","1","1","2","8098","","{}","","","","","","","","","","","",""
"","image-slider-response","90","397541","0.0-8.0-0.0","zokm9vz8ou","many_one","0","direct_first","1","os08as07","0","20","1","1","1","2","5300","","","","","pos","CS","CS","4","category4/CS3.png","30","targets/31.png","direct","",""
"","image-slider-response","91","402821","0.0-8.0-0.1","zokm9vz8ou","many_one","0","direct_first","1","os08as07","0","20","1","1","1","2","5279","","","","","neg","CS","CS","1","category1/CS2.png","47","targets/7.png","direct","",""
"","image-slider-response","92","406373","0.0-8.0-0.2","zokm9vz8ou","many_one","0","direct_first","1","os08as07","0","20","1","1","1","2","3551","","","","","pos","GS","GSnew","4","category4/GS3.png","28","targets/1.png","direct","",""
"","image-slider-response","93","408749","0.0-8.0-0.3","zokm9vz8ou","many_one","0","direct_first","1","os08as07","0","20","1","1","1","2","2375","","","","","neg","GS","GSold","1","category1/CS4.png","-34","targets/34.png","direct","",""
"","image-slider-response","94","413469","0.0-8.0-0.4","zokm9vz8ou","many_one","0","direct_first","1","os08as07","0","20","1","1","1","2","4719","","","","","neg","GS","GSold","1","category1/CS1.png","-65","targets/9.png","direct","",""
"","image-slider-response","95","417309","0.0-8.0-0.5","zokm9vz8ou","many_one","0","direct_first","1","os08as07","0","20","1","1","1","2","3839","","","","","pos","CS","CS","4","category4/CS1.png","62","targets/20.png","direct","",""
"","image-slider-response","96","420093","0.0-8.0-0.6","zokm9vz8ou","many_one","0","direct_first","1","os08as07","0","20","1","1","1","2","2783","","","","","pos","CS","CS","2","category2/CS2.png","25","targets/25.png","direct","",""
"","image-slider-response","97","425197","0.0-8.0-0.7","zokm9vz8ou","many_one","0","direct_first","1","os08as07","0","20","1","1","1","2","5102","","","","","pos","GS","GSold","4","category4/CS7.png","70","targets/11.png","direct","",""
"","image-slider-response","98","429661","0.0-8.0-0.8","zokm9vz8ou","many_one","0","direct_first","1","os08as07","0","20","1","1","1","2","4463","","","","","pos","GS","abstract","2","category2/men.png","-50","targets/48.png","direct","",""
"","image-slider-response","99","435917","0.0-8.0-0.9","zokm9vz8ou","many_one","0","direct_first","1","os08as07","0","20","1","1","1","2","6255","","","","","pos","CS","CS","2","category2/CS3.png","47","targets/29.png","direct","",""
"","image-slider-response","100","439725","0.0-8.0-0.10","zokm9vz8ou","many_one","0","direct_first","1","os08as07","0","20","1","1","1","2","3807","","","","","neg","GS","GSold","3","category3/CS1.png","31","targets/18.png","direct","",""
"","image-slider-response","101","443564","0.0-8.0-0.11","zokm9vz8ou","many_one","0","direct_first","1","os08as07","0","20","1","1","1","2","3839","","","","","pos","GS","GSnew","2","category2/GS1.png","-31","targets/40.png","direct","",""
"","image-slider-response","102","448669","0.0-8.0-0.12","zokm9vz8ou","many_one","0","direct_first","1","os08as07","0","20","1","1","1","2","5102","","","","","pos","GS","abstract","4","category4/lin.png","-37","targets/6.png","direct","",""
"","image-slider-response","103","451565","0.0-8.0-0.13","zokm9vz8ou","many_one","0","direct_first","1","os08as07","0","20","1","1","1","2","2895","","","","","neg","CS","CS","3","category3/CS5.png","-65","targets/19.png","direct","",""
"","image-slider-response","104","454149","0.0-8.0-0.14","zokm9vz8ou","many_one","0","direct_first","1","os08as07","0","20","1","1","1","2","2583","","","","","pos","GS","GSnew","4","category4/GS2.png","-54","targets/27.png","direct","",""
"","image-slider-response","105","460845","0.0-8.0-0.15","zokm9vz8ou","many_one","0","direct_first","1","os08as07","0","20","1","1","1","2","6694","","","","","neg","CS","CS","3","category3/CS7.png","-54","targets/5.png","direct","",""
"","image-slider-response","106","463996","0.0-8.0-0.16","zokm9vz8ou","many_one","0","direct_first","1","os08as07","0","20","1","1","1","2","3150","","","","","pos","CS","CS","2","category2/CS10.png","39","targets/35.png","direct","",""
"","image-slider-response","107","467692","0.0-8.0-0.17","zokm9vz8ou","many_one","0","direct_first","1","os08as07","0","20","1","1","1","2","3696","","","","","pos","GS","GSold","4","category4/CS5.png","-50","targets/44.png","direct","",""
"","image-slider-response","108","471508","0.0-8.0-0.18","zokm9vz8ou","many_one","0","direct_first","1","os08as07","0","20","1","1","1","2","3815","","","","","pos","CS","CS","4","category4/CS8.png","-20","targets/17.png","direct","",""
"","image-slider-response","109","475468","0.0-8.0-0.19","zokm9vz8ou","many_one","0","direct_first","1","os08as07","0","20","1","1","1","2","3958","","","","","neg","GS","GSnew","1","category1/GS2.png","-66","targets/37.png","direct","",""
"","image-slider-response","110","478412","0.0-8.0-0.20","zokm9vz8ou","many_one","0","direct_first","1","os08as07","0","20","1","1","1","2","2942","","","","","pos","GS","GSold","4","category4/CS4.png","48","targets/13.png","direct","",""
"","image-slider-response","111","481892","0.0-8.0-0.21","zokm9vz8ou","many_one","0","direct_first","1","os08as07","0","20","1","1","1","2","3479","","","","","neg","CS","CS","3","category3/CS6.png","-39","targets/36.png","direct","",""
"","image-slider-response","112","485917","0.0-8.0-0.22","zokm9vz8ou","many_one","0","direct_first","1","os08as07","0","20","1","1","1","2","4023","","","","","pos","GS","GSold","2","category2/CS5.png","47","targets/21.png","direct","",""
"","image-slider-response","113","489028","0.0-8.0-0.23","zokm9vz8ou","many_one","0","direct_first","1","os08as07","0","20","1","1","1","2","3110","","","","","pos","CS","CS","2","category2/CS8.png","33","targets/38.png","direct","",""
"","image-slider-response","114","492605","0.0-8.0-0.24","zokm9vz8ou","many_one","0","direct_first","1","os08as07","0","20","1","1","1","2","3574","","","","","neg","CS","CS","1","category1/CS9.png","79","targets/26.png","direct","",""
"","image-slider-response","115","497036","0.0-8.0-0.25","zokm9vz8ou","many_one","0","direct_first","1","os08as07","0","20","1","1","1","2","4431","","","","","neg","GS","GSold","3","category3/CS9.png","54","targets/39.png","direct","",""
"","image-slider-response","116","499941","0.0-8.0-0.26","zokm9vz8ou","many_one","0","direct_first","1","os08as07","0","20","1","1","1","2","2903","","","","","neg","GS","abstract","1","category1/ma.png","-53","targets/12.png","direct","",""
"","image-slider-response","117","502420","0.0-8.0-0.27","zokm9vz8ou","many_one","0","direct_first","1","os08as07","0","20","1","1","1","2","2479","","","","","neg","CS","CS","1","category1/CS5.png","39","targets/8.png","direct","",""
"","image-slider-response","118","505212","0.0-8.0-0.28","zokm9vz8ou","many_one","0","direct_first","1","os08as07","0","20","1","1","1","2","2791","","","","","neg","GS","GSnew","1","category1/GS3.png","-33","targets/4.png","direct","",""
"","image-slider-response","119","509524","0.0-8.0-0.29","zokm9vz8ou","many_one","0","direct_first","1","os08as07","0","20","1","1","1","2","4312","","","","","pos","CS","CS","2","category2/CS4.png","-28","targets/16.png","direct","",""
"","image-slider-response","120","511900","0.0-8.0-0.30","zokm9vz8ou","many_one","0","direct_first","1","os08as07","0","20","1","1","1","2","2375","","","","","pos","GS","GSnew","2","category2/GS3.png","-48","targets/43.png","direct","",""
"","image-slider-response","121","514564","0.0-8.0-0.31","zokm9vz8ou","many_one","0","direct_first","1","os08as07","0","20","1","1","1","2","2663","","","","","neg","GS","GSnew","3","category3/GS3.png","34","targets/30.png","direct","",""
"","image-slider-response","122","521211","0.0-8.0-0.32","zokm9vz8ou","many_one","0","direct_first","1","os08as07","0","20","1","1","1","2","6647","","","","","neg","GS","GSnew","1","category1/GS1.png","48","targets/32.png","direct","",""
"","image-slider-response","123","523323","0.0-8.0-0.33","zokm9vz8ou","many_one","0","direct_first","1","os08as07","0","20","1","1","1","2","2112","","","","","pos","GS","GSnew","2","category2/GS2.png","-34","targets/45.png","direct","",""
"","image-slider-response","124","528315","0.0-8.0-0.34","zokm9vz8ou","many_one","0","direct_first","1","os08as07","0","20","1","1","1","2","4991","","","","","pos","GS","GSold","2","category2/CS6.png","-40","targets/24.png","direct","",""
"","image-slider-response","125","532067","0.0-8.0-0.35","zokm9vz8ou","many_one","0","direct_first","1","os08as07","0","20","1","1","1","2","3751","","","","","pos","GS","GSold","2","category2/CS7.png","-42","targets/2.png","direct","",""
"","image-slider-response","126","534635","0.0-8.0-0.36","zokm9vz8ou","many_one","0","direct_first","1","os08as07","0","20","1","1","1","2","2567","","","","","pos","CS","CS","4","category4/CS9.png","33","targets/10.png","direct","",""
"","image-slider-response","127","537843","0.0-8.0-0.37","zokm9vz8ou","many_one","0","direct_first","1","os08as07","0","20","1","1","1","2","3207","","","","","neg","GS","GSnew","3","category3/GS2.png","-65","targets/46.png","direct","",""
"","image-slider-response","128","540699","0.0-8.0-0.38","zokm9vz8ou","many_one","0","direct_first","1","os08as07","0","20","1","1","1","2","2854","","","","","pos","CS","CS","4","category4/CS10.png","31","targets/33.png","direct","",""
"","image-slider-response","129","543963","0.0-8.0-0.39","zokm9vz8ou","many_one","0","direct_first","1","os08as07","0","20","1","1","1","2","3263","","","","","neg","CS","CS","3","category3/CS4.png","-48","targets/3.png","direct","",""
"","image-slider-response","130","548931","0.0-8.0-0.40","zokm9vz8ou","many_one","0","direct_first","1","os08as07","0","20","1","1","1","2","4967","","","","","neg","CS","CS","3","category3/CS8.png","-76","targets/47.png","direct","",""
"","image-slider-response","131","551708","0.0-8.0-0.41","zokm9vz8ou","many_one","0","direct_first","1","os08as07","0","20","1","1","1","2","2775","","","","","neg","CS","CS","1","category1/CS6.png","47","targets/23.png","direct","",""
"","image-slider-response","132","556420","0.0-8.0-0.42","zokm9vz8ou","many_one","0","direct_first","1","os08as07","0","20","1","1","1","2","4711","","","","","pos","GS","GSnew","4","category4/GS1.png","50","targets/14.png","direct","",""
"","image-slider-response","133","559028","0.0-8.0-0.43","zokm9vz8ou","many_one","0","direct_first","1","os08as07","0","20","1","1","1","2","2607","","","","","neg","GS","GSnew","3","category3/GS1.png","-59","targets/41.png","direct","",""
"","image-slider-response","134","562835","0.0-8.0-0.44","zokm9vz8ou","many_one","0","direct_first","1","os08as07","0","20","1","1","1","2","3806","","","","","neg","CS","CS","1","category1/CS3.png","27","targets/15.png","direct","",""
"","image-slider-response","135","566467","0.0-8.0-0.45","zokm9vz8ou","many_one","0","direct_first","1","os08as07","0","20","1","1","1","2","3631","","","","","neg","GS","GSold","3","category3/CS10.png","59","targets/28.png","direct","",""
"","image-slider-response","136","570075","0.0-8.0-0.46","zokm9vz8ou","many_one","0","direct_first","1","os08as07","0","20","1","1","1","2","3607","","","","","neg","GS","abstract","3","category3/wang.png","-42","targets/42.png","direct","",""
"","image-slider-response","137","574475","0.0-8.0-0.47","zokm9vz8ou","many_one","0","direct_first","1","os08as07","0","20","1","1","1","2","4399","","","","","neg","GS","GSold","1","category1/CS7.png","67","targets/22.png","direct","",""
"","html-keyboard-response","138","606125","0.0-9.0","zokm9vz8ou","many_one","0","direct_first","1","os08as07","0","20","1","1","1","2","31650","","","<p>Sie sehen nun die chinesischen Zeichen nur ganz kurz, und danach die jeweilige Aussprache der Zeichen. Ihre Aufgabe ist es, für jede Silbe anzugeben, ob diese etwas angenehmes, oder unangenehmes bedeuten könnte. Verlassen Sie sich hier vor allem auf Ihre Intuition.<br><br>Die Zeichen werden nur zur Orientierung dargestellt, beachten Sie sie deshalb nicht. Konzentrieren Sie sich vor allem auf die Silben. <br>Reagieren Sie mit folgenden zwei Tasten: <br><br><b>'D' </b> wenn die Silbe etwas <b>unangenehmes</b> bedeuten könnte. <br><b>'K'</b> wenn die Silbe etwas <b>angenehmes</b> bedeuten könnte. <br><br>Bitte legen Sie nun den Zeigefinger der linken Hand auf die Taste 'D' und den Zeigefinger der rechten Hand auf die Taste 'K'. <br>Reagieren Sie auf jede Silbe so schnell wie möglich. Uns interessiert Ihre spontane Reaktion. <br> <br> <br>Drücken Sie 'D' oder 'K', um die nächste Aufgabe zu starten. </p>","75","","","","","","","","","",""
"","html-keyboard-response","139","609133","0.0-10.0-0.0","zokm9vz8ou","many_one","0","direct_first","1","os08as07","0","20","1","1","1","2","null","","","<div style=""font-size:60px;"">+</div>","null","","","","","","","","","",""
"","html-keyboard-response","140","609233","0.0-10.0-1.0","zokm9vz8ou","many_one","0","direct_first","1","os08as07","0","20","1","1","1","2","null","","","<img src = 'category4/CS10.png' width = '100%;'>","null","","","","","","","","","",""
"","html-keyboard-response","141","609513","0.0-10.0-2.0","zokm9vz8ou","many_one","0","direct_first","1","os08as07","0","20","1","1","1","2","null","","","<img src = 'targets/33.png' width = '100%;'>","null","","","","","","","","","",""
"","html-keyboard-response","142","611876","0.0-10.0-3.0","zokm9vz8ou","many_one","0","direct_first","1","os08as07","0","20","1","1","1","2","2362","","","<img src = 'targets/mask.png' width = '100%;'>","75","pos","CS","CS","4","category4/CS10.png","","targets/33.png","indirect","1","0"
"","html-keyboard-response","143","613413","0.0-10.0-0.1","zokm9vz8ou","many_one","0","direct_first","1","os08as07","0","20","1","1","1","2","null","","","<div style=""font-size:60px;"">+</div>","null","","","","","","","","","",""
"","html-keyboard-response","144","613513","0.0-10.0-1.1","zokm9vz8ou","many_one","0","direct_first","1","os08as07","0","20","1","1","1","2","null","","","<img src = 'category3/CS4.png' width = '100%;'>","null","","","","","","","","","",""
"","html-keyboard-response","145","613793","0.0-10.0-2.1","zokm9vz8ou","many_one","0","direct_first","1","os08as07","0","20","1","1","1","2","null","","","<img src = 'targets/3.png' width = '100%;'>","null","","","","","","","","","",""
"","html-keyboard-response","146","614508","0.0-10.0-3.1","zokm9vz8ou","many_one","0","direct_first","1","os08as07","0","20","1","1","1","2","714","","","<img src = 'targets/mask.png' width = '100%;'>","68","neg","CS","CS","3","category3/CS4.png","","targets/3.png","indirect","0","1"
"","html-keyboard-response","147","616032","0.0-10.0-0.2","zokm9vz8ou","many_one","0","direct_first","1","os08as07","0","20","1","1","1","2","null","","","<div style=""font-size:60px;"">+</div>","null","","","","","","","","","",""
"","html-keyboard-response","148","616133","0.0-10.0-1.2","zokm9vz8ou","many_one","0","direct_first","1","os08as07","0","20","1","1","1","2","null","","","<img src = 'category1/CS7.png' width = '100%;'>","null","","","","","","","","","",""
"","html-keyboard-response","149","616412","0.0-10.0-2.2","zokm9vz8ou","many_one","0","direct_first","1","os08as07","0","20","1","1","1","2","null","","","<img src = 'targets/22.png' width = '100%;'>","null","","","","","","","","","",""
"","html-keyboard-response","150","616788","0.0-10.0-3.2","zokm9vz8ou","many_one","0","direct_first","1","os08as07","0","20","1","1","1","2","374","","","<img src = 'targets/mask.png' width = '100%;'>","75","neg","GS","GSold","1","category1/CS7.png","","targets/22.png","indirect","1","2"
"","html-keyboard-response","151","618313","0.0-10.0-0.3","zokm9vz8ou","many_one","0","direct_first","1","os08as07","0","20","1","1","1","2","null","","","<div style=""font-size:60px;"">+</div>","null","","","","","","","","","",""
"","html-keyboard-response","152","618413","0.0-10.0-1.3","zokm9vz8ou","many_one","0","direct_first","1","os08as07","0","20","1","1","1","2","null","","","<img src = 'category1/CS2.png' width = '100%;'>","null","","","","","","","","","",""
"","html-keyboard-response","153","618693","0.0-10.0-2.3","zokm9vz8ou","many_one","0","direct_first","1","os08as07","0","20","1","1","1","2","null","","","<img src = 'targets/7.png' width = '100%;'>","null","","","","","","","","","",""
"","html-keyboard-response","154","619588","0.0-10.0-3.3","zokm9vz8ou","many_one","0","direct_first","1","os08as07","0","20","1","1","1","2","893","","","<img src = 'targets/mask.png' width = '100%;'>","75","neg","CS","CS","1","category1/CS2.png","","targets/7.png","indirect","1","3"
"","html-keyboard-response","155","621113","0.0-10.0-0.4","zokm9vz8ou","many_one","0","direct_first","1","os08as07","0","20","1","1","1","2","null","","","<div style=""font-size:60px;"">+</div>","null","","","","","","","","","",""
"","html-keyboard-response","156","621213","0.0-10.0-1.4","zokm9vz8ou","many_one","0","direct_first","1","os08as07","0","20","1","1","1","2","null","","","<img src = 'category2/CS10.png' width = '100%;'>","null","","","","","","","","","",""
"","html-keyboard-response","157","621472","0.0-10.0-2.4","zokm9vz8ou","many_one","0","direct_first","1","os08as07","0","20","1","1","1","2","null","","","<img src = 'targets/35.png' width = '100%;'>","null","","","","","","","","","",""
"","html-keyboard-response","158","622356","0.0-10.0-3.4","zokm9vz8ou","many_one","0","direct_first","1","os08as07","0","20","1","1","1","2","882","","","<img src = 'targets/mask.png' width = '100%;'>","75","pos","CS","CS","2","category2/CS10.png","","targets/35.png","indirect","1","4"
"","html-keyboard-response","159","623893","0.0-10.0-0.5","zokm9vz8ou","many_one","0","direct_first","1","os08as07","0","20","1","1","1","2","null","","","<div style=""font-size:60px;"">+</div>","null","","","","","","","","","",""
"","html-keyboard-response","160","623993","0.0-10.0-1.5","zokm9vz8ou","many_one","0","direct_first","1","os08as07","0","20","1","1","1","2","null","","","<img src = 'category2/CS8.png' width = '100%;'>","null","","","","","","","","","",""
"","html-keyboard-response","161","624268","0.0-10.0-2.5","zokm9vz8ou","many_one","0","direct_first","1","os08as07","0","20","1","1","1","2","null","","","<img src = 'targets/38.png' width = '100%;'>","null","","","","","","","","","",""
"","html-keyboard-response","162","624924","0.0-10.0-3.5","zokm9vz8ou","many_one","0","direct_first","1","os08as07","0","20","1","1","1","2","655","","","<img src = 'targets/mask.png' width = '100%;'>","68","pos","CS","CS","2","category2/CS8.png","","targets/38.png","indirect","0","5"
"","html-keyboard-response","163","626453","0.0-10.0-0.6","zokm9vz8ou","many_one","0","direct_first","1","os08as07","0","20","1","1","1","2","null","","","<div style=""font-size:60px;"">+</div>","null","","","","","","","","","",""
"","html-keyboard-response","164","626553","0.0-10.0-1.6","zokm9vz8ou","many_one","0","direct_first","1","os08as07","0","20","1","1","1","2","null","","","<img src = 'category4/CS1.png' width = '100%;'>","null","","","","","","","","","",""
"","html-keyboard-response","165","626833","0.0-10.0-2.6","zokm9vz8ou","many_one","0","direct_first","1","os08as07","0","20","1","1","1","2","null","","","<img src = 'targets/20.png' width = '100%;'>","null","","","","","","","","","",""
"","html-keyboard-response","166","627764","0.0-10.0-3.6","zokm9vz8ou","many_one","0","direct_first","1","os08as07","0","20","1","1","1","2","930","","","<img src = 'targets/mask.png' width = '100%;'>","68","pos","CS","CS","4","category4/CS1.png","","targets/20.png","indirect","0","6"
"","html-keyboard-response","167","629273","0.0-10.0-0.7","zokm9vz8ou","many_one","0","direct_first","1","os08as07","0","20","1","1","1","2","null","","","<div style=""font-size:60px;"">+</div>","null","","","","","","","","","",""
"","html-keyboard-response","168","629373","0.0-10.0-1.7","zokm9vz8ou","many_one","0","direct_first","1","os08as07","0","20","1","1","1","2","null","","","<img src = 'category4/CS9.png' width = '100%;'>","null","","","","","","","","","",""
"","html-keyboard-response","169","629653","0.0-10.0-2.7","zokm9vz8ou","many_one","0","direct_first","1","os08as07","0","20","1","1","1","2","null","","","<img src = 'targets/10.png' width = '100%;'>","null","","","","","","","","","",""
"","html-keyboard-response","170","631244","0.0-10.0-3.7","zokm9vz8ou","many_one","0","direct_first","1","os08as07","0","20","1","1","1","2","1590","","","<img src = 'targets/mask.png' width = '100%;'>","68","pos","CS","CS","4","category4/CS9.png","","targets/10.png","indirect","0","7"
"","html-keyboard-response","171","632773","0.0-10.0-0.8","zokm9vz8ou","many_one","0","direct_first","1","os08as07","0","20","1","1","1","2","null","","","<div style=""font-size:60px;"">+</div>","null","","","","","","","","","",""
"","html-keyboard-response","172","632873","0.0-10.0-1.8","zokm9vz8ou","many_one","0","direct_first","1","os08as07","0","20","1","1","1","2","null","","","<img src = 'category4/CS3.png' width = '100%;'>","null","","","","","","","","","",""
"","html-keyboard-response","173","633153","0.0-10.0-2.8","zokm9vz8ou","many_one","0","direct_first","1","os08as07","0","20","1","1","1","2","null","","","<img src = 'targets/31.png' width = '100%;'>","null","","","","","","","","","",""
"","html-keyboard-response","174","634836","0.0-10.0-3.8","zokm9vz8ou","many_one","0","direct_first","1","os08as07","0","20","1","1","1","2","1681","","","<img src = 'targets/mask.png' width = '100%;'>","75","pos","CS","CS","4","category4/CS3.png","","targets/31.png","indirect","1","8"
"","html-keyboard-response","175","636373","0.0-10.0-0.9","zokm9vz8ou","many_one","0","direct_first","1","os08as07","0","20","1","1","1","2","null","","","<div style=""font-size:60px;"">+</div>","null","","","","","","","","","",""
"","html-keyboard-response","176","636473","0.0-10.0-1.9","zokm9vz8ou","many_one","0","direct_first","1","os08as07","0","20","1","1","1","2","null","","","<img src = 'category3/CS8.png' width = '100%;'>","null","","","","","","","","","",""
"","html-keyboard-response","177","636752","0.0-10.0-2.9","zokm9vz8ou","many_one","0","direct_first","1","os08as07","0","20","1","1","1","2","null","","","<img src = 'targets/47.png' width = '100%;'>","null","","","","","","","","","",""
"","html-keyboard-response","178","638195","0.0-10.0-3.9","zokm9vz8ou","many_one","0","direct_first","1","os08as07","0","20","1","1","1","2","1441","","","<img src = 'targets/mask.png' width = '100%;'>","68","neg","CS","CS","3","category3/CS8.png","","targets/47.png","indirect","0","9"
"","html-keyboard-response","179","639723","0.0-10.0-0.10","zokm9vz8ou","many_one","0","direct_first","1","os08as07","0","20","1","1","1","2","null","","","<div style=""font-size:60px;"">+</div>","null","","","","","","","","","",""
"","html-keyboard-response","180","639823","0.0-10.0-1.10","zokm9vz8ou","many_one","0","direct_first","1","os08as07","0","20","1","1","1","2","null","","","<img src = 'category2/CS3.png' width = '100%;'>","null","","","","","","","","","",""
"","html-keyboard-response","181","640103","0.0-10.0-2.10","zokm9vz8ou","many_one","0","direct_first","1","os08as07","0","20","1","1","1","2","null","","","<img src = 'targets/29.png' width = '100%;'>","null","","","","","","","","","",""
"","html-keyboard-response","182","641531","0.0-10.0-3.10","zokm9vz8ou","many_one","0","direct_first","1","os08as07","0","20","1","1","1","2","1428","","","<img src = 'targets/mask.png' width = '100%;'>","68","pos","CS","CS","2","category2/CS3.png","","targets/29.png","indirect","0","10"
"","html-keyboard-response","183","643042","0.0-10.0-0.11","zokm9vz8ou","many_one","0","direct_first","1","os08as07","0","20","1","1","1","2","null","","","<div style=""font-size:60px;"">+</div>","null","","","","","","","","","",""
"","html-keyboard-response","184","643143","0.0-10.0-1.11","zokm9vz8ou","many_one","0","direct_first","1","os08as07","0","20","1","1","1","2","null","","","<img src = 'category4/CS8.png' width = '100%;'>","null","","","","","","","","","",""
"","html-keyboard-response","185","643422","0.0-10.0-2.11","zokm9vz8ou","many_one","0","direct_first","1","os08as07","0","20","1","1","1","2","null","","","<img src = 'targets/17.png' width = '100%;'>","null","","","","","","","","","",""
"","html-keyboard-response","186","644084","0.0-10.0-3.11","zokm9vz8ou","many_one","0","direct_first","1","os08as07","0","20","1","1","1","2","659","","","<img src = 'targets/mask.png' width = '100%;'>","68","pos","CS","CS","4","category4/CS8.png","","targets/17.png","indirect","0","11"
"","html-keyboard-response","187","645612","0.0-10.0-0.12","zokm9vz8ou","many_one","0","direct_first","1","os08as07","0","20","1","1","1","2","null","","","<div style=""font-size:60px;"">+</div>","null","","","","","","","","","",""
"","html-keyboard-response","188","645712","0.0-10.0-1.12","zokm9vz8ou","many_one","0","direct_first","1","os08as07","0","20","1","1","1","2","null","","","<img src = 'category1/CS9.png' width = '100%;'>","null","","","","","","","","","",""
"","html-keyboard-response","189","645993","0.0-10.0-2.12","zokm9vz8ou","many_one","0","direct_first","1","os08as07","0","20","1","1","1","2","null","","","<img src = 'targets/26.png' width = '100%;'>","null","","","","","","","","","",""
"","html-keyboard-response","190","646932","0.0-10.0-3.12","zokm9vz8ou","many_one","0","direct_first","1","os08as07","0","20","1","1","1","2","937","","","<img src = 'targets/mask.png' width = '100%;'>","68","neg","CS","CS","1","category1/CS9.png","","targets/26.png","indirect","0","12"
"","html-keyboard-response","191","648433","0.0-10.0-0.13","zokm9vz8ou","many_one","0","direct_first","1","os08as07","0","20","1","1","1","2","null","","","<div style=""font-size:60px;"">+</div>","null","","","","","","","","","",""
"","html-keyboard-response","192","648533","0.0-10.0-1.13","zokm9vz8ou","many_one","0","direct_first","1","os08as07","0","20","1","1","1","2","null","","","<img src = 'category3/CS7.png' width = '100%;'>","null","","","","","","","","","",""
"","html-keyboard-response","193","648813","0.0-10.0-2.13","zokm9vz8ou","many_one","0","direct_first","1","os08as07","0","20","1","1","1","2","null","","","<img src = 'targets/5.png' width = '100%;'>","null","","","","","","","","","",""
"","html-keyboard-response","194","649419","0.0-10.0-3.13","zokm9vz8ou","many_one","0","direct_first","1","os08as07","0","20","1","1","1","2","605","","","<img src = 'targets/mask.png' width = '100%;'>","75","neg","CS","CS","3","category3/CS7.png","","targets/5.png","indirect","1","13"
"","html-keyboard-response","195","650930","0.0-10.0-0.14","zokm9vz8ou","many_one","0","direct_first","1","os08as07","0","20","1","1","1","2","null","","","<div style=""font-size:60px;"">+</div>","null","","","","","","","","","",""
"","html-keyboard-response","196","651021","0.0-10.0-1.14","zokm9vz8ou","many_one","0","direct_first","1","os08as07","0","20","1","1","1","2","null","","","<img src = 'category3/CS6.png' width = '100%;'>","null","","","","","","","","","",""
"","html-keyboard-response","197","651273","0.0-10.0-2.14","zokm9vz8ou","many_one","0","direct_first","1","os08as07","0","20","1","1","1","2","null","","","<img src = 'targets/36.png' width = '100%;'>","null","","","","","","","","","",""
"","html-keyboard-response","198","652547","0.0-10.0-3.14","zokm9vz8ou","many_one","0","direct_first","1","os08as07","0","20","1","1","1","2","1274","","","<img src = 'targets/mask.png' width = '100%;'>","68","neg","CS","CS","3","category3/CS6.png","","targets/36.png","indirect","0","14"
"","html-keyboard-response","199","654052","0.0-10.0-0.15","zokm9vz8ou","many_one","0","direct_first","1","os08as07","0","20","1","1","1","2","null","","","<div style=""font-size:60px;"">+</div>","null","","","","","","","","","",""
"","html-keyboard-response","200","654153","0.0-10.0-1.15","zokm9vz8ou","many_one","0","direct_first","1","os08as07","0","20","1","1","1","2","null","","","<img src = 'category1/CS4.png' width = '100%;'>","null","","","","","","","","","",""
"","html-keyboard-response","201","654432","0.0-10.0-2.15","zokm9vz8ou","many_one","0","direct_first","1","os08as07","0","20","1","1","1","2","null","","","<img src = 'targets/34.png' width = '100%;'>","null","","","","","","","","","",""
"","html-keyboard-response","202","655132","0.0-10.0-3.15","zokm9vz8ou","many_one","0","direct_first","1","os08as07","0","20","1","1","1","2","699","","","<img src = 'targets/mask.png' width = '100%;'>","75","neg","GS","GSold","1","category1/CS4.png","","targets/34.png","indirect","1","15"
"","html-keyboard-response","203","656633","0.0-10.0-0.16","zokm9vz8ou","many_one","0","direct_first","1","os08as07","0","20","1","1","1","2","null","","","<div style=""font-size:60px;"">+</div>","null","","","","","","","","","",""
"","html-keyboard-response","204","656732","0.0-10.0-1.16","zokm9vz8ou","many_one","0","direct_first","1","os08as07","0","20","1","1","1","2","null","","","<img src = 'category2/CS7.png' width = '100%;'>","null","","","","","","","","","",""
"","html-keyboard-response","205","657012","0.0-10.0-2.16","zokm9vz8ou","many_one","0","direct_first","1","os08as07","0","20","1","1","1","2","null","","","<img src = 'targets/2.png' width = '100%;'>","null","","","","","","","","","",""
"","html-keyboard-response","206","658283","0.0-10.0-3.16","zokm9vz8ou","many_one","0","direct_first","1","os08as07","0","20","1","1","1","2","1270","","","<img src = 'targets/mask.png' width = '100%;'>","75","pos","GS","GSold","2","category2/CS7.png","","targets/2.png","indirect","1","16"
"","html-keyboard-response","207","659792","0.0-10.0-0.17","zokm9vz8ou","many_one","0","direct_first","1","os08as07","0","20","1","1","1","2","null","","","<div style=""font-size:60px;"">+</div>","null","","","","","","","","","",""
"","html-keyboard-response","208","659892","0.0-10.0-1.17","zokm9vz8ou","many_one","0","direct_first","1","os08as07","0","20","1","1","1","2","null","","","<img src = 'category2/CS4.png' width = '100%;'>","null","","","","","","","","","",""
"","html-keyboard-response","209","660173","0.0-10.0-2.17","zokm9vz8ou","many_one","0","direct_first","1","os08as07","0","20","1","1","1","2","null","","","<img src = 'targets/16.png' width = '100%;'>","null","","","","","","","","","",""
"","html-keyboard-response","210","661380","0.0-10.0-3.17","zokm9vz8ou","many_one","0","direct_first","1","os08as07","0","20","1","1","1","2","1206","","","<img src = 'targets/mask.png' width = '100%;'>","68","pos","CS","CS","2","category2/CS4.png","","targets/16.png","indirect","0","17"
"","html-keyboard-response","211","662912","0.0-10.0-0.18","zokm9vz8ou","many_one","0","direct_first","1","os08as07","0","20","1","1","1","2","null","","","<div style=""font-size:60px;"">+</div>","null","","","","","","","","","",""
"","html-keyboard-response","212","663012","0.0-10.0-1.18","zokm9vz8ou","many_one","0","direct_first","1","os08as07","0","20","1","1","1","2","null","","","<img src = 'category1/CS3.png' width = '100%;'>","null","","","","","","","","","",""
"","html-keyboard-response","213","663292","0.0-10.0-2.18","zokm9vz8ou","many_one","0","direct_first","1","os08as07","0","20","1","1","1","2","null","","","<img src = 'targets/15.png' width = '100%;'>","null","","","","","","","","","",""
"","html-keyboard-response","214","664555","0.0-10.0-3.18","zokm9vz8ou","many_one","0","direct_first","1","os08as07","0","20","1","1","1","2","1261","","","<img src = 'targets/mask.png' width = '100%;'>","68","neg","CS","CS","1","category1/CS3.png","","targets/15.png","indirect","0","18"
"","html-keyboard-response","215","666092","0.0-10.0-0.19","zokm9vz8ou","many_one","0","direct_first","1","os08as07","0","20","1","1","1","2","null","","","<div style=""font-size:60px;"">+</div>","null","","","","","","","","","",""
"","html-keyboard-response","216","666192","0.0-10.0-1.19","zokm9vz8ou","many_one","0","direct_first","1","os08as07","0","20","1","1","1","2","null","","","<img src = 'category1/CS5.png' width = '100%;'>","null","","","","","","","","","",""
"","html-keyboard-response","217","666463","0.0-10.0-2.19","zokm9vz8ou","many_one","0","direct_first","1","os08as07","0","20","1","1","1","2","null","","","<img src = 'targets/8.png' width = '100%;'>","null","","","","","","","","","",""
"","html-keyboard-response","218","667363","0.0-10.0-3.19","zokm9vz8ou","many_one","0","direct_first","1","os08as07","0","20","1","1","1","2","900","","","<img src = 'targets/mask.png' width = '100%;'>","75","neg","CS","CS","1","category1/CS5.png","","targets/8.png","indirect","1","19"
"","html-keyboard-response","219","668902","0.0-10.0-0.20","zokm9vz8ou","many_one","0","direct_first","1","os08as07","0","20","1","1","1","2","null","","","<div style=""font-size:60px;"">+</div>","null","","","","","","","","","",""
"","html-keyboard-response","220","669002","0.0-10.0-1.20","zokm9vz8ou","many_one","0","direct_first","1","os08as07","0","20","1","1","1","2","null","","","<img src = 'category3/CS5.png' width = '100%;'>","null","","","","","","","","","",""
"","html-keyboard-response","221","669282","0.0-10.0-2.20","zokm9vz8ou","many_one","0","direct_first","1","os08as07","0","20","1","1","1","2","null","","","<img src = 'targets/19.png' width = '100%;'>","null","","","","","","","","","",""
"","html-keyboard-response","222","670011","0.0-10.0-3.20","zokm9vz8ou","many_one","0","direct_first","1","os08as07","0","20","1","1","1","2","727","","","<img src = 'targets/mask.png' width = '100%;'>","75","neg","CS","CS","3","category3/CS5.png","","targets/19.png","indirect","1","20"
"","html-keyboard-response","223","671542","0.0-10.0-0.21","zokm9vz8ou","many_one","0","direct_first","1","os08as07","0","20","1","1","1","2","null","","","<div style=""font-size:60px;"">+</div>","null","","","","","","","","","",""
"","html-keyboard-response","224","671643","0.0-10.0-1.21","zokm9vz8ou","many_one","0","direct_first","1","os08as07","0","20","1","1","1","2","null","","","<img src = 'category1/CS6.png' width = '100%;'>","null","","","","","","","","","",""
"","html-keyboard-response","225","671922","0.0-10.0-2.21","zokm9vz8ou","many_one","0","direct_first","1","os08as07","0","20","1","1","1","2","null","","","<img src = 'targets/23.png' width = '100%;'>","null","","","","","","","","","",""
"","html-keyboard-response","226","672643","0.0-10.0-3.21","zokm9vz8ou","many_one","0","direct_first","1","os08as07","0","20","1","1","1","2","719","","","<img src = 'targets/mask.png' width = '100%;'>","68","neg","CS","CS","1","category1/CS6.png","","targets/23.png","indirect","0","21"
"","html-keyboard-response","227","674182","0.0-10.0-0.22","zokm9vz8ou","many_one","0","direct_first","1","os08as07","0","20","1","1","1","2","null","","","<div style=""font-size:60px;"">+</div>","null","","","","","","","","","",""
"","html-keyboard-response","228","674283","0.0-10.0-1.22","zokm9vz8ou","many_one","0","direct_first","1","os08as07","0","20","1","1","1","2","null","","","<img src = 'category1/CS1.png' width = '100%;'>","null","","","","","","","","","",""
"","html-keyboard-response","229","674562","0.0-10.0-2.22","zokm9vz8ou","many_one","0","direct_first","1","os08as07","0","20","1","1","1","2","null","","","<img src = 'targets/9.png' width = '100%;'>","null","","","","","","","","","",""
"","html-keyboard-response","230","675147","0.0-10.0-3.22","zokm9vz8ou","many_one","0","direct_first","1","os08as07","0","20","1","1","1","2","583","","","<img src = 'targets/mask.png' width = '100%;'>","75","neg","GS","GSold","1","category1/CS1.png","","targets/9.png","indirect","1","22"
"","html-keyboard-response","231","676682","0.0-10.0-0.23","zokm9vz8ou","many_one","0","direct_first","1","os08as07","0","20","1","1","1","2","null","","","<div style=""font-size:60px;"">+</div>","null","","","","","","","","","",""
"","html-keyboard-response","232","676782","0.0-10.0-1.23","zokm9vz8ou","many_one","0","direct_first","1","os08as07","0","20","1","1","1","2","null","","","<img src = 'category2/CS2.png' width = '100%;'>","null","","","","","","","","","",""
"","html-keyboard-response","233","677063","0.0-10.0-2.23","zokm9vz8ou","many_one","0","direct_first","1","os08as07","0","20","1","1","1","2","null","","","<img src = 'targets/25.png' width = '100%;'>","null","","","","","","","","","",""
"","html-keyboard-response","234","677772","0.0-10.0-3.23","zokm9vz8ou","many_one","0","direct_first","1","os08as07","0","20","1","1","1","2","708","","","<img src = 'targets/mask.png' width = '100%;'>","75","pos","CS","CS","2","category2/CS2.png","","targets/25.png","indirect","1","23"
"","survey-html-form","235","685635","0.0-11.0","zokm9vz8ou","many_one","0","direct_first","1","os08as07","0","20","1","1","1","2","7353","","{}","","","","","","","","","","","",""
"","html-keyboard-response","236","688653","0.0-12.0-0.0","zokm9vz8ou","many_one","0","direct_first","1","os08as07","0","20","1","1","1","2","null","","","<div style=""font-size:60px;"">+</div>","null","","","","","","","","","",""
"","html-keyboard-response","237","688752","0.0-12.0-1.0","zokm9vz8ou","many_one","0","direct_first","1","os08as07","0","20","1","1","1","2","null","","","<img src = 'category3/CS10.png' width = '100%;'>","null","","","","","","","","","",""
"","html-keyboard-response","238","689032","0.0-12.0-2.0","zokm9vz8ou","many_one","0","direct_first","1","os08as07","0","20","1","1","1","2","null","","","<img src = 'targets/28.png' width = '100%;'>","null","","","","","","","","","",""
"","html-keyboard-response","239","690091","0.0-12.0-3.0","zokm9vz8ou","many_one","0","direct_first","1","os08as07","0","20","1","1","1","2","1058","","","<img src = 'targets/mask.png' width = '100%;'>","68","neg","GS","GSold","3","category3/CS10.png","","targets/28.png","indirect","0","24"
"","html-keyboard-response","240","691612","0.0-12.0-0.1","zokm9vz8ou","many_one","0","direct_first","1","os08as07","0","20","1","1","1","2","null","","","<div style=""font-size:60px;"">+</div>","null","","","","","","","","","",""
"","html-keyboard-response","241","691712","0.0-12.0-1.1","zokm9vz8ou","many_one","0","direct_first","1","os08as07","0","20","1","1","1","2","null","","","<img src = 'category2/GS1.png' width = '100%;'>","null","","","","","","","","","",""
"","html-keyboard-response","242","691972","0.0-12.0-2.1","zokm9vz8ou","many_one","0","direct_first","1","os08as07","0","20","1","1","1","2","null","","","<img src = 'targets/40.png' width = '100%;'>","null","","","","","","","","","",""
"","html-keyboard-response","243","692515","0.0-12.0-3.1","zokm9vz8ou","many_one","0","direct_first","1","os08as07","0","20","1","1","1","2","541","","","<img src = 'targets/mask.png' width = '100%;'>","75","pos","GS","GSnew","2","category2/GS1.png","","targets/40.png","indirect","1","25"
"","html-keyboard-response","244","694032","0.0-12.0-0.2","zokm9vz8ou","many_one","0","direct_first","1","os08as07","0","20","1","1","1","2","null","","","<div style=""font-size:60px;"">+</div>","null","","","","","","","","","",""
"","html-keyboard-response","245","694132","0.0-12.0-1.2","zokm9vz8ou","many_one","0","direct_first","1","os08as07","0","20","1","1","1","2","null","","","<img src = 'category3/GS2.png' width = '100%;'>","null","","","","","","","","","",""
"","html-keyboard-response","246","694412","0.0-12.0-2.2","zokm9vz8ou","many_one","0","direct_first","1","os08as07","0","20","1","1","1","2","null","","","<img src = 'targets/46.png' width = '100%;'>","null","","","","","","","","","",""
"","html-keyboard-response","247","694900","0.0-12.0-3.2","zokm9vz8ou","many_one","0","direct_first","1","os08as07","0","20","1","1","1","2","485","","","<img src = 'targets/mask.png' width = '100%;'>","75","neg","GS","GSnew","3","category3/GS2.png","","targets/46.png","indirect","1","26"
"","html-keyboard-response","248","696432","0.0-12.0-0.3","zokm9vz8ou","many_one","0","direct_first","1","os08as07","0","20","1","1","1","2","null","","","<div style=""font-size:60px;"">+</div>","null","","","","","","","","","",""
"","html-keyboard-response","249","696533","0.0-12.0-1.3","zokm9vz8ou","many_one","0","direct_first","1","os08as07","0","20","1","1","1","2","null","","","<img src = 'category3/CS1.png' width = '100%;'>","null","","","","","","","","","",""
"","html-keyboard-response","250","696812","0.0-12.0-2.3","zokm9vz8ou","many_one","0","direct_first","1","os08as07","0","20","1","1","1","2","null","","","<img src = 'targets/18.png' width = '100%;'>","null","","","","","","","","","",""
"","html-keyboard-response","251","697843","0.0-12.0-3.3","zokm9vz8ou","many_one","0","direct_first","1","os08as07","0","20","1","1","1","2","1030","","","<img src = 'targets/mask.png' width = '100%;'>","68","neg","GS","GSold","3","category3/CS1.png","","targets/18.png","indirect","0","27"
"","html-keyboard-response","252","699372","0.0-12.0-0.4","zokm9vz8ou","many_one","0","direct_first","1","os08as07","0","20","1","1","1","2","null","","","<div style=""font-size:60px;"">+</div>","null","","","","","","","","","",""
"","html-keyboard-response","253","699473","0.0-12.0-1.4","zokm9vz8ou","many_one","0","direct_first","1","os08as07","0","20","1","1","1","2","null","","","<img src = 'category2/GS3.png' width = '100%;'>","null","","","","","","","","","",""
"","html-keyboard-response","254","699751","0.0-12.0-2.4","zokm9vz8ou","many_one","0","direct_first","1","os08as07","0","20","1","1","1","2","null","","","<img src = 'targets/43.png' width = '100%;'>","null","","","","","","","","","",""
"","html-keyboard-response","255","700387","0.0-12.0-3.4","zokm9vz8ou","many_one","0","direct_first","1","os08as07","0","20","1","1","1","2","633","","","<img src = 'targets/mask.png' width = '100%;'>","75","pos","GS","GSnew","2","category2/GS3.png","","targets/43.png","indirect","1","28"
"","html-keyboard-response","256","701911","0.0-12.0-0.5","zokm9vz8ou","many_one","0","direct_first","1","os08as07","0","20","1","1","1","2","null","","","<div style=""font-size:60px;"">+</div>","null","","","","","","","","","",""
"","html-keyboard-response","257","702012","0.0-12.0-1.5","zokm9vz8ou","many_one","0","direct_first","1","os08as07","0","20","1","1","1","2","null","","","<img src = 'category4/GS3.png' width = '100%;'>","null","","","","","","","","","",""
"","html-keyboard-response","258","702292","0.0-12.0-2.5","zokm9vz8ou","many_one","0","direct_first","1","os08as07","0","20","1","1","1","2","null","","","<img src = 'targets/1.png' width = '100%;'>","null","","","","","","","","","",""
"","html-keyboard-response","259","703154","0.0-12.0-3.5","zokm9vz8ou","many_one","0","direct_first","1","os08as07","0","20","1","1","1","2","864","","","<img src = 'targets/mask.png' width = '100%;'>","75","pos","GS","GSnew","4","category4/GS3.png","","targets/1.png","indirect","1","29"
"","html-keyboard-response","260","704691","0.0-12.0-0.6","zokm9vz8ou","many_one","0","direct_first","1","os08as07","0","20","1","1","1","2","null","","","<div style=""font-size:60px;"">+</div>","null","","","","","","","","","",""
"","html-keyboard-response","261","704791","0.0-12.0-1.6","zokm9vz8ou","many_one","0","direct_first","1","os08as07","0","20","1","1","1","2","null","","","<img src = 'category4/lin.png' width = '100%;'>","null","","","","","","","","","",""
"","html-keyboard-response","262","705072","0.0-12.0-2.6","zokm9vz8ou","many_one","0","direct_first","1","os08as07","0","20","1","1","1","2","null","","","<img src = 'targets/6.png' width = '100%;'>","null","","","","","","","","","",""
"","html-keyboard-response","263","705793","0.0-12.0-3.6","zokm9vz8ou","many_one","0","direct_first","1","os08as07","0","20","1","1","1","2","721","","","<img src = 'targets/mask.png' width = '100%;'>","75","pos","GS","abstract","4","category4/lin.png","","targets/6.png","indirect","1","30"
"","html-keyboard-response","264","707321","0.0-12.0-0.7","zokm9vz8ou","many_one","0","direct_first","1","os08as07","0","20","1","1","1","2","null","","","<div style=""font-size:60px;"">+</div>","null","","","","","","","","","",""
"","html-keyboard-response","265","707421","0.0-12.0-1.7","zokm9vz8ou","many_one","0","direct_first","1","os08as07","0","20","1","1","1","2","null","","","<img src = 'category3/wang.png' width = '100%;'>","null","","","","","","","","","",""
"","html-keyboard-response","266","707682","0.0-12.0-2.7","zokm9vz8ou","many_one","0","direct_first","1","os08as07","0","20","1","1","1","2","null","","","<img src = 'targets/42.png' width = '100%;'>","null","","","","","","","","","",""
"","html-keyboard-response","267","709867","0.0-12.0-3.7","zokm9vz8ou","many_one","0","direct_first","1","os08as07","0","20","1","1","1","2","2184","","","<img src = 'targets/mask.png' width = '100%;'>","75","neg","GS","abstract","3","category3/wang.png","","targets/42.png","indirect","1","31"
"","html-keyboard-response","268","711372","0.0-12.0-0.8","zokm9vz8ou","many_one","0","direct_first","1","os08as07","0","20","1","1","1","2","null","","","<div style=""font-size:60px;"">+</div>","null","","","","","","","","","",""
"","html-keyboard-response","269","711464","0.0-12.0-1.8","zokm9vz8ou","many_one","0","direct_first","1","os08as07","0","20","1","1","1","2","null","","","<img src = 'category4/CS7.png' width = '100%;'>","null","","","","","","","","","",""
"","html-keyboard-response","270","711716","0.0-12.0-2.8","zokm9vz8ou","many_one","0","direct_first","1","os08as07","0","20","1","1","1","2","null","","","<img src = 'targets/11.png' width = '100%;'>","null","","","","","","","","","",""
"","html-keyboard-response","271","712395","0.0-12.0-3.8","zokm9vz8ou","many_one","0","direct_first","1","os08as07","0","20","1","1","1","2","678","","","<img src = 'targets/mask.png' width = '100%;'>","75","pos","GS","GSold","4","category4/CS7.png","","targets/11.png","indirect","1","32"
"","html-keyboard-response","272","713932","0.0-12.0-0.9","zokm9vz8ou","many_one","0","direct_first","1","os08as07","0","20","1","1","1","2","null","","","<div style=""font-size:60px;"">+</div>","null","","","","","","","","","",""
"","html-keyboard-response","273","714032","0.0-12.0-1.9","zokm9vz8ou","many_one","0","direct_first","1","os08as07","0","20","1","1","1","2","null","","","<img src = 'category2/CS5.png' width = '100%;'>","null","","","","","","","","","",""
"","html-keyboard-response","274","714312","0.0-12.0-2.9","zokm9vz8ou","many_one","0","direct_first","1","os08as07","0","20","1","1","1","2","null","","","<img src = 'targets/21.png' width = '100%;'>","null","","","","","","","","","",""
"","html-keyboard-response","275","715331","0.0-12.0-3.9","zokm9vz8ou","many_one","0","direct_first","1","os08as07","0","20","1","1","1","2","1018","","","<img src = 'targets/mask.png' width = '100%;'>","68","pos","GS","GSold","2","category2/CS5.png","","targets/21.png","indirect","0","33"
"","html-keyboard-response","276","716852","0.0-12.0-0.10","zokm9vz8ou","many_one","0","direct_first","1","os08as07","0","20","1","1","1","2","null","","","<div style=""font-size:60px;"">+</div>","null","","","","","","","","","",""
"","html-keyboard-response","277","716952","0.0-12.0-1.10","zokm9vz8ou","many_one","0","direct_first","1","os08as07","0","20","1","1","1","2","null","","","<img src = 'category4/GS1.png' width = '100%;'>","null","","","","","","","","","",""
"","html-keyboard-response","278","717227","0.0-12.0-2.10","zokm9vz8ou","many_one","0","direct_first","1","os08as07","0","20","1","1","1","2","null","","","<img src = 'targets/14.png' width = '100%;'>","null","","","","","","","","","",""
"","html-keyboard-response","279","718171","0.0-12.0-3.10","zokm9vz8ou","many_one","0","direct_first","1","os08as07","0","20","1","1","1","2","943","","","<img src = 'targets/mask.png' width = '100%;'>","75","pos","GS","GSnew","4","category4/GS1.png","","targets/14.png","indirect","1","34"
"","html-keyboard-response","280","719702","0.0-12.0-0.11","zokm9vz8ou","many_one","0","direct_first","1","os08as07","0","20","1","1","1","2","null","","","<div style=""font-size:60px;"">+</div>","null","","","","","","","","","",""
"","html-keyboard-response","281","719801","0.0-12.0-1.11","zokm9vz8ou","many_one","0","direct_first","1","os08as07","0","20","1","1","1","2","null","","","<img src = 'category1/GS3.png' width = '100%;'>","null","","","","","","","","","",""
"","html-keyboard-response","282","720081","0.0-12.0-2.11","zokm9vz8ou","many_one","0","direct_first","1","os08as07","0","20","1","1","1","2","null","","","<img src = 'targets/4.png' width = '100%;'>","null","","","","","","","","","",""
"","html-keyboard-response","283","721074","0.0-12.0-3.11","zokm9vz8ou","many_one","0","direct_first","1","os08as07","0","20","1","1","1","2","992","","","<img src = 'targets/mask.png' width = '100%;'>","75","neg","GS","GSnew","1","category1/GS3.png","","targets/4.png","indirect","1","35"
"","html-keyboard-response","284","722601","0.0-12.0-0.12","zokm9vz8ou","many_one","0","direct_first","1","os08as07","0","20","1","1","1","2","null","","","<div style=""font-size:60px;"">+</div>","null","","","","","","","","","",""
"","html-keyboard-response","285","722702","0.0-12.0-1.12","zokm9vz8ou","many_one","0","direct_first","1","os08as07","0","20","1","1","1","2","null","","","<img src = 'category4/CS5.png' width = '100%;'>","null","","","","","","","","","",""
"","html-keyboard-response","286","722982","0.0-12.0-2.12","zokm9vz8ou","many_one","0","direct_first","1","os08as07","0","20","1","1","1","2","null","","","<img src = 'targets/44.png' width = '100%;'>","null","","","","","","","","","",""
"","html-keyboard-response","287","724106","0.0-12.0-3.12","zokm9vz8ou","many_one","0","direct_first","1","os08as07","0","20","1","1","1","2","1124","","","<img src = 'targets/mask.png' width = '100%;'>","68","pos","GS","GSold","4","category4/CS5.png","","targets/44.png","indirect","0","36"
"","html-keyboard-response","288","725641","0.0-12.0-0.13","zokm9vz8ou","many_one","0","direct_first","1","os08as07","0","20","1","1","1","2","null","","","<div style=""font-size:60px;"">+</div>","null","","","","","","","","","",""
"","html-keyboard-response","289","725742","0.0-12.0-1.13","zokm9vz8ou","many_one","0","direct_first","1","os08as07","0","20","1","1","1","2","null","","","<img src = 'category3/CS9.png' width = '100%;'>","null","","","","","","","","","",""
"","html-keyboard-response","290","726022","0.0-12.0-2.13","zokm9vz8ou","many_one","0","direct_first","1","os08as07","0","20","1","1","1","2","null","","","<img src = 'targets/39.png' width = '100%;'>","null","","","","","","","","","",""
"","html-keyboard-response","291","727098","0.0-12.0-3.13","zokm9vz8ou","many_one","0","direct_first","1","os08as07","0","20","1","1","1","2","1074","","","<img src = 'targets/mask.png' width = '100%;'>","75","neg","GS","GSold","3","category3/CS9.png","","targets/39.png","indirect","1","37"
"","html-keyboard-response","292","728602","0.0-12.0-0.14","zokm9vz8ou","many_one","0","direct_first","1","os08as07","0","20","1","1","1","2","null","","","<div style=""font-size:60px;"">+</div>","null","","","","","","","","","",""
"","html-keyboard-response","293","728702","0.0-12.0-1.14","zokm9vz8ou","many_one","0","direct_first","1","os08as07","0","20","1","1","1","2","null","","","<img src = 'category3/GS3.png' width = '100%;'>","null","","","","","","","","","",""
"","html-keyboard-response","294","728982","0.0-12.0-2.14","zokm9vz8ou","many_one","0","direct_first","1","os08as07","0","20","1","1","1","2","null","","","<img src = 'targets/30.png' width = '100%;'>","null","","","","","","","","","",""
"","html-keyboard-response","295","729978","0.0-12.0-3.14","zokm9vz8ou","many_one","0","direct_first","1","os08as07","0","20","1","1","1","2","995","","","<img src = 'targets/mask.png' width = '100%;'>","75","neg","GS","GSnew","3","category3/GS3.png","","targets/30.png","indirect","1","38"
"","html-keyboard-response","296","731502","0.0-12.0-0.15","zokm9vz8ou","many_one","0","direct_first","1","os08as07","0","20","1","1","1","2","null","","","<div style=""font-size:60px;"">+</div>","null","","","","","","","","","",""
"","html-keyboard-response","297","731602","0.0-12.0-1.15","zokm9vz8ou","many_one","0","direct_first","1","os08as07","0","20","1","1","1","2","null","","","<img src = 'category4/CS4.png' width = '100%;'>","null","","","","","","","","","",""
"","html-keyboard-response","298","731882","0.0-12.0-2.15","zokm9vz8ou","many_one","0","direct_first","1","os08as07","0","20","1","1","1","2","null","","","<img src = 'targets/13.png' width = '100%;'>","null","","","","","","","","","",""
"","html-keyboard-response","299","732907","0.0-12.0-3.15","zokm9vz8ou","many_one","0","direct_first","1","os08as07","0","20","1","1","1","2","1023","","","<img src = 'targets/mask.png' width = '100%;'>","75","pos","GS","GSold","4","category4/CS4.png","","targets/13.png","indirect","1","39"
"","html-keyboard-response","300","734441","0.0-12.0-0.16","zokm9vz8ou","many_one","0","direct_first","1","os08as07","0","20","1","1","1","2","null","","","<div style=""font-size:60px;"">+</div>","null","","","","","","","","","",""
"","html-keyboard-response","301","734542","0.0-12.0-1.16","zokm9vz8ou","many_one","0","direct_first","1","os08as07","0","20","1","1","1","2","null","","","<img src = 'category2/CS6.png' width = '100%;'>","null","","","","","","","","","",""
"","html-keyboard-response","302","734822","0.0-12.0-2.16","zokm9vz8ou","many_one","0","direct_first","1","os08as07","0","20","1","1","1","2","null","","","<img src = 'targets/24.png' width = '100%;'>","null","","","","","","","","","",""
"","html-keyboard-response","303","735810","0.0-12.0-3.16","zokm9vz8ou","many_one","0","direct_first","1","os08as07","0","20","1","1","1","2","987","","","<img src = 'targets/mask.png' width = '100%;'>","68","pos","GS","GSold","2","category2/CS6.png","","targets/24.png","indirect","0","40"
"","html-keyboard-response","304","737341","0.0-12.0-0.17","zokm9vz8ou","many_one","0","direct_first","1","os08as07","0","20","1","1","1","2","null","","","<div style=""font-size:60px;"">+</div>","null","","","","","","","","","",""
"","html-keyboard-response","305","737442","0.0-12.0-1.17","zokm9vz8ou","many_one","0","direct_first","1","os08as07","0","20","1","1","1","2","null","","","<img src = 'category4/GS2.png' width = '100%;'>","null","","","","","","","","","",""
"","html-keyboard-response","306","737722","0.0-12.0-2.17","zokm9vz8ou","many_one","0","direct_first","1","os08as07","0","20","1","1","1","2","null","","","<img src = 'targets/27.png' width = '100%;'>","null","","","","","","","","","",""
"","html-keyboard-response","307","738842","0.0-12.0-3.17","zokm9vz8ou","many_one","0","direct_first","1","os08as07","0","20","1","1","1","2","1119","","","<img src = 'targets/mask.png' width = '100%;'>","75","pos","GS","GSnew","4","category4/GS2.png","","targets/27.png","indirect","1","41"
"","html-keyboard-response","308","740362","0.0-12.0-0.18","zokm9vz8ou","many_one","0","direct_first","1","os08as07","0","20","1","1","1","2","null","","","<div style=""font-size:60px;"">+</div>","null","","","","","","","","","",""
"","html-keyboard-response","309","740462","0.0-12.0-1.18","zokm9vz8ou","many_one","0","direct_first","1","os08as07","0","20","1","1","1","2","null","","","<img src = 'category2/GS2.png' width = '100%;'>","null","","","","","","","","","",""
"","html-keyboard-response","310","740741","0.0-12.0-2.18","zokm9vz8ou","many_one","0","direct_first","1","os08as07","0","20","1","1","1","2","null","","","<img src = 'targets/45.png' width = '100%;'>","null","","","","","","","","","",""
"","html-keyboard-response","311","741794","0.0-12.0-3.18","zokm9vz8ou","many_one","0","direct_first","1","os08as07","0","20","1","1","1","2","1052","","","<img src = 'targets/mask.png' width = '100%;'>","75","pos","GS","GSnew","2","category2/GS2.png","","targets/45.png","indirect","1","42"
"","html-keyboard-response","312","743321","0.0-12.0-0.19","zokm9vz8ou","many_one","0","direct_first","1","os08as07","0","20","1","1","1","2","null","","","<div style=""font-size:60px;"">+</div>","null","","","","","","","","","",""
"","html-keyboard-response","313","743422","0.0-12.0-1.19","zokm9vz8ou","many_one","0","direct_first","1","os08as07","0","20","1","1","1","2","null","","","<img src = 'category1/GS1.png' width = '100%;'>","null","","","","","","","","","",""
"","html-keyboard-response","314","743681","0.0-12.0-2.19","zokm9vz8ou","many_one","0","direct_first","1","os08as07","0","20","1","1","1","2","null","","","<img src = 'targets/32.png' width = '100%;'>","null","","","","","","","","","",""
"","html-keyboard-response","315","745915","0.0-12.0-3.19","zokm9vz8ou","many_one","0","direct_first","1","os08as07","0","20","1","1","1","2","2232","","","<img src = 'targets/mask.png' width = '100%;'>","75","neg","GS","GSnew","1","category1/GS1.png","","targets/32.png","indirect","1","43"
"","html-keyboard-response","316","747421","0.0-12.0-0.20","zokm9vz8ou","many_one","0","direct_first","1","os08as07","0","20","1","1","1","2","null","","","<div style=""font-size:60px;"">+</div>","null","","","","","","","","","",""
"","html-keyboard-response","317","747522","0.0-12.0-1.20","zokm9vz8ou","many_one","0","direct_first","1","os08as07","0","20","1","1","1","2","null","","","<img src = 'category3/GS1.png' width = '100%;'>","null","","","","","","","","","",""
"","html-keyboard-response","318","747802","0.0-12.0-2.20","zokm9vz8ou","many_one","0","direct_first","1","os08as07","0","20","1","1","1","2","null","","","<img src = 'targets/41.png' width = '100%;'>","null","","","","","","","","","",""
"","html-keyboard-response","319","749459","0.0-12.0-3.20","zokm9vz8ou","many_one","0","direct_first","1","os08as07","0","20","1","1","1","2","1656","","","<img src = 'targets/mask.png' width = '100%;'>","75","neg","GS","GSnew","3","category3/GS1.png","","targets/41.png","indirect","1","44"
"","html-keyboard-response","320","750981","0.0-12.0-0.21","zokm9vz8ou","many_one","0","direct_first","1","os08as07","0","20","1","1","1","2","null","","","<div style=""font-size:60px;"">+</div>","null","","","","","","","","","",""
"","html-keyboard-response","321","751082","0.0-12.0-1.21","zokm9vz8ou","many_one","0","direct_first","1","os08as07","0","20","1","1","1","2","null","","","<img src = 'category1/GS2.png' width = '100%;'>","null","","","","","","","","","",""
"","html-keyboard-response","322","751361","0.0-12.0-2.21","zokm9vz8ou","many_one","0","direct_first","1","os08as07","0","20","1","1","1","2","null","","","<img src = 'targets/37.png' width = '100%;'>","null","","","","","","","","","",""
"","html-keyboard-response","323","752163","0.0-12.0-3.21","zokm9vz8ou","many_one","0","direct_first","1","os08as07","0","20","1","1","1","2","799","","","<img src = 'targets/mask.png' width = '100%;'>","68","neg","GS","GSnew","1","category1/GS2.png","","targets/37.png","indirect","0","45"
"","html-keyboard-response","324","753702","0.0-12.0-0.22","zokm9vz8ou","many_one","0","direct_first","1","os08as07","0","20","1","1","1","2","null","","","<div style=""font-size:60px;"">+</div>","null","","","","","","","","","",""
"","html-keyboard-response","325","753801","0.0-12.0-1.22","zokm9vz8ou","many_one","0","direct_first","1","os08as07","0","20","1","1","1","2","null","","","<img src = 'category1/ma.png' width = '100%;'>","null","","","","","","","","","",""
"","html-keyboard-response","326","754081","0.0-12.0-2.22","zokm9vz8ou","many_one","0","direct_first","1","os08as07","0","20","1","1","1","2","null","","","<img src = 'targets/12.png' width = '100%;'>","null","","","","","","","","","",""
"","html-keyboard-response","327","755137","0.0-12.0-3.22","zokm9vz8ou","many_one","0","direct_first","1","os08as07","0","20","1","1","1","2","1055","","","<img src = 'targets/mask.png' width = '100%;'>","75","neg","GS","abstract","1","category1/ma.png","","targets/12.png","indirect","1","46"
"","html-keyboard-response","328","756642","0.0-12.0-0.23","zokm9vz8ou","many_one","0","direct_first","1","os08as07","0","20","1","1","1","2","null","","","<div style=""font-size:60px;"">+</div>","null","","","","","","","","","",""
"","html-keyboard-response","329","756741","0.0-12.0-1.23","zokm9vz8ou","many_one","0","direct_first","1","os08as07","0","20","1","1","1","2","null","","","<img src = 'category2/men.png' width = '100%;'>","null","","","","","","","","","",""
"","html-keyboard-response","330","757021","0.0-12.0-2.23","zokm9vz8ou","many_one","0","direct_first","1","os08as07","0","20","1","1","1","2","null","","","<img src = 'targets/48.png' width = '100%;'>","null","","","","","","","","","",""
"","html-keyboard-response","331","759874","0.0-12.0-3.23","zokm9vz8ou","many_one","0","direct_first","1","os08as07","0","20","1","1","1","2","2853","","","<img src = 'targets/mask.png' width = '100%;'>","68","pos","GS","abstract","2","category2/men.png","","targets/48.png","indirect","0","47"
"","survey-html-form","332","765514","0.0-13.0","zokm9vz8ou","many_one","0","direct_first","1","os08as07","0","20","1","1","1","2","5132","","{}","","","","","","","","","","","",""
"","image-slider-response","333","772161","0.0-14.0-0.0","zokm9vz8ou","many_one","0","direct_first","1","os08as07","0","20","1","1","1","2","5627","","","","","pos","All","all","4","category4/lin_all.png","80","","all","",""
"","image-slider-response","334","776025","0.0-14.0-0.1","zokm9vz8ou","many_one","0","direct_first","1","os08as07","0","20","1","1","1","2","3862","","","","","neg","All","all","3","category3/wang_all.png","-37","","all","",""
"","image-slider-response","335","780897","0.0-14.0-0.2","zokm9vz8ou","many_one","0","direct_first","1","os08as07","0","20","1","1","1","2","4870","","","","","pos","All","all","2","category2/men_all.png","36","","all","",""
"","image-slider-response","336","787146","0.0-14.0-0.3","zokm9vz8ou","many_one","0","direct_first","1","os08as07","0","20","1","1","1","2","6247","","","","","neg","All","all","1","category1/ma_all.png","-13","","all","",""
"","survey-text","337","791730","0.0-15.0","zokm9vz8ou","many_one","0","direct_first","1","os08as07","0","20","1","1","1","2","4581","","{""Q0"":""""}","","","","","","","","","","","",""
