"success","trial_type","trial_index","time_elapsed","internal_node_id","subject","condition","condition_code","measure","measure_code","codeword","gender","age","education","chinese","fach","handedness","rt","url","responses","stimulus","key_press","val","type","type_specific","category","cs_selected","target","indirect","task","nr_pres","response"
"true","fullscreen","0","4799","0.0-0.0","508wmv2roy","one_one","1","indirect_first","0","le07el14","1","19","1","1","2","1","","","","","","","","","","","","","","",""
"","external-html","1","169078","0.0-1.0","508wmv2roy","one_one","1","indirect_first","0","le07el14","1","19","1","1","2","1","164260","text/information.html","","","","","","","","","","","","",""
"","external-html","2","205045","0.0-2.0","508wmv2roy","one_one","1","indirect_first","0","le07el14","1","19","1","1","2","1","35950","text/consent.html","","","","","","","","","","","","",""
"","survey-html-form","3","241693","0.0-3.0","508wmv2roy","one_one","1","indirect_first","0","le07el14","1","19","1","1","2","1","36647","","{""codeword_enter"":""le07el14""}","","","","","","","","","","","",""
"","survey-html-form","4","264726","0.0-4.0","508wmv2roy","one_one","1","indirect_first","0","le07el14","1","19","1","1","2","1","23032","","{""age"":""19"",""education"":""1"",""subject"":""2"",""gender"":""1"",""handedness"":""1"",""chinese"":""1""}","","","","","","","","","","","",""
"","survey-html-form","5","284430","0.0-5.0","508wmv2roy","one_one","1","indirect_first","0","le07el14","1","19","1","1","2","1","19703","","{}","","","","","","","","","","","",""
"","html-keyboard-response","6","288453","0.0-6.0-0.0-0.0","508wmv2roy","one_one","1","indirect_first","0","le07el14","1","19","1","1","2","1","null","","","<div class = 'row'><div class = 'column'><img src = 'usneg/9330.bmp' width = '100%;'></div><div class = 'column'><img src = 'category2/CS6.png' width = '70%;'></div></div>","null","neg","CS","CS","2","category2/CS6.png","","","","",""
"","html-keyboard-response","7","290992","0.0-6.0-0.0-0.1","508wmv2roy","one_one","1","indirect_first","0","le07el14","1","19","1","1","2","1","null","","","<div class = 'row'><div class = 'column'><img src = 'usneg/9520.bmp' width = '100%;'></div><div class = 'column'><img src = 'category4/CS2.png' width = '70%;'></div></div>","null","neg","CS","CS","4","category4/CS2.png","","","","",""
"","html-keyboard-response","8","293531","0.0-6.0-0.0-0.2","508wmv2roy","one_one","1","indirect_first","0","le07el14","1","19","1","1","2","1","null","","","<div class = 'row'><div class = 'column'><img src = 'uspos/8461.bmp' width = '100%;'></div><div class = 'column'><img src = 'category1/CS1.png' width = '70%;'></div></div>","null","pos","CS","CS","1","category1/CS1.png","","","","",""
"","html-keyboard-response","9","296072","0.0-6.0-0.0-0.3","508wmv2roy","one_one","1","indirect_first","0","le07el14","1","19","1","1","2","1","null","","","<div class = 'row'><div class = 'column'><img src = 'category4/CS2.png' width = '70%;'></div><div class = 'column'><img src = 'usneg/9520.bmp' width = '100%;'></div></div>","null","neg","CS","CS","4","category4/CS2.png","","","","",""
"","html-keyboard-response","10","298611","0.0-6.0-0.0-0.4","508wmv2roy","one_one","1","indirect_first","0","le07el14","1","19","1","1","2","1","null","","","<div class = 'row'><div class = 'column'><img src = 'usneg/9330.bmp' width = '100%;'></div><div class = 'column'><img src = 'category2/CS6.png' width = '70%;'></div></div>","null","neg","CS","CS","2","category2/CS6.png","","","","",""
"","html-keyboard-response","11","301151","0.0-6.0-0.0-0.5","508wmv2roy","one_one","1","indirect_first","0","le07el14","1","19","1","1","2","1","null","","","<div class = 'row'><div class = 'column'><img src = 'category4/CS2.png' width = '70%;'></div><div class = 'column'><img src = 'usneg/9520.bmp' width = '100%;'></div></div>","null","neg","CS","CS","4","category4/CS2.png","","","","",""
"","html-keyboard-response","12","303692","0.0-6.0-0.0-0.6","508wmv2roy","one_one","1","indirect_first","0","le07el14","1","19","1","1","2","1","null","","","<div class = 'row'><div class = 'column'><img src = 'category2/CS6.png' width = '70%;'></div><div class = 'column'><img src = 'usneg/9330.bmp' width = '100%;'></div></div>","null","neg","CS","CS","2","category2/CS6.png","","","","",""
"","html-keyboard-response","13","306231","0.0-6.0-0.0-0.7","508wmv2roy","one_one","1","indirect_first","0","le07el14","1","19","1","1","2","1","null","","","<div class = 'row'><div class = 'column'><img src = 'usneg/9520.bmp' width = '100%;'></div><div class = 'column'><img src = 'category4/CS2.png' width = '70%;'></div></div>","null","neg","CS","CS","4","category4/CS2.png","","","","",""
"","html-keyboard-response","14","308771","0.0-6.0-0.0-0.8","508wmv2roy","one_one","1","indirect_first","0","le07el14","1","19","1","1","2","1","null","","","<div class = 'row'><div class = 'column'><img src = 'uspos/8461.bmp' width = '100%;'></div><div class = 'column'><img src = 'category1/CS1.png' width = '70%;'></div></div>","null","pos","CS","CS","1","category1/CS1.png","","","","",""
"","html-keyboard-response","15","311308","0.0-6.0-0.0-0.9","508wmv2roy","one_one","1","indirect_first","0","le07el14","1","19","1","1","2","1","null","","","<div class = 'row'><div class = 'column'><img src = 'uspos/4625.bmp' width = '100%;'></div><div class = 'column'><img src = 'category3/CS4.png' width = '70%;'></div></div>","null","pos","CS","CS","3","category3/CS4.png","","","","",""
"","html-keyboard-response","16","313812","0.0-6.0-0.0-0.10","508wmv2roy","one_one","1","indirect_first","0","le07el14","1","19","1","1","2","1","null","","","<div class = 'row'><div class = 'column'><img src = 'uspos/8461.bmp' width = '100%;'></div><div class = 'column'><img src = 'category1/CS1.png' width = '70%;'></div></div>","null","pos","CS","CS","1","category1/CS1.png","","","","",""
"","html-keyboard-response","17","316351","0.0-6.0-0.0-0.11","508wmv2roy","one_one","1","indirect_first","0","le07el14","1","19","1","1","2","1","null","","","<div class = 'row'><div class = 'column'><img src = 'category3/CS4.png' width = '70%;'></div><div class = 'column'><img src = 'uspos/4625.bmp' width = '100%;'></div></div>","null","pos","CS","CS","3","category3/CS4.png","","","","",""
"","html-keyboard-response","18","318892","0.0-6.0-0.0-0.12","508wmv2roy","one_one","1","indirect_first","0","le07el14","1","19","1","1","2","1","null","","","<div class = 'row'><div class = 'column'><img src = 'usneg/9520.bmp' width = '100%;'></div><div class = 'column'><img src = 'category4/CS2.png' width = '70%;'></div></div>","null","neg","CS","CS","4","category4/CS2.png","","","","",""
"","html-keyboard-response","19","321421","0.0-6.0-0.0-0.13","508wmv2roy","one_one","1","indirect_first","0","le07el14","1","19","1","1","2","1","null","","","<div class = 'row'><div class = 'column'><img src = 'category3/CS4.png' width = '70%;'></div><div class = 'column'><img src = 'uspos/4625.bmp' width = '100%;'></div></div>","null","pos","CS","CS","3","category3/CS4.png","","","","",""
"","html-keyboard-response","20","323938","0.0-6.0-0.0-0.14","508wmv2roy","one_one","1","indirect_first","0","le07el14","1","19","1","1","2","1","null","","","<div class = 'row'><div class = 'column'><img src = 'uspos/8461.bmp' width = '100%;'></div><div class = 'column'><img src = 'category1/CS1.png' width = '70%;'></div></div>","null","pos","CS","CS","1","category1/CS1.png","","","","",""
"","html-keyboard-response","21","326461","0.0-6.0-0.0-0.15","508wmv2roy","one_one","1","indirect_first","0","le07el14","1","19","1","1","2","1","null","","","<div class = 'row'><div class = 'column'><img src = 'category2/CS6.png' width = '70%;'></div><div class = 'column'><img src = 'usneg/9330.bmp' width = '100%;'></div></div>","null","neg","CS","CS","2","category2/CS6.png","","","","",""
"","html-keyboard-response","22","328991","0.0-6.0-0.0-0.16","508wmv2roy","one_one","1","indirect_first","0","le07el14","1","19","1","1","2","1","null","","","<div class = 'row'><div class = 'column'><img src = 'category3/CS4.png' width = '70%;'></div><div class = 'column'><img src = 'uspos/4625.bmp' width = '100%;'></div></div>","null","pos","CS","CS","3","category3/CS4.png","","","","",""
"","html-keyboard-response","23","331531","0.0-6.0-0.0-0.17","508wmv2roy","one_one","1","indirect_first","0","le07el14","1","19","1","1","2","1","null","","","<div class = 'row'><div class = 'column'><img src = 'category1/CS1.png' width = '70%;'></div><div class = 'column'><img src = 'uspos/8461.bmp' width = '100%;'></div></div>","null","pos","CS","CS","1","category1/CS1.png","","","","",""
"","html-keyboard-response","24","334052","0.0-6.0-0.0-0.18","508wmv2roy","one_one","1","indirect_first","0","le07el14","1","19","1","1","2","1","null","","","<div class = 'row'><div class = 'column'><img src = 'category3/CS4.png' width = '70%;'></div><div class = 'column'><img src = 'uspos/4625.bmp' width = '100%;'></div></div>","null","pos","CS","CS","3","category3/CS4.png","","","","",""
"","html-keyboard-response","25","336570","0.0-6.0-0.0-0.19","508wmv2roy","one_one","1","indirect_first","0","le07el14","1","19","1","1","2","1","null","","","<div class = 'row'><div class = 'column'><img src = 'usneg/9330.bmp' width = '100%;'></div><div class = 'column'><img src = 'category2/CS6.png' width = '70%;'></div></div>","null","neg","CS","CS","2","category2/CS6.png","","","","",""
"","survey-html-form","26","340549","0.0-6.0-1.0","508wmv2roy","one_one","1","indirect_first","0","le07el14","1","19","1","1","2","1","3458","","{}","","","","","","","","","","","",""
"","html-keyboard-response","27","344571","0.0-6.0-2.0-0.0","508wmv2roy","one_one","1","indirect_first","0","le07el14","1","19","1","1","2","1","null","","","<div class = 'row'><div class = 'column'><img src = 'category4/CS2.png' width = '70%;'></div><div class = 'column'><img src = 'usneg/9520.bmp' width = '100%;'></div></div>","null","neg","CS","CS","4","category4/CS2.png","","","","",""
"","html-keyboard-response","28","347111","0.0-6.0-2.0-0.1","508wmv2roy","one_one","1","indirect_first","0","le07el14","1","19","1","1","2","1","null","","","<div class = 'row'><div class = 'column'><img src = 'category2/CS6.png' width = '70%;'></div><div class = 'column'><img src = 'usneg/9330.bmp' width = '100%;'></div></div>","null","neg","CS","CS","2","category2/CS6.png","","","","",""
"","html-keyboard-response","29","349651","0.0-6.0-2.0-0.2","508wmv2roy","one_one","1","indirect_first","0","le07el14","1","19","1","1","2","1","null","","","<div class = 'row'><div class = 'column'><img src = 'category3/CS4.png' width = '70%;'></div><div class = 'column'><img src = 'uspos/4625.bmp' width = '100%;'></div></div>","null","pos","CS","CS","3","category3/CS4.png","","","","",""
"","html-keyboard-response","30","352170","0.0-6.0-2.0-0.3","508wmv2roy","one_one","1","indirect_first","0","le07el14","1","19","1","1","2","1","null","","","<div class = 'row'><div class = 'column'><img src = 'category1/CS1.png' width = '70%;'></div><div class = 'column'><img src = 'uspos/8461.bmp' width = '100%;'></div></div>","null","pos","CS","CS","1","category1/CS1.png","","","","",""
"","html-keyboard-response","31","354710","0.0-6.0-2.0-0.4","508wmv2roy","one_one","1","indirect_first","0","le07el14","1","19","1","1","2","1","null","","","<div class = 'row'><div class = 'column'><img src = 'uspos/4625.bmp' width = '100%;'></div><div class = 'column'><img src = 'category3/CS4.png' width = '70%;'></div></div>","null","pos","CS","CS","3","category3/CS4.png","","","","",""
"","html-keyboard-response","32","357251","0.0-6.0-2.0-0.5","508wmv2roy","one_one","1","indirect_first","0","le07el14","1","19","1","1","2","1","null","","","<div class = 'row'><div class = 'column'><img src = 'usneg/9520.bmp' width = '100%;'></div><div class = 'column'><img src = 'category4/CS2.png' width = '70%;'></div></div>","null","neg","CS","CS","4","category4/CS2.png","","","","",""
"","html-keyboard-response","33","359790","0.0-6.0-2.0-0.6","508wmv2roy","one_one","1","indirect_first","0","le07el14","1","19","1","1","2","1","null","","","<div class = 'row'><div class = 'column'><img src = 'category1/CS1.png' width = '70%;'></div><div class = 'column'><img src = 'uspos/8461.bmp' width = '100%;'></div></div>","null","pos","CS","CS","1","category1/CS1.png","","","","",""
"","html-keyboard-response","34","362330","0.0-6.0-2.0-0.7","508wmv2roy","one_one","1","indirect_first","0","le07el14","1","19","1","1","2","1","null","","","<div class = 'row'><div class = 'column'><img src = 'category2/CS6.png' width = '70%;'></div><div class = 'column'><img src = 'usneg/9330.bmp' width = '100%;'></div></div>","null","neg","CS","CS","2","category2/CS6.png","","","","",""
"","html-keyboard-response","35","364860","0.0-6.0-2.0-0.8","508wmv2roy","one_one","1","indirect_first","0","le07el14","1","19","1","1","2","1","null","","","<div class = 'row'><div class = 'column'><img src = 'uspos/4625.bmp' width = '100%;'></div><div class = 'column'><img src = 'category3/CS4.png' width = '70%;'></div></div>","null","pos","CS","CS","3","category3/CS4.png","","","","",""
"","html-keyboard-response","36","367400","0.0-6.0-2.0-0.9","508wmv2roy","one_one","1","indirect_first","0","le07el14","1","19","1","1","2","1","null","","","<div class = 'row'><div class = 'column'><img src = 'category2/CS6.png' width = '70%;'></div><div class = 'column'><img src = 'usneg/9330.bmp' width = '100%;'></div></div>","null","neg","CS","CS","2","category2/CS6.png","","","","",""
"","html-keyboard-response","37","369940","0.0-6.0-2.0-0.10","508wmv2roy","one_one","1","indirect_first","0","le07el14","1","19","1","1","2","1","null","","","<div class = 'row'><div class = 'column'><img src = 'uspos/8461.bmp' width = '100%;'></div><div class = 'column'><img src = 'category1/CS1.png' width = '70%;'></div></div>","null","pos","CS","CS","1","category1/CS1.png","","","","",""
"","html-keyboard-response","38","372476","0.0-6.0-2.0-0.11","508wmv2roy","one_one","1","indirect_first","0","le07el14","1","19","1","1","2","1","null","","","<div class = 'row'><div class = 'column'><img src = 'category2/CS6.png' width = '70%;'></div><div class = 'column'><img src = 'usneg/9330.bmp' width = '100%;'></div></div>","null","neg","CS","CS","2","category2/CS6.png","","","","",""
"","html-keyboard-response","39","374980","0.0-6.0-2.0-0.12","508wmv2roy","one_one","1","indirect_first","0","le07el14","1","19","1","1","2","1","null","","","<div class = 'row'><div class = 'column'><img src = 'category3/CS4.png' width = '70%;'></div><div class = 'column'><img src = 'uspos/4625.bmp' width = '100%;'></div></div>","null","pos","CS","CS","3","category3/CS4.png","","","","",""
"","html-keyboard-response","40","377520","0.0-6.0-2.0-0.13","508wmv2roy","one_one","1","indirect_first","0","le07el14","1","19","1","1","2","1","null","","","<div class = 'row'><div class = 'column'><img src = 'usneg/9520.bmp' width = '100%;'></div><div class = 'column'><img src = 'category4/CS2.png' width = '70%;'></div></div>","null","neg","CS","CS","4","category4/CS2.png","","","","",""
"","html-keyboard-response","41","380060","0.0-6.0-2.0-0.14","508wmv2roy","one_one","1","indirect_first","0","le07el14","1","19","1","1","2","1","null","","","<div class = 'row'><div class = 'column'><img src = 'category1/CS1.png' width = '70%;'></div><div class = 'column'><img src = 'uspos/8461.bmp' width = '100%;'></div></div>","null","pos","CS","CS","1","category1/CS1.png","","","","",""
"","html-keyboard-response","42","382600","0.0-6.0-2.0-0.15","508wmv2roy","one_one","1","indirect_first","0","le07el14","1","19","1","1","2","1","null","","","<div class = 'row'><div class = 'column'><img src = 'usneg/9330.bmp' width = '100%;'></div><div class = 'column'><img src = 'category2/CS6.png' width = '70%;'></div></div>","null","neg","CS","CS","2","category2/CS6.png","","","","",""
"","html-keyboard-response","43","385136","0.0-6.0-2.0-0.16","508wmv2roy","one_one","1","indirect_first","0","le07el14","1","19","1","1","2","1","null","","","<div class = 'row'><div class = 'column'><img src = 'category4/CS2.png' width = '70%;'></div><div class = 'column'><img src = 'usneg/9520.bmp' width = '100%;'></div></div>","null","neg","CS","CS","4","category4/CS2.png","","","","",""
"","html-keyboard-response","44","387640","0.0-6.0-2.0-0.17","508wmv2roy","one_one","1","indirect_first","0","le07el14","1","19","1","1","2","1","null","","","<div class = 'row'><div class = 'column'><img src = 'uspos/4625.bmp' width = '100%;'></div><div class = 'column'><img src = 'category3/CS4.png' width = '70%;'></div></div>","null","pos","CS","CS","3","category3/CS4.png","","","","",""
"","html-keyboard-response","45","390179","0.0-6.0-2.0-0.18","508wmv2roy","one_one","1","indirect_first","0","le07el14","1","19","1","1","2","1","null","","","<div class = 'row'><div class = 'column'><img src = 'category4/CS2.png' width = '70%;'></div><div class = 'column'><img src = 'usneg/9520.bmp' width = '100%;'></div></div>","null","neg","CS","CS","4","category4/CS2.png","","","","",""
"","html-keyboard-response","46","392720","0.0-6.0-2.0-0.19","508wmv2roy","one_one","1","indirect_first","0","le07el14","1","19","1","1","2","1","null","","","<div class = 'row'><div class = 'column'><img src = 'category1/CS1.png' width = '70%;'></div><div class = 'column'><img src = 'uspos/8461.bmp' width = '100%;'></div></div>","null","pos","CS","CS","1","category1/CS1.png","","","","",""
"","survey-html-form","47","396371","0.0-6.0-3.0","508wmv2roy","one_one","1","indirect_first","0","le07el14","1","19","1","1","2","1","3132","","{}","","","","","","","","","","","",""
"","html-keyboard-response","48","400389","0.0-6.0-4.0-0.0","508wmv2roy","one_one","1","indirect_first","0","le07el14","1","19","1","1","2","1","null","","","<div class = 'row'><div class = 'column'><img src = 'usneg/9520.bmp' width = '100%;'></div><div class = 'column'><img src = 'category4/CS2.png' width = '70%;'></div></div>","null","neg","CS","CS","4","category4/CS2.png","","","","",""
"","html-keyboard-response","49","402929","0.0-6.0-4.0-0.1","508wmv2roy","one_one","1","indirect_first","0","le07el14","1","19","1","1","2","1","null","","","<div class = 'row'><div class = 'column'><img src = 'category3/CS4.png' width = '70%;'></div><div class = 'column'><img src = 'uspos/4625.bmp' width = '100%;'></div></div>","null","pos","CS","CS","3","category3/CS4.png","","","","",""
"","html-keyboard-response","50","405469","0.0-6.0-4.0-0.2","508wmv2roy","one_one","1","indirect_first","0","le07el14","1","19","1","1","2","1","null","","","<div class = 'row'><div class = 'column'><img src = 'usneg/9520.bmp' width = '100%;'></div><div class = 'column'><img src = 'category4/CS2.png' width = '70%;'></div></div>","null","neg","CS","CS","4","category4/CS2.png","","","","",""
"","html-keyboard-response","51","408009","0.0-6.0-4.0-0.3","508wmv2roy","one_one","1","indirect_first","0","le07el14","1","19","1","1","2","1","null","","","<div class = 'row'><div class = 'column'><img src = 'category3/CS4.png' width = '70%;'></div><div class = 'column'><img src = 'uspos/4625.bmp' width = '100%;'></div></div>","null","pos","CS","CS","3","category3/CS4.png","","","","",""
"","html-keyboard-response","52","410529","0.0-6.0-4.0-0.4","508wmv2roy","one_one","1","indirect_first","0","le07el14","1","19","1","1","2","1","null","","","<div class = 'row'><div class = 'column'><img src = 'category4/CS2.png' width = '70%;'></div><div class = 'column'><img src = 'usneg/9520.bmp' width = '100%;'></div></div>","null","neg","CS","CS","4","category4/CS2.png","","","","",""
"","html-keyboard-response","53","413049","0.0-6.0-4.0-0.5","508wmv2roy","one_one","1","indirect_first","0","le07el14","1","19","1","1","2","1","null","","","<div class = 'row'><div class = 'column'><img src = 'category2/CS6.png' width = '70%;'></div><div class = 'column'><img src = 'usneg/9330.bmp' width = '100%;'></div></div>","null","neg","CS","CS","2","category2/CS6.png","","","","",""
"","html-keyboard-response","54","415589","0.0-6.0-4.0-0.6","508wmv2roy","one_one","1","indirect_first","0","le07el14","1","19","1","1","2","1","null","","","<div class = 'row'><div class = 'column'><img src = 'uspos/8461.bmp' width = '100%;'></div><div class = 'column'><img src = 'category1/CS1.png' width = '70%;'></div></div>","null","pos","CS","CS","1","category1/CS1.png","","","","",""
"","html-keyboard-response","55","418109","0.0-6.0-4.0-0.7","508wmv2roy","one_one","1","indirect_first","0","le07el14","1","19","1","1","2","1","null","","","<div class = 'row'><div class = 'column'><img src = 'uspos/4625.bmp' width = '100%;'></div><div class = 'column'><img src = 'category3/CS4.png' width = '70%;'></div></div>","null","pos","CS","CS","3","category3/CS4.png","","","","",""
"","html-keyboard-response","56","420648","0.0-6.0-4.0-0.8","508wmv2roy","one_one","1","indirect_first","0","le07el14","1","19","1","1","2","1","null","","","<div class = 'row'><div class = 'column'><img src = 'category2/CS6.png' width = '70%;'></div><div class = 'column'><img src = 'usneg/9330.bmp' width = '100%;'></div></div>","null","neg","CS","CS","2","category2/CS6.png","","","","",""
"","html-keyboard-response","57","423169","0.0-6.0-4.0-0.9","508wmv2roy","one_one","1","indirect_first","0","le07el14","1","19","1","1","2","1","null","","","<div class = 'row'><div class = 'column'><img src = 'uspos/4625.bmp' width = '100%;'></div><div class = 'column'><img src = 'category3/CS4.png' width = '70%;'></div></div>","null","pos","CS","CS","3","category3/CS4.png","","","","",""
"","html-keyboard-response","58","425709","0.0-6.0-4.0-0.10","508wmv2roy","one_one","1","indirect_first","0","le07el14","1","19","1","1","2","1","null","","","<div class = 'row'><div class = 'column'><img src = 'usneg/9330.bmp' width = '100%;'></div><div class = 'column'><img src = 'category2/CS6.png' width = '70%;'></div></div>","null","neg","CS","CS","2","category2/CS6.png","","","","",""
"","html-keyboard-response","59","428248","0.0-6.0-4.0-0.11","508wmv2roy","one_one","1","indirect_first","0","le07el14","1","19","1","1","2","1","null","","","<div class = 'row'><div class = 'column'><img src = 'category4/CS2.png' width = '70%;'></div><div class = 'column'><img src = 'usneg/9520.bmp' width = '100%;'></div></div>","null","neg","CS","CS","4","category4/CS2.png","","","","",""
"","html-keyboard-response","60","430788","0.0-6.0-4.0-0.12","508wmv2roy","one_one","1","indirect_first","0","le07el14","1","19","1","1","2","1","null","","","<div class = 'row'><div class = 'column'><img src = 'category1/CS1.png' width = '70%;'></div><div class = 'column'><img src = 'uspos/8461.bmp' width = '100%;'></div></div>","null","pos","CS","CS","1","category1/CS1.png","","","","",""
"","html-keyboard-response","61","433308","0.0-6.0-4.0-0.13","508wmv2roy","one_one","1","indirect_first","0","le07el14","1","19","1","1","2","1","null","","","<div class = 'row'><div class = 'column'><img src = 'category2/CS6.png' width = '70%;'></div><div class = 'column'><img src = 'usneg/9330.bmp' width = '100%;'></div></div>","null","neg","CS","CS","2","category2/CS6.png","","","","",""
"","html-keyboard-response","62","435829","0.0-6.0-4.0-0.14","508wmv2roy","one_one","1","indirect_first","0","le07el14","1","19","1","1","2","1","null","","","<div class = 'row'><div class = 'column'><img src = 'uspos/8461.bmp' width = '100%;'></div><div class = 'column'><img src = 'category1/CS1.png' width = '70%;'></div></div>","null","pos","CS","CS","1","category1/CS1.png","","","","",""
"","html-keyboard-response","63","438368","0.0-6.0-4.0-0.15","508wmv2roy","one_one","1","indirect_first","0","le07el14","1","19","1","1","2","1","null","","","<div class = 'row'><div class = 'column'><img src = 'category3/CS4.png' width = '70%;'></div><div class = 'column'><img src = 'uspos/4625.bmp' width = '100%;'></div></div>","null","pos","CS","CS","3","category3/CS4.png","","","","",""
"","html-keyboard-response","64","440907","0.0-6.0-4.0-0.16","508wmv2roy","one_one","1","indirect_first","0","le07el14","1","19","1","1","2","1","null","","","<div class = 'row'><div class = 'column'><img src = 'uspos/8461.bmp' width = '100%;'></div><div class = 'column'><img src = 'category1/CS1.png' width = '70%;'></div></div>","null","pos","CS","CS","1","category1/CS1.png","","","","",""
"","html-keyboard-response","65","443428","0.0-6.0-4.0-0.17","508wmv2roy","one_one","1","indirect_first","0","le07el14","1","19","1","1","2","1","null","","","<div class = 'row'><div class = 'column'><img src = 'category4/CS2.png' width = '70%;'></div><div class = 'column'><img src = 'usneg/9520.bmp' width = '100%;'></div></div>","null","neg","CS","CS","4","category4/CS2.png","","","","",""
"","html-keyboard-response","66","445969","0.0-6.0-4.0-0.18","508wmv2roy","one_one","1","indirect_first","0","le07el14","1","19","1","1","2","1","null","","","<div class = 'row'><div class = 'column'><img src = 'uspos/8461.bmp' width = '100%;'></div><div class = 'column'><img src = 'category1/CS1.png' width = '70%;'></div></div>","null","pos","CS","CS","1","category1/CS1.png","","","","",""
"","html-keyboard-response","67","448508","0.0-6.0-4.0-0.19","508wmv2roy","one_one","1","indirect_first","0","le07el14","1","19","1","1","2","1","null","","","<div class = 'row'><div class = 'column'><img src = 'usneg/9330.bmp' width = '100%;'></div><div class = 'column'><img src = 'category2/CS6.png' width = '70%;'></div></div>","null","neg","CS","CS","2","category2/CS6.png","","","","",""
"","survey-html-form","68","455562","0.0-6.0-5.0","508wmv2roy","one_one","1","indirect_first","0","le07el14","1","19","1","1","2","1","6534","","{}","","","","","","","","","","","",""
"","html-keyboard-response","69","459588","0.0-6.0-6.0-0.0","508wmv2roy","one_one","1","indirect_first","0","le07el14","1","19","1","1","2","1","null","","","<div class = 'row'><div class = 'column'><img src = 'usneg/9520.bmp' width = '100%;'></div><div class = 'column'><img src = 'category4/CS2.png' width = '70%;'></div></div>","null","neg","CS","CS","4","category4/CS2.png","","","","",""
"","html-keyboard-response","70","462127","0.0-6.0-6.0-0.1","508wmv2roy","one_one","1","indirect_first","0","le07el14","1","19","1","1","2","1","null","","","<div class = 'row'><div class = 'column'><img src = 'category3/CS4.png' width = '70%;'></div><div class = 'column'><img src = 'uspos/4625.bmp' width = '100%;'></div></div>","null","pos","CS","CS","3","category3/CS4.png","","","","",""
"","html-keyboard-response","71","464668","0.0-6.0-6.0-0.2","508wmv2roy","one_one","1","indirect_first","0","le07el14","1","19","1","1","2","1","null","","","<div class = 'row'><div class = 'column'><img src = 'usneg/9520.bmp' width = '100%;'></div><div class = 'column'><img src = 'category4/CS2.png' width = '70%;'></div></div>","null","neg","CS","CS","4","category4/CS2.png","","","","",""
"","html-keyboard-response","72","467187","0.0-6.0-6.0-0.3","508wmv2roy","one_one","1","indirect_first","0","le07el14","1","19","1","1","2","1","null","","","<div class = 'row'><div class = 'column'><img src = 'category2/CS6.png' width = '70%;'></div><div class = 'column'><img src = 'usneg/9330.bmp' width = '100%;'></div></div>","null","neg","CS","CS","2","category2/CS6.png","","","","",""
"","html-keyboard-response","73","469728","0.0-6.0-6.0-0.4","508wmv2roy","one_one","1","indirect_first","0","le07el14","1","19","1","1","2","1","null","","","<div class = 'row'><div class = 'column'><img src = 'uspos/8461.bmp' width = '100%;'></div><div class = 'column'><img src = 'category1/CS1.png' width = '70%;'></div></div>","null","pos","CS","CS","1","category1/CS1.png","","","","",""
"","html-keyboard-response","74","472268","0.0-6.0-6.0-0.5","508wmv2roy","one_one","1","indirect_first","0","le07el14","1","19","1","1","2","1","null","","","<div class = 'row'><div class = 'column'><img src = 'category4/CS2.png' width = '70%;'></div><div class = 'column'><img src = 'usneg/9520.bmp' width = '100%;'></div></div>","null","neg","CS","CS","4","category4/CS2.png","","","","",""
"","html-keyboard-response","75","474808","0.0-6.0-6.0-0.6","508wmv2roy","one_one","1","indirect_first","0","le07el14","1","19","1","1","2","1","null","","","<div class = 'row'><div class = 'column'><img src = 'uspos/8461.bmp' width = '100%;'></div><div class = 'column'><img src = 'category1/CS1.png' width = '70%;'></div></div>","null","pos","CS","CS","1","category1/CS1.png","","","","",""
"","html-keyboard-response","76","477328","0.0-6.0-6.0-0.7","508wmv2roy","one_one","1","indirect_first","0","le07el14","1","19","1","1","2","1","null","","","<div class = 'row'><div class = 'column'><img src = 'category4/CS2.png' width = '70%;'></div><div class = 'column'><img src = 'usneg/9520.bmp' width = '100%;'></div></div>","null","neg","CS","CS","4","category4/CS2.png","","","","",""
"","html-keyboard-response","77","479868","0.0-6.0-6.0-0.8","508wmv2roy","one_one","1","indirect_first","0","le07el14","1","19","1","1","2","1","null","","","<div class = 'row'><div class = 'column'><img src = 'usneg/9330.bmp' width = '100%;'></div><div class = 'column'><img src = 'category2/CS6.png' width = '70%;'></div></div>","null","neg","CS","CS","2","category2/CS6.png","","","","",""
"","html-keyboard-response","78","482408","0.0-6.0-6.0-0.9","508wmv2roy","one_one","1","indirect_first","0","le07el14","1","19","1","1","2","1","null","","","<div class = 'row'><div class = 'column'><img src = 'uspos/4625.bmp' width = '100%;'></div><div class = 'column'><img src = 'category3/CS4.png' width = '70%;'></div></div>","null","pos","CS","CS","3","category3/CS4.png","","","","",""
"","html-keyboard-response","79","484937","0.0-6.0-6.0-0.10","508wmv2roy","one_one","1","indirect_first","0","le07el14","1","19","1","1","2","1","null","","","<div class = 'row'><div class = 'column'><img src = 'uspos/8461.bmp' width = '100%;'></div><div class = 'column'><img src = 'category1/CS1.png' width = '70%;'></div></div>","null","pos","CS","CS","1","category1/CS1.png","","","","",""
"","html-keyboard-response","80","487453","0.0-6.0-6.0-0.11","508wmv2roy","one_one","1","indirect_first","0","le07el14","1","19","1","1","2","1","null","","","<div class = 'row'><div class = 'column'><img src = 'category4/CS2.png' width = '70%;'></div><div class = 'column'><img src = 'usneg/9520.bmp' width = '100%;'></div></div>","null","neg","CS","CS","4","category4/CS2.png","","","","",""
"","html-keyboard-response","81","489957","0.0-6.0-6.0-0.12","508wmv2roy","one_one","1","indirect_first","0","le07el14","1","19","1","1","2","1","null","","","<div class = 'row'><div class = 'column'><img src = 'category3/CS4.png' width = '70%;'></div><div class = 'column'><img src = 'uspos/4625.bmp' width = '100%;'></div></div>","null","pos","CS","CS","3","category3/CS4.png","","","","",""
"","html-keyboard-response","82","492497","0.0-6.0-6.0-0.13","508wmv2roy","one_one","1","indirect_first","0","le07el14","1","19","1","1","2","1","null","","","<div class = 'row'><div class = 'column'><img src = 'uspos/8461.bmp' width = '100%;'></div><div class = 'column'><img src = 'category1/CS1.png' width = '70%;'></div></div>","null","pos","CS","CS","1","category1/CS1.png","","","","",""
"","html-keyboard-response","83","495036","0.0-6.0-6.0-0.14","508wmv2roy","one_one","1","indirect_first","0","le07el14","1","19","1","1","2","1","null","","","<div class = 'row'><div class = 'column'><img src = 'category2/CS6.png' width = '70%;'></div><div class = 'column'><img src = 'usneg/9330.bmp' width = '100%;'></div></div>","null","neg","CS","CS","2","category2/CS6.png","","","","",""
"","html-keyboard-response","84","497557","0.0-6.0-6.0-0.15","508wmv2roy","one_one","1","indirect_first","0","le07el14","1","19","1","1","2","1","null","","","<div class = 'row'><div class = 'column'><img src = 'category1/CS1.png' width = '70%;'></div><div class = 'column'><img src = 'uspos/8461.bmp' width = '100%;'></div></div>","null","pos","CS","CS","1","category1/CS1.png","","","","",""
"","html-keyboard-response","85","500097","0.0-6.0-6.0-0.16","508wmv2roy","one_one","1","indirect_first","0","le07el14","1","19","1","1","2","1","null","","","<div class = 'row'><div class = 'column'><img src = 'usneg/9330.bmp' width = '100%;'></div><div class = 'column'><img src = 'category2/CS6.png' width = '70%;'></div></div>","null","neg","CS","CS","2","category2/CS6.png","","","","",""
"","html-keyboard-response","86","502636","0.0-6.0-6.0-0.17","508wmv2roy","one_one","1","indirect_first","0","le07el14","1","19","1","1","2","1","null","","","<div class = 'row'><div class = 'column'><img src = 'uspos/4625.bmp' width = '100%;'></div><div class = 'column'><img src = 'category3/CS4.png' width = '70%;'></div></div>","null","pos","CS","CS","3","category3/CS4.png","","","","",""
"","html-keyboard-response","87","505177","0.0-6.0-6.0-0.18","508wmv2roy","one_one","1","indirect_first","0","le07el14","1","19","1","1","2","1","null","","","<div class = 'row'><div class = 'column'><img src = 'category2/CS6.png' width = '70%;'></div><div class = 'column'><img src = 'usneg/9330.bmp' width = '100%;'></div></div>","null","neg","CS","CS","2","category2/CS6.png","","","","",""
"","html-keyboard-response","88","507717","0.0-6.0-6.0-0.19","508wmv2roy","one_one","1","indirect_first","0","le07el14","1","19","1","1","2","1","null","","","<div class = 'row'><div class = 'column'><img src = 'category3/CS4.png' width = '70%;'></div><div class = 'column'><img src = 'uspos/4625.bmp' width = '100%;'></div></div>","null","pos","CS","CS","3","category3/CS4.png","","","","",""
"","html-keyboard-response","89","566889","0.0-7.0","508wmv2roy","one_one","1","indirect_first","0","le07el14","1","19","1","1","2","1","58652","","","<p>Sie sehen nun die chinesischen Zeichen nur ganz kurz, und danach die jeweilige Aussprache der Zeichen. Ihre Aufgabe ist es, für jede Silbe anzugeben, ob diese etwas angenehmes, oder unangenehmes bedeuten könnte. Verlassen Sie sich hier vor allem auf Ihre Intuition.<br><br>Die Zeichen werden nur zur Orientierung dargestellt, beachten Sie sie deshalb nicht. Konzentrieren Sie sich vor allem auf die Silben. <br>Reagieren Sie mit folgenden zwei Tasten: <br><br><b>'D' </b> wenn die Silbe etwas <b>unangenehmes</b> bedeuten könnte. <br><b>'K'</b> wenn die Silbe etwas <b>angenehmes</b> bedeuten könnte. <br><br>Bitte legen Sie nun den Zeigefinger der linken Hand auf die Taste 'D' und den Zeigefinger der rechten Hand auf die Taste 'K'. <br>Reagieren Sie auf jede Silbe so schnell wie möglich. Uns interessiert Ihre spontane Reaktion. <br> <br> <br>Drücken Sie 'D' oder 'K', um die nächste Aufgabe zu starten. </p>","68","","","","","","","","","",""
"","html-keyboard-response","90","569924","0.0-8.0-0.0","508wmv2roy","one_one","1","indirect_first","0","le07el14","1","19","1","1","2","1","null","","","<div style=""font-size:60px;"">+</div>","null","","","","","","","","","",""
"","html-keyboard-response","91","570024","0.0-8.0-1.0","508wmv2roy","one_one","1","indirect_first","0","le07el14","1","19","1","1","2","1","null","","","<img src = 'category1/CS3.png' width = '100%;'>","null","","","","","","","","","",""
"","html-keyboard-response","92","570305","0.0-8.0-2.0","508wmv2roy","one_one","1","indirect_first","0","le07el14","1","19","1","1","2","1","null","","","<img src = 'targets/7.png' width = '100%;'>","null","","","","","","","","","",""
"","html-keyboard-response","93","575616","0.0-8.0-3.0","508wmv2roy","one_one","1","indirect_first","0","le07el14","1","19","1","1","2","1","5308","","","<img src = 'targets/mask.png' width = '100%;'>","75","pos","GS","GSold","1","category1/CS3.png","targets/7.png","1","indirect","0",""
"","html-keyboard-response","94","577144","0.0-8.0-0.1","508wmv2roy","one_one","1","indirect_first","0","le07el14","1","19","1","1","2","1","null","","","<div style=""font-size:60px;"">+</div>","null","","","","","","","","","",""
"","html-keyboard-response","95","577245","0.0-8.0-1.1","508wmv2roy","one_one","1","indirect_first","0","le07el14","1","19","1","1","2","1","null","","","<img src = 'category1/CS1.png' width = '100%;'>","null","","","","","","","","","",""
"","html-keyboard-response","96","577526","0.0-8.0-2.1","508wmv2roy","one_one","1","indirect_first","0","le07el14","1","19","1","1","2","1","null","","","<img src = 'targets/38.png' width = '100%;'>","null","","","","","","","","","",""
"","html-keyboard-response","97","580976","0.0-8.0-3.1","508wmv2roy","one_one","1","indirect_first","0","le07el14","1","19","1","1","2","1","3449","","","<img src = 'targets/mask.png' width = '100%;'>","75","pos","CS","CS","1","category1/CS1.png","targets/38.png","1","indirect","1",""
"","html-keyboard-response","98","582505","0.0-8.0-0.2","508wmv2roy","one_one","1","indirect_first","0","le07el14","1","19","1","1","2","1","null","","","<div style=""font-size:60px;"">+</div>","null","","","","","","","","","",""
"","html-keyboard-response","99","582606","0.0-8.0-1.2","508wmv2roy","one_one","1","indirect_first","0","le07el14","1","19","1","1","2","1","null","","","<img src = 'category2/CS5.png' width = '100%;'>","null","","","","","","","","","",""
"","html-keyboard-response","100","582882","0.0-8.0-2.2","508wmv2roy","one_one","1","indirect_first","0","le07el14","1","19","1","1","2","1","null","","","<img src = 'targets/33.png' width = '100%;'>","null","","","","","","","","","",""
"","html-keyboard-response","101","584807","0.0-8.0-3.2","508wmv2roy","one_one","1","indirect_first","0","le07el14","1","19","1","1","2","1","1925","","","<img src = 'targets/mask.png' width = '100%;'>","68","neg","GS","GSold","2","category2/CS5.png","targets/33.png","0","indirect","2",""
"","html-keyboard-response","102","586325","0.0-8.0-0.3","508wmv2roy","one_one","1","indirect_first","0","le07el14","1","19","1","1","2","1","null","","","<div style=""font-size:60px;"">+</div>","null","","","","","","","","","",""
"","html-keyboard-response","103","586425","0.0-8.0-1.3","508wmv2roy","one_one","1","indirect_first","0","le07el14","1","19","1","1","2","1","null","","","<img src = 'category2/CS7.png' width = '100%;'>","null","","","","","","","","","",""
"","html-keyboard-response","104","586705","0.0-8.0-2.3","508wmv2roy","one_one","1","indirect_first","0","le07el14","1","19","1","1","2","1","null","","","<img src = 'targets/14.png' width = '100%;'>","null","","","","","","","","","",""
"","html-keyboard-response","105","588264","0.0-8.0-3.3","508wmv2roy","one_one","1","indirect_first","0","le07el14","1","19","1","1","2","1","1558","","","<img src = 'targets/mask.png' width = '100%;'>","75","neg","GS","GSold","2","category2/CS7.png","targets/14.png","1","indirect","3",""
"","html-keyboard-response","106","589784","0.0-8.0-0.4","508wmv2roy","one_one","1","indirect_first","0","le07el14","1","19","1","1","2","1","null","","","<div style=""font-size:60px;"">+</div>","null","","","","","","","","","",""
"","html-keyboard-response","107","589884","0.0-8.0-1.4","508wmv2roy","one_one","1","indirect_first","0","le07el14","1","19","1","1","2","1","null","","","<img src = 'category4/CS2.png' width = '100%;'>","null","","","","","","","","","",""
"","html-keyboard-response","108","590165","0.0-8.0-2.4","508wmv2roy","one_one","1","indirect_first","0","le07el14","1","19","1","1","2","1","null","","","<img src = 'targets/10.png' width = '100%;'>","null","","","","","","","","","",""
"","html-keyboard-response","109","592112","0.0-8.0-3.4","508wmv2roy","one_one","1","indirect_first","0","le07el14","1","19","1","1","2","1","1946","","","<img src = 'targets/mask.png' width = '100%;'>","68","neg","CS","CS","4","category4/CS2.png","targets/10.png","0","indirect","4",""
"","html-keyboard-response","110","593625","0.0-8.0-0.5","508wmv2roy","one_one","1","indirect_first","0","le07el14","1","19","1","1","2","1","null","","","<div style=""font-size:60px;"">+</div>","null","","","","","","","","","",""
"","html-keyboard-response","111","593724","0.0-8.0-1.5","508wmv2roy","one_one","1","indirect_first","0","le07el14","1","19","1","1","2","1","null","","","<img src = 'category3/CS3.png' width = '100%;'>","null","","","","","","","","","",""
"","html-keyboard-response","112","594005","0.0-8.0-2.5","508wmv2roy","one_one","1","indirect_first","0","le07el14","1","19","1","1","2","1","null","","","<img src = 'targets/28.png' width = '100%;'>","null","","","","","","","","","",""
"","html-keyboard-response","113","595183","0.0-8.0-3.5","508wmv2roy","one_one","1","indirect_first","0","le07el14","1","19","1","1","2","1","1177","","","<img src = 'targets/mask.png' width = '100%;'>","75","pos","GS","GSold","3","category3/CS3.png","targets/28.png","1","indirect","5",""
"","html-keyboard-response","114","596705","0.0-8.0-0.6","508wmv2roy","one_one","1","indirect_first","0","le07el14","1","19","1","1","2","1","null","","","<div style=""font-size:60px;"">+</div>","null","","","","","","","","","",""
"","html-keyboard-response","115","596805","0.0-8.0-1.6","508wmv2roy","one_one","1","indirect_first","0","le07el14","1","19","1","1","2","1","null","","","<img src = 'category3/CS2.png' width = '100%;'>","null","","","","","","","","","",""
"","html-keyboard-response","116","597085","0.0-8.0-2.6","508wmv2roy","one_one","1","indirect_first","0","le07el14","1","19","1","1","2","1","null","","","<img src = 'targets/8.png' width = '100%;'>","null","","","","","","","","","",""
"","html-keyboard-response","117","599023","0.0-8.0-3.6","508wmv2roy","one_one","1","indirect_first","0","le07el14","1","19","1","1","2","1","1938","","","<img src = 'targets/mask.png' width = '100%;'>","68","pos","GS","GSold","3","category3/CS2.png","targets/8.png","0","indirect","6",""
"","html-keyboard-response","118","600554","0.0-8.0-0.7","508wmv2roy","one_one","1","indirect_first","0","le07el14","1","19","1","1","2","1","null","","","<div style=""font-size:60px;"">+</div>","null","","","","","","","","","",""
"","html-keyboard-response","119","600655","0.0-8.0-1.7","508wmv2roy","one_one","1","indirect_first","0","le07el14","1","19","1","1","2","1","null","","","<img src = 'category3/CS6.png' width = '100%;'>","null","","","","","","","","","",""
"","html-keyboard-response","120","600934","0.0-8.0-2.7","508wmv2roy","one_one","1","indirect_first","0","le07el14","1","19","1","1","2","1","null","","","<img src = 'targets/41.png' width = '100%;'>","null","","","","","","","","","",""
"","html-keyboard-response","121","603127","0.0-8.0-3.7","508wmv2roy","one_one","1","indirect_first","0","le07el14","1","19","1","1","2","1","2192","","","<img src = 'targets/mask.png' width = '100%;'>","68","pos","GS","GSold","3","category3/CS6.png","targets/41.png","0","indirect","7",""
"","html-keyboard-response","122","604633","0.0-8.0-0.8","508wmv2roy","one_one","1","indirect_first","0","le07el14","1","19","1","1","2","1","null","","","<div style=""font-size:60px;"">+</div>","null","","","","","","","","","",""
"","html-keyboard-response","123","604734","0.0-8.0-1.8","508wmv2roy","one_one","1","indirect_first","0","le07el14","1","19","1","1","2","1","null","","","<img src = 'category4/CS9.png' width = '100%;'>","null","","","","","","","","","",""
"","html-keyboard-response","124","605015","0.0-8.0-2.8","508wmv2roy","one_one","1","indirect_first","0","le07el14","1","19","1","1","2","1","null","","","<img src = 'targets/2.png' width = '100%;'>","null","","","","","","","","","",""
"","html-keyboard-response","125","606183","0.0-8.0-3.8","508wmv2roy","one_one","1","indirect_first","0","le07el14","1","19","1","1","2","1","1168","","","<img src = 'targets/mask.png' width = '100%;'>","68","neg","GS","GSold","4","category4/CS9.png","targets/2.png","0","indirect","8",""
"","html-keyboard-response","126","607714","0.0-8.0-0.9","508wmv2roy","one_one","1","indirect_first","0","le07el14","1","19","1","1","2","1","null","","","<div style=""font-size:60px;"">+</div>","null","","","","","","","","","",""
"","html-keyboard-response","127","607814","0.0-8.0-1.9","508wmv2roy","one_one","1","indirect_first","0","le07el14","1","19","1","1","2","1","null","","","<img src = 'category3/CS4.png' width = '100%;'>","null","","","","","","","","","",""
"","html-keyboard-response","128","608094","0.0-8.0-2.9","508wmv2roy","one_one","1","indirect_first","0","le07el14","1","19","1","1","2","1","null","","","<img src = 'targets/4.png' width = '100%;'>","null","","","","","","","","","",""
"","html-keyboard-response","129","610431","0.0-8.0-3.9","508wmv2roy","one_one","1","indirect_first","0","le07el14","1","19","1","1","2","1","2334","","","<img src = 'targets/mask.png' width = '100%;'>","75","pos","CS","CS","3","category3/CS4.png","targets/4.png","1","indirect","9",""
"","html-keyboard-response","130","611950","0.0-8.0-0.10","508wmv2roy","one_one","1","indirect_first","0","le07el14","1","19","1","1","2","1","null","","","<div style=""font-size:60px;"">+</div>","null","","","","","","","","","",""
"","html-keyboard-response","131","612049","0.0-8.0-1.10","508wmv2roy","one_one","1","indirect_first","0","le07el14","1","19","1","1","2","1","null","","","<img src = 'category2/CS3.png' width = '100%;'>","null","","","","","","","","","",""
"","html-keyboard-response","132","612325","0.0-8.0-2.10","508wmv2roy","one_one","1","indirect_first","0","le07el14","1","19","1","1","2","1","null","","","<img src = 'targets/42.png' width = '100%;'>","null","","","","","","","","","",""
"","html-keyboard-response","133","614862","0.0-8.0-3.10","508wmv2roy","one_one","1","indirect_first","0","le07el14","1","19","1","1","2","1","2536","","","<img src = 'targets/mask.png' width = '100%;'>","75","neg","GS","GSold","2","category2/CS3.png","targets/42.png","1","indirect","10",""
"","html-keyboard-response","134","616384","0.0-8.0-0.11","508wmv2roy","one_one","1","indirect_first","0","le07el14","1","19","1","1","2","1","null","","","<div style=""font-size:60px;"">+</div>","null","","","","","","","","","",""
"","html-keyboard-response","135","616484","0.0-8.0-1.11","508wmv2roy","one_one","1","indirect_first","0","le07el14","1","19","1","1","2","1","null","","","<img src = 'category4/CS6.png' width = '100%;'>","null","","","","","","","","","",""
"","html-keyboard-response","136","616764","0.0-8.0-2.11","508wmv2roy","one_one","1","indirect_first","0","le07el14","1","19","1","1","2","1","null","","","<img src = 'targets/6.png' width = '100%;'>","null","","","","","","","","","",""
"","html-keyboard-response","137","617709","0.0-8.0-3.11","508wmv2roy","one_one","1","indirect_first","0","le07el14","1","19","1","1","2","1","944","","","<img src = 'targets/mask.png' width = '100%;'>","68","neg","GS","GSold","4","category4/CS6.png","targets/6.png","0","indirect","11",""
"","html-keyboard-response","138","619224","0.0-8.0-0.12","508wmv2roy","one_one","1","indirect_first","0","le07el14","1","19","1","1","2","1","null","","","<div style=""font-size:60px;"">+</div>","null","","","","","","","","","",""
"","html-keyboard-response","139","619325","0.0-8.0-1.12","508wmv2roy","one_one","1","indirect_first","0","le07el14","1","19","1","1","2","1","null","","","<img src = 'category1/CS4.png' width = '100%;'>","null","","","","","","","","","",""
"","html-keyboard-response","140","619604","0.0-8.0-2.12","508wmv2roy","one_one","1","indirect_first","0","le07el14","1","19","1","1","2","1","null","","","<img src = 'targets/5.png' width = '100%;'>","null","","","","","","","","","",""
"","html-keyboard-response","141","622222","0.0-8.0-3.12","508wmv2roy","one_one","1","indirect_first","0","le07el14","1","19","1","1","2","1","2616","","","<img src = 'targets/mask.png' width = '100%;'>","75","pos","GS","GSold","1","category1/CS4.png","targets/5.png","1","indirect","12",""
"","html-keyboard-response","142","623744","0.0-8.0-0.13","508wmv2roy","one_one","1","indirect_first","0","le07el14","1","19","1","1","2","1","null","","","<div style=""font-size:60px;"">+</div>","null","","","","","","","","","",""
"","html-keyboard-response","143","623844","0.0-8.0-1.13","508wmv2roy","one_one","1","indirect_first","0","le07el14","1","19","1","1","2","1","null","","","<img src = 'category1/CS9.png' width = '100%;'>","null","","","","","","","","","",""
"","html-keyboard-response","144","624124","0.0-8.0-2.13","508wmv2roy","one_one","1","indirect_first","0","le07el14","1","19","1","1","2","1","null","","","<img src = 'targets/11.png' width = '100%;'>","null","","","","","","","","","",""
"","html-keyboard-response","145","624951","0.0-8.0-3.13","508wmv2roy","one_one","1","indirect_first","0","le07el14","1","19","1","1","2","1","825","","","<img src = 'targets/mask.png' width = '100%;'>","75","pos","GS","GSold","1","category1/CS9.png","targets/11.png","1","indirect","13",""
"","html-keyboard-response","146","626484","0.0-8.0-0.14","508wmv2roy","one_one","1","indirect_first","0","le07el14","1","19","1","1","2","1","null","","","<div style=""font-size:60px;"">+</div>","null","","","","","","","","","",""
"","html-keyboard-response","147","626584","0.0-8.0-1.14","508wmv2roy","one_one","1","indirect_first","0","le07el14","1","19","1","1","2","1","null","","","<img src = 'category4/CS4.png' width = '100%;'>","null","","","","","","","","","",""
"","html-keyboard-response","148","626864","0.0-8.0-2.14","508wmv2roy","one_one","1","indirect_first","0","le07el14","1","19","1","1","2","1","null","","","<img src = 'targets/21.png' width = '100%;'>","null","","","","","","","","","",""
"","html-keyboard-response","149","628774","0.0-8.0-3.14","508wmv2roy","one_one","1","indirect_first","0","le07el14","1","19","1","1","2","1","1909","","","<img src = 'targets/mask.png' width = '100%;'>","68","neg","GS","GSold","4","category4/CS4.png","targets/21.png","0","indirect","14",""
"","html-keyboard-response","150","630293","0.0-8.0-0.15","508wmv2roy","one_one","1","indirect_first","0","le07el14","1","19","1","1","2","1","null","","","<div style=""font-size:60px;"">+</div>","null","","","","","","","","","",""
"","html-keyboard-response","151","630404","0.0-8.0-1.15","508wmv2roy","one_one","1","indirect_first","0","le07el14","1","19","1","1","2","1","null","","","<img src = 'category2/CS6.png' width = '100%;'>","null","","","","","","","","","",""
"","html-keyboard-response","152","630683","0.0-8.0-2.15","508wmv2roy","one_one","1","indirect_first","0","le07el14","1","19","1","1","2","1","null","","","<img src = 'targets/3.png' width = '100%;'>","null","","","","","","","","","",""
"","html-keyboard-response","153","633239","0.0-8.0-3.15","508wmv2roy","one_one","1","indirect_first","0","le07el14","1","19","1","1","2","1","2554","","","<img src = 'targets/mask.png' width = '100%;'>","68","neg","CS","CS","2","category2/CS6.png","targets/3.png","0","indirect","15",""
"","survey-html-form","154","637926","0.0-9.0","508wmv2roy","one_one","1","indirect_first","0","le07el14","1","19","1","1","2","1","4171","","{}","","","","","","","","","","","",""
"","html-keyboard-response","155","640944","0.0-10.0-0.0","508wmv2roy","one_one","1","indirect_first","0","le07el14","1","19","1","1","2","1","null","","","<div style=""font-size:60px;"">+</div>","null","","","","","","","","","",""
"","html-keyboard-response","156","641044","0.0-10.0-1.0","508wmv2roy","one_one","1","indirect_first","0","le07el14","1","19","1","1","2","1","null","","","<img src = 'category1/GS3.png' width = '100%;'>","null","","","","","","","","","",""
"","html-keyboard-response","157","641324","0.0-10.0-2.0","508wmv2roy","one_one","1","indirect_first","0","le07el14","1","19","1","1","2","1","null","","","<img src = 'targets/13.png' width = '100%;'>","null","","","","","","","","","",""
"","html-keyboard-response","158","643911","0.0-10.0-3.0","508wmv2roy","one_one","1","indirect_first","0","le07el14","1","19","1","1","2","1","2586","","","<img src = 'targets/mask.png' width = '100%;'>","75","pos","GS","GSnew","1","category1/GS3.png","targets/13.png","1","indirect","16",""
"","html-keyboard-response","159","645433","0.0-10.0-0.1","508wmv2roy","one_one","1","indirect_first","0","le07el14","1","19","1","1","2","1","null","","","<div style=""font-size:60px;"">+</div>","null","","","","","","","","","",""
"","html-keyboard-response","160","645543","0.0-10.0-1.1","508wmv2roy","one_one","1","indirect_first","0","le07el14","1","19","1","1","2","1","null","","","<img src = 'category3/wang.png' width = '100%;'>","null","","","","","","","","","",""
"","html-keyboard-response","161","645824","0.0-10.0-2.1","508wmv2roy","one_one","1","indirect_first","0","le07el14","1","19","1","1","2","1","null","","","<img src = 'targets/47.png' width = '100%;'>","null","","","","","","","","","",""
"","html-keyboard-response","162","648783","0.0-10.0-3.1","508wmv2roy","one_one","1","indirect_first","0","le07el14","1","19","1","1","2","1","2957","","","<img src = 'targets/mask.png' width = '100%;'>","68","pos","GS","abstract","3","category3/wang.png","targets/47.png","0","indirect","17",""
"","html-keyboard-response","163","650304","0.0-10.0-0.2","508wmv2roy","one_one","1","indirect_first","0","le07el14","1","19","1","1","2","1","null","","","<div style=""font-size:60px;"">+</div>","null","","","","","","","","","",""
"","html-keyboard-response","164","650404","0.0-10.0-1.2","508wmv2roy","one_one","1","indirect_first","0","le07el14","1","19","1","1","2","1","null","","","<img src = 'category4/GS2.png' width = '100%;'>","null","","","","","","","","","",""
"","html-keyboard-response","165","650684","0.0-10.0-2.2","508wmv2roy","one_one","1","indirect_first","0","le07el14","1","19","1","1","2","1","null","","","<img src = 'targets/18.png' width = '100%;'>","null","","","","","","","","","",""
"","html-keyboard-response","166","652174","0.0-10.0-3.2","508wmv2roy","one_one","1","indirect_first","0","le07el14","1","19","1","1","2","1","1489","","","<img src = 'targets/mask.png' width = '100%;'>","68","neg","GS","GSnew","4","category4/GS2.png","targets/18.png","0","indirect","18",""
"","html-keyboard-response","167","653704","0.0-10.0-0.3","508wmv2roy","one_one","1","indirect_first","0","le07el14","1","19","1","1","2","1","null","","","<div style=""font-size:60px;"">+</div>","null","","","","","","","","","",""
"","html-keyboard-response","168","653804","0.0-10.0-1.3","508wmv2roy","one_one","1","indirect_first","0","le07el14","1","19","1","1","2","1","null","","","<img src = 'category3/GS1.png' width = '100%;'>","null","","","","","","","","","",""
"","html-keyboard-response","169","654084","0.0-10.0-2.3","508wmv2roy","one_one","1","indirect_first","0","le07el14","1","19","1","1","2","1","null","","","<img src = 'targets/17.png' width = '100%;'>","null","","","","","","","","","",""
"","html-keyboard-response","170","656111","0.0-10.0-3.3","508wmv2roy","one_one","1","indirect_first","0","le07el14","1","19","1","1","2","1","2025","","","<img src = 'targets/mask.png' width = '100%;'>","68","pos","GS","GSnew","3","category3/GS1.png","targets/17.png","0","indirect","19",""
"","html-keyboard-response","171","657623","0.0-10.0-0.4","508wmv2roy","one_one","1","indirect_first","0","le07el14","1","19","1","1","2","1","null","","","<div style=""font-size:60px;"">+</div>","null","","","","","","","","","",""
"","html-keyboard-response","172","657724","0.0-10.0-1.4","508wmv2roy","one_one","1","indirect_first","0","le07el14","1","19","1","1","2","1","null","","","<img src = 'category4/GS1.png' width = '100%;'>","null","","","","","","","","","",""
"","html-keyboard-response","173","658004","0.0-10.0-2.4","508wmv2roy","one_one","1","indirect_first","0","le07el14","1","19","1","1","2","1","null","","","<img src = 'targets/15.png' width = '100%;'>","null","","","","","","","","","",""
"","html-keyboard-response","174","659590","0.0-10.0-3.4","508wmv2roy","one_one","1","indirect_first","0","le07el14","1","19","1","1","2","1","1585","","","<img src = 'targets/mask.png' width = '100%;'>","68","neg","GS","GSnew","4","category4/GS1.png","targets/15.png","0","indirect","20",""
"","html-keyboard-response","175","661104","0.0-10.0-0.5","508wmv2roy","one_one","1","indirect_first","0","le07el14","1","19","1","1","2","1","null","","","<div style=""font-size:60px;"">+</div>","null","","","","","","","","","",""
"","html-keyboard-response","176","661204","0.0-10.0-1.5","508wmv2roy","one_one","1","indirect_first","0","le07el14","1","19","1","1","2","1","null","","","<img src = 'category2/GS3.png' width = '100%;'>","null","","","","","","","","","",""
"","html-keyboard-response","177","661484","0.0-10.0-2.5","508wmv2roy","one_one","1","indirect_first","0","le07el14","1","19","1","1","2","1","null","","","<img src = 'targets/19.png' width = '100%;'>","null","","","","","","","","","",""
"","html-keyboard-response","178","663542","0.0-10.0-3.5","508wmv2roy","one_one","1","indirect_first","0","le07el14","1","19","1","1","2","1","2058","","","<img src = 'targets/mask.png' width = '100%;'>","75","neg","GS","GSnew","2","category2/GS3.png","targets/19.png","1","indirect","21",""
"","html-keyboard-response","179","665063","0.0-10.0-0.6","508wmv2roy","one_one","1","indirect_first","0","le07el14","1","19","1","1","2","1","null","","","<div style=""font-size:60px;"">+</div>","null","","","","","","","","","",""
"","html-keyboard-response","180","665164","0.0-10.0-1.6","508wmv2roy","one_one","1","indirect_first","0","le07el14","1","19","1","1","2","1","null","","","<img src = 'category2/GS1.png' width = '100%;'>","null","","","","","","","","","",""
"","html-keyboard-response","181","665444","0.0-10.0-2.6","508wmv2roy","one_one","1","indirect_first","0","le07el14","1","19","1","1","2","1","null","","","<img src = 'targets/23.png' width = '100%;'>","null","","","","","","","","","",""
"","html-keyboard-response","182","666751","0.0-10.0-3.6","508wmv2roy","one_one","1","indirect_first","0","le07el14","1","19","1","1","2","1","1305","","","<img src = 'targets/mask.png' width = '100%;'>","68","neg","GS","GSnew","2","category2/GS1.png","targets/23.png","0","indirect","22",""
"","html-keyboard-response","183","668274","0.0-10.0-0.7","508wmv2roy","one_one","1","indirect_first","0","le07el14","1","19","1","1","2","1","null","","","<div style=""font-size:60px;"">+</div>","null","","","","","","","","","",""
"","html-keyboard-response","184","668374","0.0-10.0-1.7","508wmv2roy","one_one","1","indirect_first","0","le07el14","1","19","1","1","2","1","null","","","<img src = 'category1/GS1.png' width = '100%;'>","null","","","","","","","","","",""
"","html-keyboard-response","185","668653","0.0-10.0-2.7","508wmv2roy","one_one","1","indirect_first","0","le07el14","1","19","1","1","2","1","null","","","<img src = 'targets/46.png' width = '100%;'>","null","","","","","","","","","",""
"","html-keyboard-response","186","669550","0.0-10.0-3.7","508wmv2roy","one_one","1","indirect_first","0","le07el14","1","19","1","1","2","1","895","","","<img src = 'targets/mask.png' width = '100%;'>","75","pos","GS","GSnew","1","category1/GS1.png","targets/46.png","1","indirect","23",""
"","html-keyboard-response","187","671054","0.0-10.0-0.8","508wmv2roy","one_one","1","indirect_first","0","le07el14","1","19","1","1","2","1","null","","","<div style=""font-size:60px;"">+</div>","null","","","","","","","","","",""
"","html-keyboard-response","188","671154","0.0-10.0-1.8","508wmv2roy","one_one","1","indirect_first","0","le07el14","1","19","1","1","2","1","null","","","<img src = 'category3/GS3.png' width = '100%;'>","null","","","","","","","","","",""
"","html-keyboard-response","189","671434","0.0-10.0-2.8","508wmv2roy","one_one","1","indirect_first","0","le07el14","1","19","1","1","2","1","null","","","<img src = 'targets/39.png' width = '100%;'>","null","","","","","","","","","",""
"","html-keyboard-response","190","673286","0.0-10.0-3.8","508wmv2roy","one_one","1","indirect_first","0","le07el14","1","19","1","1","2","1","1851","","","<img src = 'targets/mask.png' width = '100%;'>","68","pos","GS","GSnew","3","category3/GS3.png","targets/39.png","0","indirect","24",""
"","html-keyboard-response","191","674823","0.0-10.0-0.9","508wmv2roy","one_one","1","indirect_first","0","le07el14","1","19","1","1","2","1","null","","","<div style=""font-size:60px;"">+</div>","null","","","","","","","","","",""
"","html-keyboard-response","192","674924","0.0-10.0-1.9","508wmv2roy","one_one","1","indirect_first","0","le07el14","1","19","1","1","2","1","null","","","<img src = 'category1/ma.png' width = '100%;'>","null","","","","","","","","","",""
"","html-keyboard-response","193","675204","0.0-10.0-2.9","508wmv2roy","one_one","1","indirect_first","0","le07el14","1","19","1","1","2","1","null","","","<img src = 'targets/27.png' width = '100%;'>","null","","","","","","","","","",""
"","html-keyboard-response","194","676966","0.0-10.0-3.9","508wmv2roy","one_one","1","indirect_first","0","le07el14","1","19","1","1","2","1","1762","","","<img src = 'targets/mask.png' width = '100%;'>","68","pos","GS","abstract","1","category1/ma.png","targets/27.png","0","indirect","25",""
"","html-keyboard-response","195","678494","0.0-10.0-0.10","508wmv2roy","one_one","1","indirect_first","0","le07el14","1","19","1","1","2","1","null","","","<div style=""font-size:60px;"">+</div>","null","","","","","","","","","",""
"","html-keyboard-response","196","678604","0.0-10.0-1.10","508wmv2roy","one_one","1","indirect_first","0","le07el14","1","19","1","1","2","1","null","","","<img src = 'category3/GS2.png' width = '100%;'>","null","","","","","","","","","",""
"","html-keyboard-response","197","678884","0.0-10.0-2.10","508wmv2roy","one_one","1","indirect_first","0","le07el14","1","19","1","1","2","1","null","","","<img src = 'targets/40.png' width = '100%;'>","null","","","","","","","","","",""
"","html-keyboard-response","198","680254","0.0-10.0-3.10","508wmv2roy","one_one","1","indirect_first","0","le07el14","1","19","1","1","2","1","1370","","","<img src = 'targets/mask.png' width = '100%;'>","75","pos","GS","GSnew","3","category3/GS2.png","targets/40.png","1","indirect","26",""
"","html-keyboard-response","199","681783","0.0-10.0-0.11","508wmv2roy","one_one","1","indirect_first","0","le07el14","1","19","1","1","2","1","null","","","<div style=""font-size:60px;"">+</div>","null","","","","","","","","","",""
"","html-keyboard-response","200","681884","0.0-10.0-1.11","508wmv2roy","one_one","1","indirect_first","0","le07el14","1","19","1","1","2","1","null","","","<img src = 'category2/men.png' width = '100%;'>","null","","","","","","","","","",""
"","html-keyboard-response","201","682164","0.0-10.0-2.11","508wmv2roy","one_one","1","indirect_first","0","le07el14","1","19","1","1","2","1","null","","","<img src = 'targets/31.png' width = '100%;'>","null","","","","","","","","","",""
"","html-keyboard-response","202","684694","0.0-10.0-3.11","508wmv2roy","one_one","1","indirect_first","0","le07el14","1","19","1","1","2","1","2530","","","<img src = 'targets/mask.png' width = '100%;'>","68","neg","GS","abstract","2","category2/men.png","targets/31.png","0","indirect","27",""
"","html-keyboard-response","203","686214","0.0-10.0-0.12","508wmv2roy","one_one","1","indirect_first","0","le07el14","1","19","1","1","2","1","null","","","<div style=""font-size:60px;"">+</div>","null","","","","","","","","","",""
"","html-keyboard-response","204","686314","0.0-10.0-1.12","508wmv2roy","one_one","1","indirect_first","0","le07el14","1","19","1","1","2","1","null","","","<img src = 'category2/GS2.png' width = '100%;'>","null","","","","","","","","","",""
"","html-keyboard-response","205","686594","0.0-10.0-2.12","508wmv2roy","one_one","1","indirect_first","0","le07el14","1","19","1","1","2","1","null","","","<img src = 'targets/9.png' width = '100%;'>","null","","","","","","","","","",""
"","html-keyboard-response","206","688710","0.0-10.0-3.12","508wmv2roy","one_one","1","indirect_first","0","le07el14","1","19","1","1","2","1","2115","","","<img src = 'targets/mask.png' width = '100%;'>","68","neg","GS","GSnew","2","category2/GS2.png","targets/9.png","0","indirect","28",""
"","html-keyboard-response","207","690234","0.0-10.0-0.13","508wmv2roy","one_one","1","indirect_first","0","le07el14","1","19","1","1","2","1","null","","","<div style=""font-size:60px;"">+</div>","null","","","","","","","","","",""
"","html-keyboard-response","208","690334","0.0-10.0-1.13","508wmv2roy","one_one","1","indirect_first","0","le07el14","1","19","1","1","2","1","null","","","<img src = 'category1/GS2.png' width = '100%;'>","null","","","","","","","","","",""
"","html-keyboard-response","209","690613","0.0-10.0-2.13","508wmv2roy","one_one","1","indirect_first","0","le07el14","1","19","1","1","2","1","null","","","<img src = 'targets/32.png' width = '100%;'>","null","","","","","","","","","",""
"","html-keyboard-response","210","692935","0.0-10.0-3.13","508wmv2roy","one_one","1","indirect_first","0","le07el14","1","19","1","1","2","1","2320","","","<img src = 'targets/mask.png' width = '100%;'>","75","pos","GS","GSnew","1","category1/GS2.png","targets/32.png","1","indirect","29",""
"","html-keyboard-response","211","694474","0.0-10.0-0.14","508wmv2roy","one_one","1","indirect_first","0","le07el14","1","19","1","1","2","1","null","","","<div style=""font-size:60px;"">+</div>","null","","","","","","","","","",""
"","html-keyboard-response","212","694574","0.0-10.0-1.14","508wmv2roy","one_one","1","indirect_first","0","le07el14","1","19","1","1","2","1","null","","","<img src = 'category4/GS3.png' width = '100%;'>","null","","","","","","","","","",""
"","html-keyboard-response","213","694854","0.0-10.0-2.14","508wmv2roy","one_one","1","indirect_first","0","le07el14","1","19","1","1","2","1","null","","","<img src = 'targets/45.png' width = '100%;'>","null","","","","","","","","","",""
"","html-keyboard-response","214","697607","0.0-10.0-3.14","508wmv2roy","one_one","1","indirect_first","0","le07el14","1","19","1","1","2","1","2751","","","<img src = 'targets/mask.png' width = '100%;'>","68","neg","GS","GSnew","4","category4/GS3.png","targets/45.png","0","indirect","30",""
"","html-keyboard-response","215","699134","0.0-10.0-0.15","508wmv2roy","one_one","1","indirect_first","0","le07el14","1","19","1","1","2","1","null","","","<div style=""font-size:60px;"">+</div>","null","","","","","","","","","",""
"","html-keyboard-response","216","699234","0.0-10.0-1.15","508wmv2roy","one_one","1","indirect_first","0","le07el14","1","19","1","1","2","1","null","","","<img src = 'category4/lin.png' width = '100%;'>","null","","","","","","","","","",""
"","html-keyboard-response","217","699514","0.0-10.0-2.15","508wmv2roy","one_one","1","indirect_first","0","le07el14","1","19","1","1","2","1","null","","","<img src = 'targets/34.png' width = '100%;'>","null","","","","","","","","","",""
"","html-keyboard-response","218","700271","0.0-10.0-3.15","508wmv2roy","one_one","1","indirect_first","0","le07el14","1","19","1","1","2","1","755","","","<img src = 'targets/mask.png' width = '100%;'>","75","neg","GS","abstract","4","category4/lin.png","targets/34.png","1","indirect","31",""
"","survey-html-form","219","710838","0.0-11.0","508wmv2roy","one_one","1","indirect_first","0","le07el14","1","19","1","1","2","1","10066","","{}","","","","","","","","","","","",""
"","image-slider-response","220","717349","0.0-12.0-0.0","508wmv2roy","one_one","1","indirect_first","0","le07el14","1","19","1","1","2","1","4490","","","","","neg","GS","GSnew","4","category4/GS1.png","targets/15.png","","direct","","-40"
"","image-slider-response","221","721205","0.0-12.0-0.1","508wmv2roy","one_one","1","indirect_first","0","le07el14","1","19","1","1","2","1","3855","","","","","pos","GS","GSold","1","category1/CS4.png","targets/5.png","","direct","","63"
"","image-slider-response","222","728318","0.0-12.0-0.2","508wmv2roy","one_one","1","indirect_first","0","le07el14","1","19","1","1","2","1","7111","","","","","pos","CS","CS","1","category1/CS1.png","targets/38.png","","direct","","28"
"","image-slider-response","223","732653","0.0-12.0-0.3","508wmv2roy","one_one","1","indirect_first","0","le07el14","1","19","1","1","2","1","4335","","","","","neg","GS","abstract","2","category2/men.png","targets/31.png","","direct","","-15"
"","image-slider-response","224","736821","0.0-12.0-0.4","508wmv2roy","one_one","1","indirect_first","0","le07el14","1","19","1","1","2","1","4167","","","","","neg","GS","GSnew","2","category2/GS3.png","targets/19.png","","direct","","-38"
"","image-slider-response","225","740190","0.0-12.0-0.5","508wmv2roy","one_one","1","indirect_first","0","le07el14","1","19","1","1","2","1","3367","","","","","neg","GS","GSold","2","category2/CS7.png","targets/14.png","","direct","","-54"
"","image-slider-response","226","742997","0.0-12.0-0.6","508wmv2roy","one_one","1","indirect_first","0","le07el14","1","19","1","1","2","1","2806","","","","","pos","GS","GSnew","3","category3/GS1.png","targets/17.png","","direct","","44"
"","image-slider-response","227","745853","0.0-12.0-0.7","508wmv2roy","one_one","1","indirect_first","0","le07el14","1","19","1","1","2","1","2855","","","","","neg","GS","GSnew","4","category4/GS2.png","targets/18.png","","direct","","16"
"","image-slider-response","228","751814","0.0-12.0-0.8","508wmv2roy","one_one","1","indirect_first","0","le07el14","1","19","1","1","2","1","5960","","","","","neg","GS","GSold","4","category4/CS4.png","targets/21.png","","direct","","25"
"","image-slider-response","229","754381","0.0-12.0-0.9","508wmv2roy","one_one","1","indirect_first","0","le07el14","1","19","1","1","2","1","2566","","","","","pos","GS","GSold","1","category1/CS9.png","targets/11.png","","direct","","36"
"","image-slider-response","230","757597","0.0-12.0-0.10","508wmv2roy","one_one","1","indirect_first","0","le07el14","1","19","1","1","2","1","3215","","","","","neg","GS","GSold","4","category4/CS9.png","targets/2.png","","direct","","-32"
"","image-slider-response","231","760205","0.0-12.0-0.11","508wmv2roy","one_one","1","indirect_first","0","le07el14","1","19","1","1","2","1","2607","","","","","pos","GS","GSnew","3","category3/GS2.png","targets/40.png","","direct","","44"
"","image-slider-response","232","764013","0.0-12.0-0.12","508wmv2roy","one_one","1","indirect_first","0","le07el14","1","19","1","1","2","1","3806","","","","","neg","GS","GSold","2","category2/CS5.png","targets/33.png","","direct","","-66"
"","image-slider-response","233","767589","0.0-12.0-0.13","508wmv2roy","one_one","1","indirect_first","0","le07el14","1","19","1","1","2","1","3575","","","","","pos","GS","abstract","3","category3/wang.png","targets/47.png","","direct","","-16"
"","image-slider-response","234","770829","0.0-12.0-0.14","508wmv2roy","one_one","1","indirect_first","0","le07el14","1","19","1","1","2","1","3239","","","","","neg","GS","GSold","2","category2/CS3.png","targets/42.png","","direct","","-46"
"","image-slider-response","235","773941","0.0-12.0-0.15","508wmv2roy","one_one","1","indirect_first","0","le07el14","1","19","1","1","2","1","3110","","","","","pos","GS","abstract","1","category1/ma.png","targets/27.png","","direct","","-23"
"","image-slider-response","236","776109","0.0-12.0-0.16","508wmv2roy","one_one","1","indirect_first","0","le07el14","1","19","1","1","2","1","2166","","","","","pos","GS","GSnew","1","category1/GS2.png","targets/32.png","","direct","","-59"
"","image-slider-response","237","779805","0.0-12.0-0.17","508wmv2roy","one_one","1","indirect_first","0","le07el14","1","19","1","1","2","1","3695","","","","","pos","GS","GSold","3","category3/CS3.png","targets/28.png","","direct","","60"
"","image-slider-response","238","782509","0.0-12.0-0.18","508wmv2roy","one_one","1","indirect_first","0","le07el14","1","19","1","1","2","1","2702","","","","","pos","GS","GSnew","3","category3/GS3.png","targets/39.png","","direct","","24"
"","image-slider-response","239","786397","0.0-12.0-0.19","508wmv2roy","one_one","1","indirect_first","0","le07el14","1","19","1","1","2","1","3887","","","","","neg","GS","GSnew","4","category4/GS3.png","targets/45.png","","direct","","-23"
"","image-slider-response","240","789365","0.0-12.0-0.20","508wmv2roy","one_one","1","indirect_first","0","le07el14","1","19","1","1","2","1","2966","","","","","neg","GS","GSnew","2","category2/GS1.png","targets/23.png","","direct","","-33"
"","image-slider-response","241","795109","0.0-12.0-0.21","508wmv2roy","one_one","1","indirect_first","0","le07el14","1","19","1","1","2","1","5743","","","","","neg","GS","GSold","4","category4/CS6.png","targets/6.png","","direct","","-25"
"","image-slider-response","242","799837","0.0-12.0-0.22","508wmv2roy","one_one","1","indirect_first","0","le07el14","1","19","1","1","2","1","4728","","","","","pos","GS","GSold","3","category3/CS2.png","targets/8.png","","direct","","28"
"","image-slider-response","243","803405","0.0-12.0-0.23","508wmv2roy","one_one","1","indirect_first","0","le07el14","1","19","1","1","2","1","3566","","","","","neg","GS","abstract","4","category4/lin.png","targets/34.png","","direct","","8"
"","image-slider-response","244","805766","0.0-12.0-0.24","508wmv2roy","one_one","1","indirect_first","0","le07el14","1","19","1","1","2","1","2359","","","","","neg","CS","CS","2","category2/CS6.png","targets/3.png","","direct","","-30"
"","image-slider-response","245","809245","0.0-12.0-0.25","508wmv2roy","one_one","1","indirect_first","0","le07el14","1","19","1","1","2","1","3478","","","","","neg","GS","GSnew","2","category2/GS2.png","targets/9.png","","direct","","-54"
"","image-slider-response","246","812085","0.0-12.0-0.26","508wmv2roy","one_one","1","indirect_first","0","le07el14","1","19","1","1","2","1","2839","","","","","pos","GS","GSold","3","category3/CS6.png","targets/41.png","","direct","","49"
"","image-slider-response","247","815533","0.0-12.0-0.27","508wmv2roy","one_one","1","indirect_first","0","le07el14","1","19","1","1","2","1","3448","","","","","pos","GS","GSnew","1","category1/GS3.png","targets/13.png","","direct","","18"
"","image-slider-response","248","818669","0.0-12.0-0.28","508wmv2roy","one_one","1","indirect_first","0","le07el14","1","19","1","1","2","1","3135","","","","","pos","CS","CS","3","category3/CS4.png","targets/4.png","","direct","","-12"
"","image-slider-response","249","821293","0.0-12.0-0.29","508wmv2roy","one_one","1","indirect_first","0","le07el14","1","19","1","1","2","1","2622","","","","","pos","GS","GSnew","1","category1/GS1.png","targets/46.png","","direct","","-27"
"","image-slider-response","250","824805","0.0-12.0-0.30","508wmv2roy","one_one","1","indirect_first","0","le07el14","1","19","1","1","2","1","3511","","","","","pos","GS","GSold","1","category1/CS3.png","targets/7.png","","direct","","8"
"","image-slider-response","251","828013","0.0-12.0-0.31","508wmv2roy","one_one","1","indirect_first","0","le07el14","1","19","1","1","2","1","3207","","","","","neg","CS","CS","4","category4/CS2.png","targets/10.png","","direct","","-48"
"","survey-html-form","252","831781","0.0-13.0","508wmv2roy","one_one","1","indirect_first","0","le07el14","1","19","1","1","2","1","3769","","{}","","","","","","","","","","","",""
"","image-slider-response","253","838029","0.0-14.0-0.0","508wmv2roy","one_one","1","indirect_first","0","le07el14","1","19","1","1","2","1","5243","","","","","neg","All","all","2","category2/men_all.png","","","all","","-21"
"","image-slider-response","254","842325","0.0-14.0-0.1","508wmv2roy","one_one","1","indirect_first","0","le07el14","1","19","1","1","2","1","4294","","","","","pos","All","all","1","category1/ma_all.png","","","all","","27"
"","image-slider-response","255","844389","0.0-14.0-0.2","508wmv2roy","one_one","1","indirect_first","0","le07el14","1","19","1","1","2","1","2062","","","","","neg","All","all","4","category4/lin_all.png","","","all","","-9"
"","image-slider-response","256","848269","0.0-14.0-0.3","508wmv2roy","one_one","1","indirect_first","0","le07el14","1","19","1","1","2","1","3878","","","","","pos","All","all","3","category3/wang_all.png","","","all","","21"
"","survey-text","257","932814","0.0-15.0","508wmv2roy","one_one","1","indirect_first","0","le07el14","1","19","1","1","2","1","84542","","{""Q0"":""""}","","","","","","","","","","","",""
