"success","trial_type","trial_index","time_elapsed","internal_node_id","subject","condition","condition_code","measure","measure_code","codeword","gender","age","education","chinese","fach","handedness","rt","url","responses","stimulus","key_press","val","type","type_specific","category","cs_selected","target","indirect","task","nr_pres","response"
"true","fullscreen","0","1870","0.0-0.0","whmxhf3yb6","one_one","1","indirect_first","0","er06el18","0","25","1","1","3","1","","","","","","","","","","","","","","",""
"","external-html","1","160932","0.0-1.0","whmxhf3yb6","one_one","1","indirect_first","0","er06el18","0","25","1","1","3","1","159047","text/information.html","","","","","","","","","","","","",""
"","external-html","2","207075","0.0-2.0","whmxhf3yb6","one_one","1","indirect_first","0","er06el18","0","25","1","1","3","1","46137","text/consent.html","","","","","","","","","","","","",""
"","survey-html-form","3","300353","0.0-3.0","whmxhf3yb6","one_one","1","indirect_first","0","er06el18","0","25","1","1","3","1","93278","","{""codeword_enter"":""er06el18""}","","","","","","","","","","","",""
"","survey-html-form","4","333044","0.0-4.0","whmxhf3yb6","one_one","1","indirect_first","0","er06el18","0","25","1","1","3","1","32688","","{""age"":""25"",""education"":""1"",""subject"":""3"",""gender"":""0"",""handedness"":""1"",""chinese"":""1""}","","","","","","","","","","","",""
"","survey-html-form","5","346851","0.0-5.0","whmxhf3yb6","one_one","1","indirect_first","0","er06el18","0","25","1","1","3","1","13806","","{}","","","","","","","","","","","",""
"","html-keyboard-response","6","350891","0.0-6.0-0.0-0.0","whmxhf3yb6","one_one","1","indirect_first","0","er06el18","0","25","1","1","3","1","null","","","<div class = 'row'><div class = 'column'><img src = 'category1/CS4.png' width = '70%;'></div><div class = 'column'><img src = 'usneg/9340.bmp' width = '100%;'></div></div>","null","neg","CS","CS","1","category1/CS4.png","","","","",""
"","html-keyboard-response","7","353430","0.0-6.0-0.0-0.1","whmxhf3yb6","one_one","1","indirect_first","0","er06el18","0","25","1","1","3","1","null","","","<div class = 'row'><div class = 'column'><img src = 'uspos/2165.bmp' width = '100%;'></div><div class = 'column'><img src = 'category3/CS7.png' width = '70%;'></div></div>","null","pos","CS","CS","3","category3/CS7.png","","","","",""
"","html-keyboard-response","8","355953","0.0-6.0-0.0-0.2","whmxhf3yb6","one_one","1","indirect_first","0","er06el18","0","25","1","1","3","1","null","","","<div class = 'row'><div class = 'column'><img src = 'usneg/9584.bmp' width = '100%;'></div><div class = 'column'><img src = 'category2/CS5.png' width = '70%;'></div></div>","null","neg","CS","CS","2","category2/CS5.png","","","","",""
"","html-keyboard-response","9","358489","0.0-6.0-0.0-0.3","whmxhf3yb6","one_one","1","indirect_first","0","er06el18","0","25","1","1","3","1","null","","","<div class = 'row'><div class = 'column'><img src = 'uspos/5831.bmp' width = '100%;'></div><div class = 'column'><img src = 'category4/CS1.png' width = '70%;'></div></div>","null","pos","CS","CS","4","category4/CS1.png","","","","",""
"","html-keyboard-response","10","361010","0.0-6.0-0.0-0.4","whmxhf3yb6","one_one","1","indirect_first","0","er06el18","0","25","1","1","3","1","null","","","<div class = 'row'><div class = 'column'><img src = 'category3/CS7.png' width = '70%;'></div><div class = 'column'><img src = 'uspos/2165.bmp' width = '100%;'></div></div>","null","pos","CS","CS","3","category3/CS7.png","","","","",""
"","html-keyboard-response","11","363550","0.0-6.0-0.0-0.5","whmxhf3yb6","one_one","1","indirect_first","0","er06el18","0","25","1","1","3","1","null","","","<div class = 'row'><div class = 'column'><img src = 'uspos/5831.bmp' width = '100%;'></div><div class = 'column'><img src = 'category4/CS1.png' width = '70%;'></div></div>","null","pos","CS","CS","4","category4/CS1.png","","","","",""
"","html-keyboard-response","12","366079","0.0-6.0-0.0-0.6","whmxhf3yb6","one_one","1","indirect_first","0","er06el18","0","25","1","1","3","1","null","","","<div class = 'row'><div class = 'column'><img src = 'category1/CS4.png' width = '70%;'></div><div class = 'column'><img src = 'usneg/9340.bmp' width = '100%;'></div></div>","null","neg","CS","CS","1","category1/CS4.png","","","","",""
"","html-keyboard-response","13","368619","0.0-6.0-0.0-0.7","whmxhf3yb6","one_one","1","indirect_first","0","er06el18","0","25","1","1","3","1","null","","","<div class = 'row'><div class = 'column'><img src = 'usneg/9584.bmp' width = '100%;'></div><div class = 'column'><img src = 'category2/CS5.png' width = '70%;'></div></div>","null","neg","CS","CS","2","category2/CS5.png","","","","",""
"","html-keyboard-response","14","371149","0.0-6.0-0.0-0.8","whmxhf3yb6","one_one","1","indirect_first","0","er06el18","0","25","1","1","3","1","null","","","<div class = 'row'><div class = 'column'><img src = 'category1/CS4.png' width = '70%;'></div><div class = 'column'><img src = 'usneg/9340.bmp' width = '100%;'></div></div>","null","neg","CS","CS","1","category1/CS4.png","","","","",""
"","html-keyboard-response","15","373689","0.0-6.0-0.0-0.9","whmxhf3yb6","one_one","1","indirect_first","0","er06el18","0","25","1","1","3","1","null","","","<div class = 'row'><div class = 'column'><img src = 'category2/CS5.png' width = '70%;'></div><div class = 'column'><img src = 'usneg/9584.bmp' width = '100%;'></div></div>","null","neg","CS","CS","2","category2/CS5.png","","","","",""
"","html-keyboard-response","16","376200","0.0-6.0-0.0-0.10","whmxhf3yb6","one_one","1","indirect_first","0","er06el18","0","25","1","1","3","1","null","","","<div class = 'row'><div class = 'column'><img src = 'usneg/9340.bmp' width = '100%;'></div><div class = 'column'><img src = 'category1/CS4.png' width = '70%;'></div></div>","null","neg","CS","CS","1","category1/CS4.png","","","","",""
"","html-keyboard-response","17","378739","0.0-6.0-0.0-0.11","whmxhf3yb6","one_one","1","indirect_first","0","er06el18","0","25","1","1","3","1","null","","","<div class = 'row'><div class = 'column'><img src = 'uspos/5831.bmp' width = '100%;'></div><div class = 'column'><img src = 'category4/CS1.png' width = '70%;'></div></div>","null","pos","CS","CS","4","category4/CS1.png","","","","",""
"","html-keyboard-response","18","381279","0.0-6.0-0.0-0.12","whmxhf3yb6","one_one","1","indirect_first","0","er06el18","0","25","1","1","3","1","null","","","<div class = 'row'><div class = 'column'><img src = 'uspos/2165.bmp' width = '100%;'></div><div class = 'column'><img src = 'category3/CS7.png' width = '70%;'></div></div>","null","pos","CS","CS","3","category3/CS7.png","","","","",""
"","html-keyboard-response","19","383819","0.0-6.0-0.0-0.13","whmxhf3yb6","one_one","1","indirect_first","0","er06el18","0","25","1","1","3","1","null","","","<div class = 'row'><div class = 'column'><img src = 'category2/CS5.png' width = '70%;'></div><div class = 'column'><img src = 'usneg/9584.bmp' width = '100%;'></div></div>","null","neg","CS","CS","2","category2/CS5.png","","","","",""
"","html-keyboard-response","20","386359","0.0-6.0-0.0-0.14","whmxhf3yb6","one_one","1","indirect_first","0","er06el18","0","25","1","1","3","1","null","","","<div class = 'row'><div class = 'column'><img src = 'uspos/5831.bmp' width = '100%;'></div><div class = 'column'><img src = 'category4/CS1.png' width = '70%;'></div></div>","null","pos","CS","CS","4","category4/CS1.png","","","","",""
"","html-keyboard-response","21","388880","0.0-6.0-0.0-0.15","whmxhf3yb6","one_one","1","indirect_first","0","er06el18","0","25","1","1","3","1","null","","","<div class = 'row'><div class = 'column'><img src = 'usneg/9584.bmp' width = '100%;'></div><div class = 'column'><img src = 'category2/CS5.png' width = '70%;'></div></div>","null","neg","CS","CS","2","category2/CS5.png","","","","",""
"","html-keyboard-response","22","391419","0.0-6.0-0.0-0.16","whmxhf3yb6","one_one","1","indirect_first","0","er06el18","0","25","1","1","3","1","null","","","<div class = 'row'><div class = 'column'><img src = 'uspos/2165.bmp' width = '100%;'></div><div class = 'column'><img src = 'category3/CS7.png' width = '70%;'></div></div>","null","pos","CS","CS","3","category3/CS7.png","","","","",""
"","html-keyboard-response","23","393959","0.0-6.0-0.0-0.17","whmxhf3yb6","one_one","1","indirect_first","0","er06el18","0","25","1","1","3","1","null","","","<div class = 'row'><div class = 'column'><img src = 'usneg/9340.bmp' width = '100%;'></div><div class = 'column'><img src = 'category1/CS4.png' width = '70%;'></div></div>","null","neg","CS","CS","1","category1/CS4.png","","","","",""
"","html-keyboard-response","24","396489","0.0-6.0-0.0-0.18","whmxhf3yb6","one_one","1","indirect_first","0","er06el18","0","25","1","1","3","1","null","","","<div class = 'row'><div class = 'column'><img src = 'category3/CS7.png' width = '70%;'></div><div class = 'column'><img src = 'uspos/2165.bmp' width = '100%;'></div></div>","null","pos","CS","CS","3","category3/CS7.png","","","","",""
"","html-keyboard-response","25","398999","0.0-6.0-0.0-0.19","whmxhf3yb6","one_one","1","indirect_first","0","er06el18","0","25","1","1","3","1","null","","","<div class = 'row'><div class = 'column'><img src = 'category4/CS1.png' width = '70%;'></div><div class = 'column'><img src = 'uspos/5831.bmp' width = '100%;'></div></div>","null","pos","CS","CS","4","category4/CS1.png","","","","",""
"","survey-html-form","26","407882","0.0-6.0-1.0","whmxhf3yb6","one_one","1","indirect_first","0","er06el18","0","25","1","1","3","1","8362","","{}","","","","","","","","","","","",""
"","html-keyboard-response","27","411920","0.0-6.0-2.0-0.0","whmxhf3yb6","one_one","1","indirect_first","0","er06el18","0","25","1","1","3","1","null","","","<div class = 'row'><div class = 'column'><img src = 'usneg/9340.bmp' width = '100%;'></div><div class = 'column'><img src = 'category1/CS4.png' width = '70%;'></div></div>","null","neg","CS","CS","1","category1/CS4.png","","","","",""
"","html-keyboard-response","28","414459","0.0-6.0-2.0-0.1","whmxhf3yb6","one_one","1","indirect_first","0","er06el18","0","25","1","1","3","1","null","","","<div class = 'row'><div class = 'column'><img src = 'uspos/5831.bmp' width = '100%;'></div><div class = 'column'><img src = 'category4/CS1.png' width = '70%;'></div></div>","null","pos","CS","CS","4","category4/CS1.png","","","","",""
"","html-keyboard-response","29","416999","0.0-6.0-2.0-0.2","whmxhf3yb6","one_one","1","indirect_first","0","er06el18","0","25","1","1","3","1","null","","","<div class = 'row'><div class = 'column'><img src = 'category3/CS7.png' width = '70%;'></div><div class = 'column'><img src = 'uspos/2165.bmp' width = '100%;'></div></div>","null","pos","CS","CS","3","category3/CS7.png","","","","",""
"","html-keyboard-response","30","419539","0.0-6.0-2.0-0.3","whmxhf3yb6","one_one","1","indirect_first","0","er06el18","0","25","1","1","3","1","null","","","<div class = 'row'><div class = 'column'><img src = 'usneg/9584.bmp' width = '100%;'></div><div class = 'column'><img src = 'category2/CS5.png' width = '70%;'></div></div>","null","neg","CS","CS","2","category2/CS5.png","","","","",""
"","html-keyboard-response","31","422079","0.0-6.0-2.0-0.4","whmxhf3yb6","one_one","1","indirect_first","0","er06el18","0","25","1","1","3","1","null","","","<div class = 'row'><div class = 'column'><img src = 'uspos/5831.bmp' width = '100%;'></div><div class = 'column'><img src = 'category4/CS1.png' width = '70%;'></div></div>","null","pos","CS","CS","4","category4/CS1.png","","","","",""
"","html-keyboard-response","32","424609","0.0-6.0-2.0-0.5","whmxhf3yb6","one_one","1","indirect_first","0","er06el18","0","25","1","1","3","1","null","","","<div class = 'row'><div class = 'column'><img src = 'category3/CS7.png' width = '70%;'></div><div class = 'column'><img src = 'uspos/2165.bmp' width = '100%;'></div></div>","null","pos","CS","CS","3","category3/CS7.png","","","","",""
"","html-keyboard-response","33","427139","0.0-6.0-2.0-0.6","whmxhf3yb6","one_one","1","indirect_first","0","er06el18","0","25","1","1","3","1","null","","","<div class = 'row'><div class = 'column'><img src = 'category4/CS1.png' width = '70%;'></div><div class = 'column'><img src = 'uspos/5831.bmp' width = '100%;'></div></div>","null","pos","CS","CS","4","category4/CS1.png","","","","",""
"","html-keyboard-response","34","429679","0.0-6.0-2.0-0.7","whmxhf3yb6","one_one","1","indirect_first","0","er06el18","0","25","1","1","3","1","null","","","<div class = 'row'><div class = 'column'><img src = 'usneg/9340.bmp' width = '100%;'></div><div class = 'column'><img src = 'category1/CS4.png' width = '70%;'></div></div>","null","neg","CS","CS","1","category1/CS4.png","","","","",""
"","html-keyboard-response","35","432199","0.0-6.0-2.0-0.8","whmxhf3yb6","one_one","1","indirect_first","0","er06el18","0","25","1","1","3","1","null","","","<div class = 'row'><div class = 'column'><img src = 'usneg/9584.bmp' width = '100%;'></div><div class = 'column'><img src = 'category2/CS5.png' width = '70%;'></div></div>","null","neg","CS","CS","2","category2/CS5.png","","","","",""
"","html-keyboard-response","36","434728","0.0-6.0-2.0-0.9","whmxhf3yb6","one_one","1","indirect_first","0","er06el18","0","25","1","1","3","1","null","","","<div class = 'row'><div class = 'column'><img src = 'category4/CS1.png' width = '70%;'></div><div class = 'column'><img src = 'uspos/5831.bmp' width = '100%;'></div></div>","null","pos","CS","CS","4","category4/CS1.png","","","","",""
"","html-keyboard-response","37","437259","0.0-6.0-2.0-0.10","whmxhf3yb6","one_one","1","indirect_first","0","er06el18","0","25","1","1","3","1","null","","","<div class = 'row'><div class = 'column'><img src = 'category1/CS4.png' width = '70%;'></div><div class = 'column'><img src = 'usneg/9340.bmp' width = '100%;'></div></div>","null","neg","CS","CS","1","category1/CS4.png","","","","",""
"","html-keyboard-response","38","439798","0.0-6.0-2.0-0.11","whmxhf3yb6","one_one","1","indirect_first","0","er06el18","0","25","1","1","3","1","null","","","<div class = 'row'><div class = 'column'><img src = 'category2/CS5.png' width = '70%;'></div><div class = 'column'><img src = 'usneg/9584.bmp' width = '100%;'></div></div>","null","neg","CS","CS","2","category2/CS5.png","","","","",""
"","html-keyboard-response","39","442319","0.0-6.0-2.0-0.12","whmxhf3yb6","one_one","1","indirect_first","0","er06el18","0","25","1","1","3","1","null","","","<div class = 'row'><div class = 'column'><img src = 'usneg/9340.bmp' width = '100%;'></div><div class = 'column'><img src = 'category1/CS4.png' width = '70%;'></div></div>","null","neg","CS","CS","1","category1/CS4.png","","","","",""
"","html-keyboard-response","40","444859","0.0-6.0-2.0-0.13","whmxhf3yb6","one_one","1","indirect_first","0","er06el18","0","25","1","1","3","1","null","","","<div class = 'row'><div class = 'column'><img src = 'uspos/2165.bmp' width = '100%;'></div><div class = 'column'><img src = 'category3/CS7.png' width = '70%;'></div></div>","null","pos","CS","CS","3","category3/CS7.png","","","","",""
"","html-keyboard-response","41","447399","0.0-6.0-2.0-0.14","whmxhf3yb6","one_one","1","indirect_first","0","er06el18","0","25","1","1","3","1","null","","","<div class = 'row'><div class = 'column'><img src = 'category4/CS1.png' width = '70%;'></div><div class = 'column'><img src = 'uspos/5831.bmp' width = '100%;'></div></div>","null","pos","CS","CS","4","category4/CS1.png","","","","",""
"","html-keyboard-response","42","449936","0.0-6.0-2.0-0.15","whmxhf3yb6","one_one","1","indirect_first","0","er06el18","0","25","1","1","3","1","null","","","<div class = 'row'><div class = 'column'><img src = 'uspos/2165.bmp' width = '100%;'></div><div class = 'column'><img src = 'category3/CS7.png' width = '70%;'></div></div>","null","pos","CS","CS","3","category3/CS7.png","","","","",""
"","html-keyboard-response","43","452459","0.0-6.0-2.0-0.16","whmxhf3yb6","one_one","1","indirect_first","0","er06el18","0","25","1","1","3","1","null","","","<div class = 'row'><div class = 'column'><img src = 'category2/CS5.png' width = '70%;'></div><div class = 'column'><img src = 'usneg/9584.bmp' width = '100%;'></div></div>","null","neg","CS","CS","2","category2/CS5.png","","","","",""
"","html-keyboard-response","44","454999","0.0-6.0-2.0-0.17","whmxhf3yb6","one_one","1","indirect_first","0","er06el18","0","25","1","1","3","1","null","","","<div class = 'row'><div class = 'column'><img src = 'usneg/9340.bmp' width = '100%;'></div><div class = 'column'><img src = 'category1/CS4.png' width = '70%;'></div></div>","null","neg","CS","CS","1","category1/CS4.png","","","","",""
"","html-keyboard-response","45","457528","0.0-6.0-2.0-0.18","whmxhf3yb6","one_one","1","indirect_first","0","er06el18","0","25","1","1","3","1","null","","","<div class = 'row'><div class = 'column'><img src = 'usneg/9584.bmp' width = '100%;'></div><div class = 'column'><img src = 'category2/CS5.png' width = '70%;'></div></div>","null","neg","CS","CS","2","category2/CS5.png","","","","",""
"","html-keyboard-response","46","460068","0.0-6.0-2.0-0.19","whmxhf3yb6","one_one","1","indirect_first","0","er06el18","0","25","1","1","3","1","null","","","<div class = 'row'><div class = 'column'><img src = 'category3/CS7.png' width = '70%;'></div><div class = 'column'><img src = 'uspos/2165.bmp' width = '100%;'></div></div>","null","pos","CS","CS","3","category3/CS7.png","","","","",""
"","survey-html-form","47","473786","0.0-6.0-3.0","whmxhf3yb6","one_one","1","indirect_first","0","er06el18","0","25","1","1","3","1","13196","","{}","","","","","","","","","","","",""
"","html-keyboard-response","48","477809","0.0-6.0-4.0-0.0","whmxhf3yb6","one_one","1","indirect_first","0","er06el18","0","25","1","1","3","1","null","","","<div class = 'row'><div class = 'column'><img src = 'usneg/9584.bmp' width = '100%;'></div><div class = 'column'><img src = 'category2/CS5.png' width = '70%;'></div></div>","null","neg","CS","CS","2","category2/CS5.png","","","","",""
"","html-keyboard-response","49","480349","0.0-6.0-4.0-0.1","whmxhf3yb6","one_one","1","indirect_first","0","er06el18","0","25","1","1","3","1","null","","","<div class = 'row'><div class = 'column'><img src = 'category1/CS4.png' width = '70%;'></div><div class = 'column'><img src = 'usneg/9340.bmp' width = '100%;'></div></div>","null","neg","CS","CS","1","category1/CS4.png","","","","",""
"","html-keyboard-response","50","482889","0.0-6.0-4.0-0.2","whmxhf3yb6","one_one","1","indirect_first","0","er06el18","0","25","1","1","3","1","null","","","<div class = 'row'><div class = 'column'><img src = 'category2/CS5.png' width = '70%;'></div><div class = 'column'><img src = 'usneg/9584.bmp' width = '100%;'></div></div>","null","neg","CS","CS","2","category2/CS5.png","","","","",""
"","html-keyboard-response","51","485419","0.0-6.0-4.0-0.3","whmxhf3yb6","one_one","1","indirect_first","0","er06el18","0","25","1","1","3","1","null","","","<div class = 'row'><div class = 'column'><img src = 'uspos/5831.bmp' width = '100%;'></div><div class = 'column'><img src = 'category4/CS1.png' width = '70%;'></div></div>","null","pos","CS","CS","4","category4/CS1.png","","","","",""
"","html-keyboard-response","52","487959","0.0-6.0-4.0-0.4","whmxhf3yb6","one_one","1","indirect_first","0","er06el18","0","25","1","1","3","1","null","","","<div class = 'row'><div class = 'column'><img src = 'category2/CS5.png' width = '70%;'></div><div class = 'column'><img src = 'usneg/9584.bmp' width = '100%;'></div></div>","null","neg","CS","CS","2","category2/CS5.png","","","","",""
"","html-keyboard-response","53","490489","0.0-6.0-4.0-0.5","whmxhf3yb6","one_one","1","indirect_first","0","er06el18","0","25","1","1","3","1","null","","","<div class = 'row'><div class = 'column'><img src = 'category3/CS7.png' width = '70%;'></div><div class = 'column'><img src = 'uspos/2165.bmp' width = '100%;'></div></div>","null","pos","CS","CS","3","category3/CS7.png","","","","",""
"","html-keyboard-response","54","493019","0.0-6.0-4.0-0.6","whmxhf3yb6","one_one","1","indirect_first","0","er06el18","0","25","1","1","3","1","null","","","<div class = 'row'><div class = 'column'><img src = 'usneg/9340.bmp' width = '100%;'></div><div class = 'column'><img src = 'category1/CS4.png' width = '70%;'></div></div>","null","neg","CS","CS","1","category1/CS4.png","","","","",""
"","html-keyboard-response","55","495559","0.0-6.0-4.0-0.7","whmxhf3yb6","one_one","1","indirect_first","0","er06el18","0","25","1","1","3","1","null","","","<div class = 'row'><div class = 'column'><img src = 'uspos/2165.bmp' width = '100%;'></div><div class = 'column'><img src = 'category3/CS7.png' width = '70%;'></div></div>","null","pos","CS","CS","3","category3/CS7.png","","","","",""
"","html-keyboard-response","56","498098","0.0-6.0-4.0-0.8","whmxhf3yb6","one_one","1","indirect_first","0","er06el18","0","25","1","1","3","1","null","","","<div class = 'row'><div class = 'column'><img src = 'uspos/5831.bmp' width = '100%;'></div><div class = 'column'><img src = 'category4/CS1.png' width = '70%;'></div></div>","null","pos","CS","CS","4","category4/CS1.png","","","","",""
"","html-keyboard-response","57","500639","0.0-6.0-4.0-0.9","whmxhf3yb6","one_one","1","indirect_first","0","er06el18","0","25","1","1","3","1","null","","","<div class = 'row'><div class = 'column'><img src = 'usneg/9340.bmp' width = '100%;'></div><div class = 'column'><img src = 'category1/CS4.png' width = '70%;'></div></div>","null","neg","CS","CS","1","category1/CS4.png","","","","",""
"","html-keyboard-response","58","503179","0.0-6.0-4.0-0.10","whmxhf3yb6","one_one","1","indirect_first","0","er06el18","0","25","1","1","3","1","null","","","<div class = 'row'><div class = 'column'><img src = 'category3/CS7.png' width = '70%;'></div><div class = 'column'><img src = 'uspos/2165.bmp' width = '100%;'></div></div>","null","pos","CS","CS","3","category3/CS7.png","","","","",""
"","html-keyboard-response","59","505719","0.0-6.0-4.0-0.11","whmxhf3yb6","one_one","1","indirect_first","0","er06el18","0","25","1","1","3","1","null","","","<div class = 'row'><div class = 'column'><img src = 'category4/CS1.png' width = '70%;'></div><div class = 'column'><img src = 'uspos/5831.bmp' width = '100%;'></div></div>","null","pos","CS","CS","4","category4/CS1.png","","","","",""
"","html-keyboard-response","60","508259","0.0-6.0-4.0-0.12","whmxhf3yb6","one_one","1","indirect_first","0","er06el18","0","25","1","1","3","1","null","","","<div class = 'row'><div class = 'column'><img src = 'usneg/9340.bmp' width = '100%;'></div><div class = 'column'><img src = 'category1/CS4.png' width = '70%;'></div></div>","null","neg","CS","CS","1","category1/CS4.png","","","","",""
"","html-keyboard-response","61","510799","0.0-6.0-4.0-0.13","whmxhf3yb6","one_one","1","indirect_first","0","er06el18","0","25","1","1","3","1","null","","","<div class = 'row'><div class = 'column'><img src = 'uspos/2165.bmp' width = '100%;'></div><div class = 'column'><img src = 'category3/CS7.png' width = '70%;'></div></div>","null","pos","CS","CS","3","category3/CS7.png","","","","",""
"","html-keyboard-response","62","513339","0.0-6.0-4.0-0.14","whmxhf3yb6","one_one","1","indirect_first","0","er06el18","0","25","1","1","3","1","null","","","<div class = 'row'><div class = 'column'><img src = 'usneg/9584.bmp' width = '100%;'></div><div class = 'column'><img src = 'category2/CS5.png' width = '70%;'></div></div>","null","neg","CS","CS","2","category2/CS5.png","","","","",""
"","html-keyboard-response","63","515879","0.0-6.0-4.0-0.15","whmxhf3yb6","one_one","1","indirect_first","0","er06el18","0","25","1","1","3","1","null","","","<div class = 'row'><div class = 'column'><img src = 'category4/CS1.png' width = '70%;'></div><div class = 'column'><img src = 'uspos/5831.bmp' width = '100%;'></div></div>","null","pos","CS","CS","4","category4/CS1.png","","","","",""
"","html-keyboard-response","64","518419","0.0-6.0-4.0-0.16","whmxhf3yb6","one_one","1","indirect_first","0","er06el18","0","25","1","1","3","1","null","","","<div class = 'row'><div class = 'column'><img src = 'uspos/2165.bmp' width = '100%;'></div><div class = 'column'><img src = 'category3/CS7.png' width = '70%;'></div></div>","null","pos","CS","CS","3","category3/CS7.png","","","","",""
"","html-keyboard-response","65","520958","0.0-6.0-4.0-0.17","whmxhf3yb6","one_one","1","indirect_first","0","er06el18","0","25","1","1","3","1","null","","","<div class = 'row'><div class = 'column'><img src = 'uspos/5831.bmp' width = '100%;'></div><div class = 'column'><img src = 'category4/CS1.png' width = '70%;'></div></div>","null","pos","CS","CS","4","category4/CS1.png","","","","",""
"","html-keyboard-response","66","523498","0.0-6.0-4.0-0.18","whmxhf3yb6","one_one","1","indirect_first","0","er06el18","0","25","1","1","3","1","null","","","<div class = 'row'><div class = 'column'><img src = 'category1/CS4.png' width = '70%;'></div><div class = 'column'><img src = 'usneg/9340.bmp' width = '100%;'></div></div>","null","neg","CS","CS","1","category1/CS4.png","","","","",""
"","html-keyboard-response","67","526033","0.0-6.0-4.0-0.19","whmxhf3yb6","one_one","1","indirect_first","0","er06el18","0","25","1","1","3","1","null","","","<div class = 'row'><div class = 'column'><img src = 'usneg/9584.bmp' width = '100%;'></div><div class = 'column'><img src = 'category2/CS5.png' width = '70%;'></div></div>","null","neg","CS","CS","2","category2/CS5.png","","","","",""
"","survey-html-form","68","533298","0.0-6.0-5.0","whmxhf3yb6","one_one","1","indirect_first","0","er06el18","0","25","1","1","3","1","6762","","{}","","","","","","","","","","","",""
"","html-keyboard-response","69","537319","0.0-6.0-6.0-0.0","whmxhf3yb6","one_one","1","indirect_first","0","er06el18","0","25","1","1","3","1","null","","","<div class = 'row'><div class = 'column'><img src = 'usneg/9340.bmp' width = '100%;'></div><div class = 'column'><img src = 'category1/CS4.png' width = '70%;'></div></div>","null","neg","CS","CS","1","category1/CS4.png","","","","",""
"","html-keyboard-response","70","539839","0.0-6.0-6.0-0.1","whmxhf3yb6","one_one","1","indirect_first","0","er06el18","0","25","1","1","3","1","null","","","<div class = 'row'><div class = 'column'><img src = 'uspos/2165.bmp' width = '100%;'></div><div class = 'column'><img src = 'category3/CS7.png' width = '70%;'></div></div>","null","pos","CS","CS","3","category3/CS7.png","","","","",""
"","html-keyboard-response","71","542378","0.0-6.0-6.0-0.2","whmxhf3yb6","one_one","1","indirect_first","0","er06el18","0","25","1","1","3","1","null","","","<div class = 'row'><div class = 'column'><img src = 'category4/CS1.png' width = '70%;'></div><div class = 'column'><img src = 'uspos/5831.bmp' width = '100%;'></div></div>","null","pos","CS","CS","4","category4/CS1.png","","","","",""
"","html-keyboard-response","72","544899","0.0-6.0-6.0-0.3","whmxhf3yb6","one_one","1","indirect_first","0","er06el18","0","25","1","1","3","1","null","","","<div class = 'row'><div class = 'column'><img src = 'usneg/9340.bmp' width = '100%;'></div><div class = 'column'><img src = 'category1/CS4.png' width = '70%;'></div></div>","null","neg","CS","CS","1","category1/CS4.png","","","","",""
"","html-keyboard-response","73","547438","0.0-6.0-6.0-0.4","whmxhf3yb6","one_one","1","indirect_first","0","er06el18","0","25","1","1","3","1","null","","","<div class = 'row'><div class = 'column'><img src = 'uspos/5831.bmp' width = '100%;'></div><div class = 'column'><img src = 'category4/CS1.png' width = '70%;'></div></div>","null","pos","CS","CS","4","category4/CS1.png","","","","",""
"","html-keyboard-response","74","549958","0.0-6.0-6.0-0.5","whmxhf3yb6","one_one","1","indirect_first","0","er06el18","0","25","1","1","3","1","null","","","<div class = 'row'><div class = 'column'><img src = 'usneg/9584.bmp' width = '100%;'></div><div class = 'column'><img src = 'category2/CS5.png' width = '70%;'></div></div>","null","neg","CS","CS","2","category2/CS5.png","","","","",""
"","html-keyboard-response","75","552499","0.0-6.0-6.0-0.6","whmxhf3yb6","one_one","1","indirect_first","0","er06el18","0","25","1","1","3","1","null","","","<div class = 'row'><div class = 'column'><img src = 'uspos/5831.bmp' width = '100%;'></div><div class = 'column'><img src = 'category4/CS1.png' width = '70%;'></div></div>","null","pos","CS","CS","4","category4/CS1.png","","","","",""
"","html-keyboard-response","76","555039","0.0-6.0-6.0-0.7","whmxhf3yb6","one_one","1","indirect_first","0","er06el18","0","25","1","1","3","1","null","","","<div class = 'row'><div class = 'column'><img src = 'usneg/9584.bmp' width = '100%;'></div><div class = 'column'><img src = 'category2/CS5.png' width = '70%;'></div></div>","null","neg","CS","CS","2","category2/CS5.png","","","","",""
"","html-keyboard-response","77","557578","0.0-6.0-6.0-0.8","whmxhf3yb6","one_one","1","indirect_first","0","er06el18","0","25","1","1","3","1","null","","","<div class = 'row'><div class = 'column'><img src = 'usneg/9340.bmp' width = '100%;'></div><div class = 'column'><img src = 'category1/CS4.png' width = '70%;'></div></div>","null","neg","CS","CS","1","category1/CS4.png","","","","",""
"","html-keyboard-response","78","560118","0.0-6.0-6.0-0.9","whmxhf3yb6","one_one","1","indirect_first","0","er06el18","0","25","1","1","3","1","null","","","<div class = 'row'><div class = 'column'><img src = 'category3/CS7.png' width = '70%;'></div><div class = 'column'><img src = 'uspos/2165.bmp' width = '100%;'></div></div>","null","pos","CS","CS","3","category3/CS7.png","","","","",""
"","html-keyboard-response","79","562655","0.0-6.0-6.0-0.10","whmxhf3yb6","one_one","1","indirect_first","0","er06el18","0","25","1","1","3","1","null","","","<div class = 'row'><div class = 'column'><img src = 'usneg/9584.bmp' width = '100%;'></div><div class = 'column'><img src = 'category2/CS5.png' width = '70%;'></div></div>","null","neg","CS","CS","2","category2/CS5.png","","","","",""
"","html-keyboard-response","80","565158","0.0-6.0-6.0-0.11","whmxhf3yb6","one_one","1","indirect_first","0","er06el18","0","25","1","1","3","1","null","","","<div class = 'row'><div class = 'column'><img src = 'category3/CS7.png' width = '70%;'></div><div class = 'column'><img src = 'uspos/2165.bmp' width = '100%;'></div></div>","null","pos","CS","CS","3","category3/CS7.png","","","","",""
"","html-keyboard-response","81","567699","0.0-6.0-6.0-0.12","whmxhf3yb6","one_one","1","indirect_first","0","er06el18","0","25","1","1","3","1","null","","","<div class = 'row'><div class = 'column'><img src = 'uspos/5831.bmp' width = '100%;'></div><div class = 'column'><img src = 'category4/CS1.png' width = '70%;'></div></div>","null","pos","CS","CS","4","category4/CS1.png","","","","",""
"","html-keyboard-response","82","570239","0.0-6.0-6.0-0.13","whmxhf3yb6","one_one","1","indirect_first","0","er06el18","0","25","1","1","3","1","null","","","<div class = 'row'><div class = 'column'><img src = 'category2/CS5.png' width = '70%;'></div><div class = 'column'><img src = 'usneg/9584.bmp' width = '100%;'></div></div>","null","neg","CS","CS","2","category2/CS5.png","","","","",""
"","html-keyboard-response","83","572758","0.0-6.0-6.0-0.14","whmxhf3yb6","one_one","1","indirect_first","0","er06el18","0","25","1","1","3","1","null","","","<div class = 'row'><div class = 'column'><img src = 'category3/CS7.png' width = '70%;'></div><div class = 'column'><img src = 'uspos/2165.bmp' width = '100%;'></div></div>","null","pos","CS","CS","3","category3/CS7.png","","","","",""
"","html-keyboard-response","84","575298","0.0-6.0-6.0-0.15","whmxhf3yb6","one_one","1","indirect_first","0","er06el18","0","25","1","1","3","1","null","","","<div class = 'row'><div class = 'column'><img src = 'category4/CS1.png' width = '70%;'></div><div class = 'column'><img src = 'uspos/5831.bmp' width = '100%;'></div></div>","null","pos","CS","CS","4","category4/CS1.png","","","","",""
"","html-keyboard-response","85","577839","0.0-6.0-6.0-0.16","whmxhf3yb6","one_one","1","indirect_first","0","er06el18","0","25","1","1","3","1","null","","","<div class = 'row'><div class = 'column'><img src = 'category1/CS4.png' width = '70%;'></div><div class = 'column'><img src = 'usneg/9340.bmp' width = '100%;'></div></div>","null","neg","CS","CS","1","category1/CS4.png","","","","",""
"","html-keyboard-response","86","580378","0.0-6.0-6.0-0.17","whmxhf3yb6","one_one","1","indirect_first","0","er06el18","0","25","1","1","3","1","null","","","<div class = 'row'><div class = 'column'><img src = 'usneg/9584.bmp' width = '100%;'></div><div class = 'column'><img src = 'category2/CS5.png' width = '70%;'></div></div>","null","neg","CS","CS","2","category2/CS5.png","","","","",""
"","html-keyboard-response","87","582899","0.0-6.0-6.0-0.18","whmxhf3yb6","one_one","1","indirect_first","0","er06el18","0","25","1","1","3","1","null","","","<div class = 'row'><div class = 'column'><img src = 'category3/CS7.png' width = '70%;'></div><div class = 'column'><img src = 'uspos/2165.bmp' width = '100%;'></div></div>","null","pos","CS","CS","3","category3/CS7.png","","","","",""
"","html-keyboard-response","88","585419","0.0-6.0-6.0-0.19","whmxhf3yb6","one_one","1","indirect_first","0","er06el18","0","25","1","1","3","1","null","","","<div class = 'row'><div class = 'column'><img src = 'category1/CS4.png' width = '70%;'></div><div class = 'column'><img src = 'usneg/9340.bmp' width = '100%;'></div></div>","null","neg","CS","CS","1","category1/CS4.png","","","","",""
"","html-keyboard-response","89","651627","0.0-7.0","whmxhf3yb6","one_one","1","indirect_first","0","er06el18","0","25","1","1","3","1","65687","","","<p>Sie sehen nun die chinesischen Zeichen nur ganz kurz. Danach sehen Sie die jeweilige Aussprache der Zeichen als Silbe auf dem Bildschrim. Ihre Aufgabe ist es, für jede Silbe anzugeben, ob diese etwas angenehmes, oder unangenehmes bedeuten könnte. Verlassen Sie sich hier vor allem auf Ihre Intuition.<br><br>Die Zeichen werden nur zur Orientierung dargestellt, beachten Sie sie deshalb nicht. Konzentrieren Sie sich vor allem auf die Silben. <br>Reagieren Sie mit folgenden zwei Tasten: <br><br><b>'D' </b> wenn die Silbe etwas <b>unangenehmes</b> bedeuten könnte. <br><b>'K'</b> wenn die Silbe etwas <b>angenehmes</b> bedeuten könnte. <br><br>Bitte legen Sie nun den Zeigefinger der linken Hand auf die Taste 'D' und den Zeigefinger der rechten Hand auf die Taste 'K'. <br>Reagieren Sie auf jede Silbe so schnell wie möglich. Uns interessiert Ihre spontane Reaktion. <br> <br> <br>Drücken Sie 'D' oder 'K', um die nächste Aufgabe zu starten. </p>","75","","","","","","","","","",""
"","html-keyboard-response","90","654658","0.0-8.0-0.0","whmxhf3yb6","one_one","1","indirect_first","0","er06el18","0","25","1","1","3","1","null","","","<div style=""font-size:60px;"">+</div>","null","","","","","","","","","",""
"","html-keyboard-response","91","654758","0.0-8.0-1.0","whmxhf3yb6","one_one","1","indirect_first","0","er06el18","0","25","1","1","3","1","null","","","<img src = 'category2/CS3.png' width = '100%;'>","null","","","","","","","","","",""
"","html-keyboard-response","92","655038","0.0-8.0-2.0","whmxhf3yb6","one_one","1","indirect_first","0","er06el18","0","25","1","1","3","1","null","","","<img src = 'targets/26.png' width = '100%;'>","null","","","","","","","","","",""
"","html-keyboard-response","93","659498","0.0-8.0-3.0","whmxhf3yb6","one_one","1","indirect_first","0","er06el18","0","25","1","1","3","1","4457","","","<img src = 'targets/mask.png' width = '100%;'>","68","neg","GS","GSold","2","category2/CS3.png","targets/26.png","0","indirect","0",""
"","html-keyboard-response","94","661018","0.0-8.0-0.1","whmxhf3yb6","one_one","1","indirect_first","0","er06el18","0","25","1","1","3","1","null","","","<div style=""font-size:60px;"">+</div>","null","","","","","","","","","",""
"","html-keyboard-response","95","661118","0.0-8.0-1.1","whmxhf3yb6","one_one","1","indirect_first","0","er06el18","0","25","1","1","3","1","null","","","<img src = 'category4/CS10.png' width = '100%;'>","null","","","","","","","","","",""
"","html-keyboard-response","96","661398","0.0-8.0-2.1","whmxhf3yb6","one_one","1","indirect_first","0","er06el18","0","25","1","1","3","1","null","","","<img src = 'targets/15.png' width = '100%;'>","null","","","","","","","","","",""
"","html-keyboard-response","97","663178","0.0-8.0-3.1","whmxhf3yb6","one_one","1","indirect_first","0","er06el18","0","25","1","1","3","1","1777","","","<img src = 'targets/mask.png' width = '100%;'>","75","pos","GS","GSold","4","category4/CS10.png","targets/15.png","1","indirect","1",""
"","html-keyboard-response","98","664708","0.0-8.0-0.2","whmxhf3yb6","one_one","1","indirect_first","0","er06el18","0","25","1","1","3","1","null","","","<div style=""font-size:60px;"">+</div>","null","","","","","","","","","",""
"","html-keyboard-response","99","664809","0.0-8.0-1.2","whmxhf3yb6","one_one","1","indirect_first","0","er06el18","0","25","1","1","3","1","null","","","<img src = 'category1/CS10.png' width = '100%;'>","null","","","","","","","","","",""
"","html-keyboard-response","100","665089","0.0-8.0-2.2","whmxhf3yb6","one_one","1","indirect_first","0","er06el18","0","25","1","1","3","1","null","","","<img src = 'targets/42.png' width = '100%;'>","null","","","","","","","","","",""
"","html-keyboard-response","101","666538","0.0-8.0-3.2","whmxhf3yb6","one_one","1","indirect_first","0","er06el18","0","25","1","1","3","1","1449","","","<img src = 'targets/mask.png' width = '100%;'>","68","neg","GS","GSold","1","category1/CS10.png","targets/42.png","0","indirect","2",""
"","html-keyboard-response","102","668069","0.0-8.0-0.3","whmxhf3yb6","one_one","1","indirect_first","0","er06el18","0","25","1","1","3","1","null","","","<div style=""font-size:60px;"">+</div>","null","","","","","","","","","",""
"","html-keyboard-response","103","668169","0.0-8.0-1.3","whmxhf3yb6","one_one","1","indirect_first","0","er06el18","0","25","1","1","3","1","null","","","<img src = 'category4/CS4.png' width = '100%;'>","null","","","","","","","","","",""
"","html-keyboard-response","104","668444","0.0-8.0-2.3","whmxhf3yb6","one_one","1","indirect_first","0","er06el18","0","25","1","1","3","1","null","","","<img src = 'targets/29.png' width = '100%;'>","null","","","","","","","","","",""
"","html-keyboard-response","105","670370","0.0-8.0-3.3","whmxhf3yb6","one_one","1","indirect_first","0","er06el18","0","25","1","1","3","1","1923","","","<img src = 'targets/mask.png' width = '100%;'>","75","pos","GS","GSold","4","category4/CS4.png","targets/29.png","1","indirect","3",""
"","html-keyboard-response","106","671908","0.0-8.0-0.4","whmxhf3yb6","one_one","1","indirect_first","0","er06el18","0","25","1","1","3","1","null","","","<div style=""font-size:60px;"">+</div>","null","","","","","","","","","",""
"","html-keyboard-response","107","672009","0.0-8.0-1.4","whmxhf3yb6","one_one","1","indirect_first","0","er06el18","0","25","1","1","3","1","null","","","<img src = 'category4/CS8.png' width = '100%;'>","null","","","","","","","","","",""
"","html-keyboard-response","108","672289","0.0-8.0-2.4","whmxhf3yb6","one_one","1","indirect_first","0","er06el18","0","25","1","1","3","1","null","","","<img src = 'targets/6.png' width = '100%;'>","null","","","","","","","","","",""
"","html-keyboard-response","109","674794","0.0-8.0-3.4","whmxhf3yb6","one_one","1","indirect_first","0","er06el18","0","25","1","1","3","1","2505","","","<img src = 'targets/mask.png' width = '100%;'>","75","pos","GS","GSold","4","category4/CS8.png","targets/6.png","1","indirect","4",""
"","html-keyboard-response","110","676328","0.0-8.0-0.5","whmxhf3yb6","one_one","1","indirect_first","0","er06el18","0","25","1","1","3","1","null","","","<div style=""font-size:60px;"">+</div>","null","","","","","","","","","",""
"","html-keyboard-response","111","676429","0.0-8.0-1.5","whmxhf3yb6","one_one","1","indirect_first","0","er06el18","0","25","1","1","3","1","null","","","<img src = 'category3/CS3.png' width = '100%;'>","null","","","","","","","","","",""
"","html-keyboard-response","112","676708","0.0-8.0-2.5","whmxhf3yb6","one_one","1","indirect_first","0","er06el18","0","25","1","1","3","1","null","","","<img src = 'targets/23.png' width = '100%;'>","null","","","","","","","","","",""
"","html-keyboard-response","113","679433","0.0-8.0-3.5","whmxhf3yb6","one_one","1","indirect_first","0","er06el18","0","25","1","1","3","1","2724","","","<img src = 'targets/mask.png' width = '100%;'>","75","pos","GS","GSold","3","category3/CS3.png","targets/23.png","1","indirect","5",""
"","html-keyboard-response","114","680968","0.0-8.0-0.6","whmxhf3yb6","one_one","1","indirect_first","0","er06el18","0","25","1","1","3","1","null","","","<div style=""font-size:60px;"">+</div>","null","","","","","","","","","",""
"","html-keyboard-response","115","681068","0.0-8.0-1.6","whmxhf3yb6","one_one","1","indirect_first","0","er06el18","0","25","1","1","3","1","null","","","<img src = 'category4/CS1.png' width = '100%;'>","null","","","","","","","","","",""
"","html-keyboard-response","116","681348","0.0-8.0-2.6","whmxhf3yb6","one_one","1","indirect_first","0","er06el18","0","25","1","1","3","1","null","","","<img src = 'targets/28.png' width = '100%;'>","null","","","","","","","","","",""
"","html-keyboard-response","117","682706","0.0-8.0-3.6","whmxhf3yb6","one_one","1","indirect_first","0","er06el18","0","25","1","1","3","1","1356","","","<img src = 'targets/mask.png' width = '100%;'>","68","pos","CS","CS","4","category4/CS1.png","targets/28.png","0","indirect","6",""
"","html-keyboard-response","118","684218","0.0-8.0-0.7","whmxhf3yb6","one_one","1","indirect_first","0","er06el18","0","25","1","1","3","1","null","","","<div style=""font-size:60px;"">+</div>","null","","","","","","","","","",""
"","html-keyboard-response","119","684318","0.0-8.0-1.7","whmxhf3yb6","one_one","1","indirect_first","0","er06el18","0","25","1","1","3","1","null","","","<img src = 'category3/CS5.png' width = '100%;'>","null","","","","","","","","","",""
"","html-keyboard-response","120","684599","0.0-8.0-2.7","whmxhf3yb6","one_one","1","indirect_first","0","er06el18","0","25","1","1","3","1","null","","","<img src = 'targets/20.png' width = '100%;'>","null","","","","","","","","","",""
"","html-keyboard-response","121","686426","0.0-8.0-3.7","whmxhf3yb6","one_one","1","indirect_first","0","er06el18","0","25","1","1","3","1","1826","","","<img src = 'targets/mask.png' width = '100%;'>","68","pos","GS","GSold","3","category3/CS5.png","targets/20.png","0","indirect","7",""
"","html-keyboard-response","122","687958","0.0-8.0-0.8","whmxhf3yb6","one_one","1","indirect_first","0","er06el18","0","25","1","1","3","1","null","","","<div style=""font-size:60px;"">+</div>","null","","","","","","","","","",""
"","html-keyboard-response","123","688058","0.0-8.0-1.8","whmxhf3yb6","one_one","1","indirect_first","0","er06el18","0","25","1","1","3","1","null","","","<img src = 'category1/CS1.png' width = '100%;'>","null","","","","","","","","","",""
"","html-keyboard-response","124","688338","0.0-8.0-2.8","whmxhf3yb6","one_one","1","indirect_first","0","er06el18","0","25","1","1","3","1","null","","","<img src = 'targets/14.png' width = '100%;'>","null","","","","","","","","","",""
"","html-keyboard-response","125","690370","0.0-8.0-3.8","whmxhf3yb6","one_one","1","indirect_first","0","er06el18","0","25","1","1","3","1","2031","","","<img src = 'targets/mask.png' width = '100%;'>","75","neg","GS","GSold","1","category1/CS1.png","targets/14.png","1","indirect","8",""
"","html-keyboard-response","126","691898","0.0-8.0-0.9","whmxhf3yb6","one_one","1","indirect_first","0","er06el18","0","25","1","1","3","1","null","","","<div style=""font-size:60px;"">+</div>","null","","","","","","","","","",""
"","html-keyboard-response","127","691998","0.0-8.0-1.9","whmxhf3yb6","one_one","1","indirect_first","0","er06el18","0","25","1","1","3","1","null","","","<img src = 'category1/CS4.png' width = '100%;'>","null","","","","","","","","","",""
"","html-keyboard-response","128","692278","0.0-8.0-2.9","whmxhf3yb6","one_one","1","indirect_first","0","er06el18","0","25","1","1","3","1","null","","","<img src = 'targets/5.png' width = '100%;'>","null","","","","","","","","","",""
"","html-keyboard-response","129","694426","0.0-8.0-3.9","whmxhf3yb6","one_one","1","indirect_first","0","er06el18","0","25","1","1","3","1","2146","","","<img src = 'targets/mask.png' width = '100%;'>","75","neg","CS","CS","1","category1/CS4.png","targets/5.png","1","indirect","9",""
"","html-keyboard-response","130","695958","0.0-8.0-0.10","whmxhf3yb6","one_one","1","indirect_first","0","er06el18","0","25","1","1","3","1","null","","","<div style=""font-size:60px;"">+</div>","null","","","","","","","","","",""
"","html-keyboard-response","131","696059","0.0-8.0-1.10","whmxhf3yb6","one_one","1","indirect_first","0","er06el18","0","25","1","1","3","1","null","","","<img src = 'category3/CS6.png' width = '100%;'>","null","","","","","","","","","",""
"","html-keyboard-response","132","696338","0.0-8.0-2.10","whmxhf3yb6","one_one","1","indirect_first","0","er06el18","0","25","1","1","3","1","null","","","<img src = 'targets/46.png' width = '100%;'>","null","","","","","","","","","",""
"","html-keyboard-response","133","699906","0.0-8.0-3.10","whmxhf3yb6","one_one","1","indirect_first","0","er06el18","0","25","1","1","3","1","3566","","","<img src = 'targets/mask.png' width = '100%;'>","75","pos","GS","GSold","3","category3/CS6.png","targets/46.png","1","indirect","10",""
"","html-keyboard-response","134","701429","0.0-8.0-0.11","whmxhf3yb6","one_one","1","indirect_first","0","er06el18","0","25","1","1","3","1","null","","","<div style=""font-size:60px;"">+</div>","null","","","","","","","","","",""
"","html-keyboard-response","135","701528","0.0-8.0-1.11","whmxhf3yb6","one_one","1","indirect_first","0","er06el18","0","25","1","1","3","1","null","","","<img src = 'category2/CS2.png' width = '100%;'>","null","","","","","","","","","",""
"","html-keyboard-response","136","701808","0.0-8.0-2.11","whmxhf3yb6","one_one","1","indirect_first","0","er06el18","0","25","1","1","3","1","null","","","<img src = 'targets/1.png' width = '100%;'>","null","","","","","","","","","",""
"","html-keyboard-response","137","704970","0.0-8.0-3.11","whmxhf3yb6","one_one","1","indirect_first","0","er06el18","0","25","1","1","3","1","3161","","","<img src = 'targets/mask.png' width = '100%;'>","75","neg","GS","GSold","2","category2/CS2.png","targets/1.png","1","indirect","11",""
"","html-keyboard-response","138","706498","0.0-8.0-0.12","whmxhf3yb6","one_one","1","indirect_first","0","er06el18","0","25","1","1","3","1","null","","","<div style=""font-size:60px;"">+</div>","null","","","","","","","","","",""
"","html-keyboard-response","139","706598","0.0-8.0-1.12","whmxhf3yb6","one_one","1","indirect_first","0","er06el18","0","25","1","1","3","1","null","","","<img src = 'category3/CS7.png' width = '100%;'>","null","","","","","","","","","",""
"","html-keyboard-response","140","706878","0.0-8.0-2.12","whmxhf3yb6","one_one","1","indirect_first","0","er06el18","0","25","1","1","3","1","null","","","<img src = 'targets/13.png' width = '100%;'>","null","","","","","","","","","",""
"","html-keyboard-response","141","709770","0.0-8.0-3.12","whmxhf3yb6","one_one","1","indirect_first","0","er06el18","0","25","1","1","3","1","2891","","","<img src = 'targets/mask.png' width = '100%;'>","75","pos","CS","CS","3","category3/CS7.png","targets/13.png","1","indirect","12",""
"","html-keyboard-response","142","711278","0.0-8.0-0.13","whmxhf3yb6","one_one","1","indirect_first","0","er06el18","0","25","1","1","3","1","null","","","<div style=""font-size:60px;"">+</div>","null","","","","","","","","","",""
"","html-keyboard-response","143","711378","0.0-8.0-1.13","whmxhf3yb6","one_one","1","indirect_first","0","er06el18","0","25","1","1","3","1","null","","","<img src = 'category2/CS5.png' width = '100%;'>","null","","","","","","","","","",""
"","html-keyboard-response","144","711658","0.0-8.0-2.13","whmxhf3yb6","one_one","1","indirect_first","0","er06el18","0","25","1","1","3","1","null","","","<img src = 'targets/45.png' width = '100%;'>","null","","","","","","","","","",""
"","html-keyboard-response","145","713153","0.0-8.0-3.13","whmxhf3yb6","one_one","1","indirect_first","0","er06el18","0","25","1","1","3","1","1493","","","<img src = 'targets/mask.png' width = '100%;'>","68","neg","CS","CS","2","category2/CS5.png","targets/45.png","0","indirect","13",""
"","html-keyboard-response","146","714658","0.0-8.0-0.14","whmxhf3yb6","one_one","1","indirect_first","0","er06el18","0","25","1","1","3","1","null","","","<div style=""font-size:60px;"">+</div>","null","","","","","","","","","",""
"","html-keyboard-response","147","714758","0.0-8.0-1.14","whmxhf3yb6","one_one","1","indirect_first","0","er06el18","0","25","1","1","3","1","null","","","<img src = 'category1/CS2.png' width = '100%;'>","null","","","","","","","","","",""
"","html-keyboard-response","148","715038","0.0-8.0-2.14","whmxhf3yb6","one_one","1","indirect_first","0","er06el18","0","25","1","1","3","1","null","","","<img src = 'targets/18.png' width = '100%;'>","null","","","","","","","","","",""
"","html-keyboard-response","149","717002","0.0-8.0-3.14","whmxhf3yb6","one_one","1","indirect_first","0","er06el18","0","25","1","1","3","1","1961","","","<img src = 'targets/mask.png' width = '100%;'>","68","neg","GS","GSold","1","category1/CS2.png","targets/18.png","0","indirect","14",""
"","html-keyboard-response","150","718538","0.0-8.0-0.15","whmxhf3yb6","one_one","1","indirect_first","0","er06el18","0","25","1","1","3","1","null","","","<div style=""font-size:60px;"">+</div>","null","","","","","","","","","",""
"","html-keyboard-response","151","718638","0.0-8.0-1.15","whmxhf3yb6","one_one","1","indirect_first","0","er06el18","0","25","1","1","3","1","null","","","<img src = 'category2/CS8.png' width = '100%;'>","null","","","","","","","","","",""
"","html-keyboard-response","152","718919","0.0-8.0-2.15","whmxhf3yb6","one_one","1","indirect_first","0","er06el18","0","25","1","1","3","1","null","","","<img src = 'targets/33.png' width = '100%;'>","null","","","","","","","","","",""
"","html-keyboard-response","153","721122","0.0-8.0-3.15","whmxhf3yb6","one_one","1","indirect_first","0","er06el18","0","25","1","1","3","1","2201","","","<img src = 'targets/mask.png' width = '100%;'>","75","neg","GS","GSold","2","category2/CS8.png","targets/33.png","1","indirect","15",""
"","survey-html-form","154","735106","0.0-9.0","whmxhf3yb6","one_one","1","indirect_first","0","er06el18","0","25","1","1","3","1","13477","","{}","","","","","","","","","","","",""
"","html-keyboard-response","155","738138","0.0-10.0-0.0","whmxhf3yb6","one_one","1","indirect_first","0","er06el18","0","25","1","1","3","1","null","","","<div style=""font-size:60px;"">+</div>","null","","","","","","","","","",""
"","html-keyboard-response","156","738238","0.0-10.0-1.0","whmxhf3yb6","one_one","1","indirect_first","0","er06el18","0","25","1","1","3","1","null","","","<img src = 'category2/GS2.png' width = '100%;'>","null","","","","","","","","","",""
"","html-keyboard-response","157","738518","0.0-10.0-2.0","whmxhf3yb6","one_one","1","indirect_first","0","er06el18","0","25","1","1","3","1","null","","","<img src = 'targets/38.png' width = '100%;'>","null","","","","","","","","","",""
"","html-keyboard-response","158","741530","0.0-10.0-3.0","whmxhf3yb6","one_one","1","indirect_first","0","er06el18","0","25","1","1","3","1","3011","","","<img src = 'targets/mask.png' width = '100%;'>","68","neg","GS","GSnew","2","category2/GS2.png","targets/38.png","0","indirect","16",""
"","html-keyboard-response","159","743058","0.0-10.0-0.1","whmxhf3yb6","one_one","1","indirect_first","0","er06el18","0","25","1","1","3","1","null","","","<div style=""font-size:60px;"">+</div>","null","","","","","","","","","",""
"","html-keyboard-response","160","743159","0.0-10.0-1.1","whmxhf3yb6","one_one","1","indirect_first","0","er06el18","0","25","1","1","3","1","null","","","<img src = 'category1/ma.png' width = '100%;'>","null","","","","","","","","","",""
"","html-keyboard-response","161","743438","0.0-10.0-2.1","whmxhf3yb6","one_one","1","indirect_first","0","er06el18","0","25","1","1","3","1","null","","","<img src = 'targets/48.png' width = '100%;'>","null","","","","","","","","","",""
"","html-keyboard-response","162","745002","0.0-10.0-3.1","whmxhf3yb6","one_one","1","indirect_first","0","er06el18","0","25","1","1","3","1","1562","","","<img src = 'targets/mask.png' width = '100%;'>","75","neg","GS","abstract","1","category1/ma.png","targets/48.png","1","indirect","17",""
"","html-keyboard-response","163","746538","0.0-10.0-0.2","whmxhf3yb6","one_one","1","indirect_first","0","er06el18","0","25","1","1","3","1","null","","","<div style=""font-size:60px;"">+</div>","null","","","","","","","","","",""
"","html-keyboard-response","164","746638","0.0-10.0-1.2","whmxhf3yb6","one_one","1","indirect_first","0","er06el18","0","25","1","1","3","1","null","","","<img src = 'category2/GS1.png' width = '100%;'>","null","","","","","","","","","",""
"","html-keyboard-response","165","746918","0.0-10.0-2.2","whmxhf3yb6","one_one","1","indirect_first","0","er06el18","0","25","1","1","3","1","null","","","<img src = 'targets/9.png' width = '100%;'>","null","","","","","","","","","",""
"","html-keyboard-response","166","748209","0.0-10.0-3.2","whmxhf3yb6","one_one","1","indirect_first","0","er06el18","0","25","1","1","3","1","1291","","","<img src = 'targets/mask.png' width = '100%;'>","75","neg","GS","GSnew","2","category2/GS1.png","targets/9.png","1","indirect","18",""
"","html-keyboard-response","167","749738","0.0-10.0-0.3","whmxhf3yb6","one_one","1","indirect_first","0","er06el18","0","25","1","1","3","1","null","","","<div style=""font-size:60px;"">+</div>","null","","","","","","","","","",""
"","html-keyboard-response","168","749838","0.0-10.0-1.3","whmxhf3yb6","one_one","1","indirect_first","0","er06el18","0","25","1","1","3","1","null","","","<img src = 'category4/GS1.png' width = '100%;'>","null","","","","","","","","","",""
"","html-keyboard-response","169","750118","0.0-10.0-2.3","whmxhf3yb6","one_one","1","indirect_first","0","er06el18","0","25","1","1","3","1","null","","","<img src = 'targets/24.png' width = '100%;'>","null","","","","","","","","","",""
"","html-keyboard-response","170","751961","0.0-10.0-3.3","whmxhf3yb6","one_one","1","indirect_first","0","er06el18","0","25","1","1","3","1","1842","","","<img src = 'targets/mask.png' width = '100%;'>","68","pos","GS","GSnew","4","category4/GS1.png","targets/24.png","0","indirect","19",""
"","html-keyboard-response","171","753498","0.0-10.0-0.4","whmxhf3yb6","one_one","1","indirect_first","0","er06el18","0","25","1","1","3","1","null","","","<div style=""font-size:60px;"">+</div>","null","","","","","","","","","",""
"","html-keyboard-response","172","753598","0.0-10.0-1.4","whmxhf3yb6","one_one","1","indirect_first","0","er06el18","0","25","1","1","3","1","null","","","<img src = 'category3/wang.png' width = '100%;'>","null","","","","","","","","","",""
"","html-keyboard-response","173","753878","0.0-10.0-2.4","whmxhf3yb6","one_one","1","indirect_first","0","er06el18","0","25","1","1","3","1","null","","","<img src = 'targets/39.png' width = '100%;'>","null","","","","","","","","","",""
"","html-keyboard-response","174","758633","0.0-10.0-3.4","whmxhf3yb6","one_one","1","indirect_first","0","er06el18","0","25","1","1","3","1","4755","","","<img src = 'targets/mask.png' width = '100%;'>","75","pos","GS","abstract","3","category3/wang.png","targets/39.png","1","indirect","20",""
"","html-keyboard-response","175","760158","0.0-10.0-0.5","whmxhf3yb6","one_one","1","indirect_first","0","er06el18","0","25","1","1","3","1","null","","","<div style=""font-size:60px;"">+</div>","null","","","","","","","","","",""
"","html-keyboard-response","176","760258","0.0-10.0-1.5","whmxhf3yb6","one_one","1","indirect_first","0","er06el18","0","25","1","1","3","1","null","","","<img src = 'category4/GS2.png' width = '100%;'>","null","","","","","","","","","",""
"","html-keyboard-response","177","760538","0.0-10.0-2.5","whmxhf3yb6","one_one","1","indirect_first","0","er06el18","0","25","1","1","3","1","null","","","<img src = 'targets/37.png' width = '100%;'>","null","","","","","","","","","",""
"","html-keyboard-response","178","763650","0.0-10.0-3.5","whmxhf3yb6","one_one","1","indirect_first","0","er06el18","0","25","1","1","3","1","3111","","","<img src = 'targets/mask.png' width = '100%;'>","68","pos","GS","GSnew","4","category4/GS2.png","targets/37.png","0","indirect","21",""
"","html-keyboard-response","179","765177","0.0-10.0-0.6","whmxhf3yb6","one_one","1","indirect_first","0","er06el18","0","25","1","1","3","1","null","","","<div style=""font-size:60px;"">+</div>","null","","","","","","","","","",""
"","html-keyboard-response","180","765278","0.0-10.0-1.6","whmxhf3yb6","one_one","1","indirect_first","0","er06el18","0","25","1","1","3","1","null","","","<img src = 'category4/lin.png' width = '100%;'>","null","","","","","","","","","",""
"","html-keyboard-response","181","765539","0.0-10.0-2.6","whmxhf3yb6","one_one","1","indirect_first","0","er06el18","0","25","1","1","3","1","null","","","<img src = 'targets/31.png' width = '100%;'>","null","","","","","","","","","",""
"","html-keyboard-response","182","768177","0.0-10.0-3.6","whmxhf3yb6","one_one","1","indirect_first","0","er06el18","0","25","1","1","3","1","2638","","","<img src = 'targets/mask.png' width = '100%;'>","75","pos","GS","abstract","4","category4/lin.png","targets/31.png","1","indirect","22",""
"","html-keyboard-response","183","769698","0.0-10.0-0.7","whmxhf3yb6","one_one","1","indirect_first","0","er06el18","0","25","1","1","3","1","null","","","<div style=""font-size:60px;"">+</div>","null","","","","","","","","","",""
"","html-keyboard-response","184","769798","0.0-10.0-1.7","whmxhf3yb6","one_one","1","indirect_first","0","er06el18","0","25","1","1","3","1","null","","","<img src = 'category2/GS3.png' width = '100%;'>","null","","","","","","","","","",""
"","html-keyboard-response","185","770078","0.0-10.0-2.7","whmxhf3yb6","one_one","1","indirect_first","0","er06el18","0","25","1","1","3","1","null","","","<img src = 'targets/17.png' width = '100%;'>","null","","","","","","","","","",""
"","html-keyboard-response","186","771202","0.0-10.0-3.7","whmxhf3yb6","one_one","1","indirect_first","0","er06el18","0","25","1","1","3","1","1122","","","<img src = 'targets/mask.png' width = '100%;'>","68","neg","GS","GSnew","2","category2/GS3.png","targets/17.png","0","indirect","23",""
"","html-keyboard-response","187","772727","0.0-10.0-0.8","whmxhf3yb6","one_one","1","indirect_first","0","er06el18","0","25","1","1","3","1","null","","","<div style=""font-size:60px;"">+</div>","null","","","","","","","","","",""
"","html-keyboard-response","188","772828","0.0-10.0-1.8","whmxhf3yb6","one_one","1","indirect_first","0","er06el18","0","25","1","1","3","1","null","","","<img src = 'category3/GS1.png' width = '100%;'>","null","","","","","","","","","",""
"","html-keyboard-response","189","773108","0.0-10.0-2.8","whmxhf3yb6","one_one","1","indirect_first","0","er06el18","0","25","1","1","3","1","null","","","<img src = 'targets/35.png' width = '100%;'>","null","","","","","","","","","",""
"","html-keyboard-response","190","774394","0.0-10.0-3.8","whmxhf3yb6","one_one","1","indirect_first","0","er06el18","0","25","1","1","3","1","1285","","","<img src = 'targets/mask.png' width = '100%;'>","75","pos","GS","GSnew","3","category3/GS1.png","targets/35.png","1","indirect","24",""
"","html-keyboard-response","191","775924","0.0-10.0-0.9","whmxhf3yb6","one_one","1","indirect_first","0","er06el18","0","25","1","1","3","1","null","","","<div style=""font-size:60px;"">+</div>","null","","","","","","","","","",""
"","html-keyboard-response","192","776023","0.0-10.0-1.9","whmxhf3yb6","one_one","1","indirect_first","0","er06el18","0","25","1","1","3","1","null","","","<img src = 'category1/GS1.png' width = '100%;'>","null","","","","","","","","","",""
"","html-keyboard-response","193","776308","0.0-10.0-2.9","whmxhf3yb6","one_one","1","indirect_first","0","er06el18","0","25","1","1","3","1","null","","","<img src = 'targets/19.png' width = '100%;'>","null","","","","","","","","","",""
"","html-keyboard-response","194","777513","0.0-10.0-3.9","whmxhf3yb6","one_one","1","indirect_first","0","er06el18","0","25","1","1","3","1","1205","","","<img src = 'targets/mask.png' width = '100%;'>","75","neg","GS","GSnew","1","category1/GS1.png","targets/19.png","1","indirect","25",""
"","html-keyboard-response","195","779028","0.0-10.0-0.10","whmxhf3yb6","one_one","1","indirect_first","0","er06el18","0","25","1","1","3","1","null","","","<div style=""font-size:60px;"">+</div>","null","","","","","","","","","",""
"","html-keyboard-response","196","779127","0.0-10.0-1.10","whmxhf3yb6","one_one","1","indirect_first","0","er06el18","0","25","1","1","3","1","null","","","<img src = 'category2/men.png' width = '100%;'>","null","","","","","","","","","",""
"","html-keyboard-response","197","779408","0.0-10.0-2.10","whmxhf3yb6","one_one","1","indirect_first","0","er06el18","0","25","1","1","3","1","null","","","<img src = 'targets/22.png' width = '100%;'>","null","","","","","","","","","",""
"","html-keyboard-response","198","780409","0.0-10.0-3.10","whmxhf3yb6","one_one","1","indirect_first","0","er06el18","0","25","1","1","3","1","1001","","","<img src = 'targets/mask.png' width = '100%;'>","68","neg","GS","abstract","2","category2/men.png","targets/22.png","0","indirect","26",""
"","html-keyboard-response","199","781927","0.0-10.0-0.11","whmxhf3yb6","one_one","1","indirect_first","0","er06el18","0","25","1","1","3","1","null","","","<div style=""font-size:60px;"">+</div>","null","","","","","","","","","",""
"","html-keyboard-response","200","782020","0.0-10.0-1.11","whmxhf3yb6","one_one","1","indirect_first","0","er06el18","0","25","1","1","3","1","null","","","<img src = 'category1/GS3.png' width = '100%;'>","null","","","","","","","","","",""
"","html-keyboard-response","201","782271","0.0-10.0-2.11","whmxhf3yb6","one_one","1","indirect_first","0","er06el18","0","25","1","1","3","1","null","","","<img src = 'targets/12.png' width = '100%;'>","null","","","","","","","","","",""
"","html-keyboard-response","202","783673","0.0-10.0-3.11","whmxhf3yb6","one_one","1","indirect_first","0","er06el18","0","25","1","1","3","1","1401","","","<img src = 'targets/mask.png' width = '100%;'>","75","neg","GS","GSnew","1","category1/GS3.png","targets/12.png","1","indirect","27",""
"","html-keyboard-response","203","785197","0.0-10.0-0.12","whmxhf3yb6","one_one","1","indirect_first","0","er06el18","0","25","1","1","3","1","null","","","<div style=""font-size:60px;"">+</div>","null","","","","","","","","","",""
"","html-keyboard-response","204","785299","0.0-10.0-1.12","whmxhf3yb6","one_one","1","indirect_first","0","er06el18","0","25","1","1","3","1","null","","","<img src = 'category3/GS3.png' width = '100%;'>","null","","","","","","","","","",""
"","html-keyboard-response","205","785577","0.0-10.0-2.12","whmxhf3yb6","one_one","1","indirect_first","0","er06el18","0","25","1","1","3","1","null","","","<img src = 'targets/34.png' width = '100%;'>","null","","","","","","","","","",""
"","html-keyboard-response","206","787761","0.0-10.0-3.12","whmxhf3yb6","one_one","1","indirect_first","0","er06el18","0","25","1","1","3","1","2183","","","<img src = 'targets/mask.png' width = '100%;'>","75","pos","GS","GSnew","3","category3/GS3.png","targets/34.png","1","indirect","28",""
"","html-keyboard-response","207","789276","0.0-10.0-0.13","whmxhf3yb6","one_one","1","indirect_first","0","er06el18","0","25","1","1","3","1","null","","","<div style=""font-size:60px;"">+</div>","null","","","","","","","","","",""
"","html-keyboard-response","208","789377","0.0-10.0-1.13","whmxhf3yb6","one_one","1","indirect_first","0","er06el18","0","25","1","1","3","1","null","","","<img src = 'category4/GS3.png' width = '100%;'>","null","","","","","","","","","",""
"","html-keyboard-response","209","789657","0.0-10.0-2.13","whmxhf3yb6","one_one","1","indirect_first","0","er06el18","0","25","1","1","3","1","null","","","<img src = 'targets/16.png' width = '100%;'>","null","","","","","","","","","",""
"","html-keyboard-response","210","791825","0.0-10.0-3.13","whmxhf3yb6","one_one","1","indirect_first","0","er06el18","0","25","1","1","3","1","2167","","","<img src = 'targets/mask.png' width = '100%;'>","68","pos","GS","GSnew","4","category4/GS3.png","targets/16.png","0","indirect","29",""
"","html-keyboard-response","211","793358","0.0-10.0-0.14","whmxhf3yb6","one_one","1","indirect_first","0","er06el18","0","25","1","1","3","1","null","","","<div style=""font-size:60px;"">+</div>","null","","","","","","","","","",""
"","html-keyboard-response","212","793458","0.0-10.0-1.14","whmxhf3yb6","one_one","1","indirect_first","0","er06el18","0","25","1","1","3","1","null","","","<img src = 'category1/GS2.png' width = '100%;'>","null","","","","","","","","","",""
"","html-keyboard-response","213","793737","0.0-10.0-2.14","whmxhf3yb6","one_one","1","indirect_first","0","er06el18","0","25","1","1","3","1","null","","","<img src = 'targets/11.png' width = '100%;'>","null","","","","","","","","","",""
"","html-keyboard-response","214","795058","0.0-10.0-3.14","whmxhf3yb6","one_one","1","indirect_first","0","er06el18","0","25","1","1","3","1","1317","","","<img src = 'targets/mask.png' width = '100%;'>","75","neg","GS","GSnew","1","category1/GS2.png","targets/11.png","1","indirect","30",""
"","html-keyboard-response","215","796596","0.0-10.0-0.15","whmxhf3yb6","one_one","1","indirect_first","0","er06el18","0","25","1","1","3","1","null","","","<div style=""font-size:60px;"">+</div>","null","","","","","","","","","",""
"","html-keyboard-response","216","796697","0.0-10.0-1.15","whmxhf3yb6","one_one","1","indirect_first","0","er06el18","0","25","1","1","3","1","null","","","<img src = 'category3/GS2.png' width = '100%;'>","null","","","","","","","","","",""
"","html-keyboard-response","217","796977","0.0-10.0-2.15","whmxhf3yb6","one_one","1","indirect_first","0","er06el18","0","25","1","1","3","1","null","","","<img src = 'targets/7.png' width = '100%;'>","null","","","","","","","","","",""
"","html-keyboard-response","218","797969","0.0-10.0-3.15","whmxhf3yb6","one_one","1","indirect_first","0","er06el18","0","25","1","1","3","1","991","","","<img src = 'targets/mask.png' width = '100%;'>","68","pos","GS","GSnew","3","category3/GS2.png","targets/7.png","0","indirect","31",""
"","survey-html-form","219","819706","0.0-11.0","whmxhf3yb6","one_one","1","indirect_first","0","er06el18","0","25","1","1","3","1","21228","","{}","","","","","","","","","","","",""
"","image-slider-response","220","834983","0.0-12.0-0.0","whmxhf3yb6","one_one","1","indirect_first","0","er06el18","0","25","1","1","3","1","13260","","","","","pos","GS","GSnew","3","category3/GS2.png","targets/7.png","","direct","","29"
"","image-slider-response","221","841759","0.0-12.0-0.1","whmxhf3yb6","one_one","1","indirect_first","0","er06el18","0","25","1","1","3","1","6774","","","","","pos","GS","GSnew","3","category3/GS1.png","targets/35.png","","direct","","-25"
"","image-slider-response","222","851135","0.0-12.0-0.2","whmxhf3yb6","one_one","1","indirect_first","0","er06el18","0","25","1","1","3","1","9374","","","","","neg","CS","CS","1","category1/CS4.png","targets/5.png","","direct","","-15"
"","image-slider-response","223","856695","0.0-12.0-0.3","whmxhf3yb6","one_one","1","indirect_first","0","er06el18","0","25","1","1","3","1","5559","","","","","neg","GS","GSnew","1","category1/GS1.png","targets/19.png","","direct","","22"
"","image-slider-response","224","861847","0.0-12.0-0.4","whmxhf3yb6","one_one","1","indirect_first","0","er06el18","0","25","1","1","3","1","5151","","","","","neg","GS","abstract","1","category1/ma.png","targets/48.png","","direct","","-18"
"","image-slider-response","225","870983","0.0-12.0-0.5","whmxhf3yb6","one_one","1","indirect_first","0","er06el18","0","25","1","1","3","1","9135","","","","","neg","GS","abstract","2","category2/men.png","targets/22.png","","direct","","-59"
"","image-slider-response","226","876238","0.0-12.0-0.6","whmxhf3yb6","one_one","1","indirect_first","0","er06el18","0","25","1","1","3","1","5255","","","","","pos","GS","GSold","4","category4/CS4.png","targets/29.png","","direct","","62"
"","image-slider-response","227","880366","0.0-12.0-0.7","whmxhf3yb6","one_one","1","indirect_first","0","er06el18","0","25","1","1","3","1","4127","","","","","neg","GS","GSold","1","category1/CS1.png","targets/14.png","","direct","","11"
"","image-slider-response","228","886942","0.0-12.0-0.8","whmxhf3yb6","one_one","1","indirect_first","0","er06el18","0","25","1","1","3","1","6574","","","","","neg","GS","GSold","2","category2/CS8.png","targets/33.png","","direct","","33"
"","image-slider-response","229","893830","0.0-12.0-0.9","whmxhf3yb6","one_one","1","indirect_first","0","er06el18","0","25","1","1","3","1","6885","","","","","pos","CS","CS","3","category3/CS7.png","targets/13.png","","direct","","1"
"","image-slider-response","230","900286","0.0-12.0-0.10","whmxhf3yb6","one_one","1","indirect_first","0","er06el18","0","25","1","1","3","1","6455","","","","","neg","GS","GSnew","1","category1/GS2.png","targets/11.png","","direct","","-39"
"","image-slider-response","231","906046","0.0-12.0-0.11","whmxhf3yb6","one_one","1","indirect_first","0","er06el18","0","25","1","1","3","1","5759","","","","","neg","GS","GSnew","2","category2/GS2.png","targets/38.png","","direct","","-31"
"","image-slider-response","232","908910","0.0-12.0-0.12","whmxhf3yb6","one_one","1","indirect_first","0","er06el18","0","25","1","1","3","1","2863","","","","","pos","GS","abstract","4","category4/lin.png","targets/31.png","","direct","","11"
"","image-slider-response","233","913829","0.0-12.0-0.13","whmxhf3yb6","one_one","1","indirect_first","0","er06el18","0","25","1","1","3","1","4919","","","","","neg","GS","GSold","2","category2/CS2.png","targets/1.png","","direct","","-10"
"","image-slider-response","234","917734","0.0-12.0-0.14","whmxhf3yb6","one_one","1","indirect_first","0","er06el18","0","25","1","1","3","1","3903","","","","","pos","GS","GSold","3","category3/CS3.png","targets/23.png","","direct","","47"
"","image-slider-response","235","922749","0.0-12.0-0.15","whmxhf3yb6","one_one","1","indirect_first","0","er06el18","0","25","1","1","3","1","5015","","","","","neg","GS","GSold","2","category2/CS3.png","targets/26.png","","direct","","18"
"","image-slider-response","236","927381","0.0-12.0-0.16","whmxhf3yb6","one_one","1","indirect_first","0","er06el18","0","25","1","1","3","1","4630","","","","","pos","GS","abstract","3","category3/wang.png","targets/39.png","","direct","","-19"
"","image-slider-response","237","931269","0.0-12.0-0.17","whmxhf3yb6","one_one","1","indirect_first","0","er06el18","0","25","1","1","3","1","3887","","","","","pos","GS","GSnew","4","category4/GS2.png","targets/37.png","","direct","","28"
"","image-slider-response","238","935461","0.0-12.0-0.18","whmxhf3yb6","one_one","1","indirect_first","0","er06el18","0","25","1","1","3","1","4191","","","","","pos","CS","CS","4","category4/CS1.png","targets/28.png","","direct","","23"
"","image-slider-response","239","943197","0.0-12.0-0.19","whmxhf3yb6","one_one","1","indirect_first","0","er06el18","0","25","1","1","3","1","7733","","","","","pos","GS","GSnew","4","category4/GS1.png","targets/24.png","","direct","","-9"
"","image-slider-response","240","945836","0.0-12.0-0.20","whmxhf3yb6","one_one","1","indirect_first","0","er06el18","0","25","1","1","3","1","2639","","","","","neg","GS","GSnew","1","category1/GS3.png","targets/12.png","","direct","","46"
"","image-slider-response","241","948637","0.0-12.0-0.21","whmxhf3yb6","one_one","1","indirect_first","0","er06el18","0","25","1","1","3","1","2799","","","","","pos","GS","GSold","3","category3/CS6.png","targets/46.png","","direct","","29"
"","image-slider-response","242","952437","0.0-12.0-0.22","whmxhf3yb6","one_one","1","indirect_first","0","er06el18","0","25","1","1","3","1","3799","","","","","pos","GS","GSnew","4","category4/GS3.png","targets/16.png","","direct","","-28"
"","image-slider-response","243","961541","0.0-12.0-0.23","whmxhf3yb6","one_one","1","indirect_first","0","er06el18","0","25","1","1","3","1","9102","","","","","neg","GS","GSold","1","category1/CS10.png","targets/42.png","","direct","","2"
"","image-slider-response","244","965261","0.0-12.0-0.24","whmxhf3yb6","one_one","1","indirect_first","0","er06el18","0","25","1","1","3","1","3719","","","","","neg","GS","GSold","1","category1/CS2.png","targets/18.png","","direct","","10"
"","image-slider-response","245","968965","0.0-12.0-0.25","whmxhf3yb6","one_one","1","indirect_first","0","er06el18","0","25","1","1","3","1","3703","","","","","neg","GS","GSnew","2","category2/GS1.png","targets/9.png","","direct","","-47"
"","image-slider-response","246","975636","0.0-12.0-0.26","whmxhf3yb6","one_one","1","indirect_first","0","er06el18","0","25","1","1","3","1","6670","","","","","pos","GS","GSold","4","category4/CS10.png","targets/15.png","","direct","","66"
"","image-slider-response","247","980029","0.0-12.0-0.27","whmxhf3yb6","one_one","1","indirect_first","0","er06el18","0","25","1","1","3","1","4391","","","","","pos","GS","GSold","4","category4/CS8.png","targets/6.png","","direct","","40"
"","image-slider-response","248","983428","0.0-12.0-0.28","whmxhf3yb6","one_one","1","indirect_first","0","er06el18","0","25","1","1","3","1","3399","","","","","pos","GS","GSnew","3","category3/GS3.png","targets/34.png","","direct","","-16"
"","image-slider-response","249","987972","0.0-12.0-0.29","whmxhf3yb6","one_one","1","indirect_first","0","er06el18","0","25","1","1","3","1","4543","","","","","pos","GS","GSold","3","category3/CS5.png","targets/20.png","","direct","","11"
"","image-slider-response","250","994060","0.0-12.0-0.30","whmxhf3yb6","one_one","1","indirect_first","0","er06el18","0","25","1","1","3","1","6087","","","","","neg","GS","GSnew","2","category2/GS3.png","targets/17.png","","direct","","-18"
"","image-slider-response","251","1003444","0.0-12.0-0.31","whmxhf3yb6","one_one","1","indirect_first","0","er06el18","0","25","1","1","3","1","9383","","","","","neg","CS","CS","2","category2/CS5.png","targets/45.png","","direct","","-10"
"","survey-html-form","252","1011093","0.0-13.0","whmxhf3yb6","one_one","1","indirect_first","0","er06el18","0","25","1","1","3","1","7648","","{}","","","","","","","","","","","",""
"","image-slider-response","253","1020811","0.0-14.0-0.0","whmxhf3yb6","one_one","1","indirect_first","0","er06el18","0","25","1","1","3","1","8706","","","","","pos","All","all","3","category3/wang_all.png","","","all","","32"
"","image-slider-response","254","1027019","0.0-14.0-0.1","whmxhf3yb6","one_one","1","indirect_first","0","er06el18","0","25","1","1","3","1","6207","","","","","pos","All","all","4","category4/lin_all.png","","","all","","-6"
"","image-slider-response","255","1032155","0.0-14.0-0.2","whmxhf3yb6","one_one","1","indirect_first","0","er06el18","0","25","1","1","3","1","5133","","","","","neg","All","all","1","category1/ma_all.png","","","all","","-10"
"","image-slider-response","256","1038323","0.0-14.0-0.3","whmxhf3yb6","one_one","1","indirect_first","0","er06el18","0","25","1","1","3","1","6166","","","","","neg","All","all","2","category2/men_all.png","","","all","","14"
"","survey-text","257","1079739","0.0-15.0","whmxhf3yb6","one_one","1","indirect_first","0","er06el18","0","25","1","1","3","1","41414","","{""Q0"":""""}","","","","","","","","","","","",""
