"success","trial_type","trial_index","time_elapsed","internal_node_id","subject","condition","condition_code","measure","measure_code","codeword","gender","age","education","chinese","fach","handedness","rt","url","responses","stimulus","key_press","val","type","type_specific","category","cs_selected","target","indirect","task","nr_pres","response"
"true","fullscreen","0","4274","0.0-0.0","goa5xb993y","many_one","0","indirect_first","0","er03rl18","0","21","1","1","1","1","","","","","","","","","","","","","","",""
"","external-html","1","66874","0.0-1.0","goa5xb993y","many_one","0","indirect_first","0","er03rl18","0","21","1","1","1","1","62594","text/information.html","","","","","","","","","","","","",""
"","external-html","2","93787","0.0-2.0","goa5xb993y","many_one","0","indirect_first","0","er03rl18","0","21","1","1","1","1","26902","text/consent.html","","","","","","","","","","","","",""
"","survey-html-form","3","162257","0.0-3.0","goa5xb993y","many_one","0","indirect_first","0","er03rl18","0","21","1","1","1","1","68469","","{""codeword_enter"":""er03rl18""}","","","","","","","","","","","",""
"","survey-html-form","4","175291","0.0-4.0","goa5xb993y","many_one","0","indirect_first","0","er03rl18","0","21","1","1","1","1","13033","","{""age"":""21"",""education"":""1"",""subject"":""1"",""gender"":""0"",""handedness"":""1"",""chinese"":""1""}","","","","","","","","","","","",""
"","survey-html-form","5","187587","0.0-5.0","goa5xb993y","many_one","0","indirect_first","0","er03rl18","0","21","1","1","1","1","12293","","{}","","","","","","","","","","","",""
"","html-keyboard-response","6","191603","0.0-6.0-0.0-0.0","goa5xb993y","many_one","0","indirect_first","0","er03rl18","0","21","1","1","1","1","null","","","<div class = 'row'><div class = 'column'><img src = 'category3/CS7.png' width = '70%;'></div><div class = 'column'><img src = 'usneg/9435.bmp' width = '100%;'></div></div>","null","neg","CS","CS","3","category3/CS7.png","","","","",""
"","html-keyboard-response","7","194122","0.0-6.0-0.0-0.1","goa5xb993y","many_one","0","indirect_first","0","er03rl18","0","21","1","1","1","1","null","","","<div class = 'row'><div class = 'column'><img src = 'category2/CS4.png' width = '70%;'></div><div class = 'column'><img src = 'uspos/2311.bmp' width = '100%;'></div></div>","null","pos","CS","CS","2","category2/CS4.png","","","","",""
"","html-keyboard-response","8","196663","0.0-6.0-0.0-0.2","goa5xb993y","many_one","0","indirect_first","0","er03rl18","0","21","1","1","1","1","null","","","<div class = 'row'><div class = 'column'><img src = 'category1/CS5.png' width = '70%;'></div><div class = 'column'><img src = 'usneg/9181.bmp' width = '100%;'></div></div>","null","neg","CS","CS","1","category1/CS5.png","","","","",""
"","html-keyboard-response","9","199182","0.0-6.0-0.0-0.3","goa5xb993y","many_one","0","indirect_first","0","er03rl18","0","21","1","1","1","1","null","","","<div class = 'row'><div class = 'column'><img src = 'usneg/9404.bmp' width = '100%;'></div><div class = 'column'><img src = 'category1/CS2.png' width = '70%;'></div></div>","null","neg","CS","CS","1","category1/CS2.png","","","","",""
"","html-keyboard-response","10","201722","0.0-6.0-0.0-0.4","goa5xb993y","many_one","0","indirect_first","0","er03rl18","0","21","1","1","1","1","null","","","<div class = 'row'><div class = 'column'><img src = 'category2/CS5.png' width = '70%;'></div><div class = 'column'><img src = 'uspos/4599.bmp' width = '100%;'></div></div>","null","pos","CS","CS","2","category2/CS5.png","","","","",""
"","html-keyboard-response","11","204257","0.0-6.0-0.0-0.5","goa5xb993y","many_one","0","indirect_first","0","er03rl18","0","21","1","1","1","1","null","","","<div class = 'row'><div class = 'column'><img src = 'category4/CS10.png' width = '70%;'></div><div class = 'column'><img src = 'uspos/2030.bmp' width = '100%;'></div></div>","null","pos","CS","CS","4","category4/CS10.png","","","","",""
"","html-keyboard-response","12","206762","0.0-6.0-0.0-0.6","goa5xb993y","many_one","0","indirect_first","0","er03rl18","0","21","1","1","1","1","null","","","<div class = 'row'><div class = 'column'><img src = 'category3/CS9.png' width = '70%;'></div><div class = 'column'><img src = 'usneg/9041.bmp' width = '100%;'></div></div>","null","neg","CS","CS","3","category3/CS9.png","","","","",""
"","html-keyboard-response","13","209302","0.0-6.0-0.0-0.7","goa5xb993y","many_one","0","indirect_first","0","er03rl18","0","21","1","1","1","1","null","","","<div class = 'row'><div class = 'column'><img src = 'category1/CS4.png' width = '70%;'></div><div class = 'column'><img src = 'usneg/7380.bmp' width = '100%;'></div></div>","null","neg","CS","CS","1","category1/CS4.png","","","","",""
"","html-keyboard-response","14","211832","0.0-6.0-0.0-0.8","goa5xb993y","many_one","0","indirect_first","0","er03rl18","0","21","1","1","1","1","null","","","<div class = 'row'><div class = 'column'><img src = 'category1/CS6.png' width = '70%;'></div><div class = 'column'><img src = 'usneg/2141.bmp' width = '100%;'></div></div>","null","neg","CS","CS","1","category1/CS6.png","","","","",""
"","html-keyboard-response","15","214372","0.0-6.0-0.0-0.9","goa5xb993y","many_one","0","indirect_first","0","er03rl18","0","21","1","1","1","1","null","","","<div class = 'row'><div class = 'column'><img src = 'category2/CS6.png' width = '70%;'></div><div class = 'column'><img src = 'uspos/4625.bmp' width = '100%;'></div></div>","null","pos","CS","CS","2","category2/CS6.png","","","","",""
"","html-keyboard-response","16","216891","0.0-6.0-0.0-0.10","goa5xb993y","many_one","0","indirect_first","0","er03rl18","0","21","1","1","1","1","null","","","<div class = 'row'><div class = 'column'><img src = 'category4/CS5.png' width = '70%;'></div><div class = 'column'><img src = 'uspos/5470.bmp' width = '100%;'></div></div>","null","pos","CS","CS","4","category4/CS5.png","","","","",""
"","html-keyboard-response","17","219431","0.0-6.0-0.0-0.11","goa5xb993y","many_one","0","indirect_first","0","er03rl18","0","21","1","1","1","1","null","","","<div class = 'row'><div class = 'column'><img src = 'uspos/2208.bmp' width = '100%;'></div><div class = 'column'><img src = 'category4/CS6.png' width = '70%;'></div></div>","null","pos","CS","CS","4","category4/CS6.png","","","","",""
"","html-keyboard-response","18","221971","0.0-6.0-0.0-0.12","goa5xb993y","many_one","0","indirect_first","0","er03rl18","0","21","1","1","1","1","null","","","<div class = 'row'><div class = 'column'><img src = 'usneg/9050.bmp' width = '100%;'></div><div class = 'column'><img src = 'category1/CS8.png' width = '70%;'></div></div>","null","neg","CS","CS","1","category1/CS8.png","","","","",""
"","html-keyboard-response","19","224512","0.0-6.0-0.0-0.13","goa5xb993y","many_one","0","indirect_first","0","er03rl18","0","21","1","1","1","1","null","","","<div class = 'row'><div class = 'column'><img src = 'category2/CS3.png' width = '70%;'></div><div class = 'column'><img src = 'uspos/2150.bmp' width = '100%;'></div></div>","null","pos","CS","CS","2","category2/CS3.png","","","","",""
"","html-keyboard-response","20","227032","0.0-6.0-0.0-0.14","goa5xb993y","many_one","0","indirect_first","0","er03rl18","0","21","1","1","1","1","null","","","<div class = 'row'><div class = 'column'><img src = 'usneg/9415.bmp' width = '100%;'></div><div class = 'column'><img src = 'category3/CS6.png' width = '70%;'></div></div>","null","neg","CS","CS","3","category3/CS6.png","","","","",""
"","html-keyboard-response","21","229571","0.0-6.0-0.0-0.15","goa5xb993y","many_one","0","indirect_first","0","er03rl18","0","21","1","1","1","1","null","","","<div class = 'row'><div class = 'column'><img src = 'uspos/2550.bmp' width = '100%;'></div><div class = 'column'><img src = 'category4/CS2.png' width = '70%;'></div></div>","null","pos","CS","CS","4","category4/CS2.png","","","","",""
"","html-keyboard-response","22","232102","0.0-6.0-0.0-0.16","goa5xb993y","many_one","0","indirect_first","0","er03rl18","0","21","1","1","1","1","null","","","<div class = 'row'><div class = 'column'><img src = 'category3/CS8.png' width = '70%;'></div><div class = 'column'><img src = 'usneg/9920.bmp' width = '100%;'></div></div>","null","neg","CS","CS","3","category3/CS8.png","","","","",""
"","html-keyboard-response","23","234632","0.0-6.0-0.0-0.17","goa5xb993y","many_one","0","indirect_first","0","er03rl18","0","21","1","1","1","1","null","","","<div class = 'row'><div class = 'column'><img src = 'category4/CS8.png' width = '70%;'></div><div class = 'column'><img src = 'uspos/2900.2.bmp' width = '100%;'></div></div>","null","pos","CS","CS","4","category4/CS8.png","","","","",""
"","html-keyboard-response","24","237172","0.0-6.0-0.0-0.18","goa5xb993y","many_one","0","indirect_first","0","er03rl18","0","21","1","1","1","1","null","","","<div class = 'row'><div class = 'column'><img src = 'usneg/9182.bmp' width = '100%;'></div><div class = 'column'><img src = 'category3/CS10.png' width = '70%;'></div></div>","null","neg","CS","CS","3","category3/CS10.png","","","","",""
"","html-keyboard-response","25","239712","0.0-6.0-0.0-0.19","goa5xb993y","many_one","0","indirect_first","0","er03rl18","0","21","1","1","1","1","null","","","<div class = 'row'><div class = 'column'><img src = 'category2/CS7.png' width = '70%;'></div><div class = 'column'><img src = 'uspos/2340.bmp' width = '100%;'></div></div>","null","pos","CS","CS","2","category2/CS7.png","","","","",""
"","survey-html-form","26","242738","0.0-6.0-1.0","goa5xb993y","many_one","0","indirect_first","0","er03rl18","0","21","1","1","1","1","2508","","{}","","","","","","","","","","","",""
"","html-keyboard-response","27","246771","0.0-6.0-2.0-0.0","goa5xb993y","many_one","0","indirect_first","0","er03rl18","0","21","1","1","1","1","null","","","<div class = 'row'><div class = 'column'><img src = 'category4/CS8.png' width = '70%;'></div><div class = 'column'><img src = 'uspos/2900.2.bmp' width = '100%;'></div></div>","null","pos","CS","CS","4","category4/CS8.png","","","","",""
"","html-keyboard-response","28","249311","0.0-6.0-2.0-0.1","goa5xb993y","many_one","0","indirect_first","0","er03rl18","0","21","1","1","1","1","null","","","<div class = 'row'><div class = 'column'><img src = 'uspos/2150.bmp' width = '100%;'></div><div class = 'column'><img src = 'category2/CS3.png' width = '70%;'></div></div>","null","pos","CS","CS","2","category2/CS3.png","","","","",""
"","html-keyboard-response","29","251851","0.0-6.0-2.0-0.2","goa5xb993y","many_one","0","indirect_first","0","er03rl18","0","21","1","1","1","1","null","","","<div class = 'row'><div class = 'column'><img src = 'uspos/2550.bmp' width = '100%;'></div><div class = 'column'><img src = 'category4/CS2.png' width = '70%;'></div></div>","null","pos","CS","CS","4","category4/CS2.png","","","","",""
"","html-keyboard-response","30","254391","0.0-6.0-2.0-0.3","goa5xb993y","many_one","0","indirect_first","0","er03rl18","0","21","1","1","1","1","null","","","<div class = 'row'><div class = 'column'><img src = 'usneg/9181.bmp' width = '100%;'></div><div class = 'column'><img src = 'category1/CS5.png' width = '70%;'></div></div>","null","neg","CS","CS","1","category1/CS5.png","","","","",""
"","html-keyboard-response","31","256931","0.0-6.0-2.0-0.4","goa5xb993y","many_one","0","indirect_first","0","er03rl18","0","21","1","1","1","1","null","","","<div class = 'row'><div class = 'column'><img src = 'category4/CS10.png' width = '70%;'></div><div class = 'column'><img src = 'uspos/2030.bmp' width = '100%;'></div></div>","null","pos","CS","CS","4","category4/CS10.png","","","","",""
"","html-keyboard-response","32","259471","0.0-6.0-2.0-0.5","goa5xb993y","many_one","0","indirect_first","0","er03rl18","0","21","1","1","1","1","null","","","<div class = 'row'><div class = 'column'><img src = 'category3/CS6.png' width = '70%;'></div><div class = 'column'><img src = 'usneg/9415.bmp' width = '100%;'></div></div>","null","neg","CS","CS","3","category3/CS6.png","","","","",""
"","html-keyboard-response","33","262001","0.0-6.0-2.0-0.6","goa5xb993y","many_one","0","indirect_first","0","er03rl18","0","21","1","1","1","1","null","","","<div class = 'row'><div class = 'column'><img src = 'usneg/9041.bmp' width = '100%;'></div><div class = 'column'><img src = 'category3/CS9.png' width = '70%;'></div></div>","null","neg","CS","CS","3","category3/CS9.png","","","","",""
"","html-keyboard-response","34","264531","0.0-6.0-2.0-0.7","goa5xb993y","many_one","0","indirect_first","0","er03rl18","0","21","1","1","1","1","null","","","<div class = 'row'><div class = 'column'><img src = 'usneg/9050.bmp' width = '100%;'></div><div class = 'column'><img src = 'category1/CS8.png' width = '70%;'></div></div>","null","neg","CS","CS","1","category1/CS8.png","","","","",""
"","html-keyboard-response","35","267071","0.0-6.0-2.0-0.8","goa5xb993y","many_one","0","indirect_first","0","er03rl18","0","21","1","1","1","1","null","","","<div class = 'row'><div class = 'column'><img src = 'uspos/4625.bmp' width = '100%;'></div><div class = 'column'><img src = 'category2/CS6.png' width = '70%;'></div></div>","null","pos","CS","CS","2","category2/CS6.png","","","","",""
"","html-keyboard-response","36","269611","0.0-6.0-2.0-0.9","goa5xb993y","many_one","0","indirect_first","0","er03rl18","0","21","1","1","1","1","null","","","<div class = 'row'><div class = 'column'><img src = 'category3/CS7.png' width = '70%;'></div><div class = 'column'><img src = 'usneg/9435.bmp' width = '100%;'></div></div>","null","neg","CS","CS","3","category3/CS7.png","","","","",""
"","html-keyboard-response","37","272141","0.0-6.0-2.0-0.10","goa5xb993y","many_one","0","indirect_first","0","er03rl18","0","21","1","1","1","1","null","","","<div class = 'row'><div class = 'column'><img src = 'uspos/5470.bmp' width = '100%;'></div><div class = 'column'><img src = 'category4/CS5.png' width = '70%;'></div></div>","null","pos","CS","CS","4","category4/CS5.png","","","","",""
"","html-keyboard-response","38","274679","0.0-6.0-2.0-0.11","goa5xb993y","many_one","0","indirect_first","0","er03rl18","0","21","1","1","1","1","null","","","<div class = 'row'><div class = 'column'><img src = 'category2/CS7.png' width = '70%;'></div><div class = 'column'><img src = 'uspos/2340.bmp' width = '100%;'></div></div>","null","pos","CS","CS","2","category2/CS7.png","","","","",""
"","html-keyboard-response","39","277181","0.0-6.0-2.0-0.12","goa5xb993y","many_one","0","indirect_first","0","er03rl18","0","21","1","1","1","1","null","","","<div class = 'row'><div class = 'column'><img src = 'usneg/7380.bmp' width = '100%;'></div><div class = 'column'><img src = 'category1/CS4.png' width = '70%;'></div></div>","null","neg","CS","CS","1","category1/CS4.png","","","","",""
"","html-keyboard-response","40","279721","0.0-6.0-2.0-0.13","goa5xb993y","many_one","0","indirect_first","0","er03rl18","0","21","1","1","1","1","null","","","<div class = 'row'><div class = 'column'><img src = 'uspos/4599.bmp' width = '100%;'></div><div class = 'column'><img src = 'category2/CS5.png' width = '70%;'></div></div>","null","pos","CS","CS","2","category2/CS5.png","","","","",""
"","html-keyboard-response","41","282261","0.0-6.0-2.0-0.14","goa5xb993y","many_one","0","indirect_first","0","er03rl18","0","21","1","1","1","1","null","","","<div class = 'row'><div class = 'column'><img src = 'usneg/2141.bmp' width = '100%;'></div><div class = 'column'><img src = 'category1/CS6.png' width = '70%;'></div></div>","null","neg","CS","CS","1","category1/CS6.png","","","","",""
"","html-keyboard-response","42","284801","0.0-6.0-2.0-0.15","goa5xb993y","many_one","0","indirect_first","0","er03rl18","0","21","1","1","1","1","null","","","<div class = 'row'><div class = 'column'><img src = 'category4/CS6.png' width = '70%;'></div><div class = 'column'><img src = 'uspos/2208.bmp' width = '100%;'></div></div>","null","pos","CS","CS","4","category4/CS6.png","","","","",""
"","html-keyboard-response","43","287319","0.0-6.0-2.0-0.16","goa5xb993y","many_one","0","indirect_first","0","er03rl18","0","21","1","1","1","1","null","","","<div class = 'row'><div class = 'column'><img src = 'usneg/9182.bmp' width = '100%;'></div><div class = 'column'><img src = 'category3/CS10.png' width = '70%;'></div></div>","null","neg","CS","CS","3","category3/CS10.png","","","","",""
"","html-keyboard-response","44","289841","0.0-6.0-2.0-0.17","goa5xb993y","many_one","0","indirect_first","0","er03rl18","0","21","1","1","1","1","null","","","<div class = 'row'><div class = 'column'><img src = 'usneg/9404.bmp' width = '100%;'></div><div class = 'column'><img src = 'category1/CS2.png' width = '70%;'></div></div>","null","neg","CS","CS","1","category1/CS2.png","","","","",""
"","html-keyboard-response","45","292361","0.0-6.0-2.0-0.18","goa5xb993y","many_one","0","indirect_first","0","er03rl18","0","21","1","1","1","1","null","","","<div class = 'row'><div class = 'column'><img src = 'category2/CS4.png' width = '70%;'></div><div class = 'column'><img src = 'uspos/2311.bmp' width = '100%;'></div></div>","null","pos","CS","CS","2","category2/CS4.png","","","","",""
"","html-keyboard-response","46","294891","0.0-6.0-2.0-0.19","goa5xb993y","many_one","0","indirect_first","0","er03rl18","0","21","1","1","1","1","null","","","<div class = 'row'><div class = 'column'><img src = 'category3/CS8.png' width = '70%;'></div><div class = 'column'><img src = 'usneg/9920.bmp' width = '100%;'></div></div>","null","neg","CS","CS","3","category3/CS8.png","","","","",""
"","survey-html-form","47","297523","0.0-6.0-3.0","goa5xb993y","many_one","0","indirect_first","0","er03rl18","0","21","1","1","1","1","2110","","{}","","","","","","","","","","","",""
"","html-keyboard-response","48","301551","0.0-6.0-4.0-0.0","goa5xb993y","many_one","0","indirect_first","0","er03rl18","0","21","1","1","1","1","null","","","<div class = 'row'><div class = 'column'><img src = 'usneg/9041.bmp' width = '100%;'></div><div class = 'column'><img src = 'category3/CS9.png' width = '70%;'></div></div>","null","neg","CS","CS","3","category3/CS9.png","","","","",""
"","html-keyboard-response","49","304071","0.0-6.0-4.0-0.1","goa5xb993y","many_one","0","indirect_first","0","er03rl18","0","21","1","1","1","1","null","","","<div class = 'row'><div class = 'column'><img src = 'category3/CS10.png' width = '70%;'></div><div class = 'column'><img src = 'usneg/9182.bmp' width = '100%;'></div></div>","null","neg","CS","CS","3","category3/CS10.png","","","","",""
"","html-keyboard-response","50","306611","0.0-6.0-4.0-0.2","goa5xb993y","many_one","0","indirect_first","0","er03rl18","0","21","1","1","1","1","null","","","<div class = 'row'><div class = 'column'><img src = 'uspos/4625.bmp' width = '100%;'></div><div class = 'column'><img src = 'category2/CS6.png' width = '70%;'></div></div>","null","pos","CS","CS","2","category2/CS6.png","","","","",""
"","html-keyboard-response","51","309151","0.0-6.0-4.0-0.3","goa5xb993y","many_one","0","indirect_first","0","er03rl18","0","21","1","1","1","1","null","","","<div class = 'row'><div class = 'column'><img src = 'uspos/4599.bmp' width = '100%;'></div><div class = 'column'><img src = 'category2/CS5.png' width = '70%;'></div></div>","null","pos","CS","CS","2","category2/CS5.png","","","","",""
"","html-keyboard-response","52","311689","0.0-6.0-4.0-0.4","goa5xb993y","many_one","0","indirect_first","0","er03rl18","0","21","1","1","1","1","null","","","<div class = 'row'><div class = 'column'><img src = 'uspos/2900.2.bmp' width = '100%;'></div><div class = 'column'><img src = 'category4/CS8.png' width = '70%;'></div></div>","null","pos","CS","CS","4","category4/CS8.png","","","","",""
"","html-keyboard-response","53","314191","0.0-6.0-4.0-0.5","goa5xb993y","many_one","0","indirect_first","0","er03rl18","0","21","1","1","1","1","null","","","<div class = 'row'><div class = 'column'><img src = 'usneg/9050.bmp' width = '100%;'></div><div class = 'column'><img src = 'category1/CS8.png' width = '70%;'></div></div>","null","neg","CS","CS","1","category1/CS8.png","","","","",""
"","html-keyboard-response","54","316731","0.0-6.0-4.0-0.6","goa5xb993y","many_one","0","indirect_first","0","er03rl18","0","21","1","1","1","1","null","","","<div class = 'row'><div class = 'column'><img src = 'category2/CS3.png' width = '70%;'></div><div class = 'column'><img src = 'uspos/2150.bmp' width = '100%;'></div></div>","null","pos","CS","CS","2","category2/CS3.png","","","","",""
"","html-keyboard-response","55","319271","0.0-6.0-4.0-0.7","goa5xb993y","many_one","0","indirect_first","0","er03rl18","0","21","1","1","1","1","null","","","<div class = 'row'><div class = 'column'><img src = 'usneg/9404.bmp' width = '100%;'></div><div class = 'column'><img src = 'category1/CS2.png' width = '70%;'></div></div>","null","neg","CS","CS","1","category1/CS2.png","","","","",""
"","html-keyboard-response","56","321806","0.0-6.0-4.0-0.8","goa5xb993y","many_one","0","indirect_first","0","er03rl18","0","21","1","1","1","1","null","","","<div class = 'row'><div class = 'column'><img src = 'category3/CS7.png' width = '70%;'></div><div class = 'column'><img src = 'usneg/9435.bmp' width = '100%;'></div></div>","null","neg","CS","CS","3","category3/CS7.png","","","","",""
"","html-keyboard-response","57","324311","0.0-6.0-4.0-0.9","goa5xb993y","many_one","0","indirect_first","0","er03rl18","0","21","1","1","1","1","null","","","<div class = 'row'><div class = 'column'><img src = 'category4/CS10.png' width = '70%;'></div><div class = 'column'><img src = 'uspos/2030.bmp' width = '100%;'></div></div>","null","pos","CS","CS","4","category4/CS10.png","","","","",""
"","html-keyboard-response","58","326851","0.0-6.0-4.0-0.10","goa5xb993y","many_one","0","indirect_first","0","er03rl18","0","21","1","1","1","1","null","","","<div class = 'row'><div class = 'column'><img src = 'category4/CS2.png' width = '70%;'></div><div class = 'column'><img src = 'uspos/2550.bmp' width = '100%;'></div></div>","null","pos","CS","CS","4","category4/CS2.png","","","","",""
"","html-keyboard-response","59","329391","0.0-6.0-4.0-0.11","goa5xb993y","many_one","0","indirect_first","0","er03rl18","0","21","1","1","1","1","null","","","<div class = 'row'><div class = 'column'><img src = 'category4/CS6.png' width = '70%;'></div><div class = 'column'><img src = 'uspos/2208.bmp' width = '100%;'></div></div>","null","pos","CS","CS","4","category4/CS6.png","","","","",""
"","html-keyboard-response","60","331911","0.0-6.0-4.0-0.12","goa5xb993y","many_one","0","indirect_first","0","er03rl18","0","21","1","1","1","1","null","","","<div class = 'row'><div class = 'column'><img src = 'usneg/7380.bmp' width = '100%;'></div><div class = 'column'><img src = 'category1/CS4.png' width = '70%;'></div></div>","null","neg","CS","CS","1","category1/CS4.png","","","","",""
"","html-keyboard-response","61","334431","0.0-6.0-4.0-0.13","goa5xb993y","many_one","0","indirect_first","0","er03rl18","0","21","1","1","1","1","null","","","<div class = 'row'><div class = 'column'><img src = 'category1/CS5.png' width = '70%;'></div><div class = 'column'><img src = 'usneg/9181.bmp' width = '100%;'></div></div>","null","neg","CS","CS","1","category1/CS5.png","","","","",""
"","html-keyboard-response","62","336970","0.0-6.0-4.0-0.14","goa5xb993y","many_one","0","indirect_first","0","er03rl18","0","21","1","1","1","1","null","","","<div class = 'row'><div class = 'column'><img src = 'uspos/2311.bmp' width = '100%;'></div><div class = 'column'><img src = 'category2/CS4.png' width = '70%;'></div></div>","null","pos","CS","CS","2","category2/CS4.png","","","","",""
"","html-keyboard-response","63","339511","0.0-6.0-4.0-0.15","goa5xb993y","many_one","0","indirect_first","0","er03rl18","0","21","1","1","1","1","null","","","<div class = 'row'><div class = 'column'><img src = 'category1/CS6.png' width = '70%;'></div><div class = 'column'><img src = 'usneg/2141.bmp' width = '100%;'></div></div>","null","neg","CS","CS","1","category1/CS6.png","","","","",""
"","html-keyboard-response","64","342052","0.0-6.0-4.0-0.16","goa5xb993y","many_one","0","indirect_first","0","er03rl18","0","21","1","1","1","1","null","","","<div class = 'row'><div class = 'column'><img src = 'category4/CS5.png' width = '70%;'></div><div class = 'column'><img src = 'uspos/5470.bmp' width = '100%;'></div></div>","null","pos","CS","CS","4","category4/CS5.png","","","","",""
"","html-keyboard-response","65","344591","0.0-6.0-4.0-0.17","goa5xb993y","many_one","0","indirect_first","0","er03rl18","0","21","1","1","1","1","null","","","<div class = 'row'><div class = 'column'><img src = 'uspos/2340.bmp' width = '100%;'></div><div class = 'column'><img src = 'category2/CS7.png' width = '70%;'></div></div>","null","pos","CS","CS","2","category2/CS7.png","","","","",""
"","html-keyboard-response","66","347112","0.0-6.0-4.0-0.18","goa5xb993y","many_one","0","indirect_first","0","er03rl18","0","21","1","1","1","1","null","","","<div class = 'row'><div class = 'column'><img src = 'usneg/9415.bmp' width = '100%;'></div><div class = 'column'><img src = 'category3/CS6.png' width = '70%;'></div></div>","null","neg","CS","CS","3","category3/CS6.png","","","","",""
"","html-keyboard-response","67","349631","0.0-6.0-4.0-0.19","goa5xb993y","many_one","0","indirect_first","0","er03rl18","0","21","1","1","1","1","null","","","<div class = 'row'><div class = 'column'><img src = 'category3/CS8.png' width = '70%;'></div><div class = 'column'><img src = 'usneg/9920.bmp' width = '100%;'></div></div>","null","neg","CS","CS","3","category3/CS8.png","","","","",""
"","survey-html-form","68","352650","0.0-6.0-5.0","goa5xb993y","many_one","0","indirect_first","0","er03rl18","0","21","1","1","1","1","2499","","{}","","","","","","","","","","","",""
"","html-keyboard-response","69","356671","0.0-6.0-6.0-0.0","goa5xb993y","many_one","0","indirect_first","0","er03rl18","0","21","1","1","1","1","null","","","<div class = 'row'><div class = 'column'><img src = 'uspos/2550.bmp' width = '100%;'></div><div class = 'column'><img src = 'category4/CS2.png' width = '70%;'></div></div>","null","pos","CS","CS","4","category4/CS2.png","","","","",""
"","html-keyboard-response","70","359211","0.0-6.0-6.0-0.1","goa5xb993y","many_one","0","indirect_first","0","er03rl18","0","21","1","1","1","1","null","","","<div class = 'row'><div class = 'column'><img src = 'usneg/2141.bmp' width = '100%;'></div><div class = 'column'><img src = 'category1/CS6.png' width = '70%;'></div></div>","null","neg","CS","CS","1","category1/CS6.png","","","","",""
"","html-keyboard-response","71","361741","0.0-6.0-6.0-0.2","goa5xb993y","many_one","0","indirect_first","0","er03rl18","0","21","1","1","1","1","null","","","<div class = 'row'><div class = 'column'><img src = 'usneg/9181.bmp' width = '100%;'></div><div class = 'column'><img src = 'category1/CS5.png' width = '70%;'></div></div>","null","neg","CS","CS","1","category1/CS5.png","","","","",""
"","html-keyboard-response","72","364261","0.0-6.0-6.0-0.3","goa5xb993y","many_one","0","indirect_first","0","er03rl18","0","21","1","1","1","1","null","","","<div class = 'row'><div class = 'column'><img src = 'uspos/5470.bmp' width = '100%;'></div><div class = 'column'><img src = 'category4/CS5.png' width = '70%;'></div></div>","null","pos","CS","CS","4","category4/CS5.png","","","","",""
"","html-keyboard-response","73","366790","0.0-6.0-6.0-0.4","goa5xb993y","many_one","0","indirect_first","0","er03rl18","0","21","1","1","1","1","null","","","<div class = 'row'><div class = 'column'><img src = 'uspos/2900.2.bmp' width = '100%;'></div><div class = 'column'><img src = 'category4/CS8.png' width = '70%;'></div></div>","null","pos","CS","CS","4","category4/CS8.png","","","","",""
"","html-keyboard-response","74","369321","0.0-6.0-6.0-0.5","goa5xb993y","many_one","0","indirect_first","0","er03rl18","0","21","1","1","1","1","null","","","<div class = 'row'><div class = 'column'><img src = 'usneg/9041.bmp' width = '100%;'></div><div class = 'column'><img src = 'category3/CS9.png' width = '70%;'></div></div>","null","neg","CS","CS","3","category3/CS9.png","","","","",""
"","html-keyboard-response","75","371861","0.0-6.0-6.0-0.6","goa5xb993y","many_one","0","indirect_first","0","er03rl18","0","21","1","1","1","1","null","","","<div class = 'row'><div class = 'column'><img src = 'category2/CS7.png' width = '70%;'></div><div class = 'column'><img src = 'uspos/2340.bmp' width = '100%;'></div></div>","null","pos","CS","CS","2","category2/CS7.png","","","","",""
"","html-keyboard-response","76","374390","0.0-6.0-6.0-0.7","goa5xb993y","many_one","0","indirect_first","0","er03rl18","0","21","1","1","1","1","null","","","<div class = 'row'><div class = 'column'><img src = 'usneg/9920.bmp' width = '100%;'></div><div class = 'column'><img src = 'category3/CS8.png' width = '70%;'></div></div>","null","neg","CS","CS","3","category3/CS8.png","","","","",""
"","html-keyboard-response","77","376921","0.0-6.0-6.0-0.8","goa5xb993y","many_one","0","indirect_first","0","er03rl18","0","21","1","1","1","1","null","","","<div class = 'row'><div class = 'column'><img src = 'category1/CS4.png' width = '70%;'></div><div class = 'column'><img src = 'usneg/7380.bmp' width = '100%;'></div></div>","null","neg","CS","CS","1","category1/CS4.png","","","","",""
"","html-keyboard-response","78","379431","0.0-6.0-6.0-0.9","goa5xb993y","many_one","0","indirect_first","0","er03rl18","0","21","1","1","1","1","null","","","<div class = 'row'><div class = 'column'><img src = 'uspos/2150.bmp' width = '100%;'></div><div class = 'column'><img src = 'category2/CS3.png' width = '70%;'></div></div>","null","pos","CS","CS","2","category2/CS3.png","","","","",""
"","html-keyboard-response","79","381971","0.0-6.0-6.0-0.10","goa5xb993y","many_one","0","indirect_first","0","er03rl18","0","21","1","1","1","1","null","","","<div class = 'row'><div class = 'column'><img src = 'uspos/2208.bmp' width = '100%;'></div><div class = 'column'><img src = 'category4/CS6.png' width = '70%;'></div></div>","null","pos","CS","CS","4","category4/CS6.png","","","","",""
"","html-keyboard-response","80","384511","0.0-6.0-6.0-0.11","goa5xb993y","many_one","0","indirect_first","0","er03rl18","0","21","1","1","1","1","null","","","<div class = 'row'><div class = 'column'><img src = 'usneg/9404.bmp' width = '100%;'></div><div class = 'column'><img src = 'category1/CS2.png' width = '70%;'></div></div>","null","neg","CS","CS","1","category1/CS2.png","","","","",""
"","html-keyboard-response","81","387051","0.0-6.0-6.0-0.12","goa5xb993y","many_one","0","indirect_first","0","er03rl18","0","21","1","1","1","1","null","","","<div class = 'row'><div class = 'column'><img src = 'usneg/9435.bmp' width = '100%;'></div><div class = 'column'><img src = 'category3/CS7.png' width = '70%;'></div></div>","null","neg","CS","CS","3","category3/CS7.png","","","","",""
"","html-keyboard-response","82","389591","0.0-6.0-6.0-0.13","goa5xb993y","many_one","0","indirect_first","0","er03rl18","0","21","1","1","1","1","null","","","<div class = 'row'><div class = 'column'><img src = 'uspos/2030.bmp' width = '100%;'></div><div class = 'column'><img src = 'category4/CS10.png' width = '70%;'></div></div>","null","pos","CS","CS","4","category4/CS10.png","","","","",""
"","html-keyboard-response","83","392131","0.0-6.0-6.0-0.14","goa5xb993y","many_one","0","indirect_first","0","er03rl18","0","21","1","1","1","1","null","","","<div class = 'row'><div class = 'column'><img src = 'category3/CS10.png' width = '70%;'></div><div class = 'column'><img src = 'usneg/9182.bmp' width = '100%;'></div></div>","null","neg","CS","CS","3","category3/CS10.png","","","","",""
"","html-keyboard-response","84","394670","0.0-6.0-6.0-0.15","goa5xb993y","many_one","0","indirect_first","0","er03rl18","0","21","1","1","1","1","null","","","<div class = 'row'><div class = 'column'><img src = 'category2/CS4.png' width = '70%;'></div><div class = 'column'><img src = 'uspos/2311.bmp' width = '100%;'></div></div>","null","pos","CS","CS","2","category2/CS4.png","","","","",""
"","html-keyboard-response","85","397191","0.0-6.0-6.0-0.16","goa5xb993y","many_one","0","indirect_first","0","er03rl18","0","21","1","1","1","1","null","","","<div class = 'row'><div class = 'column'><img src = 'usneg/9050.bmp' width = '100%;'></div><div class = 'column'><img src = 'category1/CS8.png' width = '70%;'></div></div>","null","neg","CS","CS","1","category1/CS8.png","","","","",""
"","html-keyboard-response","86","399721","0.0-6.0-6.0-0.17","goa5xb993y","many_one","0","indirect_first","0","er03rl18","0","21","1","1","1","1","null","","","<div class = 'row'><div class = 'column'><img src = 'uspos/4625.bmp' width = '100%;'></div><div class = 'column'><img src = 'category2/CS6.png' width = '70%;'></div></div>","null","pos","CS","CS","2","category2/CS6.png","","","","",""
"","html-keyboard-response","87","402251","0.0-6.0-6.0-0.18","goa5xb993y","many_one","0","indirect_first","0","er03rl18","0","21","1","1","1","1","null","","","<div class = 'row'><div class = 'column'><img src = 'uspos/4599.bmp' width = '100%;'></div><div class = 'column'><img src = 'category2/CS5.png' width = '70%;'></div></div>","null","pos","CS","CS","2","category2/CS5.png","","","","",""
"","html-keyboard-response","88","404780","0.0-6.0-6.0-0.19","goa5xb993y","many_one","0","indirect_first","0","er03rl18","0","21","1","1","1","1","null","","","<div class = 'row'><div class = 'column'><img src = 'usneg/9415.bmp' width = '100%;'></div><div class = 'column'><img src = 'category3/CS6.png' width = '70%;'></div></div>","null","neg","CS","CS","3","category3/CS6.png","","","","",""
"","html-keyboard-response","89","442787","0.0-7.0","goa5xb993y","many_one","0","indirect_first","0","er03rl18","0","21","1","1","1","1","37486","","","<p>Sie sehen nun die chinesischen Zeichen nur ganz kurz. Danach sehen Sie die jeweilige Aussprache der Zeichen als Silbe auf dem Bildschrim. Ihre Aufgabe ist es, für jede Silbe anzugeben, ob diese etwas angenehmes, oder unangenehmes bedeuten könnte. Verlassen Sie sich hier vor allem auf Ihre Intuition.<br><br>Die Zeichen werden nur zur Orientierung dargestellt, beachten Sie sie deshalb nicht. Konzentrieren Sie sich vor allem auf die Silben. <br>Reagieren Sie mit folgenden zwei Tasten: <br><br><b>'D' </b> wenn die Silbe etwas <b>unangenehmes</b> bedeuten könnte. <br><b>'K'</b> wenn die Silbe etwas <b>angenehmes</b> bedeuten könnte. <br><br>Bitte legen Sie nun den Zeigefinger der linken Hand auf die Taste 'D' und den Zeigefinger der rechten Hand auf die Taste 'K'. <br>Reagieren Sie auf jede Silbe so schnell wie möglich. Uns interessiert Ihre spontane Reaktion. <br> <br> <br>Drücken Sie 'D' oder 'K', um die nächste Aufgabe zu starten. </p>","75","","","","","","","","","",""
"","html-keyboard-response","90","445800","0.0-8.0-0.0","goa5xb993y","many_one","0","indirect_first","0","er03rl18","0","21","1","1","1","1","null","","","<div style=""font-size:60px;"">+</div>","null","","","","","","","","","",""
"","html-keyboard-response","91","445901","0.0-8.0-1.0","goa5xb993y","many_one","0","indirect_first","0","er03rl18","0","21","1","1","1","1","null","","","<img src = 'category2/CS3.png' width = '100%;'>","null","","","","","","","","","",""
"","html-keyboard-response","92","446181","0.0-8.0-2.0","goa5xb993y","many_one","0","indirect_first","0","er03rl18","0","21","1","1","1","1","null","","","<img src = 'targets/48.png' width = '100%;'>","null","","","","","","","","","",""
"","html-keyboard-response","93","446570","0.0-8.0-3.0","goa5xb993y","many_one","0","indirect_first","0","er03rl18","0","21","1","1","1","1","386","","","<img src = 'targets/mask.png' width = '100%;'>","75","pos","CS","CS","2","category2/CS3.png","targets/48.png","1","indirect","0",""
"","html-keyboard-response","94","448100","0.0-8.0-0.1","goa5xb993y","many_one","0","indirect_first","0","er03rl18","0","21","1","1","1","1","null","","","<div style=""font-size:60px;"">+</div>","null","","","","","","","","","",""
"","html-keyboard-response","95","448200","0.0-8.0-1.1","goa5xb993y","many_one","0","indirect_first","0","er03rl18","0","21","1","1","1","1","null","","","<img src = 'category4/CS8.png' width = '100%;'>","null","","","","","","","","","",""
"","html-keyboard-response","96","448480","0.0-8.0-2.1","goa5xb993y","many_one","0","indirect_first","0","er03rl18","0","21","1","1","1","1","null","","","<img src = 'targets/40.png' width = '100%;'>","null","","","","","","","","","",""
"","html-keyboard-response","97","449714","0.0-8.0-3.1","goa5xb993y","many_one","0","indirect_first","0","er03rl18","0","21","1","1","1","1","1232","","","<img src = 'targets/mask.png' width = '100%;'>","68","pos","CS","CS","4","category4/CS8.png","targets/40.png","0","indirect","1",""
"","html-keyboard-response","98","451251","0.0-8.0-0.2","goa5xb993y","many_one","0","indirect_first","0","er03rl18","0","21","1","1","1","1","null","","","<div style=""font-size:60px;"">+</div>","null","","","","","","","","","",""
"","html-keyboard-response","99","451351","0.0-8.0-1.2","goa5xb993y","many_one","0","indirect_first","0","er03rl18","0","21","1","1","1","1","null","","","<img src = 'category1/CS9.png' width = '100%;'>","null","","","","","","","","","",""
"","html-keyboard-response","100","451630","0.0-8.0-2.2","goa5xb993y","many_one","0","indirect_first","0","er03rl18","0","21","1","1","1","1","null","","","<img src = 'targets/31.png' width = '100%;'>","null","","","","","","","","","",""
"","html-keyboard-response","101","451970","0.0-8.0-3.2","goa5xb993y","many_one","0","indirect_first","0","er03rl18","0","21","1","1","1","1","338","","","<img src = 'targets/mask.png' width = '100%;'>","75","neg","GS","GSold","1","category1/CS9.png","targets/31.png","1","indirect","2",""
"","html-keyboard-response","102","453510","0.0-8.0-0.3","goa5xb993y","many_one","0","indirect_first","0","er03rl18","0","21","1","1","1","1","null","","","<div style=""font-size:60px;"">+</div>","null","","","","","","","","","",""
"","html-keyboard-response","103","453611","0.0-8.0-1.3","goa5xb993y","many_one","0","indirect_first","0","er03rl18","0","21","1","1","1","1","null","","","<img src = 'category1/CS6.png' width = '100%;'>","null","","","","","","","","","",""
"","html-keyboard-response","104","453891","0.0-8.0-2.3","goa5xb993y","many_one","0","indirect_first","0","er03rl18","0","21","1","1","1","1","null","","","<img src = 'targets/7.png' width = '100%;'>","null","","","","","","","","","",""
"","html-keyboard-response","105","454193","0.0-8.0-3.3","goa5xb993y","many_one","0","indirect_first","0","er03rl18","0","21","1","1","1","1","302","","","<img src = 'targets/mask.png' width = '100%;'>","75","neg","CS","CS","1","category1/CS6.png","targets/7.png","1","indirect","3",""
"","html-keyboard-response","106","455731","0.0-8.0-0.4","goa5xb993y","many_one","0","indirect_first","0","er03rl18","0","21","1","1","1","1","null","","","<div style=""font-size:60px;"">+</div>","null","","","","","","","","","",""
"","html-keyboard-response","107","455831","0.0-8.0-1.4","goa5xb993y","many_one","0","indirect_first","0","er03rl18","0","21","1","1","1","1","null","","","<img src = 'category1/CS1.png' width = '100%;'>","null","","","","","","","","","",""
"","html-keyboard-response","108","456110","0.0-8.0-2.4","goa5xb993y","many_one","0","indirect_first","0","er03rl18","0","21","1","1","1","1","null","","","<img src = 'targets/6.png' width = '100%;'>","null","","","","","","","","","",""
"","html-keyboard-response","109","456306","0.0-8.0-3.4","goa5xb993y","many_one","0","indirect_first","0","er03rl18","0","21","1","1","1","1","194","","","<img src = 'targets/mask.png' width = '100%;'>","68","neg","GS","GSold","1","category1/CS1.png","targets/6.png","0","indirect","4",""
"","html-keyboard-response","110","457830","0.0-8.0-0.5","goa5xb993y","many_one","0","indirect_first","0","er03rl18","0","21","1","1","1","1","null","","","<div style=""font-size:60px;"">+</div>","null","","","","","","","","","",""
"","html-keyboard-response","111","457930","0.0-8.0-1.5","goa5xb993y","many_one","0","indirect_first","0","er03rl18","0","21","1","1","1","1","null","","","<img src = 'category2/CS5.png' width = '100%;'>","null","","","","","","","","","",""
"","html-keyboard-response","112","458211","0.0-8.0-2.5","goa5xb993y","many_one","0","indirect_first","0","er03rl18","0","21","1","1","1","1","null","","","<img src = 'targets/1.png' width = '100%;'>","null","","","","","","","","","",""
"","html-keyboard-response","113","458523","0.0-8.0-3.5","goa5xb993y","many_one","0","indirect_first","0","er03rl18","0","21","1","1","1","1","311","","","<img src = 'targets/mask.png' width = '100%;'>","75","pos","CS","CS","2","category2/CS5.png","targets/1.png","1","indirect","5",""
"","html-keyboard-response","114","460050","0.0-8.0-0.6","goa5xb993y","many_one","0","indirect_first","0","er03rl18","0","21","1","1","1","1","null","","","<div style=""font-size:60px;"">+</div>","null","","","","","","","","","",""
"","html-keyboard-response","115","460151","0.0-8.0-1.6","goa5xb993y","many_one","0","indirect_first","0","er03rl18","0","21","1","1","1","1","null","","","<img src = 'category3/CS8.png' width = '100%;'>","null","","","","","","","","","",""
"","html-keyboard-response","116","460430","0.0-8.0-2.6","goa5xb993y","many_one","0","indirect_first","0","er03rl18","0","21","1","1","1","1","null","","","<img src = 'targets/20.png' width = '100%;'>","null","","","","","","","","","",""
"","html-keyboard-response","117","460802","0.0-8.0-3.6","goa5xb993y","many_one","0","indirect_first","0","er03rl18","0","21","1","1","1","1","371","","","<img src = 'targets/mask.png' width = '100%;'>","75","neg","CS","CS","3","category3/CS8.png","targets/20.png","1","indirect","6",""
"","html-keyboard-response","118","462330","0.0-8.0-0.7","goa5xb993y","many_one","0","indirect_first","0","er03rl18","0","21","1","1","1","1","null","","","<div style=""font-size:60px;"">+</div>","null","","","","","","","","","",""
"","html-keyboard-response","119","462431","0.0-8.0-1.7","goa5xb993y","many_one","0","indirect_first","0","er03rl18","0","21","1","1","1","1","null","","","<img src = 'category1/CS4.png' width = '100%;'>","null","","","","","","","","","",""
"","html-keyboard-response","120","462710","0.0-8.0-2.7","goa5xb993y","many_one","0","indirect_first","0","er03rl18","0","21","1","1","1","1","null","","","<img src = 'targets/37.png' width = '100%;'>","null","","","","","","","","","",""
"","html-keyboard-response","121","464282","0.0-8.0-3.7","goa5xb993y","many_one","0","indirect_first","0","er03rl18","0","21","1","1","1","1","1570","","","<img src = 'targets/mask.png' width = '100%;'>","75","neg","CS","CS","1","category1/CS4.png","targets/37.png","1","indirect","7",""
"","html-keyboard-response","122","465811","0.0-8.0-0.8","goa5xb993y","many_one","0","indirect_first","0","er03rl18","0","21","1","1","1","1","null","","","<div style=""font-size:60px;"">+</div>","null","","","","","","","","","",""
"","html-keyboard-response","123","465910","0.0-8.0-1.8","goa5xb993y","many_one","0","indirect_first","0","er03rl18","0","21","1","1","1","1","null","","","<img src = 'category3/CS7.png' width = '100%;'>","null","","","","","","","","","",""
"","html-keyboard-response","124","466190","0.0-8.0-2.8","goa5xb993y","many_one","0","indirect_first","0","er03rl18","0","21","1","1","1","1","null","","","<img src = 'targets/33.png' width = '100%;'>","null","","","","","","","","","",""
"","html-keyboard-response","125","466858","0.0-8.0-3.8","goa5xb993y","many_one","0","indirect_first","0","er03rl18","0","21","1","1","1","1","667","","","<img src = 'targets/mask.png' width = '100%;'>","68","neg","CS","CS","3","category3/CS7.png","targets/33.png","0","indirect","8",""
"","html-keyboard-response","126","468390","0.0-8.0-0.9","goa5xb993y","many_one","0","indirect_first","0","er03rl18","0","21","1","1","1","1","null","","","<div style=""font-size:60px;"">+</div>","null","","","","","","","","","",""
"","html-keyboard-response","127","468491","0.0-8.0-1.9","goa5xb993y","many_one","0","indirect_first","0","er03rl18","0","21","1","1","1","1","null","","","<img src = 'category3/CS9.png' width = '100%;'>","null","","","","","","","","","",""
"","html-keyboard-response","128","468771","0.0-8.0-2.9","goa5xb993y","many_one","0","indirect_first","0","er03rl18","0","21","1","1","1","1","null","","","<img src = 'targets/47.png' width = '100%;'>","null","","","","","","","","","",""
"","html-keyboard-response","129","469067","0.0-8.0-3.9","goa5xb993y","many_one","0","indirect_first","0","er03rl18","0","21","1","1","1","1","293","","","<img src = 'targets/mask.png' width = '100%;'>","68","neg","CS","CS","3","category3/CS9.png","targets/47.png","0","indirect","9",""
"","html-keyboard-response","130","470571","0.0-8.0-0.10","goa5xb993y","many_one","0","indirect_first","0","er03rl18","0","21","1","1","1","1","null","","","<div style=""font-size:60px;"">+</div>","null","","","","","","","","","",""
"","html-keyboard-response","131","470670","0.0-8.0-1.10","goa5xb993y","many_one","0","indirect_first","0","er03rl18","0","21","1","1","1","1","null","","","<img src = 'category1/CS7.png' width = '100%;'>","null","","","","","","","","","",""
"","html-keyboard-response","132","470951","0.0-8.0-2.10","goa5xb993y","many_one","0","indirect_first","0","er03rl18","0","21","1","1","1","1","null","","","<img src = 'targets/14.png' width = '100%;'>","null","","","","","","","","","",""
"","html-keyboard-response","133","470994","0.0-8.0-3.10","goa5xb993y","many_one","0","indirect_first","0","er03rl18","0","21","1","1","1","1","42","","","<img src = 'targets/mask.png' width = '100%;'>","68","neg","GS","GSold","1","category1/CS7.png","targets/14.png","0","indirect","10",""
"","html-keyboard-response","134","472530","0.0-8.0-0.11","goa5xb993y","many_one","0","indirect_first","0","er03rl18","0","21","1","1","1","1","null","","","<div style=""font-size:60px;"">+</div>","null","","","","","","","","","",""
"","html-keyboard-response","135","472630","0.0-8.0-1.11","goa5xb993y","many_one","0","indirect_first","0","er03rl18","0","21","1","1","1","1","null","","","<img src = 'category3/CS10.png' width = '100%;'>","null","","","","","","","","","",""
"","html-keyboard-response","136","472911","0.0-8.0-2.11","goa5xb993y","many_one","0","indirect_first","0","er03rl18","0","21","1","1","1","1","null","","","<img src = 'targets/16.png' width = '100%;'>","null","","","","","","","","","",""
"","html-keyboard-response","137","473394","0.0-8.0-3.11","goa5xb993y","many_one","0","indirect_first","0","er03rl18","0","21","1","1","1","1","483","","","<img src = 'targets/mask.png' width = '100%;'>","75","neg","CS","CS","3","category3/CS10.png","targets/16.png","1","indirect","11",""
"","html-keyboard-response","138","474926","0.0-8.0-0.12","goa5xb993y","many_one","0","indirect_first","0","er03rl18","0","21","1","1","1","1","null","","","<div style=""font-size:60px;"">+</div>","null","","","","","","","","","",""
"","html-keyboard-response","139","475027","0.0-8.0-1.12","goa5xb993y","many_one","0","indirect_first","0","er03rl18","0","21","1","1","1","1","null","","","<img src = 'category1/CS5.png' width = '100%;'>","null","","","","","","","","","",""
"","html-keyboard-response","140","475311","0.0-8.0-2.12","goa5xb993y","many_one","0","indirect_first","0","er03rl18","0","21","1","1","1","1","null","","","<img src = 'targets/17.png' width = '100%;'>","null","","","","","","","","","",""
"","html-keyboard-response","141","475698","0.0-8.0-3.12","goa5xb993y","many_one","0","indirect_first","0","er03rl18","0","21","1","1","1","1","386","","","<img src = 'targets/mask.png' width = '100%;'>","68","neg","CS","CS","1","category1/CS5.png","targets/17.png","0","indirect","12",""
"","html-keyboard-response","142","477230","0.0-8.0-0.13","goa5xb993y","many_one","0","indirect_first","0","er03rl18","0","21","1","1","1","1","null","","","<div style=""font-size:60px;"">+</div>","null","","","","","","","","","",""
"","html-keyboard-response","143","477331","0.0-8.0-1.13","goa5xb993y","many_one","0","indirect_first","0","er03rl18","0","21","1","1","1","1","null","","","<img src = 'category3/CS6.png' width = '100%;'>","null","","","","","","","","","",""
"","html-keyboard-response","144","477611","0.0-8.0-2.13","goa5xb993y","many_one","0","indirect_first","0","er03rl18","0","21","1","1","1","1","null","","","<img src = 'targets/28.png' width = '100%;'>","null","","","","","","","","","",""
"","html-keyboard-response","145","477971","0.0-8.0-3.13","goa5xb993y","many_one","0","indirect_first","0","er03rl18","0","21","1","1","1","1","358","","","<img src = 'targets/mask.png' width = '100%;'>","68","neg","CS","CS","3","category3/CS6.png","targets/28.png","0","indirect","13",""
"","html-keyboard-response","146","479511","0.0-8.0-0.14","goa5xb993y","many_one","0","indirect_first","0","er03rl18","0","21","1","1","1","1","null","","","<div style=""font-size:60px;"">+</div>","null","","","","","","","","","",""
"","html-keyboard-response","147","479610","0.0-8.0-1.14","goa5xb993y","many_one","0","indirect_first","0","er03rl18","0","21","1","1","1","1","null","","","<img src = 'category1/CS2.png' width = '100%;'>","null","","","","","","","","","",""
"","html-keyboard-response","148","479891","0.0-8.0-2.14","goa5xb993y","many_one","0","indirect_first","0","er03rl18","0","21","1","1","1","1","null","","","<img src = 'targets/44.png' width = '100%;'>","null","","","","","","","","","",""
"","html-keyboard-response","149","480281","0.0-8.0-3.14","goa5xb993y","many_one","0","indirect_first","0","er03rl18","0","21","1","1","1","1","389","","","<img src = 'targets/mask.png' width = '100%;'>","75","neg","CS","CS","1","category1/CS2.png","targets/44.png","1","indirect","14",""
"","html-keyboard-response","150","481811","0.0-8.0-0.15","goa5xb993y","many_one","0","indirect_first","0","er03rl18","0","21","1","1","1","1","null","","","<div style=""font-size:60px;"">+</div>","null","","","","","","","","","",""
"","html-keyboard-response","151","481910","0.0-8.0-1.15","goa5xb993y","many_one","0","indirect_first","0","er03rl18","0","21","1","1","1","1","null","","","<img src = 'category4/CS10.png' width = '100%;'>","null","","","","","","","","","",""
"","html-keyboard-response","152","482191","0.0-8.0-2.15","goa5xb993y","many_one","0","indirect_first","0","er03rl18","0","21","1","1","1","1","null","","","<img src = 'targets/42.png' width = '100%;'>","null","","","","","","","","","",""
"","html-keyboard-response","153","482426","0.0-8.0-3.15","goa5xb993y","many_one","0","indirect_first","0","er03rl18","0","21","1","1","1","1","234","","","<img src = 'targets/mask.png' width = '100%;'>","68","pos","CS","CS","4","category4/CS10.png","targets/42.png","0","indirect","15",""
"","html-keyboard-response","154","483950","0.0-8.0-0.16","goa5xb993y","many_one","0","indirect_first","0","er03rl18","0","21","1","1","1","1","null","","","<div style=""font-size:60px;"">+</div>","null","","","","","","","","","",""
"","html-keyboard-response","155","484051","0.0-8.0-1.16","goa5xb993y","many_one","0","indirect_first","0","er03rl18","0","21","1","1","1","1","null","","","<img src = 'category2/CS7.png' width = '100%;'>","null","","","","","","","","","",""
"","html-keyboard-response","156","484331","0.0-8.0-2.16","goa5xb993y","many_one","0","indirect_first","0","er03rl18","0","21","1","1","1","1","null","","","<img src = 'targets/41.png' width = '100%;'>","null","","","","","","","","","",""
"","html-keyboard-response","157","484890","0.0-8.0-3.16","goa5xb993y","many_one","0","indirect_first","0","er03rl18","0","21","1","1","1","1","558","","","<img src = 'targets/mask.png' width = '100%;'>","68","pos","CS","CS","2","category2/CS7.png","targets/41.png","0","indirect","16",""
"","html-keyboard-response","158","486410","0.0-8.0-0.17","goa5xb993y","many_one","0","indirect_first","0","er03rl18","0","21","1","1","1","1","null","","","<div style=""font-size:60px;"">+</div>","null","","","","","","","","","",""
"","html-keyboard-response","159","486511","0.0-8.0-1.17","goa5xb993y","many_one","0","indirect_first","0","er03rl18","0","21","1","1","1","1","null","","","<img src = 'category2/CS6.png' width = '100%;'>","null","","","","","","","","","",""
"","html-keyboard-response","160","486790","0.0-8.0-2.17","goa5xb993y","many_one","0","indirect_first","0","er03rl18","0","21","1","1","1","1","null","","","<img src = 'targets/18.png' width = '100%;'>","null","","","","","","","","","",""
"","html-keyboard-response","161","487306","0.0-8.0-3.17","goa5xb993y","many_one","0","indirect_first","0","er03rl18","0","21","1","1","1","1","515","","","<img src = 'targets/mask.png' width = '100%;'>","75","pos","CS","CS","2","category2/CS6.png","targets/18.png","1","indirect","17",""
"","html-keyboard-response","162","488810","0.0-8.0-0.18","goa5xb993y","many_one","0","indirect_first","0","er03rl18","0","21","1","1","1","1","null","","","<div style=""font-size:60px;"">+</div>","null","","","","","","","","","",""
"","html-keyboard-response","163","488910","0.0-8.0-1.18","goa5xb993y","many_one","0","indirect_first","0","er03rl18","0","21","1","1","1","1","null","","","<img src = 'category1/CS8.png' width = '100%;'>","null","","","","","","","","","",""
"","html-keyboard-response","164","489180","0.0-8.0-2.18","goa5xb993y","many_one","0","indirect_first","0","er03rl18","0","21","1","1","1","1","null","","","<img src = 'targets/34.png' width = '100%;'>","null","","","","","","","","","",""
"","html-keyboard-response","165","489850","0.0-8.0-3.18","goa5xb993y","many_one","0","indirect_first","0","er03rl18","0","21","1","1","1","1","669","","","<img src = 'targets/mask.png' width = '100%;'>","68","neg","CS","CS","1","category1/CS8.png","targets/34.png","0","indirect","18",""
"","html-keyboard-response","166","491371","0.0-8.0-0.19","goa5xb993y","many_one","0","indirect_first","0","er03rl18","0","21","1","1","1","1","null","","","<div style=""font-size:60px;"">+</div>","null","","","","","","","","","",""
"","html-keyboard-response","167","491470","0.0-8.0-1.19","goa5xb993y","many_one","0","indirect_first","0","er03rl18","0","21","1","1","1","1","null","","","<img src = 'category4/CS2.png' width = '100%;'>","null","","","","","","","","","",""
"","html-keyboard-response","168","491750","0.0-8.0-2.19","goa5xb993y","many_one","0","indirect_first","0","er03rl18","0","21","1","1","1","1","null","","","<img src = 'targets/36.png' width = '100%;'>","null","","","","","","","","","",""
"","html-keyboard-response","169","492130","0.0-8.0-3.19","goa5xb993y","many_one","0","indirect_first","0","er03rl18","0","21","1","1","1","1","378","","","<img src = 'targets/mask.png' width = '100%;'>","75","pos","CS","CS","4","category4/CS2.png","targets/36.png","1","indirect","19",""
"","html-keyboard-response","170","493670","0.0-8.0-0.20","goa5xb993y","many_one","0","indirect_first","0","er03rl18","0","21","1","1","1","1","null","","","<div style=""font-size:60px;"">+</div>","null","","","","","","","","","",""
"","html-keyboard-response","171","493770","0.0-8.0-1.20","goa5xb993y","many_one","0","indirect_first","0","er03rl18","0","21","1","1","1","1","null","","","<img src = 'category2/CS10.png' width = '100%;'>","null","","","","","","","","","",""
"","html-keyboard-response","172","494051","0.0-8.0-2.20","goa5xb993y","many_one","0","indirect_first","0","er03rl18","0","21","1","1","1","1","null","","","<img src = 'targets/45.png' width = '100%;'>","null","","","","","","","","","",""
"","html-keyboard-response","173","494842","0.0-8.0-3.20","goa5xb993y","many_one","0","indirect_first","0","er03rl18","0","21","1","1","1","1","790","","","<img src = 'targets/mask.png' width = '100%;'>","75","pos","GS","GSold","2","category2/CS10.png","targets/45.png","1","indirect","20",""
"","html-keyboard-response","174","496370","0.0-8.0-0.21","goa5xb993y","many_one","0","indirect_first","0","er03rl18","0","21","1","1","1","1","null","","","<div style=""font-size:60px;"">+</div>","null","","","","","","","","","",""
"","html-keyboard-response","175","496470","0.0-8.0-1.21","goa5xb993y","many_one","0","indirect_first","0","er03rl18","0","21","1","1","1","1","null","","","<img src = 'category2/CS4.png' width = '100%;'>","null","","","","","","","","","",""
"","html-keyboard-response","176","496750","0.0-8.0-2.21","goa5xb993y","many_one","0","indirect_first","0","er03rl18","0","21","1","1","1","1","null","","","<img src = 'targets/15.png' width = '100%;'>","null","","","","","","","","","",""
"","html-keyboard-response","177","497313","0.0-8.0-3.21","goa5xb993y","many_one","0","indirect_first","0","er03rl18","0","21","1","1","1","1","561","","","<img src = 'targets/mask.png' width = '100%;'>","75","pos","CS","CS","2","category2/CS4.png","targets/15.png","1","indirect","21",""
"","html-keyboard-response","178","498840","0.0-8.0-0.22","goa5xb993y","many_one","0","indirect_first","0","er03rl18","0","21","1","1","1","1","null","","","<div style=""font-size:60px;"">+</div>","null","","","","","","","","","",""
"","html-keyboard-response","179","498940","0.0-8.0-1.22","goa5xb993y","many_one","0","indirect_first","0","er03rl18","0","21","1","1","1","1","null","","","<img src = 'category4/CS6.png' width = '100%;'>","null","","","","","","","","","",""
"","html-keyboard-response","180","499221","0.0-8.0-2.22","goa5xb993y","many_one","0","indirect_first","0","er03rl18","0","21","1","1","1","1","null","","","<img src = 'targets/24.png' width = '100%;'>","null","","","","","","","","","",""
"","html-keyboard-response","181","499578","0.0-8.0-3.22","goa5xb993y","many_one","0","indirect_first","0","er03rl18","0","21","1","1","1","1","356","","","<img src = 'targets/mask.png' width = '100%;'>","75","pos","CS","CS","4","category4/CS6.png","targets/24.png","1","indirect","22",""
"","html-keyboard-response","182","501101","0.0-8.0-0.23","goa5xb993y","many_one","0","indirect_first","0","er03rl18","0","21","1","1","1","1","null","","","<div style=""font-size:60px;"">+</div>","null","","","","","","","","","",""
"","html-keyboard-response","183","501200","0.0-8.0-1.23","goa5xb993y","many_one","0","indirect_first","0","er03rl18","0","21","1","1","1","1","null","","","<img src = 'category4/CS5.png' width = '100%;'>","null","","","","","","","","","",""
"","html-keyboard-response","184","501480","0.0-8.0-2.23","goa5xb993y","many_one","0","indirect_first","0","er03rl18","0","21","1","1","1","1","null","","","<img src = 'targets/13.png' width = '100%;'>","null","","","","","","","","","",""
"","html-keyboard-response","185","502106","0.0-8.0-3.23","goa5xb993y","many_one","0","indirect_first","0","er03rl18","0","21","1","1","1","1","624","","","<img src = 'targets/mask.png' width = '100%;'>","68","pos","CS","CS","4","category4/CS5.png","targets/13.png","0","indirect","23",""
"","survey-html-form","186","505753","0.0-9.0","goa5xb993y","many_one","0","indirect_first","0","er03rl18","0","21","1","1","1","1","3133","","{}","","","","","","","","","","","",""
"","html-keyboard-response","187","508780","0.0-10.0-0.0","goa5xb993y","many_one","0","indirect_first","0","er03rl18","0","21","1","1","1","1","null","","","<div style=""font-size:60px;"">+</div>","null","","","","","","","","","",""
"","html-keyboard-response","188","508880","0.0-10.0-1.0","goa5xb993y","many_one","0","indirect_first","0","er03rl18","0","21","1","1","1","1","null","","","<img src = 'category4/GS1.png' width = '100%;'>","null","","","","","","","","","",""
"","html-keyboard-response","189","509160","0.0-10.0-2.0","goa5xb993y","many_one","0","indirect_first","0","er03rl18","0","21","1","1","1","1","null","","","<img src = 'targets/30.png' width = '100%;'>","null","","","","","","","","","",""
"","html-keyboard-response","190","509553","0.0-10.0-3.0","goa5xb993y","many_one","0","indirect_first","0","er03rl18","0","21","1","1","1","1","392","","","<img src = 'targets/mask.png' width = '100%;'>","75","pos","GS","GSnew","4","category4/GS1.png","targets/30.png","1","indirect","24",""
"","html-keyboard-response","191","511080","0.0-10.0-0.1","goa5xb993y","many_one","0","indirect_first","0","er03rl18","0","21","1","1","1","1","null","","","<div style=""font-size:60px;"">+</div>","null","","","","","","","","","",""
"","html-keyboard-response","192","511180","0.0-10.0-1.1","goa5xb993y","many_one","0","indirect_first","0","er03rl18","0","21","1","1","1","1","null","","","<img src = 'category3/CS1.png' width = '100%;'>","null","","","","","","","","","",""
"","html-keyboard-response","193","511461","0.0-10.0-2.1","goa5xb993y","many_one","0","indirect_first","0","er03rl18","0","21","1","1","1","1","null","","","<img src = 'targets/9.png' width = '100%;'>","null","","","","","","","","","",""
"","html-keyboard-response","194","511738","0.0-10.0-3.1","goa5xb993y","many_one","0","indirect_first","0","er03rl18","0","21","1","1","1","1","276","","","<img src = 'targets/mask.png' width = '100%;'>","68","neg","GS","GSold","3","category3/CS1.png","targets/9.png","0","indirect","25",""
"","html-keyboard-response","195","513250","0.0-10.0-0.2","goa5xb993y","many_one","0","indirect_first","0","er03rl18","0","21","1","1","1","1","null","","","<div style=""font-size:60px;"">+</div>","null","","","","","","","","","",""
"","html-keyboard-response","196","513350","0.0-10.0-1.2","goa5xb993y","many_one","0","indirect_first","0","er03rl18","0","21","1","1","1","1","null","","","<img src = 'category1/GS1.png' width = '100%;'>","null","","","","","","","","","",""
"","html-keyboard-response","197","513630","0.0-10.0-2.2","goa5xb993y","many_one","0","indirect_first","0","er03rl18","0","21","1","1","1","1","null","","","<img src = 'targets/5.png' width = '100%;'>","null","","","","","","","","","",""
"","html-keyboard-response","198","514402","0.0-10.0-3.2","goa5xb993y","many_one","0","indirect_first","0","er03rl18","0","21","1","1","1","1","770","","","<img src = 'targets/mask.png' width = '100%;'>","75","neg","GS","GSnew","1","category1/GS1.png","targets/5.png","1","indirect","26",""
"","html-keyboard-response","199","515930","0.0-10.0-0.3","goa5xb993y","many_one","0","indirect_first","0","er03rl18","0","21","1","1","1","1","null","","","<div style=""font-size:60px;"">+</div>","null","","","","","","","","","",""
"","html-keyboard-response","200","516030","0.0-10.0-1.3","goa5xb993y","many_one","0","indirect_first","0","er03rl18","0","21","1","1","1","1","null","","","<img src = 'category1/GS3.png' width = '100%;'>","null","","","","","","","","","",""
"","html-keyboard-response","201","516310","0.0-10.0-2.3","goa5xb993y","many_one","0","indirect_first","0","er03rl18","0","21","1","1","1","1","null","","","<img src = 'targets/3.png' width = '100%;'>","null","","","","","","","","","",""
"","html-keyboard-response","202","516874","0.0-10.0-3.3","goa5xb993y","many_one","0","indirect_first","0","er03rl18","0","21","1","1","1","1","562","","","<img src = 'targets/mask.png' width = '100%;'>","68","neg","GS","GSnew","1","category1/GS3.png","targets/3.png","0","indirect","27",""
"","html-keyboard-response","203","518391","0.0-10.0-0.4","goa5xb993y","many_one","0","indirect_first","0","er03rl18","0","21","1","1","1","1","null","","","<div style=""font-size:60px;"">+</div>","null","","","","","","","","","",""
"","html-keyboard-response","204","518490","0.0-10.0-1.4","goa5xb993y","many_one","0","indirect_first","0","er03rl18","0","21","1","1","1","1","null","","","<img src = 'category2/GS1.png' width = '100%;'>","null","","","","","","","","","",""
"","html-keyboard-response","205","518770","0.0-10.0-2.4","goa5xb993y","many_one","0","indirect_first","0","er03rl18","0","21","1","1","1","1","null","","","<img src = 'targets/32.png' width = '100%;'>","null","","","","","","","","","",""
"","html-keyboard-response","206","519074","0.0-10.0-3.4","goa5xb993y","many_one","0","indirect_first","0","er03rl18","0","21","1","1","1","1","302","","","<img src = 'targets/mask.png' width = '100%;'>","75","pos","GS","GSnew","2","category2/GS1.png","targets/32.png","1","indirect","28",""
"","html-keyboard-response","207","520611","0.0-10.0-0.5","goa5xb993y","many_one","0","indirect_first","0","er03rl18","0","21","1","1","1","1","null","","","<div style=""font-size:60px;"">+</div>","null","","","","","","","","","",""
"","html-keyboard-response","208","520711","0.0-10.0-1.5","goa5xb993y","many_one","0","indirect_first","0","er03rl18","0","21","1","1","1","1","null","","","<img src = 'category4/CS7.png' width = '100%;'>","null","","","","","","","","","",""
"","html-keyboard-response","209","520990","0.0-10.0-2.5","goa5xb993y","many_one","0","indirect_first","0","er03rl18","0","21","1","1","1","1","null","","","<img src = 'targets/4.png' width = '100%;'>","null","","","","","","","","","",""
"","html-keyboard-response","210","521305","0.0-10.0-3.5","goa5xb993y","many_one","0","indirect_first","0","er03rl18","0","21","1","1","1","1","314","","","<img src = 'targets/mask.png' width = '100%;'>","75","pos","GS","GSold","4","category4/CS7.png","targets/4.png","1","indirect","29",""
"","html-keyboard-response","211","522830","0.0-10.0-0.6","goa5xb993y","many_one","0","indirect_first","0","er03rl18","0","21","1","1","1","1","null","","","<div style=""font-size:60px;"">+</div>","null","","","","","","","","","",""
"","html-keyboard-response","212","522931","0.0-10.0-1.6","goa5xb993y","many_one","0","indirect_first","0","er03rl18","0","21","1","1","1","1","null","","","<img src = 'category4/GS2.png' width = '100%;'>","null","","","","","","","","","",""
"","html-keyboard-response","213","523210","0.0-10.0-2.6","goa5xb993y","many_one","0","indirect_first","0","er03rl18","0","21","1","1","1","1","null","","","<img src = 'targets/26.png' width = '100%;'>","null","","","","","","","","","",""
"","html-keyboard-response","214","524354","0.0-10.0-3.6","goa5xb993y","many_one","0","indirect_first","0","er03rl18","0","21","1","1","1","1","1142","","","<img src = 'targets/mask.png' width = '100%;'>","75","pos","GS","GSnew","4","category4/GS2.png","targets/26.png","1","indirect","30",""
"","html-keyboard-response","215","525890","0.0-10.0-0.7","goa5xb993y","many_one","0","indirect_first","0","er03rl18","0","21","1","1","1","1","null","","","<div style=""font-size:60px;"">+</div>","null","","","","","","","","","",""
"","html-keyboard-response","216","525991","0.0-10.0-1.7","goa5xb993y","many_one","0","indirect_first","0","er03rl18","0","21","1","1","1","1","null","","","<img src = 'category2/GS2.png' width = '100%;'>","null","","","","","","","","","",""
"","html-keyboard-response","217","526270","0.0-10.0-2.7","goa5xb993y","many_one","0","indirect_first","0","er03rl18","0","21","1","1","1","1","null","","","<img src = 'targets/27.png' width = '100%;'>","null","","","","","","","","","",""
"","html-keyboard-response","218","526923","0.0-10.0-3.7","goa5xb993y","many_one","0","indirect_first","0","er03rl18","0","21","1","1","1","1","650","","","<img src = 'targets/mask.png' width = '100%;'>","75","pos","GS","GSnew","2","category2/GS2.png","targets/27.png","1","indirect","31",""
"","html-keyboard-response","219","528460","0.0-10.0-0.8","goa5xb993y","many_one","0","indirect_first","0","er03rl18","0","21","1","1","1","1","null","","","<div style=""font-size:60px;"">+</div>","null","","","","","","","","","",""
"","html-keyboard-response","220","528560","0.0-10.0-1.8","goa5xb993y","many_one","0","indirect_first","0","er03rl18","0","21","1","1","1","1","null","","","<img src = 'category2/CS1.png' width = '100%;'>","null","","","","","","","","","",""
"","html-keyboard-response","221","528840","0.0-10.0-2.8","goa5xb993y","many_one","0","indirect_first","0","er03rl18","0","21","1","1","1","1","null","","","<img src = 'targets/38.png' width = '100%;'>","null","","","","","","","","","",""
"","html-keyboard-response","222","529570","0.0-10.0-3.8","goa5xb993y","many_one","0","indirect_first","0","er03rl18","0","21","1","1","1","1","729","","","<img src = 'targets/mask.png' width = '100%;'>","68","pos","GS","GSold","2","category2/CS1.png","targets/38.png","0","indirect","32",""
"","html-keyboard-response","223","531081","0.0-10.0-0.9","goa5xb993y","many_one","0","indirect_first","0","er03rl18","0","21","1","1","1","1","null","","","<div style=""font-size:60px;"">+</div>","null","","","","","","","","","",""
"","html-keyboard-response","224","531180","0.0-10.0-1.9","goa5xb993y","many_one","0","indirect_first","0","er03rl18","0","21","1","1","1","1","null","","","<img src = 'category4/GS3.png' width = '100%;'>","null","","","","","","","","","",""
"","html-keyboard-response","225","531460","0.0-10.0-2.9","goa5xb993y","many_one","0","indirect_first","0","er03rl18","0","21","1","1","1","1","null","","","<img src = 'targets/46.png' width = '100%;'>","null","","","","","","","","","",""
"","html-keyboard-response","226","532338","0.0-10.0-3.9","goa5xb993y","many_one","0","indirect_first","0","er03rl18","0","21","1","1","1","1","876","","","<img src = 'targets/mask.png' width = '100%;'>","68","pos","GS","GSnew","4","category4/GS3.png","targets/46.png","0","indirect","33",""
"","html-keyboard-response","227","533850","0.0-10.0-0.10","goa5xb993y","many_one","0","indirect_first","0","er03rl18","0","21","1","1","1","1","null","","","<div style=""font-size:60px;"">+</div>","null","","","","","","","","","",""
"","html-keyboard-response","228","533950","0.0-10.0-1.10","goa5xb993y","many_one","0","indirect_first","0","er03rl18","0","21","1","1","1","1","null","","","<img src = 'category4/CS9.png' width = '100%;'>","null","","","","","","","","","",""
"","html-keyboard-response","229","534230","0.0-10.0-2.10","goa5xb993y","many_one","0","indirect_first","0","er03rl18","0","21","1","1","1","1","null","","","<img src = 'targets/35.png' width = '100%;'>","null","","","","","","","","","",""
"","html-keyboard-response","230","534873","0.0-10.0-3.10","goa5xb993y","many_one","0","indirect_first","0","er03rl18","0","21","1","1","1","1","643","","","<img src = 'targets/mask.png' width = '100%;'>","75","pos","GS","GSold","4","category4/CS9.png","targets/35.png","1","indirect","34",""
"","html-keyboard-response","231","536410","0.0-10.0-0.11","goa5xb993y","many_one","0","indirect_first","0","er03rl18","0","21","1","1","1","1","null","","","<div style=""font-size:60px;"">+</div>","null","","","","","","","","","",""
"","html-keyboard-response","232","536510","0.0-10.0-1.11","goa5xb993y","many_one","0","indirect_first","0","er03rl18","0","21","1","1","1","1","null","","","<img src = 'category3/GS3.png' width = '100%;'>","null","","","","","","","","","",""
"","html-keyboard-response","233","536791","0.0-10.0-2.11","goa5xb993y","many_one","0","indirect_first","0","er03rl18","0","21","1","1","1","1","null","","","<img src = 'targets/22.png' width = '100%;'>","null","","","","","","","","","",""
"","html-keyboard-response","234","537442","0.0-10.0-3.11","goa5xb993y","many_one","0","indirect_first","0","er03rl18","0","21","1","1","1","1","651","","","<img src = 'targets/mask.png' width = '100%;'>","68","neg","GS","GSnew","3","category3/GS3.png","targets/22.png","0","indirect","35",""
"","html-keyboard-response","235","538970","0.0-10.0-0.12","goa5xb993y","many_one","0","indirect_first","0","er03rl18","0","21","1","1","1","1","null","","","<div style=""font-size:60px;"">+</div>","null","","","","","","","","","",""
"","html-keyboard-response","236","539070","0.0-10.0-1.12","goa5xb993y","many_one","0","indirect_first","0","er03rl18","0","21","1","1","1","1","null","","","<img src = 'category3/CS2.png' width = '100%;'>","null","","","","","","","","","",""
"","html-keyboard-response","237","539351","0.0-10.0-2.12","goa5xb993y","many_one","0","indirect_first","0","er03rl18","0","21","1","1","1","1","null","","","<img src = 'targets/8.png' width = '100%;'>","null","","","","","","","","","",""
"","html-keyboard-response","238","539994","0.0-10.0-3.12","goa5xb993y","many_one","0","indirect_first","0","er03rl18","0","21","1","1","1","1","642","","","<img src = 'targets/mask.png' width = '100%;'>","75","neg","GS","GSold","3","category3/CS2.png","targets/8.png","1","indirect","36",""
"","html-keyboard-response","239","541530","0.0-10.0-0.13","goa5xb993y","many_one","0","indirect_first","0","er03rl18","0","21","1","1","1","1","null","","","<div style=""font-size:60px;"">+</div>","null","","","","","","","","","",""
"","html-keyboard-response","240","541631","0.0-10.0-1.13","goa5xb993y","many_one","0","indirect_first","0","er03rl18","0","21","1","1","1","1","null","","","<img src = 'category2/men.png' width = '100%;'>","null","","","","","","","","","",""
"","html-keyboard-response","241","541910","0.0-10.0-2.13","goa5xb993y","many_one","0","indirect_first","0","er03rl18","0","21","1","1","1","1","null","","","<img src = 'targets/43.png' width = '100%;'>","null","","","","","","","","","",""
"","html-keyboard-response","242","542457","0.0-10.0-3.13","goa5xb993y","many_one","0","indirect_first","0","er03rl18","0","21","1","1","1","1","547","","","<img src = 'targets/mask.png' width = '100%;'>","75","pos","GS","abstract","2","category2/men.png","targets/43.png","1","indirect","37",""
"","html-keyboard-response","243","543990","0.0-10.0-0.14","goa5xb993y","many_one","0","indirect_first","0","er03rl18","0","21","1","1","1","1","null","","","<div style=""font-size:60px;"">+</div>","null","","","","","","","","","",""
"","html-keyboard-response","244","544090","0.0-10.0-1.14","goa5xb993y","many_one","0","indirect_first","0","er03rl18","0","21","1","1","1","1","null","","","<img src = 'category2/GS3.png' width = '100%;'>","null","","","","","","","","","",""
"","html-keyboard-response","245","544370","0.0-10.0-2.14","goa5xb993y","many_one","0","indirect_first","0","er03rl18","0","21","1","1","1","1","null","","","<img src = 'targets/12.png' width = '100%;'>","null","","","","","","","","","",""
"","html-keyboard-response","246","545257","0.0-10.0-3.14","goa5xb993y","many_one","0","indirect_first","0","er03rl18","0","21","1","1","1","1","885","","","<img src = 'targets/mask.png' width = '100%;'>","75","pos","GS","GSnew","2","category2/GS3.png","targets/12.png","1","indirect","38",""
"","html-keyboard-response","247","546790","0.0-10.0-0.15","goa5xb993y","many_one","0","indirect_first","0","er03rl18","0","21","1","1","1","1","null","","","<div style=""font-size:60px;"">+</div>","null","","","","","","","","","",""
"","html-keyboard-response","248","546891","0.0-10.0-1.15","goa5xb993y","many_one","0","indirect_first","0","er03rl18","0","21","1","1","1","1","null","","","<img src = 'category1/GS2.png' width = '100%;'>","null","","","","","","","","","",""
"","html-keyboard-response","249","547170","0.0-10.0-2.15","goa5xb993y","many_one","0","indirect_first","0","er03rl18","0","21","1","1","1","1","null","","","<img src = 'targets/19.png' width = '100%;'>","null","","","","","","","","","",""
"","html-keyboard-response","250","547657","0.0-10.0-3.15","goa5xb993y","many_one","0","indirect_first","0","er03rl18","0","21","1","1","1","1","486","","","<img src = 'targets/mask.png' width = '100%;'>","68","neg","GS","GSnew","1","category1/GS2.png","targets/19.png","0","indirect","39",""
"","html-keyboard-response","251","549191","0.0-10.0-0.16","goa5xb993y","many_one","0","indirect_first","0","er03rl18","0","21","1","1","1","1","null","","","<div style=""font-size:60px;"">+</div>","null","","","","","","","","","",""
"","html-keyboard-response","252","549291","0.0-10.0-1.16","goa5xb993y","many_one","0","indirect_first","0","er03rl18","0","21","1","1","1","1","null","","","<img src = 'category4/lin.png' width = '100%;'>","null","","","","","","","","","",""
"","html-keyboard-response","253","549570","0.0-10.0-2.16","goa5xb993y","many_one","0","indirect_first","0","er03rl18","0","21","1","1","1","1","null","","","<img src = 'targets/23.png' width = '100%;'>","null","","","","","","","","","",""
"","html-keyboard-response","254","550122","0.0-10.0-3.16","goa5xb993y","many_one","0","indirect_first","0","er03rl18","0","21","1","1","1","1","551","","","<img src = 'targets/mask.png' width = '100%;'>","68","pos","GS","abstract","4","category4/lin.png","targets/23.png","0","indirect","40",""
"","html-keyboard-response","255","551630","0.0-10.0-0.17","goa5xb993y","many_one","0","indirect_first","0","er03rl18","0","21","1","1","1","1","null","","","<div style=""font-size:60px;"">+</div>","null","","","","","","","","","",""
"","html-keyboard-response","256","551730","0.0-10.0-1.17","goa5xb993y","many_one","0","indirect_first","0","er03rl18","0","21","1","1","1","1","null","","","<img src = 'category3/GS2.png' width = '100%;'>","null","","","","","","","","","",""
"","html-keyboard-response","257","552010","0.0-10.0-2.17","goa5xb993y","many_one","0","indirect_first","0","er03rl18","0","21","1","1","1","1","null","","","<img src = 'targets/21.png' width = '100%;'>","null","","","","","","","","","",""
"","html-keyboard-response","258","552610","0.0-10.0-3.17","goa5xb993y","many_one","0","indirect_first","0","er03rl18","0","21","1","1","1","1","598","","","<img src = 'targets/mask.png' width = '100%;'>","75","neg","GS","GSnew","3","category3/GS2.png","targets/21.png","1","indirect","41",""
"","html-keyboard-response","259","554150","0.0-10.0-0.18","goa5xb993y","many_one","0","indirect_first","0","er03rl18","0","21","1","1","1","1","null","","","<div style=""font-size:60px;"">+</div>","null","","","","","","","","","",""
"","html-keyboard-response","260","554250","0.0-10.0-1.18","goa5xb993y","many_one","0","indirect_first","0","er03rl18","0","21","1","1","1","1","null","","","<img src = 'category3/wang.png' width = '100%;'>","null","","","","","","","","","",""
"","html-keyboard-response","261","554530","0.0-10.0-2.18","goa5xb993y","many_one","0","indirect_first","0","er03rl18","0","21","1","1","1","1","null","","","<img src = 'targets/11.png' width = '100%;'>","null","","","","","","","","","",""
"","html-keyboard-response","262","555178","0.0-10.0-3.18","goa5xb993y","many_one","0","indirect_first","0","er03rl18","0","21","1","1","1","1","646","","","<img src = 'targets/mask.png' width = '100%;'>","75","neg","GS","abstract","3","category3/wang.png","targets/11.png","1","indirect","42",""
"","html-keyboard-response","263","556700","0.0-10.0-0.19","goa5xb993y","many_one","0","indirect_first","0","er03rl18","0","21","1","1","1","1","null","","","<div style=""font-size:60px;"">+</div>","null","","","","","","","","","",""
"","html-keyboard-response","264","556800","0.0-10.0-1.19","goa5xb993y","many_one","0","indirect_first","0","er03rl18","0","21","1","1","1","1","null","","","<img src = 'category2/CS9.png' width = '100%;'>","null","","","","","","","","","",""
"","html-keyboard-response","265","557080","0.0-10.0-2.19","goa5xb993y","many_one","0","indirect_first","0","er03rl18","0","21","1","1","1","1","null","","","<img src = 'targets/2.png' width = '100%;'>","null","","","","","","","","","",""
"","html-keyboard-response","266","558082","0.0-10.0-3.19","goa5xb993y","many_one","0","indirect_first","0","er03rl18","0","21","1","1","1","1","1001","","","<img src = 'targets/mask.png' width = '100%;'>","68","pos","GS","GSold","2","category2/CS9.png","targets/2.png","0","indirect","43",""
"","html-keyboard-response","267","559600","0.0-10.0-0.20","goa5xb993y","many_one","0","indirect_first","0","er03rl18","0","21","1","1","1","1","null","","","<div style=""font-size:60px;"">+</div>","null","","","","","","","","","",""
"","html-keyboard-response","268","559701","0.0-10.0-1.20","goa5xb993y","many_one","0","indirect_first","0","er03rl18","0","21","1","1","1","1","null","","","<img src = 'category3/CS4.png' width = '100%;'>","null","","","","","","","","","",""
"","html-keyboard-response","269","559980","0.0-10.0-2.20","goa5xb993y","many_one","0","indirect_first","0","er03rl18","0","21","1","1","1","1","null","","","<img src = 'targets/29.png' width = '100%;'>","null","","","","","","","","","",""
"","html-keyboard-response","270","560489","0.0-10.0-3.20","goa5xb993y","many_one","0","indirect_first","0","er03rl18","0","21","1","1","1","1","507","","","<img src = 'targets/mask.png' width = '100%;'>","68","neg","GS","GSold","3","category3/CS4.png","targets/29.png","0","indirect","44",""
"","html-keyboard-response","271","561991","0.0-10.0-0.21","goa5xb993y","many_one","0","indirect_first","0","er03rl18","0","21","1","1","1","1","null","","","<div style=""font-size:60px;"">+</div>","null","","","","","","","","","",""
"","html-keyboard-response","272","562090","0.0-10.0-1.21","goa5xb993y","many_one","0","indirect_first","0","er03rl18","0","21","1","1","1","1","null","","","<img src = 'category3/GS1.png' width = '100%;'>","null","","","","","","","","","",""
"","html-keyboard-response","273","562370","0.0-10.0-2.21","goa5xb993y","many_one","0","indirect_first","0","er03rl18","0","21","1","1","1","1","null","","","<img src = 'targets/10.png' width = '100%;'>","null","","","","","","","","","",""
"","html-keyboard-response","274","562602","0.0-10.0-3.21","goa5xb993y","many_one","0","indirect_first","0","er03rl18","0","21","1","1","1","1","230","","","<img src = 'targets/mask.png' width = '100%;'>","68","neg","GS","GSnew","3","category3/GS1.png","targets/10.png","0","indirect","45",""
"","html-keyboard-response","275","564130","0.0-10.0-0.22","goa5xb993y","many_one","0","indirect_first","0","er03rl18","0","21","1","1","1","1","null","","","<div style=""font-size:60px;"">+</div>","null","","","","","","","","","",""
"","html-keyboard-response","276","564230","0.0-10.0-1.22","goa5xb993y","many_one","0","indirect_first","0","er03rl18","0","21","1","1","1","1","null","","","<img src = 'category1/ma.png' width = '100%;'>","null","","","","","","","","","",""
"","html-keyboard-response","277","564510","0.0-10.0-2.22","goa5xb993y","many_one","0","indirect_first","0","er03rl18","0","21","1","1","1","1","null","","","<img src = 'targets/25.png' width = '100%;'>","null","","","","","","","","","",""
"","html-keyboard-response","278","565057","0.0-10.0-3.22","goa5xb993y","many_one","0","indirect_first","0","er03rl18","0","21","1","1","1","1","547","","","<img src = 'targets/mask.png' width = '100%;'>","75","neg","GS","abstract","1","category1/ma.png","targets/25.png","1","indirect","46",""
"","html-keyboard-response","279","566571","0.0-10.0-0.23","goa5xb993y","many_one","0","indirect_first","0","er03rl18","0","21","1","1","1","1","null","","","<div style=""font-size:60px;"">+</div>","null","","","","","","","","","",""
"","html-keyboard-response","280","566671","0.0-10.0-1.23","goa5xb993y","many_one","0","indirect_first","0","er03rl18","0","21","1","1","1","1","null","","","<img src = 'category4/CS1.png' width = '100%;'>","null","","","","","","","","","",""
"","html-keyboard-response","281","566948","0.0-10.0-2.23","goa5xb993y","many_one","0","indirect_first","0","er03rl18","0","21","1","1","1","1","null","","","<img src = 'targets/39.png' width = '100%;'>","null","","","","","","","","","",""
"","html-keyboard-response","282","567338","0.0-10.0-3.23","goa5xb993y","many_one","0","indirect_first","0","er03rl18","0","21","1","1","1","1","388","","","<img src = 'targets/mask.png' width = '100%;'>","75","pos","GS","GSold","4","category4/CS1.png","targets/39.png","1","indirect","47",""
"","survey-html-form","283","578833","0.0-11.0","goa5xb993y","many_one","0","indirect_first","0","er03rl18","0","21","1","1","1","1","10983","","{}","","","","","","","","","","","",""
"","image-slider-response","284","584521","0.0-12.0-0.0","goa5xb993y","many_one","0","indirect_first","0","er03rl18","0","21","1","1","1","1","3666","","","","","neg","CS","CS","3","category3/CS9.png","targets/47.png","","direct","","-53"
"","image-slider-response","285","586792","0.0-12.0-0.1","goa5xb993y","many_one","0","indirect_first","0","er03rl18","0","21","1","1","1","1","2270","","","","","neg","CS","CS","3","category3/CS10.png","targets/16.png","","direct","","-42"
"","image-slider-response","286","588920","0.0-12.0-0.2","goa5xb993y","many_one","0","indirect_first","0","er03rl18","0","21","1","1","1","1","2126","","","","","neg","GS","GSold","1","category1/CS9.png","targets/31.png","","direct","","-22"
"","image-slider-response","287","592217","0.0-12.0-0.3","goa5xb993y","many_one","0","indirect_first","0","er03rl18","0","21","1","1","1","1","3294","","","","","neg","GS","abstract","3","category3/wang.png","targets/11.png","","direct","","-57"
"","image-slider-response","288","593992","0.0-12.0-0.4","goa5xb993y","many_one","0","indirect_first","0","er03rl18","0","21","1","1","1","1","1775","","","","","pos","CS","CS","4","category4/CS2.png","targets/36.png","","direct","","30"
"","image-slider-response","289","596217","0.0-12.0-0.5","goa5xb993y","many_one","0","indirect_first","0","er03rl18","0","21","1","1","1","1","2223","","","","","pos","GS","GSold","4","category4/CS1.png","targets/39.png","","direct","","34"
"","image-slider-response","290","599281","0.0-12.0-0.6","goa5xb993y","many_one","0","indirect_first","0","er03rl18","0","21","1","1","1","1","3063","","","","","pos","CS","CS","2","category2/CS6.png","targets/18.png","","direct","","37"
"","image-slider-response","291","601456","0.0-12.0-0.7","goa5xb993y","many_one","0","indirect_first","0","er03rl18","0","21","1","1","1","1","2175","","","","","neg","GS","GSold","1","category1/CS1.png","targets/6.png","","direct","","-23"
"","image-slider-response","292","603424","0.0-12.0-0.8","goa5xb993y","many_one","0","indirect_first","0","er03rl18","0","21","1","1","1","1","1966","","","","","pos","GS","GSnew","2","category2/GS2.png","targets/27.png","","direct","","-46"
"","image-slider-response","293","605265","0.0-12.0-0.9","goa5xb993y","many_one","0","indirect_first","0","er03rl18","0","21","1","1","1","1","1839","","","","","neg","CS","CS","3","category3/CS6.png","targets/28.png","","direct","","-47"
"","image-slider-response","294","607200","0.0-12.0-0.10","goa5xb993y","many_one","0","indirect_first","0","er03rl18","0","21","1","1","1","1","1934","","","","","neg","GS","GSold","1","category1/CS7.png","targets/14.png","","direct","","-25"
"","image-slider-response","295","609185","0.0-12.0-0.11","goa5xb993y","many_one","0","indirect_first","0","er03rl18","0","21","1","1","1","1","1983","","","","","neg","GS","GSnew","3","category3/GS2.png","targets/21.png","","direct","","-29"
"","image-slider-response","296","613160","0.0-12.0-0.12","goa5xb993y","many_one","0","indirect_first","0","er03rl18","0","21","1","1","1","1","3974","","","","","neg","CS","CS","1","category1/CS8.png","targets/34.png","","direct","","-17"
"","image-slider-response","297","614728","0.0-12.0-0.13","goa5xb993y","many_one","0","indirect_first","0","er03rl18","0","21","1","1","1","1","1566","","","","","neg","GS","GSnew","1","category1/GS2.png","targets/19.png","","direct","","18"
"","image-slider-response","298","616305","0.0-12.0-0.14","goa5xb993y","many_one","0","indirect_first","0","er03rl18","0","21","1","1","1","1","1575","","","","","neg","GS","GSold","3","category3/CS4.png","targets/29.png","","direct","","-14"
"","image-slider-response","299","618417","0.0-12.0-0.15","goa5xb993y","many_one","0","indirect_first","0","er03rl18","0","21","1","1","1","1","2112","","","","","pos","GS","GSold","2","category2/CS9.png","targets/2.png","","direct","","36"
"","image-slider-response","300","620281","0.0-12.0-0.16","goa5xb993y","many_one","0","indirect_first","0","er03rl18","0","21","1","1","1","1","1862","","","","","neg","GS","GSnew","1","category1/GS3.png","targets/3.png","","direct","","35"
"","image-slider-response","301","622248","0.0-12.0-0.17","goa5xb993y","many_one","0","indirect_first","0","er03rl18","0","21","1","1","1","1","1968","","","","","neg","CS","CS","1","category1/CS6.png","targets/7.png","","direct","","39"
"","image-slider-response","302","623817","0.0-12.0-0.18","goa5xb993y","many_one","0","indirect_first","0","er03rl18","0","21","1","1","1","1","1566","","","","","pos","GS","abstract","4","category4/lin.png","targets/23.png","","direct","","43"
"","image-slider-response","303","625752","0.0-12.0-0.19","goa5xb993y","many_one","0","indirect_first","0","er03rl18","0","21","1","1","1","1","1934","","","","","pos","CS","CS","4","category4/CS8.png","targets/40.png","","direct","","52"
"","image-slider-response","304","627544","0.0-12.0-0.20","goa5xb993y","many_one","0","indirect_first","0","er03rl18","0","21","1","1","1","1","1791","","","","","neg","GS","GSnew","3","category3/GS3.png","targets/22.png","","direct","","-27"
"","image-slider-response","305","629673","0.0-12.0-0.21","goa5xb993y","many_one","0","indirect_first","0","er03rl18","0","21","1","1","1","1","2127","","","","","pos","GS","GSnew","4","category4/GS1.png","targets/30.png","","direct","","53"
"","image-slider-response","306","631409","0.0-12.0-0.22","goa5xb993y","many_one","0","indirect_first","0","er03rl18","0","21","1","1","1","1","1735","","","","","neg","CS","CS","3","category3/CS8.png","targets/20.png","","direct","","-45"
"","image-slider-response","307","634032","0.0-12.0-0.23","goa5xb993y","many_one","0","indirect_first","0","er03rl18","0","21","1","1","1","1","2622","","","","","pos","CS","CS","4","category4/CS5.png","targets/13.png","","direct","","44"
"","image-slider-response","308","636328","0.0-12.0-0.24","goa5xb993y","many_one","0","indirect_first","0","er03rl18","0","21","1","1","1","1","2295","","","","","neg","GS","GSold","3","category3/CS2.png","targets/8.png","","direct","","-27"
"","image-slider-response","309","638432","0.0-12.0-0.25","goa5xb993y","many_one","0","indirect_first","0","er03rl18","0","21","1","1","1","1","2103","","","","","pos","CS","CS","4","category4/CS6.png","targets/24.png","","direct","","36"
"","image-slider-response","310","640136","0.0-12.0-0.26","goa5xb993y","many_one","0","indirect_first","0","er03rl18","0","21","1","1","1","1","1702","","","","","pos","CS","CS","2","category2/CS4.png","targets/15.png","","direct","","37"
"","image-slider-response","311","642608","0.0-12.0-0.27","goa5xb993y","many_one","0","indirect_first","0","er03rl18","0","21","1","1","1","1","2470","","","","","pos","GS","GSold","4","category4/CS7.png","targets/4.png","","direct","","42"
"","image-slider-response","312","644137","0.0-12.0-0.28","goa5xb993y","many_one","0","indirect_first","0","er03rl18","0","21","1","1","1","1","1526","","","","","neg","GS","abstract","1","category1/ma.png","targets/25.png","","direct","","41"
"","image-slider-response","313","645632","0.0-12.0-0.29","goa5xb993y","many_one","0","indirect_first","0","er03rl18","0","21","1","1","1","1","1494","","","","","pos","GS","GSnew","2","category2/GS1.png","targets/32.png","","direct","","48"
"","image-slider-response","314","647400","0.0-12.0-0.30","goa5xb993y","many_one","0","indirect_first","0","er03rl18","0","21","1","1","1","1","1768","","","","","neg","CS","CS","3","category3/CS7.png","targets/33.png","","direct","","-44"
"","image-slider-response","315","648896","0.0-12.0-0.31","goa5xb993y","many_one","0","indirect_first","0","er03rl18","0","21","1","1","1","1","1496","","","","","pos","GS","GSnew","4","category4/GS3.png","targets/46.png","","direct","","-24"
"","image-slider-response","316","651240","0.0-12.0-0.32","goa5xb993y","many_one","0","indirect_first","0","er03rl18","0","21","1","1","1","1","2343","","","","","neg","GS","GSnew","3","category3/GS1.png","targets/10.png","","direct","","-20"
"","image-slider-response","317","653312","0.0-12.0-0.33","goa5xb993y","many_one","0","indirect_first","0","er03rl18","0","21","1","1","1","1","2070","","","","","pos","CS","CS","2","category2/CS3.png","targets/48.png","","direct","","34"
"","image-slider-response","318","655672","0.0-12.0-0.34","goa5xb993y","many_one","0","indirect_first","0","er03rl18","0","21","1","1","1","1","2358","","","","","pos","CS","CS","2","category2/CS5.png","targets/1.png","","direct","","40"
"","image-slider-response","319","657544","0.0-12.0-0.35","goa5xb993y","many_one","0","indirect_first","0","er03rl18","0","21","1","1","1","1","1870","","","","","pos","CS","CS","4","category4/CS10.png","targets/42.png","","direct","","38"
"","image-slider-response","320","659681","0.0-12.0-0.36","goa5xb993y","many_one","0","indirect_first","0","er03rl18","0","21","1","1","1","1","2135","","","","","pos","GS","abstract","2","category2/men.png","targets/43.png","","direct","","44"
"","image-slider-response","321","661680","0.0-12.0-0.37","goa5xb993y","many_one","0","indirect_first","0","er03rl18","0","21","1","1","1","1","1999","","","","","pos","GS","GSold","2","category2/CS10.png","targets/45.png","","direct","","41"
"","image-slider-response","322","663472","0.0-12.0-0.38","goa5xb993y","many_one","0","indirect_first","0","er03rl18","0","21","1","1","1","1","1791","","","","","pos","CS","CS","2","category2/CS7.png","targets/41.png","","direct","","38"
"","image-slider-response","323","665145","0.0-12.0-0.39","goa5xb993y","many_one","0","indirect_first","0","er03rl18","0","21","1","1","1","1","1671","","","","","neg","GS","GSnew","1","category1/GS1.png","targets/5.png","","direct","","32"
"","image-slider-response","324","666481","0.0-12.0-0.40","goa5xb993y","many_one","0","indirect_first","0","er03rl18","0","21","1","1","1","1","1335","","","","","pos","GS","GSold","4","category4/CS9.png","targets/35.png","","direct","","29"
"","image-slider-response","325","667872","0.0-12.0-0.41","goa5xb993y","many_one","0","indirect_first","0","er03rl18","0","21","1","1","1","1","1390","","","","","pos","GS","GSold","2","category2/CS1.png","targets/38.png","","direct","","30"
"","image-slider-response","326","670112","0.0-12.0-0.42","goa5xb993y","many_one","0","indirect_first","0","er03rl18","0","21","1","1","1","1","2239","","","","","pos","GS","GSnew","2","category2/GS3.png","targets/12.png","","direct","","43"
"","image-slider-response","327","671912","0.0-12.0-0.43","goa5xb993y","many_one","0","indirect_first","0","er03rl18","0","21","1","1","1","1","1798","","","","","neg","CS","CS","1","category1/CS4.png","targets/37.png","","direct","","-29"
"","image-slider-response","328","673632","0.0-12.0-0.44","goa5xb993y","many_one","0","indirect_first","0","er03rl18","0","21","1","1","1","1","1719","","","","","neg","CS","CS","1","category1/CS5.png","targets/17.png","","direct","","-31"
"","image-slider-response","329","676320","0.0-12.0-0.45","goa5xb993y","many_one","0","indirect_first","0","er03rl18","0","21","1","1","1","1","2687","","","","","neg","CS","CS","1","category1/CS2.png","targets/44.png","","direct","","-18"
"","image-slider-response","330","677912","0.0-12.0-0.46","goa5xb993y","many_one","0","indirect_first","0","er03rl18","0","21","1","1","1","1","1590","","","","","pos","GS","GSnew","4","category4/GS2.png","targets/26.png","","direct","","-9"
"","image-slider-response","331","679785","0.0-12.0-0.47","goa5xb993y","many_one","0","indirect_first","0","er03rl18","0","21","1","1","1","1","1872","","","","","neg","GS","GSold","3","category3/CS1.png","targets/9.png","","direct","","-31"
"","survey-html-form","332","685825","0.0-13.0","goa5xb993y","many_one","0","indirect_first","0","er03rl18","0","21","1","1","1","1","6039","","{}","","","","","","","","","","","",""
"","image-slider-response","333","692360","0.0-14.0-0.0","goa5xb993y","many_one","0","indirect_first","0","er03rl18","0","21","1","1","1","1","5518","","","","","pos","All","all","4","category4/lin_all.png","","","all","","9"
"","image-slider-response","334","695800","0.0-14.0-0.1","goa5xb993y","many_one","0","indirect_first","0","er03rl18","0","21","1","1","1","1","3439","","","","","pos","All","all","2","category2/men_all.png","","","all","","53"
"","image-slider-response","335","698200","0.0-14.0-0.2","goa5xb993y","many_one","0","indirect_first","0","er03rl18","0","21","1","1","1","1","2398","","","","","neg","All","all","1","category1/ma_all.png","","","all","","-16"
"","image-slider-response","336","702712","0.0-14.0-0.3","goa5xb993y","many_one","0","indirect_first","0","er03rl18","0","21","1","1","1","1","4510","","","","","neg","All","all","3","category3/wang_all.png","","","all","","-10"
"","survey-text","337","708506","0.0-15.0","goa5xb993y","many_one","0","indirect_first","0","er03rl18","0","21","1","1","1","1","5790","","{""Q0"":""""}","","","","","","","","","","","",""
