"success","trial_type","trial_index","time_elapsed","internal_node_id","subject","condition","condition_code","measure","measure_code","codeword","gender","age","education","chinese","fach","handedness","comment","hinschauen","ablenkung","gewissenhaft","rt","url","responses","stimulus","key_press","val","type","type_specific","category","cs_selected","response","target","task","indirect","nr_pres"
"true","fullscreen","0","16813","0.0-0.0","n9og5lt5ya","one_one","1","direct_first","1","ue07st21","0","24","1","1","3","2","","0","1","0","","","","","","","","","","","","","","",""
"","external-html","1","117659","0.0-1.0","n9og5lt5ya","one_one","1","direct_first","1","ue07st21","0","24","1","1","3","2","","0","1","0","100728.85999991558","text/information.html","","","","","","","","","","","","",""
"","external-html","2","189904","0.0-2.0","n9og5lt5ya","one_one","1","direct_first","1","ue07st21","0","24","1","1","3","2","","0","1","0","72084.19000008143","text/consent.html","","","","","","","","","","","","",""
"","survey-html-form","3","281525","0.0-3.0","n9og5lt5ya","one_one","1","direct_first","1","ue07st21","0","24","1","1","3","2","","0","1","0","91616.46499997005","","{""codeword_enter"":""ue07st21""}","","","","","","","","","","","",""
"","survey-html-form","4","304306","0.0-4.0","n9og5lt5ya","one_one","1","direct_first","1","ue07st21","0","24","1","1","3","2","","0","1","0","22775.27999994345","","{""age"":""24"",""education"":""1"",""subject"":""3"",""gender"":""0"",""handedness"":""2"",""chinese"":""1""}","","","","","","","","","","","",""
"","survey-html-form","5","323825","0.0-5.0","n9og5lt5ya","one_one","1","direct_first","1","ue07st21","0","24","1","1","3","2","","0","1","0","19515.485000098124","","{}","","","","","","","","","","","",""
"","html-keyboard-response","6","327840","0.0-6.0-0.0-0.0","n9og5lt5ya","one_one","1","direct_first","1","ue07st21","0","24","1","1","3","2","","0","1","0","null","","","<div class = 'row'><div class = 'column'><img src = 'category4/CS6.png' width = '70%;'></div><div class = 'column'><img src = 'uspos/8490.bmp' width = '100%;'></div></div>","null","pos","CS","CS","4","category4/CS6.png","","","","",""
"","html-keyboard-response","7","330357","0.0-6.0-0.0-0.1","n9og5lt5ya","one_one","1","direct_first","1","ue07st21","0","24","1","1","3","2","","0","1","0","null","","","<div class = 'row'><div class = 'column'><img src = 'usneg/3181.bmp' width = '100%;'></div><div class = 'column'><img src = 'category3/CS8.png' width = '70%;'></div></div>","null","neg","CS","CS","3","category3/CS8.png","","","","",""
"","html-keyboard-response","8","332876","0.0-6.0-0.0-0.2","n9og5lt5ya","one_one","1","direct_first","1","ue07st21","0","24","1","1","3","2","","0","1","0","null","","","<div class = 'row'><div class = 'column'><img src = 'uspos/5830.bmp' width = '100%;'></div><div class = 'column'><img src = 'category2/CS9.png' width = '70%;'></div></div>","null","pos","CS","CS","2","category2/CS9.png","","","","",""
"","html-keyboard-response","9","335397","0.0-6.0-0.0-0.3","n9og5lt5ya","one_one","1","direct_first","1","ue07st21","0","24","1","1","3","2","","0","1","0","null","","","<div class = 'row'><div class = 'column'><img src = 'usneg/9220.bmp' width = '100%;'></div><div class = 'column'><img src = 'category1/CS5.png' width = '70%;'></div></div>","null","neg","CS","CS","1","category1/CS5.png","","","","",""
"","html-keyboard-response","10","337906","0.0-6.0-0.0-0.4","n9og5lt5ya","one_one","1","direct_first","1","ue07st21","0","24","1","1","3","2","","0","1","0","null","","","<div class = 'row'><div class = 'column'><img src = 'category3/CS8.png' width = '70%;'></div><div class = 'column'><img src = 'usneg/3181.bmp' width = '100%;'></div></div>","null","neg","CS","CS","3","category3/CS8.png","","","","",""
"","html-keyboard-response","11","340422","0.0-6.0-0.0-0.5","n9og5lt5ya","one_one","1","direct_first","1","ue07st21","0","24","1","1","3","2","","0","1","0","null","","","<div class = 'row'><div class = 'column'><img src = 'category4/CS6.png' width = '70%;'></div><div class = 'column'><img src = 'uspos/8490.bmp' width = '100%;'></div></div>","null","pos","CS","CS","4","category4/CS6.png","","","","",""
"","html-keyboard-response","12","342940","0.0-6.0-0.0-0.6","n9og5lt5ya","one_one","1","direct_first","1","ue07st21","0","24","1","1","3","2","","0","1","0","null","","","<div class = 'row'><div class = 'column'><img src = 'category2/CS9.png' width = '70%;'></div><div class = 'column'><img src = 'uspos/5830.bmp' width = '100%;'></div></div>","null","pos","CS","CS","2","category2/CS9.png","","","","",""
"","html-keyboard-response","13","345467","0.0-6.0-0.0-0.7","n9og5lt5ya","one_one","1","direct_first","1","ue07st21","0","24","1","1","3","2","","0","1","0","null","","","<div class = 'row'><div class = 'column'><img src = 'usneg/3181.bmp' width = '100%;'></div><div class = 'column'><img src = 'category3/CS8.png' width = '70%;'></div></div>","null","neg","CS","CS","3","category3/CS8.png","","","","",""
"","html-keyboard-response","14","347994","0.0-6.0-0.0-0.8","n9og5lt5ya","one_one","1","direct_first","1","ue07st21","0","24","1","1","3","2","","0","1","0","null","","","<div class = 'row'><div class = 'column'><img src = 'uspos/5830.bmp' width = '100%;'></div><div class = 'column'><img src = 'category2/CS9.png' width = '70%;'></div></div>","null","pos","CS","CS","2","category2/CS9.png","","","","",""
"","html-keyboard-response","15","350521","0.0-6.0-0.0-0.9","n9og5lt5ya","one_one","1","direct_first","1","ue07st21","0","24","1","1","3","2","","0","1","0","null","","","<div class = 'row'><div class = 'column'><img src = 'usneg/3181.bmp' width = '100%;'></div><div class = 'column'><img src = 'category3/CS8.png' width = '70%;'></div></div>","null","neg","CS","CS","3","category3/CS8.png","","","","",""
"","html-keyboard-response","16","353054","0.0-6.0-0.0-0.10","n9og5lt5ya","one_one","1","direct_first","1","ue07st21","0","24","1","1","3","2","","0","1","0","null","","","<div class = 'row'><div class = 'column'><img src = 'category1/CS5.png' width = '70%;'></div><div class = 'column'><img src = 'usneg/9220.bmp' width = '100%;'></div></div>","null","neg","CS","CS","1","category1/CS5.png","","","","",""
"","html-keyboard-response","17","355566","0.0-6.0-0.0-0.11","n9og5lt5ya","one_one","1","direct_first","1","ue07st21","0","24","1","1","3","2","","0","1","0","null","","","<div class = 'row'><div class = 'column'><img src = 'category4/CS6.png' width = '70%;'></div><div class = 'column'><img src = 'uspos/8490.bmp' width = '100%;'></div></div>","null","pos","CS","CS","4","category4/CS6.png","","","","",""
"","html-keyboard-response","18","358085","0.0-6.0-0.0-0.12","n9og5lt5ya","one_one","1","direct_first","1","ue07st21","0","24","1","1","3","2","","0","1","0","null","","","<div class = 'row'><div class = 'column'><img src = 'category2/CS9.png' width = '70%;'></div><div class = 'column'><img src = 'uspos/5830.bmp' width = '100%;'></div></div>","null","pos","CS","CS","2","category2/CS9.png","","","","",""
"","html-keyboard-response","19","360608","0.0-6.0-0.0-0.13","n9og5lt5ya","one_one","1","direct_first","1","ue07st21","0","24","1","1","3","2","","0","1","0","null","","","<div class = 'row'><div class = 'column'><img src = 'usneg/9220.bmp' width = '100%;'></div><div class = 'column'><img src = 'category1/CS5.png' width = '70%;'></div></div>","null","neg","CS","CS","1","category1/CS5.png","","","","",""
"","html-keyboard-response","20","363137","0.0-6.0-0.0-0.14","n9og5lt5ya","one_one","1","direct_first","1","ue07st21","0","24","1","1","3","2","","0","1","0","null","","","<div class = 'row'><div class = 'column'><img src = 'category3/CS8.png' width = '70%;'></div><div class = 'column'><img src = 'usneg/3181.bmp' width = '100%;'></div></div>","null","neg","CS","CS","3","category3/CS8.png","","","","",""
"","html-keyboard-response","21","365666","0.0-6.0-0.0-0.15","n9og5lt5ya","one_one","1","direct_first","1","ue07st21","0","24","1","1","3","2","","0","1","0","null","","","<div class = 'row'><div class = 'column'><img src = 'category4/CS6.png' width = '70%;'></div><div class = 'column'><img src = 'uspos/8490.bmp' width = '100%;'></div></div>","null","pos","CS","CS","4","category4/CS6.png","","","","",""
"","html-keyboard-response","22","368194","0.0-6.0-0.0-0.16","n9og5lt5ya","one_one","1","direct_first","1","ue07st21","0","24","1","1","3","2","","0","1","0","null","","","<div class = 'row'><div class = 'column'><img src = 'category1/CS5.png' width = '70%;'></div><div class = 'column'><img src = 'usneg/9220.bmp' width = '100%;'></div></div>","null","neg","CS","CS","1","category1/CS5.png","","","","",""
"","html-keyboard-response","23","370711","0.0-6.0-0.0-0.17","n9og5lt5ya","one_one","1","direct_first","1","ue07st21","0","24","1","1","3","2","","0","1","0","null","","","<div class = 'row'><div class = 'column'><img src = 'uspos/8490.bmp' width = '100%;'></div><div class = 'column'><img src = 'category4/CS6.png' width = '70%;'></div></div>","null","pos","CS","CS","4","category4/CS6.png","","","","",""
"","html-keyboard-response","24","373236","0.0-6.0-0.0-0.18","n9og5lt5ya","one_one","1","direct_first","1","ue07st21","0","24","1","1","3","2","","0","1","0","null","","","<div class = 'row'><div class = 'column'><img src = 'category1/CS5.png' width = '70%;'></div><div class = 'column'><img src = 'usneg/9220.bmp' width = '100%;'></div></div>","null","neg","CS","CS","1","category1/CS5.png","","","","",""
"","html-keyboard-response","25","375756","0.0-6.0-0.0-0.19","n9og5lt5ya","one_one","1","direct_first","1","ue07st21","0","24","1","1","3","2","","0","1","0","null","","","<div class = 'row'><div class = 'column'><img src = 'category2/CS9.png' width = '70%;'></div><div class = 'column'><img src = 'uspos/5830.bmp' width = '100%;'></div></div>","null","pos","CS","CS","2","category2/CS9.png","","","","",""
"","survey-html-form","26","386088","0.0-6.0-1.0","n9og5lt5ya","one_one","1","direct_first","1","ue07st21","0","24","1","1","3","2","","0","1","0","9815.204999875277","","{}","","","","","","","","","","","",""
"","html-keyboard-response","27","390115","0.0-6.0-2.0-0.0","n9og5lt5ya","one_one","1","direct_first","1","ue07st21","0","24","1","1","3","2","","0","1","0","null","","","<div class = 'row'><div class = 'column'><img src = 'category1/CS5.png' width = '70%;'></div><div class = 'column'><img src = 'usneg/9220.bmp' width = '100%;'></div></div>","null","neg","CS","CS","1","category1/CS5.png","","","","",""
"","html-keyboard-response","28","392635","0.0-6.0-2.0-0.1","n9og5lt5ya","one_one","1","direct_first","1","ue07st21","0","24","1","1","3","2","","0","1","0","null","","","<div class = 'row'><div class = 'column'><img src = 'usneg/3181.bmp' width = '100%;'></div><div class = 'column'><img src = 'category3/CS8.png' width = '70%;'></div></div>","null","neg","CS","CS","3","category3/CS8.png","","","","",""
"","html-keyboard-response","29","395167","0.0-6.0-2.0-0.2","n9og5lt5ya","one_one","1","direct_first","1","ue07st21","0","24","1","1","3","2","","0","1","0","null","","","<div class = 'row'><div class = 'column'><img src = 'category2/CS9.png' width = '70%;'></div><div class = 'column'><img src = 'uspos/5830.bmp' width = '100%;'></div></div>","null","pos","CS","CS","2","category2/CS9.png","","","","",""
"","html-keyboard-response","30","397692","0.0-6.0-2.0-0.3","n9og5lt5ya","one_one","1","direct_first","1","ue07st21","0","24","1","1","3","2","","0","1","0","null","","","<div class = 'row'><div class = 'column'><img src = 'usneg/9220.bmp' width = '100%;'></div><div class = 'column'><img src = 'category1/CS5.png' width = '70%;'></div></div>","null","neg","CS","CS","1","category1/CS5.png","","","","",""
"","html-keyboard-response","31","400220","0.0-6.0-2.0-0.4","n9og5lt5ya","one_one","1","direct_first","1","ue07st21","0","24","1","1","3","2","","0","1","0","null","","","<div class = 'row'><div class = 'column'><img src = 'category4/CS6.png' width = '70%;'></div><div class = 'column'><img src = 'uspos/8490.bmp' width = '100%;'></div></div>","null","pos","CS","CS","4","category4/CS6.png","","","","",""
"","html-keyboard-response","32","402738","0.0-6.0-2.0-0.5","n9og5lt5ya","one_one","1","direct_first","1","ue07st21","0","24","1","1","3","2","","0","1","0","null","","","<div class = 'row'><div class = 'column'><img src = 'usneg/9220.bmp' width = '100%;'></div><div class = 'column'><img src = 'category1/CS5.png' width = '70%;'></div></div>","null","neg","CS","CS","1","category1/CS5.png","","","","",""
"","html-keyboard-response","33","405253","0.0-6.0-2.0-0.6","n9og5lt5ya","one_one","1","direct_first","1","ue07st21","0","24","1","1","3","2","","0","1","0","null","","","<div class = 'row'><div class = 'column'><img src = 'usneg/3181.bmp' width = '100%;'></div><div class = 'column'><img src = 'category3/CS8.png' width = '70%;'></div></div>","null","neg","CS","CS","3","category3/CS8.png","","","","",""
"","html-keyboard-response","34","407778","0.0-6.0-2.0-0.7","n9og5lt5ya","one_one","1","direct_first","1","ue07st21","0","24","1","1","3","2","","0","1","0","null","","","<div class = 'row'><div class = 'column'><img src = 'uspos/8490.bmp' width = '100%;'></div><div class = 'column'><img src = 'category4/CS6.png' width = '70%;'></div></div>","null","pos","CS","CS","4","category4/CS6.png","","","","",""
"","html-keyboard-response","35","410303","0.0-6.0-2.0-0.8","n9og5lt5ya","one_one","1","direct_first","1","ue07st21","0","24","1","1","3","2","","0","1","0","null","","","<div class = 'row'><div class = 'column'><img src = 'uspos/5830.bmp' width = '100%;'></div><div class = 'column'><img src = 'category2/CS9.png' width = '70%;'></div></div>","null","pos","CS","CS","2","category2/CS9.png","","","","",""
"","html-keyboard-response","36","412831","0.0-6.0-2.0-0.9","n9og5lt5ya","one_one","1","direct_first","1","ue07st21","0","24","1","1","3","2","","0","1","0","null","","","<div class = 'row'><div class = 'column'><img src = 'category1/CS5.png' width = '70%;'></div><div class = 'column'><img src = 'usneg/9220.bmp' width = '100%;'></div></div>","null","neg","CS","CS","1","category1/CS5.png","","","","",""
"","html-keyboard-response","37","415343","0.0-6.0-2.0-0.10","n9og5lt5ya","one_one","1","direct_first","1","ue07st21","0","24","1","1","3","2","","0","1","0","null","","","<div class = 'row'><div class = 'column'><img src = 'uspos/5830.bmp' width = '100%;'></div><div class = 'column'><img src = 'category2/CS9.png' width = '70%;'></div></div>","null","pos","CS","CS","2","category2/CS9.png","","","","",""
"","html-keyboard-response","38","417859","0.0-6.0-2.0-0.11","n9og5lt5ya","one_one","1","direct_first","1","ue07st21","0","24","1","1","3","2","","0","1","0","null","","","<div class = 'row'><div class = 'column'><img src = 'uspos/8490.bmp' width = '100%;'></div><div class = 'column'><img src = 'category4/CS6.png' width = '70%;'></div></div>","null","pos","CS","CS","4","category4/CS6.png","","","","",""
"","html-keyboard-response","39","420382","0.0-6.0-2.0-0.12","n9og5lt5ya","one_one","1","direct_first","1","ue07st21","0","24","1","1","3","2","","0","1","0","null","","","<div class = 'row'><div class = 'column'><img src = 'uspos/5830.bmp' width = '100%;'></div><div class = 'column'><img src = 'category2/CS9.png' width = '70%;'></div></div>","null","pos","CS","CS","2","category2/CS9.png","","","","",""
"","html-keyboard-response","40","422903","0.0-6.0-2.0-0.13","n9og5lt5ya","one_one","1","direct_first","1","ue07st21","0","24","1","1","3","2","","0","1","0","null","","","<div class = 'row'><div class = 'column'><img src = 'category4/CS6.png' width = '70%;'></div><div class = 'column'><img src = 'uspos/8490.bmp' width = '100%;'></div></div>","null","pos","CS","CS","4","category4/CS6.png","","","","",""
"","html-keyboard-response","41","425431","0.0-6.0-2.0-0.14","n9og5lt5ya","one_one","1","direct_first","1","ue07st21","0","24","1","1","3","2","","0","1","0","null","","","<div class = 'row'><div class = 'column'><img src = 'usneg/3181.bmp' width = '100%;'></div><div class = 'column'><img src = 'category3/CS8.png' width = '70%;'></div></div>","null","neg","CS","CS","3","category3/CS8.png","","","","",""
"","html-keyboard-response","42","427951","0.0-6.0-2.0-0.15","n9og5lt5ya","one_one","1","direct_first","1","ue07st21","0","24","1","1","3","2","","0","1","0","null","","","<div class = 'row'><div class = 'column'><img src = 'category1/CS5.png' width = '70%;'></div><div class = 'column'><img src = 'usneg/9220.bmp' width = '100%;'></div></div>","null","neg","CS","CS","1","category1/CS5.png","","","","",""
"","html-keyboard-response","43","430472","0.0-6.0-2.0-0.16","n9og5lt5ya","one_one","1","direct_first","1","ue07st21","0","24","1","1","3","2","","0","1","0","null","","","<div class = 'row'><div class = 'column'><img src = 'category2/CS9.png' width = '70%;'></div><div class = 'column'><img src = 'uspos/5830.bmp' width = '100%;'></div></div>","null","pos","CS","CS","2","category2/CS9.png","","","","",""
"","html-keyboard-response","44","432994","0.0-6.0-2.0-0.17","n9og5lt5ya","one_one","1","direct_first","1","ue07st21","0","24","1","1","3","2","","0","1","0","null","","","<div class = 'row'><div class = 'column'><img src = 'category3/CS8.png' width = '70%;'></div><div class = 'column'><img src = 'usneg/3181.bmp' width = '100%;'></div></div>","null","neg","CS","CS","3","category3/CS8.png","","","","",""
"","html-keyboard-response","45","435508","0.0-6.0-2.0-0.18","n9og5lt5ya","one_one","1","direct_first","1","ue07st21","0","24","1","1","3","2","","0","1","0","null","","","<div class = 'row'><div class = 'column'><img src = 'category4/CS6.png' width = '70%;'></div><div class = 'column'><img src = 'uspos/8490.bmp' width = '100%;'></div></div>","null","pos","CS","CS","4","category4/CS6.png","","","","",""
"","html-keyboard-response","46","438038","0.0-6.0-2.0-0.19","n9og5lt5ya","one_one","1","direct_first","1","ue07st21","0","24","1","1","3","2","","0","1","0","null","","","<div class = 'row'><div class = 'column'><img src = 'category3/CS8.png' width = '70%;'></div><div class = 'column'><img src = 'usneg/3181.bmp' width = '100%;'></div></div>","null","neg","CS","CS","3","category3/CS8.png","","","","",""
"","survey-html-form","47","458914","0.0-6.0-3.0","n9og5lt5ya","one_one","1","direct_first","1","ue07st21","0","24","1","1","3","2","","0","1","0","20359.41999987699","","{}","","","","","","","","","","","",""
"","html-keyboard-response","48","462932","0.0-6.0-4.0-0.0","n9og5lt5ya","one_one","1","direct_first","1","ue07st21","0","24","1","1","3","2","","0","1","0","null","","","<div class = 'row'><div class = 'column'><img src = 'category1/CS5.png' width = '70%;'></div><div class = 'column'><img src = 'usneg/9220.bmp' width = '100%;'></div></div>","null","neg","CS","CS","1","category1/CS5.png","","","","",""
"","html-keyboard-response","49","465449","0.0-6.0-4.0-0.1","n9og5lt5ya","one_one","1","direct_first","1","ue07st21","0","24","1","1","3","2","","0","1","0","null","","","<div class = 'row'><div class = 'column'><img src = 'uspos/5830.bmp' width = '100%;'></div><div class = 'column'><img src = 'category2/CS9.png' width = '70%;'></div></div>","null","pos","CS","CS","2","category2/CS9.png","","","","",""
"","html-keyboard-response","50","467975","0.0-6.0-4.0-0.2","n9og5lt5ya","one_one","1","direct_first","1","ue07st21","0","24","1","1","3","2","","0","1","0","null","","","<div class = 'row'><div class = 'column'><img src = 'usneg/9220.bmp' width = '100%;'></div><div class = 'column'><img src = 'category1/CS5.png' width = '70%;'></div></div>","null","neg","CS","CS","1","category1/CS5.png","","","","",""
"","html-keyboard-response","51","470495","0.0-6.0-4.0-0.3","n9og5lt5ya","one_one","1","direct_first","1","ue07st21","0","24","1","1","3","2","","0","1","0","null","","","<div class = 'row'><div class = 'column'><img src = 'uspos/5830.bmp' width = '100%;'></div><div class = 'column'><img src = 'category2/CS9.png' width = '70%;'></div></div>","null","pos","CS","CS","2","category2/CS9.png","","","","",""
"","html-keyboard-response","52","473018","0.0-6.0-4.0-0.4","n9og5lt5ya","one_one","1","direct_first","1","ue07st21","0","24","1","1","3","2","","0","1","0","null","","","<div class = 'row'><div class = 'column'><img src = 'category4/CS6.png' width = '70%;'></div><div class = 'column'><img src = 'uspos/8490.bmp' width = '100%;'></div></div>","null","pos","CS","CS","4","category4/CS6.png","","","","",""
"","html-keyboard-response","53","475539","0.0-6.0-4.0-0.5","n9og5lt5ya","one_one","1","direct_first","1","ue07st21","0","24","1","1","3","2","","0","1","0","null","","","<div class = 'row'><div class = 'column'><img src = 'category1/CS5.png' width = '70%;'></div><div class = 'column'><img src = 'usneg/9220.bmp' width = '100%;'></div></div>","null","neg","CS","CS","1","category1/CS5.png","","","","",""
"","html-keyboard-response","54","478068","0.0-6.0-4.0-0.6","n9og5lt5ya","one_one","1","direct_first","1","ue07st21","0","24","1","1","3","2","","0","1","0","null","","","<div class = 'row'><div class = 'column'><img src = 'usneg/3181.bmp' width = '100%;'></div><div class = 'column'><img src = 'category3/CS8.png' width = '70%;'></div></div>","null","neg","CS","CS","3","category3/CS8.png","","","","",""
"","html-keyboard-response","55","480586","0.0-6.0-4.0-0.7","n9og5lt5ya","one_one","1","direct_first","1","ue07st21","0","24","1","1","3","2","","0","1","0","null","","","<div class = 'row'><div class = 'column'><img src = 'uspos/5830.bmp' width = '100%;'></div><div class = 'column'><img src = 'category2/CS9.png' width = '70%;'></div></div>","null","pos","CS","CS","2","category2/CS9.png","","","","",""
"","html-keyboard-response","56","483106","0.0-6.0-4.0-0.8","n9og5lt5ya","one_one","1","direct_first","1","ue07st21","0","24","1","1","3","2","","0","1","0","null","","","<div class = 'row'><div class = 'column'><img src = 'category3/CS8.png' width = '70%;'></div><div class = 'column'><img src = 'usneg/3181.bmp' width = '100%;'></div></div>","null","neg","CS","CS","3","category3/CS8.png","","","","",""
"","html-keyboard-response","57","485640","0.0-6.0-4.0-0.9","n9og5lt5ya","one_one","1","direct_first","1","ue07st21","0","24","1","1","3","2","","0","1","0","null","","","<div class = 'row'><div class = 'column'><img src = 'category4/CS6.png' width = '70%;'></div><div class = 'column'><img src = 'uspos/8490.bmp' width = '100%;'></div></div>","null","pos","CS","CS","4","category4/CS6.png","","","","",""
"","html-keyboard-response","58","488156","0.0-6.0-4.0-0.10","n9og5lt5ya","one_one","1","direct_first","1","ue07st21","0","24","1","1","3","2","","0","1","0","null","","","<div class = 'row'><div class = 'column'><img src = 'category1/CS5.png' width = '70%;'></div><div class = 'column'><img src = 'usneg/9220.bmp' width = '100%;'></div></div>","null","neg","CS","CS","1","category1/CS5.png","","","","",""
"","html-keyboard-response","59","490670","0.0-6.0-4.0-0.11","n9og5lt5ya","one_one","1","direct_first","1","ue07st21","0","24","1","1","3","2","","0","1","0","null","","","<div class = 'row'><div class = 'column'><img src = 'uspos/8490.bmp' width = '100%;'></div><div class = 'column'><img src = 'category4/CS6.png' width = '70%;'></div></div>","null","pos","CS","CS","4","category4/CS6.png","","","","",""
"","html-keyboard-response","60","493187","0.0-6.0-4.0-0.12","n9og5lt5ya","one_one","1","direct_first","1","ue07st21","0","24","1","1","3","2","","0","1","0","null","","","<div class = 'row'><div class = 'column'><img src = 'category3/CS8.png' width = '70%;'></div><div class = 'column'><img src = 'usneg/3181.bmp' width = '100%;'></div></div>","null","neg","CS","CS","3","category3/CS8.png","","","","",""
"","html-keyboard-response","61","495691","0.0-6.0-4.0-0.13","n9og5lt5ya","one_one","1","direct_first","1","ue07st21","0","24","1","1","3","2","","0","1","0","null","","","<div class = 'row'><div class = 'column'><img src = 'category2/CS9.png' width = '70%;'></div><div class = 'column'><img src = 'uspos/5830.bmp' width = '100%;'></div></div>","null","pos","CS","CS","2","category2/CS9.png","","","","",""
"","html-keyboard-response","62","498200","0.0-6.0-4.0-0.14","n9og5lt5ya","one_one","1","direct_first","1","ue07st21","0","24","1","1","3","2","","0","1","0","null","","","<div class = 'row'><div class = 'column'><img src = 'uspos/8490.bmp' width = '100%;'></div><div class = 'column'><img src = 'category4/CS6.png' width = '70%;'></div></div>","null","pos","CS","CS","4","category4/CS6.png","","","","",""
"","html-keyboard-response","63","500731","0.0-6.0-4.0-0.15","n9og5lt5ya","one_one","1","direct_first","1","ue07st21","0","24","1","1","3","2","","0","1","0","null","","","<div class = 'row'><div class = 'column'><img src = 'usneg/3181.bmp' width = '100%;'></div><div class = 'column'><img src = 'category3/CS8.png' width = '70%;'></div></div>","null","neg","CS","CS","3","category3/CS8.png","","","","",""
"","html-keyboard-response","64","503249","0.0-6.0-4.0-0.16","n9og5lt5ya","one_one","1","direct_first","1","ue07st21","0","24","1","1","3","2","","0","1","0","null","","","<div class = 'row'><div class = 'column'><img src = 'uspos/5830.bmp' width = '100%;'></div><div class = 'column'><img src = 'category2/CS9.png' width = '70%;'></div></div>","null","pos","CS","CS","2","category2/CS9.png","","","","",""
"","html-keyboard-response","65","505773","0.0-6.0-4.0-0.17","n9og5lt5ya","one_one","1","direct_first","1","ue07st21","0","24","1","1","3","2","","0","1","0","null","","","<div class = 'row'><div class = 'column'><img src = 'usneg/9220.bmp' width = '100%;'></div><div class = 'column'><img src = 'category1/CS5.png' width = '70%;'></div></div>","null","neg","CS","CS","1","category1/CS5.png","","","","",""
"","html-keyboard-response","66","508289","0.0-6.0-4.0-0.18","n9og5lt5ya","one_one","1","direct_first","1","ue07st21","0","24","1","1","3","2","","0","1","0","null","","","<div class = 'row'><div class = 'column'><img src = 'category4/CS6.png' width = '70%;'></div><div class = 'column'><img src = 'uspos/8490.bmp' width = '100%;'></div></div>","null","pos","CS","CS","4","category4/CS6.png","","","","",""
"","html-keyboard-response","67","510808","0.0-6.0-4.0-0.19","n9og5lt5ya","one_one","1","direct_first","1","ue07st21","0","24","1","1","3","2","","0","1","0","null","","","<div class = 'row'><div class = 'column'><img src = 'category3/CS8.png' width = '70%;'></div><div class = 'column'><img src = 'usneg/3181.bmp' width = '100%;'></div></div>","null","neg","CS","CS","3","category3/CS8.png","","","","",""
"","survey-html-form","68","514242","0.0-6.0-5.0","n9og5lt5ya","one_one","1","direct_first","1","ue07st21","0","24","1","1","3","2","","0","1","0","2919.5700001437217","","{}","","","","","","","","","","","",""
"","html-keyboard-response","69","518268","0.0-6.0-6.0-0.0","n9og5lt5ya","one_one","1","direct_first","1","ue07st21","0","24","1","1","3","2","","0","1","0","null","","","<div class = 'row'><div class = 'column'><img src = 'category1/CS5.png' width = '70%;'></div><div class = 'column'><img src = 'usneg/9220.bmp' width = '100%;'></div></div>","null","neg","CS","CS","1","category1/CS5.png","","","","",""
"","html-keyboard-response","70","520786","0.0-6.0-6.0-0.1","n9og5lt5ya","one_one","1","direct_first","1","ue07st21","0","24","1","1","3","2","","0","1","0","null","","","<div class = 'row'><div class = 'column'><img src = 'category2/CS9.png' width = '70%;'></div><div class = 'column'><img src = 'uspos/5830.bmp' width = '100%;'></div></div>","null","pos","CS","CS","2","category2/CS9.png","","","","",""
"","html-keyboard-response","71","523294","0.0-6.0-6.0-0.2","n9og5lt5ya","one_one","1","direct_first","1","ue07st21","0","24","1","1","3","2","","0","1","0","null","","","<div class = 'row'><div class = 'column'><img src = 'usneg/9220.bmp' width = '100%;'></div><div class = 'column'><img src = 'category1/CS5.png' width = '70%;'></div></div>","null","neg","CS","CS","1","category1/CS5.png","","","","",""
"","html-keyboard-response","72","525806","0.0-6.0-6.0-0.3","n9og5lt5ya","one_one","1","direct_first","1","ue07st21","0","24","1","1","3","2","","0","1","0","null","","","<div class = 'row'><div class = 'column'><img src = 'uspos/8490.bmp' width = '100%;'></div><div class = 'column'><img src = 'category4/CS6.png' width = '70%;'></div></div>","null","pos","CS","CS","4","category4/CS6.png","","","","",""
"","html-keyboard-response","73","528333","0.0-6.0-6.0-0.4","n9og5lt5ya","one_one","1","direct_first","1","ue07st21","0","24","1","1","3","2","","0","1","0","null","","","<div class = 'row'><div class = 'column'><img src = 'category3/CS8.png' width = '70%;'></div><div class = 'column'><img src = 'usneg/3181.bmp' width = '100%;'></div></div>","null","neg","CS","CS","3","category3/CS8.png","","","","",""
"","html-keyboard-response","74","530839","0.0-6.0-6.0-0.5","n9og5lt5ya","one_one","1","direct_first","1","ue07st21","0","24","1","1","3","2","","0","1","0","null","","","<div class = 'row'><div class = 'column'><img src = 'usneg/9220.bmp' width = '100%;'></div><div class = 'column'><img src = 'category1/CS5.png' width = '70%;'></div></div>","null","neg","CS","CS","1","category1/CS5.png","","","","",""
"","html-keyboard-response","75","533366","0.0-6.0-6.0-0.6","n9og5lt5ya","one_one","1","direct_first","1","ue07st21","0","24","1","1","3","2","","0","1","0","null","","","<div class = 'row'><div class = 'column'><img src = 'category2/CS9.png' width = '70%;'></div><div class = 'column'><img src = 'uspos/5830.bmp' width = '100%;'></div></div>","null","pos","CS","CS","2","category2/CS9.png","","","","",""
"","html-keyboard-response","76","535890","0.0-6.0-6.0-0.7","n9og5lt5ya","one_one","1","direct_first","1","ue07st21","0","24","1","1","3","2","","0","1","0","null","","","<div class = 'row'><div class = 'column'><img src = 'category1/CS5.png' width = '70%;'></div><div class = 'column'><img src = 'usneg/9220.bmp' width = '100%;'></div></div>","null","neg","CS","CS","1","category1/CS5.png","","","","",""
"","html-keyboard-response","77","538418","0.0-6.0-6.0-0.8","n9og5lt5ya","one_one","1","direct_first","1","ue07st21","0","24","1","1","3","2","","0","1","0","null","","","<div class = 'row'><div class = 'column'><img src = 'category2/CS9.png' width = '70%;'></div><div class = 'column'><img src = 'uspos/5830.bmp' width = '100%;'></div></div>","null","pos","CS","CS","2","category2/CS9.png","","","","",""
"","html-keyboard-response","78","540924","0.0-6.0-6.0-0.9","n9og5lt5ya","one_one","1","direct_first","1","ue07st21","0","24","1","1","3","2","","0","1","0","null","","","<div class = 'row'><div class = 'column'><img src = 'uspos/8490.bmp' width = '100%;'></div><div class = 'column'><img src = 'category4/CS6.png' width = '70%;'></div></div>","null","pos","CS","CS","4","category4/CS6.png","","","","",""
"","html-keyboard-response","79","543440","0.0-6.0-6.0-0.10","n9og5lt5ya","one_one","1","direct_first","1","ue07st21","0","24","1","1","3","2","","0","1","0","null","","","<div class = 'row'><div class = 'column'><img src = 'category3/CS8.png' width = '70%;'></div><div class = 'column'><img src = 'usneg/3181.bmp' width = '100%;'></div></div>","null","neg","CS","CS","3","category3/CS8.png","","","","",""
"","html-keyboard-response","80","545957","0.0-6.0-6.0-0.11","n9og5lt5ya","one_one","1","direct_first","1","ue07st21","0","24","1","1","3","2","","0","1","0","null","","","<div class = 'row'><div class = 'column'><img src = 'category2/CS9.png' width = '70%;'></div><div class = 'column'><img src = 'uspos/5830.bmp' width = '100%;'></div></div>","null","pos","CS","CS","2","category2/CS9.png","","","","",""
"","html-keyboard-response","81","548490","0.0-6.0-6.0-0.12","n9og5lt5ya","one_one","1","direct_first","1","ue07st21","0","24","1","1","3","2","","0","1","0","null","","","<div class = 'row'><div class = 'column'><img src = 'usneg/3181.bmp' width = '100%;'></div><div class = 'column'><img src = 'category3/CS8.png' width = '70%;'></div></div>","null","neg","CS","CS","3","category3/CS8.png","","","","",""
"","html-keyboard-response","82","551008","0.0-6.0-6.0-0.13","n9og5lt5ya","one_one","1","direct_first","1","ue07st21","0","24","1","1","3","2","","0","1","0","null","","","<div class = 'row'><div class = 'column'><img src = 'usneg/9220.bmp' width = '100%;'></div><div class = 'column'><img src = 'category1/CS5.png' width = '70%;'></div></div>","null","neg","CS","CS","1","category1/CS5.png","","","","",""
"","html-keyboard-response","83","553533","0.0-6.0-6.0-0.14","n9og5lt5ya","one_one","1","direct_first","1","ue07st21","0","24","1","1","3","2","","0","1","0","null","","","<div class = 'row'><div class = 'column'><img src = 'category4/CS6.png' width = '70%;'></div><div class = 'column'><img src = 'uspos/8490.bmp' width = '100%;'></div></div>","null","pos","CS","CS","4","category4/CS6.png","","","","",""
"","html-keyboard-response","84","556066","0.0-6.0-6.0-0.15","n9og5lt5ya","one_one","1","direct_first","1","ue07st21","0","24","1","1","3","2","","0","1","0","null","","","<div class = 'row'><div class = 'column'><img src = 'uspos/5830.bmp' width = '100%;'></div><div class = 'column'><img src = 'category2/CS9.png' width = '70%;'></div></div>","null","pos","CS","CS","2","category2/CS9.png","","","","",""
"","html-keyboard-response","85","558594","0.0-6.0-6.0-0.16","n9og5lt5ya","one_one","1","direct_first","1","ue07st21","0","24","1","1","3","2","","0","1","0","null","","","<div class = 'row'><div class = 'column'><img src = 'uspos/8490.bmp' width = '100%;'></div><div class = 'column'><img src = 'category4/CS6.png' width = '70%;'></div></div>","null","pos","CS","CS","4","category4/CS6.png","","","","",""
"","html-keyboard-response","86","561125","0.0-6.0-6.0-0.17","n9og5lt5ya","one_one","1","direct_first","1","ue07st21","0","24","1","1","3","2","","0","1","0","null","","","<div class = 'row'><div class = 'column'><img src = 'usneg/3181.bmp' width = '100%;'></div><div class = 'column'><img src = 'category3/CS8.png' width = '70%;'></div></div>","null","neg","CS","CS","3","category3/CS8.png","","","","",""
"","html-keyboard-response","87","563650","0.0-6.0-6.0-0.18","n9og5lt5ya","one_one","1","direct_first","1","ue07st21","0","24","1","1","3","2","","0","1","0","null","","","<div class = 'row'><div class = 'column'><img src = 'category4/CS6.png' width = '70%;'></div><div class = 'column'><img src = 'uspos/8490.bmp' width = '100%;'></div></div>","null","pos","CS","CS","4","category4/CS6.png","","","","",""
"","html-keyboard-response","88","566167","0.0-6.0-6.0-0.19","n9og5lt5ya","one_one","1","direct_first","1","ue07st21","0","24","1","1","3","2","","0","1","0","null","","","<div class = 'row'><div class = 'column'><img src = 'category3/CS8.png' width = '70%;'></div><div class = 'column'><img src = 'usneg/3181.bmp' width = '100%;'></div></div>","null","neg","CS","CS","3","category3/CS8.png","","","","",""
"","survey-html-form","89","572582","0.0-7.0","n9og5lt5ya","one_one","1","direct_first","1","ue07st21","0","24","1","1","3","2","","0","1","0","5912.394999992102","","{}","","","","","","","","","","","",""
"","image-slider-response","90","581154","0.0-8.0-0.0","n9og5lt5ya","one_one","1","direct_first","1","ue07st21","0","24","1","1","3","2","","0","1","0","6552.679999964312","","","","","pos","GS","GSnew","4","category4/GS2.png","-30","targets/23.png","direct","",""
"","image-slider-response","91","585500","0.0-8.0-0.1","n9og5lt5ya","one_one","1","direct_first","1","ue07st21","0","24","1","1","3","2","","0","1","0","4341.9850000645965","","","","","pos","CS","CS","2","category2/CS9.png","13","targets/40.png","direct","",""
"","image-slider-response","92","590635","0.0-8.0-0.2","n9og5lt5ya","one_one","1","direct_first","1","ue07st21","0","24","1","1","3","2","","0","1","0","5131.289999932051","","","","","pos","GS","GSnew","2","category2/GS3.png","-15","targets/39.png","direct","",""
"","image-slider-response","93","596370","0.0-8.0-0.3","n9og5lt5ya","one_one","1","direct_first","1","ue07st21","0","24","1","1","3","2","","0","1","0","5732.120000058785","","","","","pos","GS","abstract","4","category4/lin.png","12","targets/38.png","direct","",""
"","image-slider-response","94","599731","0.0-8.0-0.4","n9og5lt5ya","one_one","1","direct_first","1","ue07st21","0","24","1","1","3","2","","0","1","0","3357.9599999357015","","","","","neg","GS","GSold","1","category1/CS10.png","-44","targets/27.png","direct","",""
"","image-slider-response","95","603281","0.0-8.0-0.5","n9og5lt5ya","one_one","1","direct_first","1","ue07st21","0","24","1","1","3","2","","0","1","0","3546.8600001186132","","","","","neg","GS","GSold","3","category3/CS5.png","50","targets/4.png","direct","",""
"","image-slider-response","96","605950","0.0-8.0-0.6","n9og5lt5ya","one_one","1","direct_first","1","ue07st21","0","24","1","1","3","2","","0","1","0","2666.2049998994917","","","","","pos","GS","GSnew","2","category2/GS1.png","37","targets/35.png","direct","",""
"","image-slider-response","97","608799","0.0-8.0-0.7","n9og5lt5ya","one_one","1","direct_first","1","ue07st21","0","24","1","1","3","2","","0","1","0","2846.7350001446903","","","","","neg","GS","GSnew","3","category3/GS3.png","32","targets/43.png","direct","",""
"","image-slider-response","98","612160","0.0-8.0-0.8","n9og5lt5ya","one_one","1","direct_first","1","ue07st21","0","24","1","1","3","2","","0","1","0","3358.195000095293","","","","","pos","GS","GSold","4","category4/CS3.png","33","targets/34.png","direct","",""
"","image-slider-response","99","616776","0.0-8.0-0.9","n9og5lt5ya","one_one","1","direct_first","1","ue07st21","0","24","1","1","3","2","","0","1","0","4612.2950001154095","","","","","neg","GS","GSnew","1","category1/GS3.png","-37","targets/37.png","direct","",""
"","image-slider-response","100","619664","0.0-8.0-0.10","n9og5lt5ya","one_one","1","direct_first","1","ue07st21","0","24","1","1","3","2","","0","1","0","2885.6050001922995","","","","","neg","CS","CS","1","category1/CS5.png","-32","targets/15.png","direct","",""
"","image-slider-response","101","622245","0.0-8.0-0.11","n9og5lt5ya","one_one","1","direct_first","1","ue07st21","0","24","1","1","3","2","","0","1","0","2578.429999994114","","","","","neg","GS","GSold","1","category1/CS9.png","19","targets/29.png","direct","",""
"","image-slider-response","102","626011","0.0-8.0-0.12","n9og5lt5ya","one_one","1","direct_first","1","ue07st21","0","24","1","1","3","2","","0","1","0","3763.46500008367","","","","","neg","GS","GSnew","3","category3/GS1.png","20","targets/41.png","direct","",""
"","image-slider-response","103","628288","0.0-8.0-0.13","n9og5lt5ya","one_one","1","direct_first","1","ue07st21","0","24","1","1","3","2","","0","1","0","2274.320000084117","","","","","neg","GS","GSnew","1","category1/GS2.png","-30","targets/22.png","direct","",""
"","image-slider-response","104","631398","0.0-8.0-0.14","n9og5lt5ya","one_one","1","direct_first","1","ue07st21","0","24","1","1","3","2","","0","1","0","3107.645000098273","","","","","pos","GS","GSold","4","category4/CS7.png","10","targets/17.png","direct","",""
"","image-slider-response","105","633211","0.0-8.0-0.15","n9og5lt5ya","one_one","1","direct_first","1","ue07st21","0","24","1","1","3","2","","0","1","0","1809.6400001086295","","","","","pos","CS","CS","4","category4/CS6.png","21","targets/11.png","direct","",""
"","image-slider-response","106","635845","0.0-8.0-0.16","n9og5lt5ya","one_one","1","direct_first","1","ue07st21","0","24","1","1","3","2","","0","1","0","2631.2199998646975","","","","","pos","GS","GSnew","4","category4/GS1.png","54","targets/6.png","direct","",""
"","image-slider-response","107","638093","0.0-8.0-0.17","n9og5lt5ya","one_one","1","direct_first","1","ue07st21","0","24","1","1","3","2","","0","1","0","2245.7000000867993","","","","","neg","CS","CS","3","category3/CS8.png","34","targets/10.png","direct","",""
"","image-slider-response","108","641619","0.0-8.0-0.18","n9og5lt5ya","one_one","1","direct_first","1","ue07st21","0","24","1","1","3","2","","0","1","0","3524.4249999523163","","","","","pos","GS","GSold","4","category4/CS8.png","-23","targets/24.png","direct","",""
"","image-slider-response","109","644192","0.0-8.0-0.19","n9og5lt5ya","one_one","1","direct_first","1","ue07st21","0","24","1","1","3","2","","0","1","0","2569.395000115037","","","","","neg","GS","GSnew","3","category3/GS2.png","21","targets/14.png","direct","",""
"","image-slider-response","110","649483","0.0-8.0-0.20","n9og5lt5ya","one_one","1","direct_first","1","ue07st21","0","24","1","1","3","2","","0","1","0","5288.595000049099","","","","","neg","GS","GSnew","1","category1/GS1.png","-5","targets/33.png","direct","",""
"","image-slider-response","111","652116","0.0-8.0-0.21","n9og5lt5ya","one_one","1","direct_first","1","ue07st21","0","24","1","1","3","2","","0","1","0","2629.9049998633564","","","","","pos","GS","GSold","2","category2/CS7.png","31","targets/30.png","direct","",""
"","image-slider-response","112","656858","0.0-8.0-0.22","n9og5lt5ya","one_one","1","direct_first","1","ue07st21","0","24","1","1","3","2","","0","1","0","4739.804999902844","","","","","pos","GS","abstract","2","category2/men.png","-45","targets/31.png","direct","",""
"","image-slider-response","113","659876","0.0-8.0-0.23","n9og5lt5ya","one_one","1","direct_first","1","ue07st21","0","24","1","1","3","2","","0","1","0","3014.9449999444187","","","","","pos","GS","GSnew","2","category2/GS2.png","-19","targets/21.png","direct","",""
"","image-slider-response","114","661697","0.0-8.0-0.24","n9og5lt5ya","one_one","1","direct_first","1","ue07st21","0","24","1","1","3","2","","0","1","0","1818.2650001253933","","","","","neg","GS","GSold","3","category3/CS3.png","27","targets/16.png","direct","",""
"","image-slider-response","115","665399","0.0-8.0-0.25","n9og5lt5ya","one_one","1","direct_first","1","ue07st21","0","24","1","1","3","2","","0","1","0","3699.6999999973923","","","","","neg","GS","GSold","1","category1/CS2.png","-13","targets/8.png","direct","",""
"","image-slider-response","116","668160","0.0-8.0-0.26","n9og5lt5ya","one_one","1","direct_first","1","ue07st21","0","24","1","1","3","2","","0","1","0","2757.9850000329316","","","","","pos","GS","GSold","2","category2/CS4.png","23","targets/5.png","direct","",""
"","image-slider-response","117","671077","0.0-8.0-0.27","n9og5lt5ya","one_one","1","direct_first","1","ue07st21","0","24","1","1","3","2","","0","1","0","2914.5750000607222","","","","","neg","GS","GSold","3","category3/CS9.png","24","targets/26.png","direct","",""
"","image-slider-response","118","676300","0.0-8.0-0.28","n9og5lt5ya","one_one","1","direct_first","1","ue07st21","0","24","1","1","3","2","","0","1","0","5220.474999863654","","","","","neg","GS","abstract","3","category3/wang.png","60","targets/44.png","direct","",""
"","image-slider-response","119","678897","0.0-8.0-0.29","n9og5lt5ya","one_one","1","direct_first","1","ue07st21","0","24","1","1","3","2","","0","1","0","2593.1450000498444","","","","","pos","GS","GSold","2","category2/CS10.png","100","targets/18.png","direct","",""
"","image-slider-response","120","681070","0.0-8.0-0.30","n9og5lt5ya","one_one","1","direct_first","1","ue07st21","0","24","1","1","3","2","","0","1","0","2170.6099999137223","","","","","neg","GS","abstract","1","category1/ma.png","46","targets/25.png","direct","",""
"","image-slider-response","121","684069","0.0-8.0-0.31","n9og5lt5ya","one_one","1","direct_first","1","ue07st21","0","24","1","1","3","2","","0","1","0","2995.6150001380593","","","","","pos","GS","GSnew","4","category4/GS3.png","37","targets/46.png","direct","",""
"","html-keyboard-response","122","705747","0.0-9.0","n9og5lt5ya","one_one","1","direct_first","1","ue07st21","0","24","1","1","3","2","","0","1","0","21673.454999923706","","","<p>Sie sehen nun die chinesischen Zeichen nur ganz kurz. Danach sehen Sie die jeweilige Aussprache der Zeichen als Silbe auf dem Bildschrim. Ihre Aufgabe ist es, für jede Silbe anzugeben, ob diese etwas angenehmes, oder unangenehmes bedeuten könnte. Verlassen Sie sich hier vor allem auf Ihre Intuition.<br><br>Die Zeichen werden nur zur Orientierung dargestellt, beachten Sie sie deshalb nicht. Konzentrieren Sie sich vor allem auf die Silben. <br>Reagieren Sie mit folgenden zwei Tasten: <br><br><b>'D' </b> wenn die Silbe etwas <b>unangenehmes</b> bedeuten könnte. <br><b>'K'</b> wenn die Silbe etwas <b>angenehmes</b> bedeuten könnte. <br><br>Bitte legen Sie nun den Zeigefinger der linken Hand auf die Taste 'D' und den Zeigefinger der rechten Hand auf die Taste 'K'. <br>Reagieren Sie auf jede Silbe so schnell wie möglich. Uns interessiert Ihre spontane Reaktion. <br> <br> <br>Drücken Sie 'D' oder 'K', um die nächste Aufgabe zu starten. </p>","68","","","","","","","","","",""
"","html-keyboard-response","123","708767","0.0-10.0-0.0","n9og5lt5ya","one_one","1","direct_first","1","ue07st21","0","24","1","1","3","2","","0","1","0","null","","","<div style=""font-size:60px;"">+</div>","null","","","","","","","","","",""
"","html-keyboard-response","124","708875","0.0-10.0-1.0","n9og5lt5ya","one_one","1","direct_first","1","ue07st21","0","24","1","1","3","2","","0","1","0","null","","","<img src = 'category2/CS7.png' width = '100%;'>","null","","","","","","","","","",""
"","html-keyboard-response","125","709143","0.0-10.0-2.0","n9og5lt5ya","one_one","1","direct_first","1","ue07st21","0","24","1","1","3","2","","0","1","0","null","","","<img src = 'targets/30.png' width = '100%;'>","null","","","","","","","","","",""
"","html-keyboard-response","126","712369","0.0-10.0-3.0","n9og5lt5ya","one_one","1","direct_first","1","ue07st21","0","24","1","1","3","2","","0","1","0","3222.70999988541","","","<img src = 'targets/mask.png' width = '100%;'>","75","pos","GS","GSold","2","category2/CS7.png","","targets/30.png","indirect","1","0"
"","html-keyboard-response","127","713885","0.0-10.0-0.1","n9og5lt5ya","one_one","1","direct_first","1","ue07st21","0","24","1","1","3","2","","0","1","0","null","","","<div style=""font-size:60px;"">+</div>","null","","","","","","","","","",""
"","html-keyboard-response","128","713992","0.0-10.0-1.1","n9og5lt5ya","one_one","1","direct_first","1","ue07st21","0","24","1","1","3","2","","0","1","0","null","","","<img src = 'category2/CS10.png' width = '100%;'>","null","","","","","","","","","",""
"","html-keyboard-response","129","714258","0.0-10.0-2.1","n9og5lt5ya","one_one","1","direct_first","1","ue07st21","0","24","1","1","3","2","","0","1","0","null","","","<img src = 'targets/18.png' width = '100%;'>","null","","","","","","","","","",""
"","html-keyboard-response","130","717912","0.0-10.0-3.1","n9og5lt5ya","one_one","1","direct_first","1","ue07st21","0","24","1","1","3","2","","0","1","0","3650.2449999097735","","","<img src = 'targets/mask.png' width = '100%;'>","68","pos","GS","GSold","2","category2/CS10.png","","targets/18.png","indirect","0","1"
"","html-keyboard-response","131","719427","0.0-10.0-0.2","n9og5lt5ya","one_one","1","direct_first","1","ue07st21","0","24","1","1","3","2","","0","1","0","null","","","<div style=""font-size:60px;"">+</div>","null","","","","","","","","","",""
"","html-keyboard-response","132","719522","0.0-10.0-1.2","n9og5lt5ya","one_one","1","direct_first","1","ue07st21","0","24","1","1","3","2","","0","1","0","null","","","<img src = 'category1/CS10.png' width = '100%;'>","null","","","","","","","","","",""
"","html-keyboard-response","133","719804","0.0-10.0-2.2","n9og5lt5ya","one_one","1","direct_first","1","ue07st21","0","24","1","1","3","2","","0","1","0","null","","","<img src = 'targets/27.png' width = '100%;'>","null","","","","","","","","","",""
"","html-keyboard-response","134","722492","0.0-10.0-3.2","n9og5lt5ya","one_one","1","direct_first","1","ue07st21","0","24","1","1","3","2","","0","1","0","2683.1350000575185","","","<img src = 'targets/mask.png' width = '100%;'>","68","neg","GS","GSold","1","category1/CS10.png","","targets/27.png","indirect","0","2"
"","html-keyboard-response","135","724018","0.0-10.0-0.3","n9og5lt5ya","one_one","1","direct_first","1","ue07st21","0","24","1","1","3","2","","0","1","0","null","","","<div style=""font-size:60px;"">+</div>","null","","","","","","","","","",""
"","html-keyboard-response","136","724125","0.0-10.0-1.3","n9og5lt5ya","one_one","1","direct_first","1","ue07st21","0","24","1","1","3","2","","0","1","0","null","","","<img src = 'category1/CS9.png' width = '100%;'>","null","","","","","","","","","",""
"","html-keyboard-response","137","724406","0.0-10.0-2.3","n9og5lt5ya","one_one","1","direct_first","1","ue07st21","0","24","1","1","3","2","","0","1","0","null","","","<img src = 'targets/29.png' width = '100%;'>","null","","","","","","","","","",""
"","html-keyboard-response","138","727024","0.0-10.0-3.3","n9og5lt5ya","one_one","1","direct_first","1","ue07st21","0","24","1","1","3","2","","0","1","0","2614.6650000009686","","","<img src = 'targets/mask.png' width = '100%;'>","68","neg","GS","GSold","1","category1/CS9.png","","targets/29.png","indirect","0","3"
"","html-keyboard-response","139","728542","0.0-10.0-0.4","n9og5lt5ya","one_one","1","direct_first","1","ue07st21","0","24","1","1","3","2","","0","1","0","null","","","<div style=""font-size:60px;"">+</div>","null","","","","","","","","","",""
"","html-keyboard-response","140","728636","0.0-10.0-1.4","n9og5lt5ya","one_one","1","direct_first","1","ue07st21","0","24","1","1","3","2","","0","1","0","null","","","<img src = 'category1/CS5.png' width = '100%;'>","null","","","","","","","","","",""
"","html-keyboard-response","141","728904","0.0-10.0-2.4","n9og5lt5ya","one_one","1","direct_first","1","ue07st21","0","24","1","1","3","2","","0","1","0","null","","","<img src = 'targets/15.png' width = '100%;'>","null","","","","","","","","","",""
"","html-keyboard-response","142","730592","0.0-10.0-3.4","n9og5lt5ya","one_one","1","direct_first","1","ue07st21","0","24","1","1","3","2","","0","1","0","1685.3949998039752","","","<img src = 'targets/mask.png' width = '100%;'>","68","neg","CS","CS","1","category1/CS5.png","","targets/15.png","indirect","0","4"
"","html-keyboard-response","143","732101","0.0-10.0-0.5","n9og5lt5ya","one_one","1","direct_first","1","ue07st21","0","24","1","1","3","2","","0","1","0","null","","","<div style=""font-size:60px;"">+</div>","null","","","","","","","","","",""
"","html-keyboard-response","144","732194","0.0-10.0-1.5","n9og5lt5ya","one_one","1","direct_first","1","ue07st21","0","24","1","1","3","2","","0","1","0","null","","","<img src = 'category2/CS4.png' width = '100%;'>","null","","","","","","","","","",""
"","html-keyboard-response","145","732461","0.0-10.0-2.5","n9og5lt5ya","one_one","1","direct_first","1","ue07st21","0","24","1","1","3","2","","0","1","0","null","","","<img src = 'targets/5.png' width = '100%;'>","null","","","","","","","","","",""
"","html-keyboard-response","146","734382","0.0-10.0-3.5","n9og5lt5ya","one_one","1","direct_first","1","ue07st21","0","24","1","1","3","2","","0","1","0","1916.7850001249462","","","<img src = 'targets/mask.png' width = '100%;'>","75","pos","GS","GSold","2","category2/CS4.png","","targets/5.png","indirect","1","5"
"","html-keyboard-response","147","735894","0.0-10.0-0.6","n9og5lt5ya","one_one","1","direct_first","1","ue07st21","0","24","1","1","3","2","","0","1","0","null","","","<div style=""font-size:60px;"">+</div>","null","","","","","","","","","",""
"","html-keyboard-response","148","735987","0.0-10.0-1.6","n9og5lt5ya","one_one","1","direct_first","1","ue07st21","0","24","1","1","3","2","","0","1","0","null","","","<img src = 'category3/CS8.png' width = '100%;'>","null","","","","","","","","","",""
"","html-keyboard-response","149","736254","0.0-10.0-2.6","n9og5lt5ya","one_one","1","direct_first","1","ue07st21","0","24","1","1","3","2","","0","1","0","null","","","<img src = 'targets/10.png' width = '100%;'>","null","","","","","","","","","",""
"","html-keyboard-response","150","737398","0.0-10.0-3.6","n9og5lt5ya","one_one","1","direct_first","1","ue07st21","0","24","1","1","3","2","","0","1","0","1139.5250000059605","","","<img src = 'targets/mask.png' width = '100%;'>","75","neg","CS","CS","3","category3/CS8.png","","targets/10.png","indirect","1","6"
"","html-keyboard-response","151","738923","0.0-10.0-0.7","n9og5lt5ya","one_one","1","direct_first","1","ue07st21","0","24","1","1","3","2","","0","1","0","null","","","<div style=""font-size:60px;"">+</div>","null","","","","","","","","","",""
"","html-keyboard-response","152","739029","0.0-10.0-1.7","n9og5lt5ya","one_one","1","direct_first","1","ue07st21","0","24","1","1","3","2","","0","1","0","null","","","<img src = 'category3/CS5.png' width = '100%;'>","null","","","","","","","","","",""
"","html-keyboard-response","153","739296","0.0-10.0-2.7","n9og5lt5ya","one_one","1","direct_first","1","ue07st21","0","24","1","1","3","2","","0","1","0","null","","","<img src = 'targets/4.png' width = '100%;'>","null","","","","","","","","","",""
"","html-keyboard-response","154","741940","0.0-10.0-3.7","n9og5lt5ya","one_one","1","direct_first","1","ue07st21","0","24","1","1","3","2","","0","1","0","2641.795000061393","","","<img src = 'targets/mask.png' width = '100%;'>","75","neg","GS","GSold","3","category3/CS5.png","","targets/4.png","indirect","1","7"
"","html-keyboard-response","155","743454","0.0-10.0-0.8","n9og5lt5ya","one_one","1","direct_first","1","ue07st21","0","24","1","1","3","2","","0","1","0","null","","","<div style=""font-size:60px;"">+</div>","null","","","","","","","","","",""
"","html-keyboard-response","156","743563","0.0-10.0-1.8","n9og5lt5ya","one_one","1","direct_first","1","ue07st21","0","24","1","1","3","2","","0","1","0","null","","","<img src = 'category4/CS6.png' width = '100%;'>","null","","","","","","","","","",""
"","html-keyboard-response","157","743843","0.0-10.0-2.8","n9og5lt5ya","one_one","1","direct_first","1","ue07st21","0","24","1","1","3","2","","0","1","0","null","","","<img src = 'targets/11.png' width = '100%;'>","null","","","","","","","","","",""
"","html-keyboard-response","158","745110","0.0-10.0-3.8","n9og5lt5ya","one_one","1","direct_first","1","ue07st21","0","24","1","1","3","2","","0","1","0","1264.309999998659","","","<img src = 'targets/mask.png' width = '100%;'>","75","pos","CS","CS","4","category4/CS6.png","","targets/11.png","indirect","1","8"
"","html-keyboard-response","159","746629","0.0-10.0-0.9","n9og5lt5ya","one_one","1","direct_first","1","ue07st21","0","24","1","1","3","2","","0","1","0","null","","","<div style=""font-size:60px;"">+</div>","null","","","","","","","","","",""
"","html-keyboard-response","160","746722","0.0-10.0-1.9","n9og5lt5ya","one_one","1","direct_first","1","ue07st21","0","24","1","1","3","2","","0","1","0","null","","","<img src = 'category3/CS3.png' width = '100%;'>","null","","","","","","","","","",""
"","html-keyboard-response","161","747000","0.0-10.0-2.9","n9og5lt5ya","one_one","1","direct_first","1","ue07st21","0","24","1","1","3","2","","0","1","0","null","","","<img src = 'targets/16.png' width = '100%;'>","null","","","","","","","","","",""
"","html-keyboard-response","162","748377","0.0-10.0-3.9","n9og5lt5ya","one_one","1","direct_first","1","ue07st21","0","24","1","1","3","2","","0","1","0","1372.9050001129508","","","<img src = 'targets/mask.png' width = '100%;'>","68","neg","GS","GSold","3","category3/CS3.png","","targets/16.png","indirect","0","9"
"","html-keyboard-response","163","749894","0.0-10.0-0.10","n9og5lt5ya","one_one","1","direct_first","1","ue07st21","0","24","1","1","3","2","","0","1","0","null","","","<div style=""font-size:60px;"">+</div>","null","","","","","","","","","",""
"","html-keyboard-response","164","749986","0.0-10.0-1.10","n9og5lt5ya","one_one","1","direct_first","1","ue07st21","0","24","1","1","3","2","","0","1","0","null","","","<img src = 'category1/CS2.png' width = '100%;'>","null","","","","","","","","","",""
"","html-keyboard-response","165","750254","0.0-10.0-2.10","n9og5lt5ya","one_one","1","direct_first","1","ue07st21","0","24","1","1","3","2","","0","1","0","null","","","<img src = 'targets/8.png' width = '100%;'>","null","","","","","","","","","",""
"","html-keyboard-response","166","751027","0.0-10.0-3.10","n9og5lt5ya","one_one","1","direct_first","1","ue07st21","0","24","1","1","3","2","","0","1","0","770.0050000566989","","","<img src = 'targets/mask.png' width = '100%;'>","75","neg","GS","GSold","1","category1/CS2.png","","targets/8.png","indirect","1","10"
"","html-keyboard-response","167","752536","0.0-10.0-0.11","n9og5lt5ya","one_one","1","direct_first","1","ue07st21","0","24","1","1","3","2","","0","1","0","null","","","<div style=""font-size:60px;"">+</div>","null","","","","","","","","","",""
"","html-keyboard-response","168","752630","0.0-10.0-1.11","n9og5lt5ya","one_one","1","direct_first","1","ue07st21","0","24","1","1","3","2","","0","1","0","null","","","<img src = 'category3/CS9.png' width = '100%;'>","null","","","","","","","","","",""
"","html-keyboard-response","169","752896","0.0-10.0-2.11","n9og5lt5ya","one_one","1","direct_first","1","ue07st21","0","24","1","1","3","2","","0","1","0","null","","","<img src = 'targets/26.png' width = '100%;'>","null","","","","","","","","","",""
"","html-keyboard-response","170","755475","0.0-10.0-3.11","n9og5lt5ya","one_one","1","direct_first","1","ue07st21","0","24","1","1","3","2","","0","1","0","2576.4349999371916","","","<img src = 'targets/mask.png' width = '100%;'>","68","neg","GS","GSold","3","category3/CS9.png","","targets/26.png","indirect","0","11"
"","html-keyboard-response","171","756995","0.0-10.0-0.12","n9og5lt5ya","one_one","1","direct_first","1","ue07st21","0","24","1","1","3","2","","0","1","0","null","","","<div style=""font-size:60px;"">+</div>","null","","","","","","","","","",""
"","html-keyboard-response","172","757088","0.0-10.0-1.12","n9og5lt5ya","one_one","1","direct_first","1","ue07st21","0","24","1","1","3","2","","0","1","0","null","","","<img src = 'category4/CS7.png' width = '100%;'>","null","","","","","","","","","",""
"","html-keyboard-response","173","757350","0.0-10.0-2.12","n9og5lt5ya","one_one","1","direct_first","1","ue07st21","0","24","1","1","3","2","","0","1","0","null","","","<img src = 'targets/17.png' width = '100%;'>","null","","","","","","","","","",""
"","html-keyboard-response","174","759765","0.0-10.0-3.12","n9og5lt5ya","one_one","1","direct_first","1","ue07st21","0","24","1","1","3","2","","0","1","0","2410.6049998663366","","","<img src = 'targets/mask.png' width = '100%;'>","68","pos","GS","GSold","4","category4/CS7.png","","targets/17.png","indirect","0","12"
"","html-keyboard-response","175","761275","0.0-10.0-0.13","n9og5lt5ya","one_one","1","direct_first","1","ue07st21","0","24","1","1","3","2","","0","1","0","null","","","<div style=""font-size:60px;"">+</div>","null","","","","","","","","","",""
"","html-keyboard-response","176","761382","0.0-10.0-1.13","n9og5lt5ya","one_one","1","direct_first","1","ue07st21","0","24","1","1","3","2","","0","1","0","null","","","<img src = 'category4/CS8.png' width = '100%;'>","null","","","","","","","","","",""
"","html-keyboard-response","177","761660","0.0-10.0-2.13","n9og5lt5ya","one_one","1","direct_first","1","ue07st21","0","24","1","1","3","2","","0","1","0","null","","","<img src = 'targets/24.png' width = '100%;'>","null","","","","","","","","","",""
"","html-keyboard-response","178","763545","0.0-10.0-3.13","n9og5lt5ya","one_one","1","direct_first","1","ue07st21","0","24","1","1","3","2","","0","1","0","1880.7599998544902","","","<img src = 'targets/mask.png' width = '100%;'>","75","pos","GS","GSold","4","category4/CS8.png","","targets/24.png","indirect","1","13"
"","html-keyboard-response","179","765076","0.0-10.0-0.14","n9og5lt5ya","one_one","1","direct_first","1","ue07st21","0","24","1","1","3","2","","0","1","0","null","","","<div style=""font-size:60px;"">+</div>","null","","","","","","","","","",""
"","html-keyboard-response","180","765170","0.0-10.0-1.14","n9og5lt5ya","one_one","1","direct_first","1","ue07st21","0","24","1","1","3","2","","0","1","0","null","","","<img src = 'category2/CS9.png' width = '100%;'>","null","","","","","","","","","",""
"","html-keyboard-response","181","765439","0.0-10.0-2.14","n9og5lt5ya","one_one","1","direct_first","1","ue07st21","0","24","1","1","3","2","","0","1","0","null","","","<img src = 'targets/40.png' width = '100%;'>","null","","","","","","","","","",""
"","html-keyboard-response","182","768853","0.0-10.0-3.14","n9og5lt5ya","one_one","1","direct_first","1","ue07st21","0","24","1","1","3","2","","0","1","0","3409.969999920577","","","<img src = 'targets/mask.png' width = '100%;'>","75","pos","CS","CS","2","category2/CS9.png","","targets/40.png","indirect","1","14"
"","html-keyboard-response","183","770374","0.0-10.0-0.15","n9og5lt5ya","one_one","1","direct_first","1","ue07st21","0","24","1","1","3","2","","0","1","0","null","","","<div style=""font-size:60px;"">+</div>","null","","","","","","","","","",""
"","html-keyboard-response","184","770468","0.0-10.0-1.15","n9og5lt5ya","one_one","1","direct_first","1","ue07st21","0","24","1","1","3","2","","0","1","0","null","","","<img src = 'category4/CS3.png' width = '100%;'>","null","","","","","","","","","",""
"","html-keyboard-response","185","770749","0.0-10.0-2.15","n9og5lt5ya","one_one","1","direct_first","1","ue07st21","0","24","1","1","3","2","","0","1","0","null","","","<img src = 'targets/34.png' width = '100%;'>","null","","","","","","","","","",""
"","html-keyboard-response","186","771645","0.0-10.0-3.15","n9og5lt5ya","one_one","1","direct_first","1","ue07st21","0","24","1","1","3","2","","0","1","0","891.5300001390278","","","<img src = 'targets/mask.png' width = '100%;'>","75","pos","GS","GSold","4","category4/CS3.png","","targets/34.png","indirect","1","15"
"","survey-html-form","187","777659","0.0-11.0","n9og5lt5ya","one_one","1","direct_first","1","ue07st21","0","24","1","1","3","2","","0","1","0","5501.505000051111","","{}","","","","","","","","","","","",""
"","html-keyboard-response","188","780682","0.0-12.0-0.0","n9og5lt5ya","one_one","1","direct_first","1","ue07st21","0","24","1","1","3","2","","0","1","0","null","","","<div style=""font-size:60px;"">+</div>","null","","","","","","","","","",""
"","html-keyboard-response","189","780774","0.0-12.0-1.0","n9og5lt5ya","one_one","1","direct_first","1","ue07st21","0","24","1","1","3","2","","0","1","0","null","","","<img src = 'category4/GS2.png' width = '100%;'>","null","","","","","","","","","",""
"","html-keyboard-response","190","781054","0.0-12.0-2.0","n9og5lt5ya","one_one","1","direct_first","1","ue07st21","0","24","1","1","3","2","","0","1","0","null","","","<img src = 'targets/23.png' width = '100%;'>","null","","","","","","","","","",""
"","html-keyboard-response","191","782183","0.0-12.0-3.0","n9og5lt5ya","one_one","1","direct_first","1","ue07st21","0","24","1","1","3","2","","0","1","0","1123.7549998331815","","","<img src = 'targets/mask.png' width = '100%;'>","75","pos","GS","GSnew","4","category4/GS2.png","","targets/23.png","indirect","1","16"
"","html-keyboard-response","192","783697","0.0-12.0-0.1","n9og5lt5ya","one_one","1","direct_first","1","ue07st21","0","24","1","1","3","2","","0","1","0","null","","","<div style=""font-size:60px;"">+</div>","null","","","","","","","","","",""
"","html-keyboard-response","193","783791","0.0-12.0-1.1","n9og5lt5ya","one_one","1","direct_first","1","ue07st21","0","24","1","1","3","2","","0","1","0","null","","","<img src = 'category3/GS3.png' width = '100%;'>","null","","","","","","","","","",""
"","html-keyboard-response","194","784074","0.0-12.0-2.1","n9og5lt5ya","one_one","1","direct_first","1","ue07st21","0","24","1","1","3","2","","0","1","0","null","","","<img src = 'targets/43.png' width = '100%;'>","null","","","","","","","","","",""
"","html-keyboard-response","195","785032","0.0-12.0-3.1","n9og5lt5ya","one_one","1","direct_first","1","ue07st21","0","24","1","1","3","2","","0","1","0","954.3099999427795","","","<img src = 'targets/mask.png' width = '100%;'>","75","neg","GS","GSnew","3","category3/GS3.png","","targets/43.png","indirect","1","17"
"","html-keyboard-response","196","786547","0.0-12.0-0.2","n9og5lt5ya","one_one","1","direct_first","1","ue07st21","0","24","1","1","3","2","","0","1","0","null","","","<div style=""font-size:60px;"">+</div>","null","","","","","","","","","",""
"","html-keyboard-response","197","786640","0.0-12.0-1.2","n9og5lt5ya","one_one","1","direct_first","1","ue07st21","0","24","1","1","3","2","","0","1","0","null","","","<img src = 'category1/GS1.png' width = '100%;'>","null","","","","","","","","","",""
"","html-keyboard-response","198","786920","0.0-12.0-2.2","n9og5lt5ya","one_one","1","direct_first","1","ue07st21","0","24","1","1","3","2","","0","1","0","null","","","<img src = 'targets/33.png' width = '100%;'>","null","","","","","","","","","",""
"","html-keyboard-response","199","787573","0.0-12.0-3.2","n9og5lt5ya","one_one","1","direct_first","1","ue07st21","0","24","1","1","3","2","","0","1","0","647.7799999993294","","","<img src = 'targets/mask.png' width = '100%;'>","75","neg","GS","GSnew","1","category1/GS1.png","","targets/33.png","indirect","1","18"
"","html-keyboard-response","200","789088","0.0-12.0-0.3","n9og5lt5ya","one_one","1","direct_first","1","ue07st21","0","24","1","1","3","2","","0","1","0","null","","","<div style=""font-size:60px;"">+</div>","null","","","","","","","","","",""
"","html-keyboard-response","201","789181","0.0-12.0-1.3","n9og5lt5ya","one_one","1","direct_first","1","ue07st21","0","24","1","1","3","2","","0","1","0","null","","","<img src = 'category1/GS3.png' width = '100%;'>","null","","","","","","","","","",""
"","html-keyboard-response","202","789450","0.0-12.0-2.3","n9og5lt5ya","one_one","1","direct_first","1","ue07st21","0","24","1","1","3","2","","0","1","0","null","","","<img src = 'targets/37.png' width = '100%;'>","null","","","","","","","","","",""
"","html-keyboard-response","203","790253","0.0-12.0-3.3","n9og5lt5ya","one_one","1","direct_first","1","ue07st21","0","24","1","1","3","2","","0","1","0","798.515000147745","","","<img src = 'targets/mask.png' width = '100%;'>","75","neg","GS","GSnew","1","category1/GS3.png","","targets/37.png","indirect","1","19"
"","html-keyboard-response","204","791762","0.0-12.0-0.4","n9og5lt5ya","one_one","1","direct_first","1","ue07st21","0","24","1","1","3","2","","0","1","0","null","","","<div style=""font-size:60px;"">+</div>","null","","","","","","","","","",""
"","html-keyboard-response","205","791857","0.0-12.0-1.4","n9og5lt5ya","one_one","1","direct_first","1","ue07st21","0","24","1","1","3","2","","0","1","0","null","","","<img src = 'category4/GS1.png' width = '100%;'>","null","","","","","","","","","",""
"","html-keyboard-response","206","792136","0.0-12.0-2.4","n9og5lt5ya","one_one","1","direct_first","1","ue07st21","0","24","1","1","3","2","","0","1","0","null","","","<img src = 'targets/6.png' width = '100%;'>","null","","","","","","","","","",""
"","html-keyboard-response","207","793451","0.0-12.0-3.4","n9og5lt5ya","one_one","1","direct_first","1","ue07st21","0","24","1","1","3","2","","0","1","0","1310.4399999137968","","","<img src = 'targets/mask.png' width = '100%;'>","75","pos","GS","GSnew","4","category4/GS1.png","","targets/6.png","indirect","1","20"
"","html-keyboard-response","208","794971","0.0-12.0-0.5","n9og5lt5ya","one_one","1","direct_first","1","ue07st21","0","24","1","1","3","2","","0","1","0","null","","","<div style=""font-size:60px;"">+</div>","null","","","","","","","","","",""
"","html-keyboard-response","209","795066","0.0-12.0-1.5","n9og5lt5ya","one_one","1","direct_first","1","ue07st21","0","24","1","1","3","2","","0","1","0","null","","","<img src = 'category3/wang.png' width = '100%;'>","null","","","","","","","","","",""
"","html-keyboard-response","210","795342","0.0-12.0-2.5","n9og5lt5ya","one_one","1","direct_first","1","ue07st21","0","24","1","1","3","2","","0","1","0","null","","","<img src = 'targets/44.png' width = '100%;'>","null","","","","","","","","","",""
"","html-keyboard-response","211","796622","0.0-12.0-3.5","n9og5lt5ya","one_one","1","direct_first","1","ue07st21","0","24","1","1","3","2","","0","1","0","1276.8500000238419","","","<img src = 'targets/mask.png' width = '100%;'>","75","neg","GS","abstract","3","category3/wang.png","","targets/44.png","indirect","1","21"
"","html-keyboard-response","212","798146","0.0-12.0-0.6","n9og5lt5ya","one_one","1","direct_first","1","ue07st21","0","24","1","1","3","2","","0","1","0","null","","","<div style=""font-size:60px;"">+</div>","null","","","","","","","","","",""
"","html-keyboard-response","213","798240","0.0-12.0-1.6","n9og5lt5ya","one_one","1","direct_first","1","ue07st21","0","24","1","1","3","2","","0","1","0","null","","","<img src = 'category3/GS1.png' width = '100%;'>","null","","","","","","","","","",""
"","html-keyboard-response","214","798520","0.0-12.0-2.6","n9og5lt5ya","one_one","1","direct_first","1","ue07st21","0","24","1","1","3","2","","0","1","0","null","","","<img src = 'targets/41.png' width = '100%;'>","null","","","","","","","","","",""
"","html-keyboard-response","215","800598","0.0-12.0-3.6","n9og5lt5ya","one_one","1","direct_first","1","ue07st21","0","24","1","1","3","2","","0","1","0","2075.0550001394004","","","<img src = 'targets/mask.png' width = '100%;'>","75","neg","GS","GSnew","3","category3/GS1.png","","targets/41.png","indirect","1","22"
"","html-keyboard-response","216","802121","0.0-12.0-0.7","n9og5lt5ya","one_one","1","direct_first","1","ue07st21","0","24","1","1","3","2","","0","1","0","null","","","<div style=""font-size:60px;"">+</div>","null","","","","","","","","","",""
"","html-keyboard-response","217","802213","0.0-12.0-1.7","n9og5lt5ya","one_one","1","direct_first","1","ue07st21","0","24","1","1","3","2","","0","1","0","null","","","<img src = 'category2/men.png' width = '100%;'>","null","","","","","","","","","",""
"","html-keyboard-response","218","802491","0.0-12.0-2.7","n9og5lt5ya","one_one","1","direct_first","1","ue07st21","0","24","1","1","3","2","","0","1","0","null","","","<img src = 'targets/31.png' width = '100%;'>","null","","","","","","","","","",""
"","html-keyboard-response","219","803510","0.0-12.0-3.7","n9og5lt5ya","one_one","1","direct_first","1","ue07st21","0","24","1","1","3","2","","0","1","0","1013.9550000894815","","","<img src = 'targets/mask.png' width = '100%;'>","68","pos","GS","abstract","2","category2/men.png","","targets/31.png","indirect","0","23"
"","html-keyboard-response","220","805022","0.0-12.0-0.8","n9og5lt5ya","one_one","1","direct_first","1","ue07st21","0","24","1","1","3","2","","0","1","0","null","","","<div style=""font-size:60px;"">+</div>","null","","","","","","","","","",""
"","html-keyboard-response","221","805116","0.0-12.0-1.8","n9og5lt5ya","one_one","1","direct_first","1","ue07st21","0","24","1","1","3","2","","0","1","0","null","","","<img src = 'category2/GS2.png' width = '100%;'>","null","","","","","","","","","",""
"","html-keyboard-response","222","805384","0.0-12.0-2.8","n9og5lt5ya","one_one","1","direct_first","1","ue07st21","0","24","1","1","3","2","","0","1","0","null","","","<img src = 'targets/21.png' width = '100%;'>","null","","","","","","","","","",""
"","html-keyboard-response","223","806849","0.0-12.0-3.8","n9og5lt5ya","one_one","1","direct_first","1","ue07st21","0","24","1","1","3","2","","0","1","0","1461.505000013858","","","<img src = 'targets/mask.png' width = '100%;'>","68","pos","GS","GSnew","2","category2/GS2.png","","targets/21.png","indirect","0","24"
"","html-keyboard-response","224","808372","0.0-12.0-0.9","n9og5lt5ya","one_one","1","direct_first","1","ue07st21","0","24","1","1","3","2","","0","1","0","null","","","<div style=""font-size:60px;"">+</div>","null","","","","","","","","","",""
"","html-keyboard-response","225","808466","0.0-12.0-1.9","n9og5lt5ya","one_one","1","direct_first","1","ue07st21","0","24","1","1","3","2","","0","1","0","null","","","<img src = 'category1/GS2.png' width = '100%;'>","null","","","","","","","","","",""
"","html-keyboard-response","226","808745","0.0-12.0-2.9","n9og5lt5ya","one_one","1","direct_first","1","ue07st21","0","24","1","1","3","2","","0","1","0","null","","","<img src = 'targets/22.png' width = '100%;'>","null","","","","","","","","","",""
"","html-keyboard-response","227","809710","0.0-12.0-3.9","n9og5lt5ya","one_one","1","direct_first","1","ue07st21","0","24","1","1","3","2","","0","1","0","962.6050000078976","","","<img src = 'targets/mask.png' width = '100%;'>","75","neg","GS","GSnew","1","category1/GS2.png","","targets/22.png","indirect","1","25"
"","html-keyboard-response","228","811221","0.0-12.0-0.10","n9og5lt5ya","one_one","1","direct_first","1","ue07st21","0","24","1","1","3","2","","0","1","0","null","","","<div style=""font-size:60px;"">+</div>","null","","","","","","","","","",""
"","html-keyboard-response","229","811315","0.0-12.0-1.10","n9og5lt5ya","one_one","1","direct_first","1","ue07st21","0","24","1","1","3","2","","0","1","0","null","","","<img src = 'category4/lin.png' width = '100%;'>","null","","","","","","","","","",""
"","html-keyboard-response","230","811569","0.0-12.0-2.10","n9og5lt5ya","one_one","1","direct_first","1","ue07st21","0","24","1","1","3","2","","0","1","0","null","","","<img src = 'targets/38.png' width = '100%;'>","null","","","","","","","","","",""
"","html-keyboard-response","231","813325","0.0-12.0-3.10","n9og5lt5ya","one_one","1","direct_first","1","ue07st21","0","24","1","1","3","2","","0","1","0","1752.3149999324232","","","<img src = 'targets/mask.png' width = '100%;'>","68","pos","GS","abstract","4","category4/lin.png","","targets/38.png","indirect","0","26"
"","html-keyboard-response","232","814840","0.0-12.0-0.11","n9og5lt5ya","one_one","1","direct_first","1","ue07st21","0","24","1","1","3","2","","0","1","0","null","","","<div style=""font-size:60px;"">+</div>","null","","","","","","","","","",""
"","html-keyboard-response","233","814932","0.0-12.0-1.11","n9og5lt5ya","one_one","1","direct_first","1","ue07st21","0","24","1","1","3","2","","0","1","0","null","","","<img src = 'category3/GS2.png' width = '100%;'>","null","","","","","","","","","",""
"","html-keyboard-response","234","815212","0.0-12.0-2.11","n9og5lt5ya","one_one","1","direct_first","1","ue07st21","0","24","1","1","3","2","","0","1","0","null","","","<img src = 'targets/14.png' width = '100%;'>","null","","","","","","","","","",""
"","html-keyboard-response","235","816421","0.0-12.0-3.11","n9og5lt5ya","one_one","1","direct_first","1","ue07st21","0","24","1","1","3","2","","0","1","0","1205.9400000143796","","","<img src = 'targets/mask.png' width = '100%;'>","68","neg","GS","GSnew","3","category3/GS2.png","","targets/14.png","indirect","0","27"
"","html-keyboard-response","236","817942","0.0-12.0-0.12","n9og5lt5ya","one_one","1","direct_first","1","ue07st21","0","24","1","1","3","2","","0","1","0","null","","","<div style=""font-size:60px;"">+</div>","null","","","","","","","","","",""
"","html-keyboard-response","237","818035","0.0-12.0-1.12","n9og5lt5ya","one_one","1","direct_first","1","ue07st21","0","24","1","1","3","2","","0","1","0","null","","","<img src = 'category1/ma.png' width = '100%;'>","null","","","","","","","","","",""
"","html-keyboard-response","238","818317","0.0-12.0-2.12","n9og5lt5ya","one_one","1","direct_first","1","ue07st21","0","24","1","1","3","2","","0","1","0","null","","","<img src = 'targets/25.png' width = '100%;'>","null","","","","","","","","","",""
"","html-keyboard-response","239","819310","0.0-12.0-3.12","n9og5lt5ya","one_one","1","direct_first","1","ue07st21","0","24","1","1","3","2","","0","1","0","987.4500001315027","","","<img src = 'targets/mask.png' width = '100%;'>","75","neg","GS","abstract","1","category1/ma.png","","targets/25.png","indirect","1","28"
"","html-keyboard-response","240","820824","0.0-12.0-0.13","n9og5lt5ya","one_one","1","direct_first","1","ue07st21","0","24","1","1","3","2","","0","1","0","null","","","<div style=""font-size:60px;"">+</div>","null","","","","","","","","","",""
"","html-keyboard-response","241","820929","0.0-12.0-1.13","n9og5lt5ya","one_one","1","direct_first","1","ue07st21","0","24","1","1","3","2","","0","1","0","null","","","<img src = 'category2/GS3.png' width = '100%;'>","null","","","","","","","","","",""
"","html-keyboard-response","242","821208","0.0-12.0-2.13","n9og5lt5ya","one_one","1","direct_first","1","ue07st21","0","24","1","1","3","2","","0","1","0","null","","","<img src = 'targets/39.png' width = '100%;'>","null","","","","","","","","","",""
"","html-keyboard-response","243","822906","0.0-12.0-3.13","n9og5lt5ya","one_one","1","direct_first","1","ue07st21","0","24","1","1","3","2","","0","1","0","1694.8249998968095","","","<img src = 'targets/mask.png' width = '100%;'>","75","pos","GS","GSnew","2","category2/GS3.png","","targets/39.png","indirect","1","29"
"","html-keyboard-response","244","824413","0.0-12.0-0.14","n9og5lt5ya","one_one","1","direct_first","1","ue07st21","0","24","1","1","3","2","","0","1","0","null","","","<div style=""font-size:60px;"">+</div>","null","","","","","","","","","",""
"","html-keyboard-response","245","824506","0.0-12.0-1.14","n9og5lt5ya","one_one","1","direct_first","1","ue07st21","0","24","1","1","3","2","","0","1","0","null","","","<img src = 'category2/GS1.png' width = '100%;'>","null","","","","","","","","","",""
"","html-keyboard-response","246","824785","0.0-12.0-2.14","n9og5lt5ya","one_one","1","direct_first","1","ue07st21","0","24","1","1","3","2","","0","1","0","null","","","<img src = 'targets/35.png' width = '100%;'>","null","","","","","","","","","",""
"","html-keyboard-response","247","826096","0.0-12.0-3.14","n9og5lt5ya","one_one","1","direct_first","1","ue07st21","0","24","1","1","3","2","","0","1","0","1305.1999998278916","","","<img src = 'targets/mask.png' width = '100%;'>","75","pos","GS","GSnew","2","category2/GS1.png","","targets/35.png","indirect","1","30"
"","html-keyboard-response","248","827615","0.0-12.0-0.15","n9og5lt5ya","one_one","1","direct_first","1","ue07st21","0","24","1","1","3","2","","0","1","0","null","","","<div style=""font-size:60px;"">+</div>","null","","","","","","","","","",""
"","html-keyboard-response","249","827708","0.0-12.0-1.15","n9og5lt5ya","one_one","1","direct_first","1","ue07st21","0","24","1","1","3","2","","0","1","0","null","","","<img src = 'category4/GS3.png' width = '100%;'>","null","","","","","","","","","",""
"","html-keyboard-response","250","827988","0.0-12.0-2.15","n9og5lt5ya","one_one","1","direct_first","1","ue07st21","0","24","1","1","3","2","","0","1","0","null","","","<img src = 'targets/46.png' width = '100%;'>","null","","","","","","","","","",""
"","html-keyboard-response","251","828825","0.0-12.0-3.15","n9og5lt5ya","one_one","1","direct_first","1","ue07st21","0","24","1","1","3","2","","0","1","0","832.7349999453872","","","<img src = 'targets/mask.png' width = '100%;'>","75","pos","GS","GSnew","4","category4/GS3.png","","targets/46.png","indirect","1","31"
"","survey-html-form","252","833668","0.0-13.0","n9og5lt5ya","one_one","1","direct_first","1","ue07st21","0","24","1","1","3","2","","0","1","0","4326.884999871254","","{}","","","","","","","","","","","",""
"","image-slider-response","253","838703","0.0-14.0-0.0","n9og5lt5ya","one_one","1","direct_first","1","ue07st21","0","24","1","1","3","2","","0","1","0","4020.3450000844896","","","","","pos","All","all","2","category2/men_all.png","48","","all","",""
"","image-slider-response","254","843313","0.0-14.0-0.1","n9og5lt5ya","one_one","1","direct_first","1","ue07st21","0","24","1","1","3","2","","0","1","0","4606.970000080764","","","","","neg","All","all","1","category1/ma_all.png","14","","all","",""
"","image-slider-response","255","846679","0.0-14.0-0.2","n9og5lt5ya","one_one","1","direct_first","1","ue07st21","0","24","1","1","3","2","","0","1","0","3360.859999898821","","","","","pos","All","all","4","category4/lin_all.png","-19","","all","",""
"","image-slider-response","256","851421","0.0-14.0-0.3","n9og5lt5ya","one_one","1","direct_first","1","ue07st21","0","24","1","1","3","2","","0","1","0","4739.619999891147","","","","","neg","All","all","3","category3/wang_all.png","-20","","all","",""
"","survey-text","257","853390","0.0-15.0","n9og5lt5ya","one_one","1","direct_first","1","ue07st21","0","24","1","1","3","2","","0","1","0","1942.1800000127405","","{""comment"":""""}","","","","","","","","","","","",""
"","survey-html-form","258","865594","0.0-16.0","n9og5lt5ya","one_one","1","direct_first","1","ue07st21","0","24","1","1","3","2","","0","1","0","12199.56999993883","","{""hinschauen"":""0"",""ablenkung"":""1"",""gewissenhaft"":""0""}","","","","","","","","","","","",""
