"success","trial_type","trial_index","time_elapsed","internal_node_id","subject","condition","condition_code","measure","measure_code","codeword","gender","age","education","chinese","fach","handedness","comment","hinschauen","ablenkung","gewissenhaft","rt","url","responses","stimulus","key_press","val","type","type_specific","category","cs_selected","target","indirect","task","nr_pres","response"
"true","fullscreen","0","18087","0.0-0.0","573oppzqcz","one_one","1","indirect_first","0","Baum1234","1","25","1","1","3","1","Die Assoziation durch die Bilder, dem brennenden Faß, hat Schriftzeichen mit mehereren Vierecken leicht unangenehmer gemacht.","0","1","0","","","","","","","","","","","","","","",""
"","external-html","1","22788","0.0-1.0","573oppzqcz","one_one","1","indirect_first","0","Baum1234","1","25","1","1","3","1","Die Assoziation durch die Bilder, dem brennenden Faß, hat Schriftzeichen mit mehereren Vierecken leicht unangenehmer gemacht.","0","1","0","4592.784999869764","text/information.html","","","","","","","","","","","","",""
"","external-html","2","29122","0.0-2.0","573oppzqcz","one_one","1","indirect_first","0","Baum1234","1","25","1","1","3","1","Die Assoziation durch die Bilder, dem brennenden Faß, hat Schriftzeichen mit mehereren Vierecken leicht unangenehmer gemacht.","0","1","0","6247.364999959245","text/consent.html","","","","","","","","","","","","",""
"","survey-html-form","3","55444","0.0-3.0","573oppzqcz","one_one","1","indirect_first","0","Baum1234","1","25","1","1","3","1","Die Assoziation durch die Bilder, dem brennenden Faß, hat Schriftzeichen mit mehereren Vierecken leicht unangenehmer gemacht.","0","1","0","26314.630000153556","","{""codeword_enter"":""Baum1234""}","","","","","","","","","","","",""
"","survey-html-form","4","73948","0.0-4.0","573oppzqcz","one_one","1","indirect_first","0","Baum1234","1","25","1","1","3","1","Die Assoziation durch die Bilder, dem brennenden Faß, hat Schriftzeichen mit mehereren Vierecken leicht unangenehmer gemacht.","0","1","0","18497.41999991238","","{""age"":""25"",""education"":""1"",""subject"":""3"",""gender"":""1"",""handedness"":""1"",""chinese"":""1""}","","","","","","","","","","","",""
"","survey-html-form","5","76849","0.0-5.0","573oppzqcz","one_one","1","indirect_first","0","Baum1234","1","25","1","1","3","1","Die Assoziation durch die Bilder, dem brennenden Faß, hat Schriftzeichen mit mehereren Vierecken leicht unangenehmer gemacht.","0","1","0","2896.3049999438226","","{}","","","","","","","","","","","",""
"","html-keyboard-response","6","80858","0.0-6.0-0.0-0.0","573oppzqcz","one_one","1","indirect_first","0","Baum1234","1","25","1","1","3","1","Die Assoziation durch die Bilder, dem brennenden Faß, hat Schriftzeichen mit mehereren Vierecken leicht unangenehmer gemacht.","0","1","0","null","","","<div class = 'row'><div class = 'column'><img src = 'category2/CS10.png' width = '70%;'></div><div class = 'column'><img src = 'uspos/2360.bmp' width = '100%;'></div></div>","null","pos","CS","CS","2","category2/CS10.png","","","","",""
"","html-keyboard-response","7","83369","0.0-6.0-0.0-0.1","573oppzqcz","one_one","1","indirect_first","0","Baum1234","1","25","1","1","3","1","Die Assoziation durch die Bilder, dem brennenden Faß, hat Schriftzeichen mit mehereren Vierecken leicht unangenehmer gemacht.","0","1","0","null","","","<div class = 'row'><div class = 'column'><img src = 'uspos/2057.bmp' width = '100%;'></div><div class = 'column'><img src = 'category1/CS1.png' width = '70%;'></div></div>","null","pos","CS","CS","1","category1/CS1.png","","","","",""
"","html-keyboard-response","8","85878","0.0-6.0-0.0-0.2","573oppzqcz","one_one","1","indirect_first","0","Baum1234","1","25","1","1","3","1","Die Assoziation durch die Bilder, dem brennenden Faß, hat Schriftzeichen mit mehereren Vierecken leicht unangenehmer gemacht.","0","1","0","null","","","<div class = 'row'><div class = 'column'><img src = 'category2/CS10.png' width = '70%;'></div><div class = 'column'><img src = 'uspos/2360.bmp' width = '100%;'></div></div>","null","pos","CS","CS","2","category2/CS10.png","","","","",""
"","html-keyboard-response","9","88385","0.0-6.0-0.0-0.3","573oppzqcz","one_one","1","indirect_first","0","Baum1234","1","25","1","1","3","1","Die Assoziation durch die Bilder, dem brennenden Faß, hat Schriftzeichen mit mehereren Vierecken leicht unangenehmer gemacht.","0","1","0","null","","","<div class = 'row'><div class = 'column'><img src = 'usneg/9635.2.bmp' width = '100%;'></div><div class = 'column'><img src = 'category3/CS6.png' width = '70%;'></div></div>","null","neg","CS","CS","3","category3/CS6.png","","","","",""
"","html-keyboard-response","10","90894","0.0-6.0-0.0-0.4","573oppzqcz","one_one","1","indirect_first","0","Baum1234","1","25","1","1","3","1","Die Assoziation durch die Bilder, dem brennenden Faß, hat Schriftzeichen mit mehereren Vierecken leicht unangenehmer gemacht.","0","1","0","null","","","<div class = 'row'><div class = 'column'><img src = 'category4/CS4.png' width = '70%;'></div><div class = 'column'><img src = 'usneg/3160.bmp' width = '100%;'></div></div>","null","neg","CS","CS","4","category4/CS4.png","","","","",""
"","html-keyboard-response","11","93396","0.0-6.0-0.0-0.5","573oppzqcz","one_one","1","indirect_first","0","Baum1234","1","25","1","1","3","1","Die Assoziation durch die Bilder, dem brennenden Faß, hat Schriftzeichen mit mehereren Vierecken leicht unangenehmer gemacht.","0","1","0","null","","","<div class = 'row'><div class = 'column'><img src = 'category3/CS6.png' width = '70%;'></div><div class = 'column'><img src = 'usneg/9635.2.bmp' width = '100%;'></div></div>","null","neg","CS","CS","3","category3/CS6.png","","","","",""
"","html-keyboard-response","12","95900","0.0-6.0-0.0-0.6","573oppzqcz","one_one","1","indirect_first","0","Baum1234","1","25","1","1","3","1","Die Assoziation durch die Bilder, dem brennenden Faß, hat Schriftzeichen mit mehereren Vierecken leicht unangenehmer gemacht.","0","1","0","null","","","<div class = 'row'><div class = 'column'><img src = 'usneg/3160.bmp' width = '100%;'></div><div class = 'column'><img src = 'category4/CS4.png' width = '70%;'></div></div>","null","neg","CS","CS","4","category4/CS4.png","","","","",""
"","html-keyboard-response","13","98406","0.0-6.0-0.0-0.7","573oppzqcz","one_one","1","indirect_first","0","Baum1234","1","25","1","1","3","1","Die Assoziation durch die Bilder, dem brennenden Faß, hat Schriftzeichen mit mehereren Vierecken leicht unangenehmer gemacht.","0","1","0","null","","","<div class = 'row'><div class = 'column'><img src = 'uspos/2360.bmp' width = '100%;'></div><div class = 'column'><img src = 'category2/CS10.png' width = '70%;'></div></div>","null","pos","CS","CS","2","category2/CS10.png","","","","",""
"","html-keyboard-response","14","100914","0.0-6.0-0.0-0.8","573oppzqcz","one_one","1","indirect_first","0","Baum1234","1","25","1","1","3","1","Die Assoziation durch die Bilder, dem brennenden Faß, hat Schriftzeichen mit mehereren Vierecken leicht unangenehmer gemacht.","0","1","0","null","","","<div class = 'row'><div class = 'column'><img src = 'category4/CS4.png' width = '70%;'></div><div class = 'column'><img src = 'usneg/3160.bmp' width = '100%;'></div></div>","null","neg","CS","CS","4","category4/CS4.png","","","","",""
"","html-keyboard-response","15","103419","0.0-6.0-0.0-0.9","573oppzqcz","one_one","1","indirect_first","0","Baum1234","1","25","1","1","3","1","Die Assoziation durch die Bilder, dem brennenden Faß, hat Schriftzeichen mit mehereren Vierecken leicht unangenehmer gemacht.","0","1","0","null","","","<div class = 'row'><div class = 'column'><img src = 'category3/CS6.png' width = '70%;'></div><div class = 'column'><img src = 'usneg/9635.2.bmp' width = '100%;'></div></div>","null","neg","CS","CS","3","category3/CS6.png","","","","",""
"","html-keyboard-response","16","105923","0.0-6.0-0.0-0.10","573oppzqcz","one_one","1","indirect_first","0","Baum1234","1","25","1","1","3","1","Die Assoziation durch die Bilder, dem brennenden Faß, hat Schriftzeichen mit mehereren Vierecken leicht unangenehmer gemacht.","0","1","0","null","","","<div class = 'row'><div class = 'column'><img src = 'usneg/3160.bmp' width = '100%;'></div><div class = 'column'><img src = 'category4/CS4.png' width = '70%;'></div></div>","null","neg","CS","CS","4","category4/CS4.png","","","","",""
"","html-keyboard-response","17","108432","0.0-6.0-0.0-0.11","573oppzqcz","one_one","1","indirect_first","0","Baum1234","1","25","1","1","3","1","Die Assoziation durch die Bilder, dem brennenden Faß, hat Schriftzeichen mit mehereren Vierecken leicht unangenehmer gemacht.","0","1","0","null","","","<div class = 'row'><div class = 'column'><img src = 'category1/CS1.png' width = '70%;'></div><div class = 'column'><img src = 'uspos/2057.bmp' width = '100%;'></div></div>","null","pos","CS","CS","1","category1/CS1.png","","","","",""
"","html-keyboard-response","18","110939","0.0-6.0-0.0-0.12","573oppzqcz","one_one","1","indirect_first","0","Baum1234","1","25","1","1","3","1","Die Assoziation durch die Bilder, dem brennenden Faß, hat Schriftzeichen mit mehereren Vierecken leicht unangenehmer gemacht.","0","1","0","null","","","<div class = 'row'><div class = 'column'><img src = 'usneg/3160.bmp' width = '100%;'></div><div class = 'column'><img src = 'category4/CS4.png' width = '70%;'></div></div>","null","neg","CS","CS","4","category4/CS4.png","","","","",""
"","html-keyboard-response","19","113447","0.0-6.0-0.0-0.13","573oppzqcz","one_one","1","indirect_first","0","Baum1234","1","25","1","1","3","1","Die Assoziation durch die Bilder, dem brennenden Faß, hat Schriftzeichen mit mehereren Vierecken leicht unangenehmer gemacht.","0","1","0","null","","","<div class = 'row'><div class = 'column'><img src = 'category2/CS10.png' width = '70%;'></div><div class = 'column'><img src = 'uspos/2360.bmp' width = '100%;'></div></div>","null","pos","CS","CS","2","category2/CS10.png","","","","",""
"","html-keyboard-response","20","115959","0.0-6.0-0.0-0.14","573oppzqcz","one_one","1","indirect_first","0","Baum1234","1","25","1","1","3","1","Die Assoziation durch die Bilder, dem brennenden Faß, hat Schriftzeichen mit mehereren Vierecken leicht unangenehmer gemacht.","0","1","0","null","","","<div class = 'row'><div class = 'column'><img src = 'category1/CS1.png' width = '70%;'></div><div class = 'column'><img src = 'uspos/2057.bmp' width = '100%;'></div></div>","null","pos","CS","CS","1","category1/CS1.png","","","","",""
"","html-keyboard-response","21","118463","0.0-6.0-0.0-0.15","573oppzqcz","one_one","1","indirect_first","0","Baum1234","1","25","1","1","3","1","Die Assoziation durch die Bilder, dem brennenden Faß, hat Schriftzeichen mit mehereren Vierecken leicht unangenehmer gemacht.","0","1","0","null","","","<div class = 'row'><div class = 'column'><img src = 'category3/CS6.png' width = '70%;'></div><div class = 'column'><img src = 'usneg/9635.2.bmp' width = '100%;'></div></div>","null","neg","CS","CS","3","category3/CS6.png","","","","",""
"","html-keyboard-response","22","120970","0.0-6.0-0.0-0.16","573oppzqcz","one_one","1","indirect_first","0","Baum1234","1","25","1","1","3","1","Die Assoziation durch die Bilder, dem brennenden Faß, hat Schriftzeichen mit mehereren Vierecken leicht unangenehmer gemacht.","0","1","0","null","","","<div class = 'row'><div class = 'column'><img src = 'category1/CS1.png' width = '70%;'></div><div class = 'column'><img src = 'uspos/2057.bmp' width = '100%;'></div></div>","null","pos","CS","CS","1","category1/CS1.png","","","","",""
"","html-keyboard-response","23","123478","0.0-6.0-0.0-0.17","573oppzqcz","one_one","1","indirect_first","0","Baum1234","1","25","1","1","3","1","Die Assoziation durch die Bilder, dem brennenden Faß, hat Schriftzeichen mit mehereren Vierecken leicht unangenehmer gemacht.","0","1","0","null","","","<div class = 'row'><div class = 'column'><img src = 'category3/CS6.png' width = '70%;'></div><div class = 'column'><img src = 'usneg/9635.2.bmp' width = '100%;'></div></div>","null","neg","CS","CS","3","category3/CS6.png","","","","",""
"","html-keyboard-response","24","125986","0.0-6.0-0.0-0.18","573oppzqcz","one_one","1","indirect_first","0","Baum1234","1","25","1","1","3","1","Die Assoziation durch die Bilder, dem brennenden Faß, hat Schriftzeichen mit mehereren Vierecken leicht unangenehmer gemacht.","0","1","0","null","","","<div class = 'row'><div class = 'column'><img src = 'category1/CS1.png' width = '70%;'></div><div class = 'column'><img src = 'uspos/2057.bmp' width = '100%;'></div></div>","null","pos","CS","CS","1","category1/CS1.png","","","","",""
"","html-keyboard-response","25","128492","0.0-6.0-0.0-0.19","573oppzqcz","one_one","1","indirect_first","0","Baum1234","1","25","1","1","3","1","Die Assoziation durch die Bilder, dem brennenden Faß, hat Schriftzeichen mit mehereren Vierecken leicht unangenehmer gemacht.","0","1","0","null","","","<div class = 'row'><div class = 'column'><img src = 'category2/CS10.png' width = '70%;'></div><div class = 'column'><img src = 'uspos/2360.bmp' width = '100%;'></div></div>","null","pos","CS","CS","2","category2/CS10.png","","","","",""
"","survey-html-form","26","131974","0.0-6.0-1.0","573oppzqcz","one_one","1","indirect_first","0","Baum1234","1","25","1","1","3","1","Die Assoziation durch die Bilder, dem brennenden Faß, hat Schriftzeichen mit mehereren Vierecken leicht unangenehmer gemacht.","0","1","0","2980.7899999432266","","{}","","","","","","","","","","","",""
"","html-keyboard-response","27","135983","0.0-6.0-2.0-0.0","573oppzqcz","one_one","1","indirect_first","0","Baum1234","1","25","1","1","3","1","Die Assoziation durch die Bilder, dem brennenden Faß, hat Schriftzeichen mit mehereren Vierecken leicht unangenehmer gemacht.","0","1","0","null","","","<div class = 'row'><div class = 'column'><img src = 'uspos/2057.bmp' width = '100%;'></div><div class = 'column'><img src = 'category1/CS1.png' width = '70%;'></div></div>","null","pos","CS","CS","1","category1/CS1.png","","","","",""
"","html-keyboard-response","28","138489","0.0-6.0-2.0-0.1","573oppzqcz","one_one","1","indirect_first","0","Baum1234","1","25","1","1","3","1","Die Assoziation durch die Bilder, dem brennenden Faß, hat Schriftzeichen mit mehereren Vierecken leicht unangenehmer gemacht.","0","1","0","null","","","<div class = 'row'><div class = 'column'><img src = 'usneg/9635.2.bmp' width = '100%;'></div><div class = 'column'><img src = 'category3/CS6.png' width = '70%;'></div></div>","null","neg","CS","CS","3","category3/CS6.png","","","","",""
"","html-keyboard-response","29","140998","0.0-6.0-2.0-0.2","573oppzqcz","one_one","1","indirect_first","0","Baum1234","1","25","1","1","3","1","Die Assoziation durch die Bilder, dem brennenden Faß, hat Schriftzeichen mit mehereren Vierecken leicht unangenehmer gemacht.","0","1","0","null","","","<div class = 'row'><div class = 'column'><img src = 'usneg/3160.bmp' width = '100%;'></div><div class = 'column'><img src = 'category4/CS4.png' width = '70%;'></div></div>","null","neg","CS","CS","4","category4/CS4.png","","","","",""
"","html-keyboard-response","30","143506","0.0-6.0-2.0-0.3","573oppzqcz","one_one","1","indirect_first","0","Baum1234","1","25","1","1","3","1","Die Assoziation durch die Bilder, dem brennenden Faß, hat Schriftzeichen mit mehereren Vierecken leicht unangenehmer gemacht.","0","1","0","null","","","<div class = 'row'><div class = 'column'><img src = 'category2/CS10.png' width = '70%;'></div><div class = 'column'><img src = 'uspos/2360.bmp' width = '100%;'></div></div>","null","pos","CS","CS","2","category2/CS10.png","","","","",""
"","html-keyboard-response","31","146013","0.0-6.0-2.0-0.4","573oppzqcz","one_one","1","indirect_first","0","Baum1234","1","25","1","1","3","1","Die Assoziation durch die Bilder, dem brennenden Faß, hat Schriftzeichen mit mehereren Vierecken leicht unangenehmer gemacht.","0","1","0","null","","","<div class = 'row'><div class = 'column'><img src = 'uspos/2057.bmp' width = '100%;'></div><div class = 'column'><img src = 'category1/CS1.png' width = '70%;'></div></div>","null","pos","CS","CS","1","category1/CS1.png","","","","",""
"","html-keyboard-response","32","148521","0.0-6.0-2.0-0.5","573oppzqcz","one_one","1","indirect_first","0","Baum1234","1","25","1","1","3","1","Die Assoziation durch die Bilder, dem brennenden Faß, hat Schriftzeichen mit mehereren Vierecken leicht unangenehmer gemacht.","0","1","0","null","","","<div class = 'row'><div class = 'column'><img src = 'category2/CS10.png' width = '70%;'></div><div class = 'column'><img src = 'uspos/2360.bmp' width = '100%;'></div></div>","null","pos","CS","CS","2","category2/CS10.png","","","","",""
"","html-keyboard-response","33","151023","0.0-6.0-2.0-0.6","573oppzqcz","one_one","1","indirect_first","0","Baum1234","1","25","1","1","3","1","Die Assoziation durch die Bilder, dem brennenden Faß, hat Schriftzeichen mit mehereren Vierecken leicht unangenehmer gemacht.","0","1","0","null","","","<div class = 'row'><div class = 'column'><img src = 'uspos/2057.bmp' width = '100%;'></div><div class = 'column'><img src = 'category1/CS1.png' width = '70%;'></div></div>","null","pos","CS","CS","1","category1/CS1.png","","","","",""
"","html-keyboard-response","34","153532","0.0-6.0-2.0-0.7","573oppzqcz","one_one","1","indirect_first","0","Baum1234","1","25","1","1","3","1","Die Assoziation durch die Bilder, dem brennenden Faß, hat Schriftzeichen mit mehereren Vierecken leicht unangenehmer gemacht.","0","1","0","null","","","<div class = 'row'><div class = 'column'><img src = 'category4/CS4.png' width = '70%;'></div><div class = 'column'><img src = 'usneg/3160.bmp' width = '100%;'></div></div>","null","neg","CS","CS","4","category4/CS4.png","","","","",""
"","html-keyboard-response","35","156039","0.0-6.0-2.0-0.8","573oppzqcz","one_one","1","indirect_first","0","Baum1234","1","25","1","1","3","1","Die Assoziation durch die Bilder, dem brennenden Faß, hat Schriftzeichen mit mehereren Vierecken leicht unangenehmer gemacht.","0","1","0","null","","","<div class = 'row'><div class = 'column'><img src = 'uspos/2057.bmp' width = '100%;'></div><div class = 'column'><img src = 'category1/CS1.png' width = '70%;'></div></div>","null","pos","CS","CS","1","category1/CS1.png","","","","",""
"","html-keyboard-response","36","158550","0.0-6.0-2.0-0.9","573oppzqcz","one_one","1","indirect_first","0","Baum1234","1","25","1","1","3","1","Die Assoziation durch die Bilder, dem brennenden Faß, hat Schriftzeichen mit mehereren Vierecken leicht unangenehmer gemacht.","0","1","0","null","","","<div class = 'row'><div class = 'column'><img src = 'category4/CS4.png' width = '70%;'></div><div class = 'column'><img src = 'usneg/3160.bmp' width = '100%;'></div></div>","null","neg","CS","CS","4","category4/CS4.png","","","","",""
"","html-keyboard-response","37","161055","0.0-6.0-2.0-0.10","573oppzqcz","one_one","1","indirect_first","0","Baum1234","1","25","1","1","3","1","Die Assoziation durch die Bilder, dem brennenden Faß, hat Schriftzeichen mit mehereren Vierecken leicht unangenehmer gemacht.","0","1","0","null","","","<div class = 'row'><div class = 'column'><img src = 'usneg/9635.2.bmp' width = '100%;'></div><div class = 'column'><img src = 'category3/CS6.png' width = '70%;'></div></div>","null","neg","CS","CS","3","category3/CS6.png","","","","",""
"","html-keyboard-response","38","163562","0.0-6.0-2.0-0.11","573oppzqcz","one_one","1","indirect_first","0","Baum1234","1","25","1","1","3","1","Die Assoziation durch die Bilder, dem brennenden Faß, hat Schriftzeichen mit mehereren Vierecken leicht unangenehmer gemacht.","0","1","0","null","","","<div class = 'row'><div class = 'column'><img src = 'uspos/2360.bmp' width = '100%;'></div><div class = 'column'><img src = 'category2/CS10.png' width = '70%;'></div></div>","null","pos","CS","CS","2","category2/CS10.png","","","","",""
"","html-keyboard-response","39","166071","0.0-6.0-2.0-0.12","573oppzqcz","one_one","1","indirect_first","0","Baum1234","1","25","1","1","3","1","Die Assoziation durch die Bilder, dem brennenden Faß, hat Schriftzeichen mit mehereren Vierecken leicht unangenehmer gemacht.","0","1","0","null","","","<div class = 'row'><div class = 'column'><img src = 'usneg/9635.2.bmp' width = '100%;'></div><div class = 'column'><img src = 'category3/CS6.png' width = '70%;'></div></div>","null","neg","CS","CS","3","category3/CS6.png","","","","",""
"","html-keyboard-response","40","168579","0.0-6.0-2.0-0.13","573oppzqcz","one_one","1","indirect_first","0","Baum1234","1","25","1","1","3","1","Die Assoziation durch die Bilder, dem brennenden Faß, hat Schriftzeichen mit mehereren Vierecken leicht unangenehmer gemacht.","0","1","0","null","","","<div class = 'row'><div class = 'column'><img src = 'category4/CS4.png' width = '70%;'></div><div class = 'column'><img src = 'usneg/3160.bmp' width = '100%;'></div></div>","null","neg","CS","CS","4","category4/CS4.png","","","","",""
"","html-keyboard-response","41","171086","0.0-6.0-2.0-0.14","573oppzqcz","one_one","1","indirect_first","0","Baum1234","1","25","1","1","3","1","Die Assoziation durch die Bilder, dem brennenden Faß, hat Schriftzeichen mit mehereren Vierecken leicht unangenehmer gemacht.","0","1","0","null","","","<div class = 'row'><div class = 'column'><img src = 'category2/CS10.png' width = '70%;'></div><div class = 'column'><img src = 'uspos/2360.bmp' width = '100%;'></div></div>","null","pos","CS","CS","2","category2/CS10.png","","","","",""
"","html-keyboard-response","42","173594","0.0-6.0-2.0-0.15","573oppzqcz","one_one","1","indirect_first","0","Baum1234","1","25","1","1","3","1","Die Assoziation durch die Bilder, dem brennenden Faß, hat Schriftzeichen mit mehereren Vierecken leicht unangenehmer gemacht.","0","1","0","null","","","<div class = 'row'><div class = 'column'><img src = 'usneg/9635.2.bmp' width = '100%;'></div><div class = 'column'><img src = 'category3/CS6.png' width = '70%;'></div></div>","null","neg","CS","CS","3","category3/CS6.png","","","","",""
"","html-keyboard-response","43","176102","0.0-6.0-2.0-0.16","573oppzqcz","one_one","1","indirect_first","0","Baum1234","1","25","1","1","3","1","Die Assoziation durch die Bilder, dem brennenden Faß, hat Schriftzeichen mit mehereren Vierecken leicht unangenehmer gemacht.","0","1","0","null","","","<div class = 'row'><div class = 'column'><img src = 'category4/CS4.png' width = '70%;'></div><div class = 'column'><img src = 'usneg/3160.bmp' width = '100%;'></div></div>","null","neg","CS","CS","4","category4/CS4.png","","","","",""
"","html-keyboard-response","44","178609","0.0-6.0-2.0-0.17","573oppzqcz","one_one","1","indirect_first","0","Baum1234","1","25","1","1","3","1","Die Assoziation durch die Bilder, dem brennenden Faß, hat Schriftzeichen mit mehereren Vierecken leicht unangenehmer gemacht.","0","1","0","null","","","<div class = 'row'><div class = 'column'><img src = 'category2/CS10.png' width = '70%;'></div><div class = 'column'><img src = 'uspos/2360.bmp' width = '100%;'></div></div>","null","pos","CS","CS","2","category2/CS10.png","","","","",""
"","html-keyboard-response","45","181117","0.0-6.0-2.0-0.18","573oppzqcz","one_one","1","indirect_first","0","Baum1234","1","25","1","1","3","1","Die Assoziation durch die Bilder, dem brennenden Faß, hat Schriftzeichen mit mehereren Vierecken leicht unangenehmer gemacht.","0","1","0","null","","","<div class = 'row'><div class = 'column'><img src = 'category3/CS6.png' width = '70%;'></div><div class = 'column'><img src = 'usneg/9635.2.bmp' width = '100%;'></div></div>","null","neg","CS","CS","3","category3/CS6.png","","","","",""
"","html-keyboard-response","46","183627","0.0-6.0-2.0-0.19","573oppzqcz","one_one","1","indirect_first","0","Baum1234","1","25","1","1","3","1","Die Assoziation durch die Bilder, dem brennenden Faß, hat Schriftzeichen mit mehereren Vierecken leicht unangenehmer gemacht.","0","1","0","null","","","<div class = 'row'><div class = 'column'><img src = 'uspos/2057.bmp' width = '100%;'></div><div class = 'column'><img src = 'category1/CS1.png' width = '70%;'></div></div>","null","pos","CS","CS","1","category1/CS1.png","","","","",""
"","survey-html-form","47","185780","0.0-6.0-3.0","573oppzqcz","one_one","1","indirect_first","0","Baum1234","1","25","1","1","3","1","Die Assoziation durch die Bilder, dem brennenden Faß, hat Schriftzeichen mit mehereren Vierecken leicht unangenehmer gemacht.","0","1","0","1649.3800000753254","","{}","","","","","","","","","","","",""
"","html-keyboard-response","48","189790","0.0-6.0-4.0-0.0","573oppzqcz","one_one","1","indirect_first","0","Baum1234","1","25","1","1","3","1","Die Assoziation durch die Bilder, dem brennenden Faß, hat Schriftzeichen mit mehereren Vierecken leicht unangenehmer gemacht.","0","1","0","null","","","<div class = 'row'><div class = 'column'><img src = 'category4/CS4.png' width = '70%;'></div><div class = 'column'><img src = 'usneg/3160.bmp' width = '100%;'></div></div>","null","neg","CS","CS","4","category4/CS4.png","","","","",""
"","html-keyboard-response","49","192295","0.0-6.0-4.0-0.1","573oppzqcz","one_one","1","indirect_first","0","Baum1234","1","25","1","1","3","1","Die Assoziation durch die Bilder, dem brennenden Faß, hat Schriftzeichen mit mehereren Vierecken leicht unangenehmer gemacht.","0","1","0","null","","","<div class = 'row'><div class = 'column'><img src = 'category3/CS6.png' width = '70%;'></div><div class = 'column'><img src = 'usneg/9635.2.bmp' width = '100%;'></div></div>","null","neg","CS","CS","3","category3/CS6.png","","","","",""
"","html-keyboard-response","50","194800","0.0-6.0-4.0-0.2","573oppzqcz","one_one","1","indirect_first","0","Baum1234","1","25","1","1","3","1","Die Assoziation durch die Bilder, dem brennenden Faß, hat Schriftzeichen mit mehereren Vierecken leicht unangenehmer gemacht.","0","1","0","null","","","<div class = 'row'><div class = 'column'><img src = 'category2/CS10.png' width = '70%;'></div><div class = 'column'><img src = 'uspos/2360.bmp' width = '100%;'></div></div>","null","pos","CS","CS","2","category2/CS10.png","","","","",""
"","html-keyboard-response","51","197307","0.0-6.0-4.0-0.3","573oppzqcz","one_one","1","indirect_first","0","Baum1234","1","25","1","1","3","1","Die Assoziation durch die Bilder, dem brennenden Faß, hat Schriftzeichen mit mehereren Vierecken leicht unangenehmer gemacht.","0","1","0","null","","","<div class = 'row'><div class = 'column'><img src = 'uspos/2057.bmp' width = '100%;'></div><div class = 'column'><img src = 'category1/CS1.png' width = '70%;'></div></div>","null","pos","CS","CS","1","category1/CS1.png","","","","",""
"","html-keyboard-response","52","199816","0.0-6.0-4.0-0.4","573oppzqcz","one_one","1","indirect_first","0","Baum1234","1","25","1","1","3","1","Die Assoziation durch die Bilder, dem brennenden Faß, hat Schriftzeichen mit mehereren Vierecken leicht unangenehmer gemacht.","0","1","0","null","","","<div class = 'row'><div class = 'column'><img src = 'category3/CS6.png' width = '70%;'></div><div class = 'column'><img src = 'usneg/9635.2.bmp' width = '100%;'></div></div>","null","neg","CS","CS","3","category3/CS6.png","","","","",""
"","html-keyboard-response","53","202326","0.0-6.0-4.0-0.5","573oppzqcz","one_one","1","indirect_first","0","Baum1234","1","25","1","1","3","1","Die Assoziation durch die Bilder, dem brennenden Faß, hat Schriftzeichen mit mehereren Vierecken leicht unangenehmer gemacht.","0","1","0","null","","","<div class = 'row'><div class = 'column'><img src = 'usneg/3160.bmp' width = '100%;'></div><div class = 'column'><img src = 'category4/CS4.png' width = '70%;'></div></div>","null","neg","CS","CS","4","category4/CS4.png","","","","",""
"","html-keyboard-response","54","204834","0.0-6.0-4.0-0.6","573oppzqcz","one_one","1","indirect_first","0","Baum1234","1","25","1","1","3","1","Die Assoziation durch die Bilder, dem brennenden Faß, hat Schriftzeichen mit mehereren Vierecken leicht unangenehmer gemacht.","0","1","0","null","","","<div class = 'row'><div class = 'column'><img src = 'category2/CS10.png' width = '70%;'></div><div class = 'column'><img src = 'uspos/2360.bmp' width = '100%;'></div></div>","null","pos","CS","CS","2","category2/CS10.png","","","","",""
"","html-keyboard-response","55","207339","0.0-6.0-4.0-0.7","573oppzqcz","one_one","1","indirect_first","0","Baum1234","1","25","1","1","3","1","Die Assoziation durch die Bilder, dem brennenden Faß, hat Schriftzeichen mit mehereren Vierecken leicht unangenehmer gemacht.","0","1","0","null","","","<div class = 'row'><div class = 'column'><img src = 'category1/CS1.png' width = '70%;'></div><div class = 'column'><img src = 'uspos/2057.bmp' width = '100%;'></div></div>","null","pos","CS","CS","1","category1/CS1.png","","","","",""
"","html-keyboard-response","56","209846","0.0-6.0-4.0-0.8","573oppzqcz","one_one","1","indirect_first","0","Baum1234","1","25","1","1","3","1","Die Assoziation durch die Bilder, dem brennenden Faß, hat Schriftzeichen mit mehereren Vierecken leicht unangenehmer gemacht.","0","1","0","null","","","<div class = 'row'><div class = 'column'><img src = 'uspos/2360.bmp' width = '100%;'></div><div class = 'column'><img src = 'category2/CS10.png' width = '70%;'></div></div>","null","pos","CS","CS","2","category2/CS10.png","","","","",""
"","html-keyboard-response","57","212353","0.0-6.0-4.0-0.9","573oppzqcz","one_one","1","indirect_first","0","Baum1234","1","25","1","1","3","1","Die Assoziation durch die Bilder, dem brennenden Faß, hat Schriftzeichen mit mehereren Vierecken leicht unangenehmer gemacht.","0","1","0","null","","","<div class = 'row'><div class = 'column'><img src = 'usneg/9635.2.bmp' width = '100%;'></div><div class = 'column'><img src = 'category3/CS6.png' width = '70%;'></div></div>","null","neg","CS","CS","3","category3/CS6.png","","","","",""
"","html-keyboard-response","58","214856","0.0-6.0-4.0-0.10","573oppzqcz","one_one","1","indirect_first","0","Baum1234","1","25","1","1","3","1","Die Assoziation durch die Bilder, dem brennenden Faß, hat Schriftzeichen mit mehereren Vierecken leicht unangenehmer gemacht.","0","1","0","null","","","<div class = 'row'><div class = 'column'><img src = 'uspos/2057.bmp' width = '100%;'></div><div class = 'column'><img src = 'category1/CS1.png' width = '70%;'></div></div>","null","pos","CS","CS","1","category1/CS1.png","","","","",""
"","html-keyboard-response","59","217364","0.0-6.0-4.0-0.11","573oppzqcz","one_one","1","indirect_first","0","Baum1234","1","25","1","1","3","1","Die Assoziation durch die Bilder, dem brennenden Faß, hat Schriftzeichen mit mehereren Vierecken leicht unangenehmer gemacht.","0","1","0","null","","","<div class = 'row'><div class = 'column'><img src = 'usneg/3160.bmp' width = '100%;'></div><div class = 'column'><img src = 'category4/CS4.png' width = '70%;'></div></div>","null","neg","CS","CS","4","category4/CS4.png","","","","",""
"","html-keyboard-response","60","219872","0.0-6.0-4.0-0.12","573oppzqcz","one_one","1","indirect_first","0","Baum1234","1","25","1","1","3","1","Die Assoziation durch die Bilder, dem brennenden Faß, hat Schriftzeichen mit mehereren Vierecken leicht unangenehmer gemacht.","0","1","0","null","","","<div class = 'row'><div class = 'column'><img src = 'category2/CS10.png' width = '70%;'></div><div class = 'column'><img src = 'uspos/2360.bmp' width = '100%;'></div></div>","null","pos","CS","CS","2","category2/CS10.png","","","","",""
"","html-keyboard-response","61","222380","0.0-6.0-4.0-0.13","573oppzqcz","one_one","1","indirect_first","0","Baum1234","1","25","1","1","3","1","Die Assoziation durch die Bilder, dem brennenden Faß, hat Schriftzeichen mit mehereren Vierecken leicht unangenehmer gemacht.","0","1","0","null","","","<div class = 'row'><div class = 'column'><img src = 'uspos/2057.bmp' width = '100%;'></div><div class = 'column'><img src = 'category1/CS1.png' width = '70%;'></div></div>","null","pos","CS","CS","1","category1/CS1.png","","","","",""
"","html-keyboard-response","62","224888","0.0-6.0-4.0-0.14","573oppzqcz","one_one","1","indirect_first","0","Baum1234","1","25","1","1","3","1","Die Assoziation durch die Bilder, dem brennenden Faß, hat Schriftzeichen mit mehereren Vierecken leicht unangenehmer gemacht.","0","1","0","null","","","<div class = 'row'><div class = 'column'><img src = 'usneg/9635.2.bmp' width = '100%;'></div><div class = 'column'><img src = 'category3/CS6.png' width = '70%;'></div></div>","null","neg","CS","CS","3","category3/CS6.png","","","","",""
"","html-keyboard-response","63","227395","0.0-6.0-4.0-0.15","573oppzqcz","one_one","1","indirect_first","0","Baum1234","1","25","1","1","3","1","Die Assoziation durch die Bilder, dem brennenden Faß, hat Schriftzeichen mit mehereren Vierecken leicht unangenehmer gemacht.","0","1","0","null","","","<div class = 'row'><div class = 'column'><img src = 'usneg/3160.bmp' width = '100%;'></div><div class = 'column'><img src = 'category4/CS4.png' width = '70%;'></div></div>","null","neg","CS","CS","4","category4/CS4.png","","","","",""
"","html-keyboard-response","64","229903","0.0-6.0-4.0-0.16","573oppzqcz","one_one","1","indirect_first","0","Baum1234","1","25","1","1","3","1","Die Assoziation durch die Bilder, dem brennenden Faß, hat Schriftzeichen mit mehereren Vierecken leicht unangenehmer gemacht.","0","1","0","null","","","<div class = 'row'><div class = 'column'><img src = 'uspos/2360.bmp' width = '100%;'></div><div class = 'column'><img src = 'category2/CS10.png' width = '70%;'></div></div>","null","pos","CS","CS","2","category2/CS10.png","","","","",""
"","html-keyboard-response","65","232411","0.0-6.0-4.0-0.17","573oppzqcz","one_one","1","indirect_first","0","Baum1234","1","25","1","1","3","1","Die Assoziation durch die Bilder, dem brennenden Faß, hat Schriftzeichen mit mehereren Vierecken leicht unangenehmer gemacht.","0","1","0","null","","","<div class = 'row'><div class = 'column'><img src = 'uspos/2057.bmp' width = '100%;'></div><div class = 'column'><img src = 'category1/CS1.png' width = '70%;'></div></div>","null","pos","CS","CS","1","category1/CS1.png","","","","",""
"","html-keyboard-response","66","234919","0.0-6.0-4.0-0.18","573oppzqcz","one_one","1","indirect_first","0","Baum1234","1","25","1","1","3","1","Die Assoziation durch die Bilder, dem brennenden Faß, hat Schriftzeichen mit mehereren Vierecken leicht unangenehmer gemacht.","0","1","0","null","","","<div class = 'row'><div class = 'column'><img src = 'usneg/9635.2.bmp' width = '100%;'></div><div class = 'column'><img src = 'category3/CS6.png' width = '70%;'></div></div>","null","neg","CS","CS","3","category3/CS6.png","","","","",""
"","html-keyboard-response","67","237427","0.0-6.0-4.0-0.19","573oppzqcz","one_one","1","indirect_first","0","Baum1234","1","25","1","1","3","1","Die Assoziation durch die Bilder, dem brennenden Faß, hat Schriftzeichen mit mehereren Vierecken leicht unangenehmer gemacht.","0","1","0","null","","","<div class = 'row'><div class = 'column'><img src = 'category4/CS4.png' width = '70%;'></div><div class = 'column'><img src = 'usneg/3160.bmp' width = '100%;'></div></div>","null","neg","CS","CS","4","category4/CS4.png","","","","",""
"","survey-html-form","68","243401","0.0-6.0-5.0","573oppzqcz","one_one","1","indirect_first","0","Baum1234","1","25","1","1","3","1","Die Assoziation durch die Bilder, dem brennenden Faß, hat Schriftzeichen mit mehereren Vierecken leicht unangenehmer gemacht.","0","1","0","5470.629999879748","","{}","","","","","","","","","","","",""
"","html-keyboard-response","69","247412","0.0-6.0-6.0-0.0","573oppzqcz","one_one","1","indirect_first","0","Baum1234","1","25","1","1","3","1","Die Assoziation durch die Bilder, dem brennenden Faß, hat Schriftzeichen mit mehereren Vierecken leicht unangenehmer gemacht.","0","1","0","null","","","<div class = 'row'><div class = 'column'><img src = 'category2/CS10.png' width = '70%;'></div><div class = 'column'><img src = 'uspos/2360.bmp' width = '100%;'></div></div>","null","pos","CS","CS","2","category2/CS10.png","","","","",""
"","html-keyboard-response","70","249919","0.0-6.0-6.0-0.1","573oppzqcz","one_one","1","indirect_first","0","Baum1234","1","25","1","1","3","1","Die Assoziation durch die Bilder, dem brennenden Faß, hat Schriftzeichen mit mehereren Vierecken leicht unangenehmer gemacht.","0","1","0","null","","","<div class = 'row'><div class = 'column'><img src = 'usneg/9635.2.bmp' width = '100%;'></div><div class = 'column'><img src = 'category3/CS6.png' width = '70%;'></div></div>","null","neg","CS","CS","3","category3/CS6.png","","","","",""
"","html-keyboard-response","71","252427","0.0-6.0-6.0-0.2","573oppzqcz","one_one","1","indirect_first","0","Baum1234","1","25","1","1","3","1","Die Assoziation durch die Bilder, dem brennenden Faß, hat Schriftzeichen mit mehereren Vierecken leicht unangenehmer gemacht.","0","1","0","null","","","<div class = 'row'><div class = 'column'><img src = 'category4/CS4.png' width = '70%;'></div><div class = 'column'><img src = 'usneg/3160.bmp' width = '100%;'></div></div>","null","neg","CS","CS","4","category4/CS4.png","","","","",""
"","html-keyboard-response","72","254935","0.0-6.0-6.0-0.3","573oppzqcz","one_one","1","indirect_first","0","Baum1234","1","25","1","1","3","1","Die Assoziation durch die Bilder, dem brennenden Faß, hat Schriftzeichen mit mehereren Vierecken leicht unangenehmer gemacht.","0","1","0","null","","","<div class = 'row'><div class = 'column'><img src = 'category2/CS10.png' width = '70%;'></div><div class = 'column'><img src = 'uspos/2360.bmp' width = '100%;'></div></div>","null","pos","CS","CS","2","category2/CS10.png","","","","",""
"","html-keyboard-response","73","257443","0.0-6.0-6.0-0.4","573oppzqcz","one_one","1","indirect_first","0","Baum1234","1","25","1","1","3","1","Die Assoziation durch die Bilder, dem brennenden Faß, hat Schriftzeichen mit mehereren Vierecken leicht unangenehmer gemacht.","0","1","0","null","","","<div class = 'row'><div class = 'column'><img src = 'usneg/9635.2.bmp' width = '100%;'></div><div class = 'column'><img src = 'category3/CS6.png' width = '70%;'></div></div>","null","neg","CS","CS","3","category3/CS6.png","","","","",""
"","html-keyboard-response","74","259950","0.0-6.0-6.0-0.5","573oppzqcz","one_one","1","indirect_first","0","Baum1234","1","25","1","1","3","1","Die Assoziation durch die Bilder, dem brennenden Faß, hat Schriftzeichen mit mehereren Vierecken leicht unangenehmer gemacht.","0","1","0","null","","","<div class = 'row'><div class = 'column'><img src = 'usneg/3160.bmp' width = '100%;'></div><div class = 'column'><img src = 'category4/CS4.png' width = '70%;'></div></div>","null","neg","CS","CS","4","category4/CS4.png","","","","",""
"","html-keyboard-response","75","262458","0.0-6.0-6.0-0.6","573oppzqcz","one_one","1","indirect_first","0","Baum1234","1","25","1","1","3","1","Die Assoziation durch die Bilder, dem brennenden Faß, hat Schriftzeichen mit mehereren Vierecken leicht unangenehmer gemacht.","0","1","0","null","","","<div class = 'row'><div class = 'column'><img src = 'usneg/9635.2.bmp' width = '100%;'></div><div class = 'column'><img src = 'category3/CS6.png' width = '70%;'></div></div>","null","neg","CS","CS","3","category3/CS6.png","","","","",""
"","html-keyboard-response","76","264966","0.0-6.0-6.0-0.7","573oppzqcz","one_one","1","indirect_first","0","Baum1234","1","25","1","1","3","1","Die Assoziation durch die Bilder, dem brennenden Faß, hat Schriftzeichen mit mehereren Vierecken leicht unangenehmer gemacht.","0","1","0","null","","","<div class = 'row'><div class = 'column'><img src = 'uspos/2057.bmp' width = '100%;'></div><div class = 'column'><img src = 'category1/CS1.png' width = '70%;'></div></div>","null","pos","CS","CS","1","category1/CS1.png","","","","",""
"","html-keyboard-response","77","267473","0.0-6.0-6.0-0.8","573oppzqcz","one_one","1","indirect_first","0","Baum1234","1","25","1","1","3","1","Die Assoziation durch die Bilder, dem brennenden Faß, hat Schriftzeichen mit mehereren Vierecken leicht unangenehmer gemacht.","0","1","0","null","","","<div class = 'row'><div class = 'column'><img src = 'category2/CS10.png' width = '70%;'></div><div class = 'column'><img src = 'uspos/2360.bmp' width = '100%;'></div></div>","null","pos","CS","CS","2","category2/CS10.png","","","","",""
"","html-keyboard-response","78","269976","0.0-6.0-6.0-0.9","573oppzqcz","one_one","1","indirect_first","0","Baum1234","1","25","1","1","3","1","Die Assoziation durch die Bilder, dem brennenden Faß, hat Schriftzeichen mit mehereren Vierecken leicht unangenehmer gemacht.","0","1","0","null","","","<div class = 'row'><div class = 'column'><img src = 'uspos/2057.bmp' width = '100%;'></div><div class = 'column'><img src = 'category1/CS1.png' width = '70%;'></div></div>","null","pos","CS","CS","1","category1/CS1.png","","","","",""
"","html-keyboard-response","79","272487","0.0-6.0-6.0-0.10","573oppzqcz","one_one","1","indirect_first","0","Baum1234","1","25","1","1","3","1","Die Assoziation durch die Bilder, dem brennenden Faß, hat Schriftzeichen mit mehereren Vierecken leicht unangenehmer gemacht.","0","1","0","null","","","<div class = 'row'><div class = 'column'><img src = 'category2/CS10.png' width = '70%;'></div><div class = 'column'><img src = 'uspos/2360.bmp' width = '100%;'></div></div>","null","pos","CS","CS","2","category2/CS10.png","","","","",""
"","html-keyboard-response","80","274992","0.0-6.0-6.0-0.11","573oppzqcz","one_one","1","indirect_first","0","Baum1234","1","25","1","1","3","1","Die Assoziation durch die Bilder, dem brennenden Faß, hat Schriftzeichen mit mehereren Vierecken leicht unangenehmer gemacht.","0","1","0","null","","","<div class = 'row'><div class = 'column'><img src = 'uspos/2057.bmp' width = '100%;'></div><div class = 'column'><img src = 'category1/CS1.png' width = '70%;'></div></div>","null","pos","CS","CS","1","category1/CS1.png","","","","",""
"","html-keyboard-response","81","277503","0.0-6.0-6.0-0.12","573oppzqcz","one_one","1","indirect_first","0","Baum1234","1","25","1","1","3","1","Die Assoziation durch die Bilder, dem brennenden Faß, hat Schriftzeichen mit mehereren Vierecken leicht unangenehmer gemacht.","0","1","0","null","","","<div class = 'row'><div class = 'column'><img src = 'category4/CS4.png' width = '70%;'></div><div class = 'column'><img src = 'usneg/3160.bmp' width = '100%;'></div></div>","null","neg","CS","CS","4","category4/CS4.png","","","","",""
"","html-keyboard-response","82","280007","0.0-6.0-6.0-0.13","573oppzqcz","one_one","1","indirect_first","0","Baum1234","1","25","1","1","3","1","Die Assoziation durch die Bilder, dem brennenden Faß, hat Schriftzeichen mit mehereren Vierecken leicht unangenehmer gemacht.","0","1","0","null","","","<div class = 'row'><div class = 'column'><img src = 'category2/CS10.png' width = '70%;'></div><div class = 'column'><img src = 'uspos/2360.bmp' width = '100%;'></div></div>","null","pos","CS","CS","2","category2/CS10.png","","","","",""
"","html-keyboard-response","83","282515","0.0-6.0-6.0-0.14","573oppzqcz","one_one","1","indirect_first","0","Baum1234","1","25","1","1","3","1","Die Assoziation durch die Bilder, dem brennenden Faß, hat Schriftzeichen mit mehereren Vierecken leicht unangenehmer gemacht.","0","1","0","null","","","<div class = 'row'><div class = 'column'><img src = 'usneg/9635.2.bmp' width = '100%;'></div><div class = 'column'><img src = 'category3/CS6.png' width = '70%;'></div></div>","null","neg","CS","CS","3","category3/CS6.png","","","","",""
"","html-keyboard-response","84","285026","0.0-6.0-6.0-0.15","573oppzqcz","one_one","1","indirect_first","0","Baum1234","1","25","1","1","3","1","Die Assoziation durch die Bilder, dem brennenden Faß, hat Schriftzeichen mit mehereren Vierecken leicht unangenehmer gemacht.","0","1","0","null","","","<div class = 'row'><div class = 'column'><img src = 'category4/CS4.png' width = '70%;'></div><div class = 'column'><img src = 'usneg/3160.bmp' width = '100%;'></div></div>","null","neg","CS","CS","4","category4/CS4.png","","","","",""
"","html-keyboard-response","85","287535","0.0-6.0-6.0-0.16","573oppzqcz","one_one","1","indirect_first","0","Baum1234","1","25","1","1","3","1","Die Assoziation durch die Bilder, dem brennenden Faß, hat Schriftzeichen mit mehereren Vierecken leicht unangenehmer gemacht.","0","1","0","null","","","<div class = 'row'><div class = 'column'><img src = 'uspos/2057.bmp' width = '100%;'></div><div class = 'column'><img src = 'category1/CS1.png' width = '70%;'></div></div>","null","pos","CS","CS","1","category1/CS1.png","","","","",""
"","html-keyboard-response","86","290039","0.0-6.0-6.0-0.17","573oppzqcz","one_one","1","indirect_first","0","Baum1234","1","25","1","1","3","1","Die Assoziation durch die Bilder, dem brennenden Faß, hat Schriftzeichen mit mehereren Vierecken leicht unangenehmer gemacht.","0","1","0","null","","","<div class = 'row'><div class = 'column'><img src = 'category3/CS6.png' width = '70%;'></div><div class = 'column'><img src = 'usneg/9635.2.bmp' width = '100%;'></div></div>","null","neg","CS","CS","3","category3/CS6.png","","","","",""
"","html-keyboard-response","87","292546","0.0-6.0-6.0-0.18","573oppzqcz","one_one","1","indirect_first","0","Baum1234","1","25","1","1","3","1","Die Assoziation durch die Bilder, dem brennenden Faß, hat Schriftzeichen mit mehereren Vierecken leicht unangenehmer gemacht.","0","1","0","null","","","<div class = 'row'><div class = 'column'><img src = 'usneg/3160.bmp' width = '100%;'></div><div class = 'column'><img src = 'category4/CS4.png' width = '70%;'></div></div>","null","neg","CS","CS","4","category4/CS4.png","","","","",""
"","html-keyboard-response","88","295058","0.0-6.0-6.0-0.19","573oppzqcz","one_one","1","indirect_first","0","Baum1234","1","25","1","1","3","1","Die Assoziation durch die Bilder, dem brennenden Faß, hat Schriftzeichen mit mehereren Vierecken leicht unangenehmer gemacht.","0","1","0","null","","","<div class = 'row'><div class = 'column'><img src = 'uspos/2057.bmp' width = '100%;'></div><div class = 'column'><img src = 'category1/CS1.png' width = '70%;'></div></div>","null","pos","CS","CS","1","category1/CS1.png","","","","",""
"","html-keyboard-response","89","318272","0.0-7.0","573oppzqcz","one_one","1","indirect_first","0","Baum1234","1","25","1","1","3","1","Die Assoziation durch die Bilder, dem brennenden Faß, hat Schriftzeichen mit mehereren Vierecken leicht unangenehmer gemacht.","0","1","0","22711.91000007093","","","<p>Sie sehen nun die chinesischen Zeichen nur ganz kurz. Danach sehen Sie die jeweilige Aussprache der Zeichen als Silbe auf dem Bildschrim. Ihre Aufgabe ist es, für jede Silbe anzugeben, ob diese etwas angenehmes, oder unangenehmes bedeuten könnte. Verlassen Sie sich hier vor allem auf Ihre Intuition.<br><br>Die Zeichen werden nur zur Orientierung dargestellt, beachten Sie sie deshalb nicht. Konzentrieren Sie sich vor allem auf die Silben. <br>Reagieren Sie mit folgenden zwei Tasten: <br><br><b>'D' </b> wenn die Silbe etwas <b>unangenehmes</b> bedeuten könnte. <br><b>'K'</b> wenn die Silbe etwas <b>angenehmes</b> bedeuten könnte. <br><br>Bitte legen Sie nun den Zeigefinger der linken Hand auf die Taste 'D' und den Zeigefinger der rechten Hand auf die Taste 'K'. <br>Reagieren Sie auf jede Silbe so schnell wie möglich. Uns interessiert Ihre spontane Reaktion. <br> <br> <br>Drücken Sie 'D' oder 'K', um die nächste Aufgabe zu starten. </p>","75","","","","","","","","","",""
"","html-keyboard-response","90","321281","0.0-8.0-0.0","573oppzqcz","one_one","1","indirect_first","0","Baum1234","1","25","1","1","3","1","Die Assoziation durch die Bilder, dem brennenden Faß, hat Schriftzeichen mit mehereren Vierecken leicht unangenehmer gemacht.","0","1","0","null","","","<div style=""font-size:60px;"">+</div>","null","","","","","","","","","",""
"","html-keyboard-response","91","321373","0.0-8.0-1.0","573oppzqcz","one_one","1","indirect_first","0","Baum1234","1","25","1","1","3","1","Die Assoziation durch die Bilder, dem brennenden Faß, hat Schriftzeichen mit mehereren Vierecken leicht unangenehmer gemacht.","0","1","0","null","","","<img src = 'category3/CS9.png' width = '100%;'>","null","","","","","","","","","",""
"","html-keyboard-response","92","321633","0.0-8.0-2.0","573oppzqcz","one_one","1","indirect_first","0","Baum1234","1","25","1","1","3","1","Die Assoziation durch die Bilder, dem brennenden Faß, hat Schriftzeichen mit mehereren Vierecken leicht unangenehmer gemacht.","0","1","0","null","","","<img src = 'targets/18.png' width = '100%;'>","null","","","","","","","","","",""
"","html-keyboard-response","93","324042","0.0-8.0-3.0","573oppzqcz","one_one","1","indirect_first","0","Baum1234","1","25","1","1","3","1","Die Assoziation durch die Bilder, dem brennenden Faß, hat Schriftzeichen mit mehereren Vierecken leicht unangenehmer gemacht.","0","1","0","2407.920000143349","","","<img src = 'targets/mask.png' width = '100%;'>","75","neg","GS","GSold","3","category3/CS9.png","targets/18.png","1","indirect","0",""
"","html-keyboard-response","94","325548","0.0-8.0-0.1","573oppzqcz","one_one","1","indirect_first","0","Baum1234","1","25","1","1","3","1","Die Assoziation durch die Bilder, dem brennenden Faß, hat Schriftzeichen mit mehereren Vierecken leicht unangenehmer gemacht.","0","1","0","null","","","<div style=""font-size:60px;"">+</div>","null","","","","","","","","","",""
"","html-keyboard-response","95","325640","0.0-8.0-1.1","573oppzqcz","one_one","1","indirect_first","0","Baum1234","1","25","1","1","3","1","Die Assoziation durch die Bilder, dem brennenden Faß, hat Schriftzeichen mit mehereren Vierecken leicht unangenehmer gemacht.","0","1","0","null","","","<img src = 'category4/CS4.png' width = '100%;'>","null","","","","","","","","","",""
"","html-keyboard-response","96","325896","0.0-8.0-2.1","573oppzqcz","one_one","1","indirect_first","0","Baum1234","1","25","1","1","3","1","Die Assoziation durch die Bilder, dem brennenden Faß, hat Schriftzeichen mit mehereren Vierecken leicht unangenehmer gemacht.","0","1","0","null","","","<img src = 'targets/14.png' width = '100%;'>","null","","","","","","","","","",""
"","html-keyboard-response","97","328013","0.0-8.0-3.1","573oppzqcz","one_one","1","indirect_first","0","Baum1234","1","25","1","1","3","1","Die Assoziation durch die Bilder, dem brennenden Faß, hat Schriftzeichen mit mehereren Vierecken leicht unangenehmer gemacht.","0","1","0","2115.559999831021","","","<img src = 'targets/mask.png' width = '100%;'>","68","neg","CS","CS","4","category4/CS4.png","targets/14.png","0","indirect","1",""
"","html-keyboard-response","98","329518","0.0-8.0-0.2","573oppzqcz","one_one","1","indirect_first","0","Baum1234","1","25","1","1","3","1","Die Assoziation durch die Bilder, dem brennenden Faß, hat Schriftzeichen mit mehereren Vierecken leicht unangenehmer gemacht.","0","1","0","null","","","<div style=""font-size:60px;"">+</div>","null","","","","","","","","","",""
"","html-keyboard-response","99","329612","0.0-8.0-1.2","573oppzqcz","one_one","1","indirect_first","0","Baum1234","1","25","1","1","3","1","Die Assoziation durch die Bilder, dem brennenden Faß, hat Schriftzeichen mit mehereren Vierecken leicht unangenehmer gemacht.","0","1","0","null","","","<img src = 'category4/CS5.png' width = '100%;'>","null","","","","","","","","","",""
"","html-keyboard-response","100","329867","0.0-8.0-2.2","573oppzqcz","one_one","1","indirect_first","0","Baum1234","1","25","1","1","3","1","Die Assoziation durch die Bilder, dem brennenden Faß, hat Schriftzeichen mit mehereren Vierecken leicht unangenehmer gemacht.","0","1","0","null","","","<img src = 'targets/24.png' width = '100%;'>","null","","","","","","","","","",""
"","html-keyboard-response","101","330742","0.0-8.0-3.2","573oppzqcz","one_one","1","indirect_first","0","Baum1234","1","25","1","1","3","1","Die Assoziation durch die Bilder, dem brennenden Faß, hat Schriftzeichen mit mehereren Vierecken leicht unangenehmer gemacht.","0","1","0","873.0450000148267","","","<img src = 'targets/mask.png' width = '100%;'>","75","neg","GS","GSold","4","category4/CS5.png","targets/24.png","1","indirect","2",""
"","html-keyboard-response","102","332247","0.0-8.0-0.3","573oppzqcz","one_one","1","indirect_first","0","Baum1234","1","25","1","1","3","1","Die Assoziation durch die Bilder, dem brennenden Faß, hat Schriftzeichen mit mehereren Vierecken leicht unangenehmer gemacht.","0","1","0","null","","","<div style=""font-size:60px;"">+</div>","null","","","","","","","","","",""
"","html-keyboard-response","103","332340","0.0-8.0-1.3","573oppzqcz","one_one","1","indirect_first","0","Baum1234","1","25","1","1","3","1","Die Assoziation durch die Bilder, dem brennenden Faß, hat Schriftzeichen mit mehereren Vierecken leicht unangenehmer gemacht.","0","1","0","null","","","<img src = 'category2/CS10.png' width = '100%;'>","null","","","","","","","","","",""
"","html-keyboard-response","104","332594","0.0-8.0-2.3","573oppzqcz","one_one","1","indirect_first","0","Baum1234","1","25","1","1","3","1","Die Assoziation durch die Bilder, dem brennenden Faß, hat Schriftzeichen mit mehereren Vierecken leicht unangenehmer gemacht.","0","1","0","null","","","<img src = 'targets/34.png' width = '100%;'>","null","","","","","","","","","",""
"","html-keyboard-response","105","334387","0.0-8.0-3.3","573oppzqcz","one_one","1","indirect_first","0","Baum1234","1","25","1","1","3","1","Die Assoziation durch die Bilder, dem brennenden Faß, hat Schriftzeichen mit mehereren Vierecken leicht unangenehmer gemacht.","0","1","0","1792.1700000297278","","","<img src = 'targets/mask.png' width = '100%;'>","75","pos","CS","CS","2","category2/CS10.png","targets/34.png","1","indirect","3",""
"","html-keyboard-response","106","335893","0.0-8.0-0.4","573oppzqcz","one_one","1","indirect_first","0","Baum1234","1","25","1","1","3","1","Die Assoziation durch die Bilder, dem brennenden Faß, hat Schriftzeichen mit mehereren Vierecken leicht unangenehmer gemacht.","0","1","0","null","","","<div style=""font-size:60px;"">+</div>","null","","","","","","","","","",""
"","html-keyboard-response","107","335986","0.0-8.0-1.4","573oppzqcz","one_one","1","indirect_first","0","Baum1234","1","25","1","1","3","1","Die Assoziation durch die Bilder, dem brennenden Faß, hat Schriftzeichen mit mehereren Vierecken leicht unangenehmer gemacht.","0","1","0","null","","","<img src = 'category3/CS10.png' width = '100%;'>","null","","","","","","","","","",""
"","html-keyboard-response","108","336241","0.0-8.0-2.4","573oppzqcz","one_one","1","indirect_first","0","Baum1234","1","25","1","1","3","1","Die Assoziation durch die Bilder, dem brennenden Faß, hat Schriftzeichen mit mehereren Vierecken leicht unangenehmer gemacht.","0","1","0","null","","","<img src = 'targets/23.png' width = '100%;'>","null","","","","","","","","","",""
"","html-keyboard-response","109","338456","0.0-8.0-3.4","573oppzqcz","one_one","1","indirect_first","0","Baum1234","1","25","1","1","3","1","Die Assoziation durch die Bilder, dem brennenden Faß, hat Schriftzeichen mit mehereren Vierecken leicht unangenehmer gemacht.","0","1","0","2213.270000182092","","","<img src = 'targets/mask.png' width = '100%;'>","75","neg","GS","GSold","3","category3/CS10.png","targets/23.png","1","indirect","4",""
"","html-keyboard-response","110","339963","0.0-8.0-0.5","573oppzqcz","one_one","1","indirect_first","0","Baum1234","1","25","1","1","3","1","Die Assoziation durch die Bilder, dem brennenden Faß, hat Schriftzeichen mit mehereren Vierecken leicht unangenehmer gemacht.","0","1","0","null","","","<div style=""font-size:60px;"">+</div>","null","","","","","","","","","",""
"","html-keyboard-response","111","340059","0.0-8.0-1.5","573oppzqcz","one_one","1","indirect_first","0","Baum1234","1","25","1","1","3","1","Die Assoziation durch die Bilder, dem brennenden Faß, hat Schriftzeichen mit mehereren Vierecken leicht unangenehmer gemacht.","0","1","0","null","","","<img src = 'category1/CS5.png' width = '100%;'>","null","","","","","","","","","",""
"","html-keyboard-response","112","340315","0.0-8.0-2.5","573oppzqcz","one_one","1","indirect_first","0","Baum1234","1","25","1","1","3","1","Die Assoziation durch die Bilder, dem brennenden Faß, hat Schriftzeichen mit mehereren Vierecken leicht unangenehmer gemacht.","0","1","0","null","","","<img src = 'targets/20.png' width = '100%;'>","null","","","","","","","","","",""
"","html-keyboard-response","113","341588","0.0-8.0-3.5","573oppzqcz","one_one","1","indirect_first","0","Baum1234","1","25","1","1","3","1","Die Assoziation durch die Bilder, dem brennenden Faß, hat Schriftzeichen mit mehereren Vierecken leicht unangenehmer gemacht.","0","1","0","1271.4400000404567","","","<img src = 'targets/mask.png' width = '100%;'>","75","pos","GS","GSold","1","category1/CS5.png","targets/20.png","1","indirect","5",""
"","html-keyboard-response","114","343097","0.0-8.0-0.6","573oppzqcz","one_one","1","indirect_first","0","Baum1234","1","25","1","1","3","1","Die Assoziation durch die Bilder, dem brennenden Faß, hat Schriftzeichen mit mehereren Vierecken leicht unangenehmer gemacht.","0","1","0","null","","","<div style=""font-size:60px;"">+</div>","null","","","","","","","","","",""
"","html-keyboard-response","115","343192","0.0-8.0-1.6","573oppzqcz","one_one","1","indirect_first","0","Baum1234","1","25","1","1","3","1","Die Assoziation durch die Bilder, dem brennenden Faß, hat Schriftzeichen mit mehereren Vierecken leicht unangenehmer gemacht.","0","1","0","null","","","<img src = 'category2/CS8.png' width = '100%;'>","null","","","","","","","","","",""
"","html-keyboard-response","116","343444","0.0-8.0-2.6","573oppzqcz","one_one","1","indirect_first","0","Baum1234","1","25","1","1","3","1","Die Assoziation durch die Bilder, dem brennenden Faß, hat Schriftzeichen mit mehereren Vierecken leicht unangenehmer gemacht.","0","1","0","null","","","<img src = 'targets/22.png' width = '100%;'>","null","","","","","","","","","",""
"","html-keyboard-response","117","344197","0.0-8.0-3.6","573oppzqcz","one_one","1","indirect_first","0","Baum1234","1","25","1","1","3","1","Die Assoziation durch die Bilder, dem brennenden Faß, hat Schriftzeichen mit mehereren Vierecken leicht unangenehmer gemacht.","0","1","0","751.3999999500811","","","<img src = 'targets/mask.png' width = '100%;'>","75","pos","GS","GSold","2","category2/CS8.png","targets/22.png","1","indirect","6",""
"","html-keyboard-response","118","345703","0.0-8.0-0.7","573oppzqcz","one_one","1","indirect_first","0","Baum1234","1","25","1","1","3","1","Die Assoziation durch die Bilder, dem brennenden Faß, hat Schriftzeichen mit mehereren Vierecken leicht unangenehmer gemacht.","0","1","0","null","","","<div style=""font-size:60px;"">+</div>","null","","","","","","","","","",""
"","html-keyboard-response","119","345795","0.0-8.0-1.7","573oppzqcz","one_one","1","indirect_first","0","Baum1234","1","25","1","1","3","1","Die Assoziation durch die Bilder, dem brennenden Faß, hat Schriftzeichen mit mehereren Vierecken leicht unangenehmer gemacht.","0","1","0","null","","","<img src = 'category1/CS9.png' width = '100%;'>","null","","","","","","","","","",""
"","html-keyboard-response","120","346053","0.0-8.0-2.7","573oppzqcz","one_one","1","indirect_first","0","Baum1234","1","25","1","1","3","1","Die Assoziation durch die Bilder, dem brennenden Faß, hat Schriftzeichen mit mehereren Vierecken leicht unangenehmer gemacht.","0","1","0","null","","","<img src = 'targets/44.png' width = '100%;'>","null","","","","","","","","","",""
"","html-keyboard-response","121","347624","0.0-8.0-3.7","573oppzqcz","one_one","1","indirect_first","0","Baum1234","1","25","1","1","3","1","Die Assoziation durch die Bilder, dem brennenden Faß, hat Schriftzeichen mit mehereren Vierecken leicht unangenehmer gemacht.","0","1","0","1570.3699998557568","","","<img src = 'targets/mask.png' width = '100%;'>","75","pos","GS","GSold","1","category1/CS9.png","targets/44.png","1","indirect","7",""
"","html-keyboard-response","122","349135","0.0-8.0-0.8","573oppzqcz","one_one","1","indirect_first","0","Baum1234","1","25","1","1","3","1","Die Assoziation durch die Bilder, dem brennenden Faß, hat Schriftzeichen mit mehereren Vierecken leicht unangenehmer gemacht.","0","1","0","null","","","<div style=""font-size:60px;"">+</div>","null","","","","","","","","","",""
"","html-keyboard-response","123","349227","0.0-8.0-1.8","573oppzqcz","one_one","1","indirect_first","0","Baum1234","1","25","1","1","3","1","Die Assoziation durch die Bilder, dem brennenden Faß, hat Schriftzeichen mit mehereren Vierecken leicht unangenehmer gemacht.","0","1","0","null","","","<img src = 'category4/CS9.png' width = '100%;'>","null","","","","","","","","","",""
"","html-keyboard-response","124","349484","0.0-8.0-2.8","573oppzqcz","one_one","1","indirect_first","0","Baum1234","1","25","1","1","3","1","Die Assoziation durch die Bilder, dem brennenden Faß, hat Schriftzeichen mit mehereren Vierecken leicht unangenehmer gemacht.","0","1","0","null","","","<img src = 'targets/41.png' width = '100%;'>","null","","","","","","","","","",""
"","html-keyboard-response","125","350190","0.0-8.0-3.8","573oppzqcz","one_one","1","indirect_first","0","Baum1234","1","25","1","1","3","1","Die Assoziation durch die Bilder, dem brennenden Faß, hat Schriftzeichen mit mehereren Vierecken leicht unangenehmer gemacht.","0","1","0","704.0650001727045","","","<img src = 'targets/mask.png' width = '100%;'>","68","neg","GS","GSold","4","category4/CS9.png","targets/41.png","0","indirect","8",""
"","html-keyboard-response","126","351694","0.0-8.0-0.9","573oppzqcz","one_one","1","indirect_first","0","Baum1234","1","25","1","1","3","1","Die Assoziation durch die Bilder, dem brennenden Faß, hat Schriftzeichen mit mehereren Vierecken leicht unangenehmer gemacht.","0","1","0","null","","","<div style=""font-size:60px;"">+</div>","null","","","","","","","","","",""
"","html-keyboard-response","127","351788","0.0-8.0-1.9","573oppzqcz","one_one","1","indirect_first","0","Baum1234","1","25","1","1","3","1","Die Assoziation durch die Bilder, dem brennenden Faß, hat Schriftzeichen mit mehereren Vierecken leicht unangenehmer gemacht.","0","1","0","null","","","<img src = 'category2/CS1.png' width = '100%;'>","null","","","","","","","","","",""
"","html-keyboard-response","128","352042","0.0-8.0-2.9","573oppzqcz","one_one","1","indirect_first","0","Baum1234","1","25","1","1","3","1","Die Assoziation durch die Bilder, dem brennenden Faß, hat Schriftzeichen mit mehereren Vierecken leicht unangenehmer gemacht.","0","1","0","null","","","<img src = 'targets/5.png' width = '100%;'>","null","","","","","","","","","",""
"","html-keyboard-response","129","352186","0.0-8.0-3.9","573oppzqcz","one_one","1","indirect_first","0","Baum1234","1","25","1","1","3","1","Die Assoziation durch die Bilder, dem brennenden Faß, hat Schriftzeichen mit mehereren Vierecken leicht unangenehmer gemacht.","0","1","0","143.00499996170402","","","<img src = 'targets/mask.png' width = '100%;'>","75","pos","GS","GSold","2","category2/CS1.png","targets/5.png","1","indirect","9",""
"","html-keyboard-response","130","353691","0.0-8.0-0.10","573oppzqcz","one_one","1","indirect_first","0","Baum1234","1","25","1","1","3","1","Die Assoziation durch die Bilder, dem brennenden Faß, hat Schriftzeichen mit mehereren Vierecken leicht unangenehmer gemacht.","0","1","0","null","","","<div style=""font-size:60px;"">+</div>","null","","","","","","","","","",""
"","html-keyboard-response","131","353783","0.0-8.0-1.10","573oppzqcz","one_one","1","indirect_first","0","Baum1234","1","25","1","1","3","1","Die Assoziation durch die Bilder, dem brennenden Faß, hat Schriftzeichen mit mehereren Vierecken leicht unangenehmer gemacht.","0","1","0","null","","","<img src = 'category1/CS1.png' width = '100%;'>","null","","","","","","","","","",""
"","html-keyboard-response","132","354043","0.0-8.0-2.10","573oppzqcz","one_one","1","indirect_first","0","Baum1234","1","25","1","1","3","1","Die Assoziation durch die Bilder, dem brennenden Faß, hat Schriftzeichen mit mehereren Vierecken leicht unangenehmer gemacht.","0","1","0","null","","","<img src = 'targets/30.png' width = '100%;'>","null","","","","","","","","","",""
"","html-keyboard-response","133","354168","0.0-8.0-3.10","573oppzqcz","one_one","1","indirect_first","0","Baum1234","1","25","1","1","3","1","Die Assoziation durch die Bilder, dem brennenden Faß, hat Schriftzeichen mit mehereren Vierecken leicht unangenehmer gemacht.","0","1","0","124.22499991953373","","","<img src = 'targets/mask.png' width = '100%;'>","68","pos","CS","CS","1","category1/CS1.png","targets/30.png","0","indirect","10",""
"","html-keyboard-response","134","355673","0.0-8.0-0.11","573oppzqcz","one_one","1","indirect_first","0","Baum1234","1","25","1","1","3","1","Die Assoziation durch die Bilder, dem brennenden Faß, hat Schriftzeichen mit mehereren Vierecken leicht unangenehmer gemacht.","0","1","0","null","","","<div style=""font-size:60px;"">+</div>","null","","","","","","","","","",""
"","html-keyboard-response","135","355769","0.0-8.0-1.11","573oppzqcz","one_one","1","indirect_first","0","Baum1234","1","25","1","1","3","1","Die Assoziation durch die Bilder, dem brennenden Faß, hat Schriftzeichen mit mehereren Vierecken leicht unangenehmer gemacht.","0","1","0","null","","","<img src = 'category3/CS5.png' width = '100%;'>","null","","","","","","","","","",""
"","html-keyboard-response","136","356025","0.0-8.0-2.11","573oppzqcz","one_one","1","indirect_first","0","Baum1234","1","25","1","1","3","1","Die Assoziation durch die Bilder, dem brennenden Faß, hat Schriftzeichen mit mehereren Vierecken leicht unangenehmer gemacht.","0","1","0","null","","","<img src = 'targets/19.png' width = '100%;'>","null","","","","","","","","","",""
"","html-keyboard-response","137","356254","0.0-8.0-3.11","573oppzqcz","one_one","1","indirect_first","0","Baum1234","1","25","1","1","3","1","Die Assoziation durch die Bilder, dem brennenden Faß, hat Schriftzeichen mit mehereren Vierecken leicht unangenehmer gemacht.","0","1","0","227.6949998922646","","","<img src = 'targets/mask.png' width = '100%;'>","75","neg","GS","GSold","3","category3/CS5.png","targets/19.png","1","indirect","11",""
"","html-keyboard-response","138","357762","0.0-8.0-0.12","573oppzqcz","one_one","1","indirect_first","0","Baum1234","1","25","1","1","3","1","Die Assoziation durch die Bilder, dem brennenden Faß, hat Schriftzeichen mit mehereren Vierecken leicht unangenehmer gemacht.","0","1","0","null","","","<div style=""font-size:60px;"">+</div>","null","","","","","","","","","",""
"","html-keyboard-response","139","357853","0.0-8.0-1.12","573oppzqcz","one_one","1","indirect_first","0","Baum1234","1","25","1","1","3","1","Die Assoziation durch die Bilder, dem brennenden Faß, hat Schriftzeichen mit mehereren Vierecken leicht unangenehmer gemacht.","0","1","0","null","","","<img src = 'category2/CS7.png' width = '100%;'>","null","","","","","","","","","",""
"","html-keyboard-response","140","358109","0.0-8.0-2.12","573oppzqcz","one_one","1","indirect_first","0","Baum1234","1","25","1","1","3","1","Die Assoziation durch die Bilder, dem brennenden Faß, hat Schriftzeichen mit mehereren Vierecken leicht unangenehmer gemacht.","0","1","0","null","","","<img src = 'targets/7.png' width = '100%;'>","null","","","","","","","","","",""
"","html-keyboard-response","141","358885","0.0-8.0-3.12","573oppzqcz","one_one","1","indirect_first","0","Baum1234","1","25","1","1","3","1","Die Assoziation durch die Bilder, dem brennenden Faß, hat Schriftzeichen mit mehereren Vierecken leicht unangenehmer gemacht.","0","1","0","775.2300000283867","","","<img src = 'targets/mask.png' width = '100%;'>","68","pos","GS","GSold","2","category2/CS7.png","targets/7.png","0","indirect","12",""
"","html-keyboard-response","142","360393","0.0-8.0-0.13","573oppzqcz","one_one","1","indirect_first","0","Baum1234","1","25","1","1","3","1","Die Assoziation durch die Bilder, dem brennenden Faß, hat Schriftzeichen mit mehereren Vierecken leicht unangenehmer gemacht.","0","1","0","null","","","<div style=""font-size:60px;"">+</div>","null","","","","","","","","","",""
"","html-keyboard-response","143","360484","0.0-8.0-1.13","573oppzqcz","one_one","1","indirect_first","0","Baum1234","1","25","1","1","3","1","Die Assoziation durch die Bilder, dem brennenden Faß, hat Schriftzeichen mit mehereren Vierecken leicht unangenehmer gemacht.","0","1","0","null","","","<img src = 'category1/CS6.png' width = '100%;'>","null","","","","","","","","","",""
"","html-keyboard-response","144","360738","0.0-8.0-2.13","573oppzqcz","one_one","1","indirect_first","0","Baum1234","1","25","1","1","3","1","Die Assoziation durch die Bilder, dem brennenden Faß, hat Schriftzeichen mit mehereren Vierecken leicht unangenehmer gemacht.","0","1","0","null","","","<img src = 'targets/27.png' width = '100%;'>","null","","","","","","","","","",""
"","html-keyboard-response","145","361133","0.0-8.0-3.13","573oppzqcz","one_one","1","indirect_first","0","Baum1234","1","25","1","1","3","1","Die Assoziation durch die Bilder, dem brennenden Faß, hat Schriftzeichen mit mehereren Vierecken leicht unangenehmer gemacht.","0","1","0","393.4299999382347","","","<img src = 'targets/mask.png' width = '100%;'>","68","pos","GS","GSold","1","category1/CS6.png","targets/27.png","0","indirect","13",""
"","html-keyboard-response","146","362637","0.0-8.0-0.14","573oppzqcz","one_one","1","indirect_first","0","Baum1234","1","25","1","1","3","1","Die Assoziation durch die Bilder, dem brennenden Faß, hat Schriftzeichen mit mehereren Vierecken leicht unangenehmer gemacht.","0","1","0","null","","","<div style=""font-size:60px;"">+</div>","null","","","","","","","","","",""
"","html-keyboard-response","147","362730","0.0-8.0-1.14","573oppzqcz","one_one","1","indirect_first","0","Baum1234","1","25","1","1","3","1","Die Assoziation durch die Bilder, dem brennenden Faß, hat Schriftzeichen mit mehereren Vierecken leicht unangenehmer gemacht.","0","1","0","null","","","<img src = 'category3/CS6.png' width = '100%;'>","null","","","","","","","","","",""
"","html-keyboard-response","148","362986","0.0-8.0-2.14","573oppzqcz","one_one","1","indirect_first","0","Baum1234","1","25","1","1","3","1","Die Assoziation durch die Bilder, dem brennenden Faß, hat Schriftzeichen mit mehereren Vierecken leicht unangenehmer gemacht.","0","1","0","null","","","<img src = 'targets/45.png' width = '100%;'>","null","","","","","","","","","",""
"","html-keyboard-response","149","363516","0.0-8.0-3.14","573oppzqcz","one_one","1","indirect_first","0","Baum1234","1","25","1","1","3","1","Die Assoziation durch die Bilder, dem brennenden Faß, hat Schriftzeichen mit mehereren Vierecken leicht unangenehmer gemacht.","0","1","0","529.829999897629","","","<img src = 'targets/mask.png' width = '100%;'>","68","neg","CS","CS","3","category3/CS6.png","targets/45.png","0","indirect","14",""
"","html-keyboard-response","150","365020","0.0-8.0-0.15","573oppzqcz","one_one","1","indirect_first","0","Baum1234","1","25","1","1","3","1","Die Assoziation durch die Bilder, dem brennenden Faß, hat Schriftzeichen mit mehereren Vierecken leicht unangenehmer gemacht.","0","1","0","null","","","<div style=""font-size:60px;"">+</div>","null","","","","","","","","","",""
"","html-keyboard-response","151","365115","0.0-8.0-1.15","573oppzqcz","one_one","1","indirect_first","0","Baum1234","1","25","1","1","3","1","Die Assoziation durch die Bilder, dem brennenden Faß, hat Schriftzeichen mit mehereren Vierecken leicht unangenehmer gemacht.","0","1","0","null","","","<img src = 'category4/CS10.png' width = '100%;'>","null","","","","","","","","","",""
"","html-keyboard-response","152","365371","0.0-8.0-2.15","573oppzqcz","one_one","1","indirect_first","0","Baum1234","1","25","1","1","3","1","Die Assoziation durch die Bilder, dem brennenden Faß, hat Schriftzeichen mit mehereren Vierecken leicht unangenehmer gemacht.","0","1","0","null","","","<img src = 'targets/47.png' width = '100%;'>","null","","","","","","","","","",""
"","html-keyboard-response","153","366642","0.0-8.0-3.15","573oppzqcz","one_one","1","indirect_first","0","Baum1234","1","25","1","1","3","1","Die Assoziation durch die Bilder, dem brennenden Faß, hat Schriftzeichen mit mehereren Vierecken leicht unangenehmer gemacht.","0","1","0","1269.9299999512732","","","<img src = 'targets/mask.png' width = '100%;'>","68","neg","GS","GSold","4","category4/CS10.png","targets/47.png","0","indirect","15",""
"","survey-html-form","154","368298","0.0-9.0","573oppzqcz","one_one","1","indirect_first","0","Baum1234","1","25","1","1","3","1","Die Assoziation durch die Bilder, dem brennenden Faß, hat Schriftzeichen mit mehereren Vierecken leicht unangenehmer gemacht.","0","1","0","1154.419999802485","","{}","","","","","","","","","","","",""
"","html-keyboard-response","155","371303","0.0-10.0-0.0","573oppzqcz","one_one","1","indirect_first","0","Baum1234","1","25","1","1","3","1","Die Assoziation durch die Bilder, dem brennenden Faß, hat Schriftzeichen mit mehereren Vierecken leicht unangenehmer gemacht.","0","1","0","null","","","<div style=""font-size:60px;"">+</div>","null","","","","","","","","","",""
"","html-keyboard-response","156","371397","0.0-10.0-1.0","573oppzqcz","one_one","1","indirect_first","0","Baum1234","1","25","1","1","3","1","Die Assoziation durch die Bilder, dem brennenden Faß, hat Schriftzeichen mit mehereren Vierecken leicht unangenehmer gemacht.","0","1","0","null","","","<img src = 'category4/GS3.png' width = '100%;'>","null","","","","","","","","","",""
"","html-keyboard-response","157","371651","0.0-10.0-2.0","573oppzqcz","one_one","1","indirect_first","0","Baum1234","1","25","1","1","3","1","Die Assoziation durch die Bilder, dem brennenden Faß, hat Schriftzeichen mit mehereren Vierecken leicht unangenehmer gemacht.","0","1","0","null","","","<img src = 'targets/37.png' width = '100%;'>","null","","","","","","","","","",""
"","html-keyboard-response","158","371835","0.0-10.0-3.0","573oppzqcz","one_one","1","indirect_first","0","Baum1234","1","25","1","1","3","1","Die Assoziation durch die Bilder, dem brennenden Faß, hat Schriftzeichen mit mehereren Vierecken leicht unangenehmer gemacht.","0","1","0","183.079999871552","","","<img src = 'targets/mask.png' width = '100%;'>","75","neg","GS","GSnew","4","category4/GS3.png","targets/37.png","1","indirect","16",""
"","html-keyboard-response","159","373343","0.0-10.0-0.1","573oppzqcz","one_one","1","indirect_first","0","Baum1234","1","25","1","1","3","1","Die Assoziation durch die Bilder, dem brennenden Faß, hat Schriftzeichen mit mehereren Vierecken leicht unangenehmer gemacht.","0","1","0","null","","","<div style=""font-size:60px;"">+</div>","null","","","","","","","","","",""
"","html-keyboard-response","160","373436","0.0-10.0-1.1","573oppzqcz","one_one","1","indirect_first","0","Baum1234","1","25","1","1","3","1","Die Assoziation durch die Bilder, dem brennenden Faß, hat Schriftzeichen mit mehereren Vierecken leicht unangenehmer gemacht.","0","1","0","null","","","<img src = 'category2/GS2.png' width = '100%;'>","null","","","","","","","","","",""
"","html-keyboard-response","161","373689","0.0-10.0-2.1","573oppzqcz","one_one","1","indirect_first","0","Baum1234","1","25","1","1","3","1","Die Assoziation durch die Bilder, dem brennenden Faß, hat Schriftzeichen mit mehereren Vierecken leicht unangenehmer gemacht.","0","1","0","null","","","<img src = 'targets/28.png' width = '100%;'>","null","","","","","","","","","",""
"","html-keyboard-response","162","373866","0.0-10.0-3.1","573oppzqcz","one_one","1","indirect_first","0","Baum1234","1","25","1","1","3","1","Die Assoziation durch die Bilder, dem brennenden Faß, hat Schriftzeichen mit mehereren Vierecken leicht unangenehmer gemacht.","0","1","0","176.80000001564622","","","<img src = 'targets/mask.png' width = '100%;'>","68","pos","GS","GSnew","2","category2/GS2.png","targets/28.png","0","indirect","17",""
"","html-keyboard-response","163","375370","0.0-10.0-0.2","573oppzqcz","one_one","1","indirect_first","0","Baum1234","1","25","1","1","3","1","Die Assoziation durch die Bilder, dem brennenden Faß, hat Schriftzeichen mit mehereren Vierecken leicht unangenehmer gemacht.","0","1","0","null","","","<div style=""font-size:60px;"">+</div>","null","","","","","","","","","",""
"","html-keyboard-response","164","375463","0.0-10.0-1.2","573oppzqcz","one_one","1","indirect_first","0","Baum1234","1","25","1","1","3","1","Die Assoziation durch die Bilder, dem brennenden Faß, hat Schriftzeichen mit mehereren Vierecken leicht unangenehmer gemacht.","0","1","0","null","","","<img src = 'category3/GS2.png' width = '100%;'>","null","","","","","","","","","",""
"","html-keyboard-response","165","375716","0.0-10.0-2.2","573oppzqcz","one_one","1","indirect_first","0","Baum1234","1","25","1","1","3","1","Die Assoziation durch die Bilder, dem brennenden Faß, hat Schriftzeichen mit mehereren Vierecken leicht unangenehmer gemacht.","0","1","0","null","","","<img src = 'targets/16.png' width = '100%;'>","null","","","","","","","","","",""
"","html-keyboard-response","166","376332","0.0-10.0-3.2","573oppzqcz","one_one","1","indirect_first","0","Baum1234","1","25","1","1","3","1","Die Assoziation durch die Bilder, dem brennenden Faß, hat Schriftzeichen mit mehereren Vierecken leicht unangenehmer gemacht.","0","1","0","615.3100000228733","","","<img src = 'targets/mask.png' width = '100%;'>","68","neg","GS","GSnew","3","category3/GS2.png","targets/16.png","0","indirect","18",""
"","html-keyboard-response","167","377835","0.0-10.0-0.3","573oppzqcz","one_one","1","indirect_first","0","Baum1234","1","25","1","1","3","1","Die Assoziation durch die Bilder, dem brennenden Faß, hat Schriftzeichen mit mehereren Vierecken leicht unangenehmer gemacht.","0","1","0","null","","","<div style=""font-size:60px;"">+</div>","null","","","","","","","","","",""
"","html-keyboard-response","168","377927","0.0-10.0-1.3","573oppzqcz","one_one","1","indirect_first","0","Baum1234","1","25","1","1","3","1","Die Assoziation durch die Bilder, dem brennenden Faß, hat Schriftzeichen mit mehereren Vierecken leicht unangenehmer gemacht.","0","1","0","null","","","<img src = 'category3/GS1.png' width = '100%;'>","null","","","","","","","","","",""
"","html-keyboard-response","169","378185","0.0-10.0-2.3","573oppzqcz","one_one","1","indirect_first","0","Baum1234","1","25","1","1","3","1","Die Assoziation durch die Bilder, dem brennenden Faß, hat Schriftzeichen mit mehereren Vierecken leicht unangenehmer gemacht.","0","1","0","null","","","<img src = 'targets/8.png' width = '100%;'>","null","","","","","","","","","",""
"","html-keyboard-response","170","379136","0.0-10.0-3.3","573oppzqcz","one_one","1","indirect_first","0","Baum1234","1","25","1","1","3","1","Die Assoziation durch die Bilder, dem brennenden Faß, hat Schriftzeichen mit mehereren Vierecken leicht unangenehmer gemacht.","0","1","0","950.2449999563396","","","<img src = 'targets/mask.png' width = '100%;'>","75","neg","GS","GSnew","3","category3/GS1.png","targets/8.png","1","indirect","19",""
"","html-keyboard-response","171","380640","0.0-10.0-0.4","573oppzqcz","one_one","1","indirect_first","0","Baum1234","1","25","1","1","3","1","Die Assoziation durch die Bilder, dem brennenden Faß, hat Schriftzeichen mit mehereren Vierecken leicht unangenehmer gemacht.","0","1","0","null","","","<div style=""font-size:60px;"">+</div>","null","","","","","","","","","",""
"","html-keyboard-response","172","380733","0.0-10.0-1.4","573oppzqcz","one_one","1","indirect_first","0","Baum1234","1","25","1","1","3","1","Die Assoziation durch die Bilder, dem brennenden Faß, hat Schriftzeichen mit mehereren Vierecken leicht unangenehmer gemacht.","0","1","0","null","","","<img src = 'category1/GS3.png' width = '100%;'>","null","","","","","","","","","",""
"","html-keyboard-response","173","380986","0.0-10.0-2.4","573oppzqcz","one_one","1","indirect_first","0","Baum1234","1","25","1","1","3","1","Die Assoziation durch die Bilder, dem brennenden Faß, hat Schriftzeichen mit mehereren Vierecken leicht unangenehmer gemacht.","0","1","0","null","","","<img src = 'targets/11.png' width = '100%;'>","null","","","","","","","","","",""
"","html-keyboard-response","174","381606","0.0-10.0-3.4","573oppzqcz","one_one","1","indirect_first","0","Baum1234","1","25","1","1","3","1","Die Assoziation durch die Bilder, dem brennenden Faß, hat Schriftzeichen mit mehereren Vierecken leicht unangenehmer gemacht.","0","1","0","618.4100001119077","","","<img src = 'targets/mask.png' width = '100%;'>","75","pos","GS","GSnew","1","category1/GS3.png","targets/11.png","1","indirect","20",""
"","html-keyboard-response","175","383112","0.0-10.0-0.5","573oppzqcz","one_one","1","indirect_first","0","Baum1234","1","25","1","1","3","1","Die Assoziation durch die Bilder, dem brennenden Faß, hat Schriftzeichen mit mehereren Vierecken leicht unangenehmer gemacht.","0","1","0","null","","","<div style=""font-size:60px;"">+</div>","null","","","","","","","","","",""
"","html-keyboard-response","176","383205","0.0-10.0-1.5","573oppzqcz","one_one","1","indirect_first","0","Baum1234","1","25","1","1","3","1","Die Assoziation durch die Bilder, dem brennenden Faß, hat Schriftzeichen mit mehereren Vierecken leicht unangenehmer gemacht.","0","1","0","null","","","<img src = 'category4/GS1.png' width = '100%;'>","null","","","","","","","","","",""
"","html-keyboard-response","177","383462","0.0-10.0-2.5","573oppzqcz","one_one","1","indirect_first","0","Baum1234","1","25","1","1","3","1","Die Assoziation durch die Bilder, dem brennenden Faß, hat Schriftzeichen mit mehereren Vierecken leicht unangenehmer gemacht.","0","1","0","null","","","<img src = 'targets/9.png' width = '100%;'>","null","","","","","","","","","",""
"","html-keyboard-response","178","384450","0.0-10.0-3.5","573oppzqcz","one_one","1","indirect_first","0","Baum1234","1","25","1","1","3","1","Die Assoziation durch die Bilder, dem brennenden Faß, hat Schriftzeichen mit mehereren Vierecken leicht unangenehmer gemacht.","0","1","0","987.6350001432002","","","<img src = 'targets/mask.png' width = '100%;'>","75","neg","GS","GSnew","4","category4/GS1.png","targets/9.png","1","indirect","21",""
"","html-keyboard-response","179","385956","0.0-10.0-0.6","573oppzqcz","one_one","1","indirect_first","0","Baum1234","1","25","1","1","3","1","Die Assoziation durch die Bilder, dem brennenden Faß, hat Schriftzeichen mit mehereren Vierecken leicht unangenehmer gemacht.","0","1","0","null","","","<div style=""font-size:60px;"">+</div>","null","","","","","","","","","",""
"","html-keyboard-response","180","386049","0.0-10.0-1.6","573oppzqcz","one_one","1","indirect_first","0","Baum1234","1","25","1","1","3","1","Die Assoziation durch die Bilder, dem brennenden Faß, hat Schriftzeichen mit mehereren Vierecken leicht unangenehmer gemacht.","0","1","0","null","","","<img src = 'category2/men.png' width = '100%;'>","null","","","","","","","","","",""
"","html-keyboard-response","181","386309","0.0-10.0-2.6","573oppzqcz","one_one","1","indirect_first","0","Baum1234","1","25","1","1","3","1","Die Assoziation durch die Bilder, dem brennenden Faß, hat Schriftzeichen mit mehereren Vierecken leicht unangenehmer gemacht.","0","1","0","null","","","<img src = 'targets/46.png' width = '100%;'>","null","","","","","","","","","",""
"","html-keyboard-response","182","386726","0.0-10.0-3.6","573oppzqcz","one_one","1","indirect_first","0","Baum1234","1","25","1","1","3","1","Die Assoziation durch die Bilder, dem brennenden Faß, hat Schriftzeichen mit mehereren Vierecken leicht unangenehmer gemacht.","0","1","0","415.74999992735684","","","<img src = 'targets/mask.png' width = '100%;'>","75","pos","GS","abstract","2","category2/men.png","targets/46.png","1","indirect","22",""
"","html-keyboard-response","183","388231","0.0-10.0-0.7","573oppzqcz","one_one","1","indirect_first","0","Baum1234","1","25","1","1","3","1","Die Assoziation durch die Bilder, dem brennenden Faß, hat Schriftzeichen mit mehereren Vierecken leicht unangenehmer gemacht.","0","1","0","null","","","<div style=""font-size:60px;"">+</div>","null","","","","","","","","","",""
"","html-keyboard-response","184","388323","0.0-10.0-1.7","573oppzqcz","one_one","1","indirect_first","0","Baum1234","1","25","1","1","3","1","Die Assoziation durch die Bilder, dem brennenden Faß, hat Schriftzeichen mit mehereren Vierecken leicht unangenehmer gemacht.","0","1","0","null","","","<img src = 'category1/GS2.png' width = '100%;'>","null","","","","","","","","","",""
"","html-keyboard-response","185","388580","0.0-10.0-2.7","573oppzqcz","one_one","1","indirect_first","0","Baum1234","1","25","1","1","3","1","Die Assoziation durch die Bilder, dem brennenden Faß, hat Schriftzeichen mit mehereren Vierecken leicht unangenehmer gemacht.","0","1","0","null","","","<img src = 'targets/33.png' width = '100%;'>","null","","","","","","","","","",""
"","html-keyboard-response","186","388739","0.0-10.0-3.7","573oppzqcz","one_one","1","indirect_first","0","Baum1234","1","25","1","1","3","1","Die Assoziation durch die Bilder, dem brennenden Faß, hat Schriftzeichen mit mehereren Vierecken leicht unangenehmer gemacht.","0","1","0","157.98999997787178","","","<img src = 'targets/mask.png' width = '100%;'>","75","pos","GS","GSnew","1","category1/GS2.png","targets/33.png","1","indirect","23",""
"","html-keyboard-response","187","390247","0.0-10.0-0.8","573oppzqcz","one_one","1","indirect_first","0","Baum1234","1","25","1","1","3","1","Die Assoziation durch die Bilder, dem brennenden Faß, hat Schriftzeichen mit mehereren Vierecken leicht unangenehmer gemacht.","0","1","0","null","","","<div style=""font-size:60px;"">+</div>","null","","","","","","","","","",""
"","html-keyboard-response","188","390340","0.0-10.0-1.8","573oppzqcz","one_one","1","indirect_first","0","Baum1234","1","25","1","1","3","1","Die Assoziation durch die Bilder, dem brennenden Faß, hat Schriftzeichen mit mehereren Vierecken leicht unangenehmer gemacht.","0","1","0","null","","","<img src = 'category1/ma.png' width = '100%;'>","null","","","","","","","","","",""
"","html-keyboard-response","189","390600","0.0-10.0-2.8","573oppzqcz","one_one","1","indirect_first","0","Baum1234","1","25","1","1","3","1","Die Assoziation durch die Bilder, dem brennenden Faß, hat Schriftzeichen mit mehereren Vierecken leicht unangenehmer gemacht.","0","1","0","null","","","<img src = 'targets/48.png' width = '100%;'>","null","","","","","","","","","",""
"","html-keyboard-response","190","390820","0.0-10.0-3.8","573oppzqcz","one_one","1","indirect_first","0","Baum1234","1","25","1","1","3","1","Die Assoziation durch die Bilder, dem brennenden Faß, hat Schriftzeichen mit mehereren Vierecken leicht unangenehmer gemacht.","0","1","0","218.4849998448044","","","<img src = 'targets/mask.png' width = '100%;'>","75","pos","GS","abstract","1","category1/ma.png","targets/48.png","1","indirect","24",""
"","html-keyboard-response","191","392324","0.0-10.0-0.9","573oppzqcz","one_one","1","indirect_first","0","Baum1234","1","25","1","1","3","1","Die Assoziation durch die Bilder, dem brennenden Faß, hat Schriftzeichen mit mehereren Vierecken leicht unangenehmer gemacht.","0","1","0","null","","","<div style=""font-size:60px;"">+</div>","null","","","","","","","","","",""
"","html-keyboard-response","192","392417","0.0-10.0-1.9","573oppzqcz","one_one","1","indirect_first","0","Baum1234","1","25","1","1","3","1","Die Assoziation durch die Bilder, dem brennenden Faß, hat Schriftzeichen mit mehereren Vierecken leicht unangenehmer gemacht.","0","1","0","null","","","<img src = 'category1/GS1.png' width = '100%;'>","null","","","","","","","","","",""
"","html-keyboard-response","193","392673","0.0-10.0-2.9","573oppzqcz","one_one","1","indirect_first","0","Baum1234","1","25","1","1","3","1","Die Assoziation durch die Bilder, dem brennenden Faß, hat Schriftzeichen mit mehereren Vierecken leicht unangenehmer gemacht.","0","1","0","null","","","<img src = 'targets/6.png' width = '100%;'>","null","","","","","","","","","",""
"","html-keyboard-response","194","392885","0.0-10.0-3.9","573oppzqcz","one_one","1","indirect_first","0","Baum1234","1","25","1","1","3","1","Die Assoziation durch die Bilder, dem brennenden Faß, hat Schriftzeichen mit mehereren Vierecken leicht unangenehmer gemacht.","0","1","0","211.46999998018146","","","<img src = 'targets/mask.png' width = '100%;'>","75","pos","GS","GSnew","1","category1/GS1.png","targets/6.png","1","indirect","25",""
"","html-keyboard-response","195","394388","0.0-10.0-0.10","573oppzqcz","one_one","1","indirect_first","0","Baum1234","1","25","1","1","3","1","Die Assoziation durch die Bilder, dem brennenden Faß, hat Schriftzeichen mit mehereren Vierecken leicht unangenehmer gemacht.","0","1","0","null","","","<div style=""font-size:60px;"">+</div>","null","","","","","","","","","",""
"","html-keyboard-response","196","394483","0.0-10.0-1.10","573oppzqcz","one_one","1","indirect_first","0","Baum1234","1","25","1","1","3","1","Die Assoziation durch die Bilder, dem brennenden Faß, hat Schriftzeichen mit mehereren Vierecken leicht unangenehmer gemacht.","0","1","0","null","","","<img src = 'category4/GS2.png' width = '100%;'>","null","","","","","","","","","",""
"","html-keyboard-response","197","394739","0.0-10.0-2.10","573oppzqcz","one_one","1","indirect_first","0","Baum1234","1","25","1","1","3","1","Die Assoziation durch die Bilder, dem brennenden Faß, hat Schriftzeichen mit mehereren Vierecken leicht unangenehmer gemacht.","0","1","0","null","","","<img src = 'targets/2.png' width = '100%;'>","null","","","","","","","","","",""
"","html-keyboard-response","198","395493","0.0-10.0-3.10","573oppzqcz","one_one","1","indirect_first","0","Baum1234","1","25","1","1","3","1","Die Assoziation durch die Bilder, dem brennenden Faß, hat Schriftzeichen mit mehereren Vierecken leicht unangenehmer gemacht.","0","1","0","752.729999832809","","","<img src = 'targets/mask.png' width = '100%;'>","75","neg","GS","GSnew","4","category4/GS2.png","targets/2.png","1","indirect","26",""
"","html-keyboard-response","199","396998","0.0-10.0-0.11","573oppzqcz","one_one","1","indirect_first","0","Baum1234","1","25","1","1","3","1","Die Assoziation durch die Bilder, dem brennenden Faß, hat Schriftzeichen mit mehereren Vierecken leicht unangenehmer gemacht.","0","1","0","null","","","<div style=""font-size:60px;"">+</div>","null","","","","","","","","","",""
"","html-keyboard-response","200","397090","0.0-10.0-1.11","573oppzqcz","one_one","1","indirect_first","0","Baum1234","1","25","1","1","3","1","Die Assoziation durch die Bilder, dem brennenden Faß, hat Schriftzeichen mit mehereren Vierecken leicht unangenehmer gemacht.","0","1","0","null","","","<img src = 'category2/GS3.png' width = '100%;'>","null","","","","","","","","","",""
"","html-keyboard-response","201","397346","0.0-10.0-2.11","573oppzqcz","one_one","1","indirect_first","0","Baum1234","1","25","1","1","3","1","Die Assoziation durch die Bilder, dem brennenden Faß, hat Schriftzeichen mit mehereren Vierecken leicht unangenehmer gemacht.","0","1","0","null","","","<img src = 'targets/32.png' width = '100%;'>","null","","","","","","","","","",""
"","html-keyboard-response","202","397881","0.0-10.0-3.11","573oppzqcz","one_one","1","indirect_first","0","Baum1234","1","25","1","1","3","1","Die Assoziation durch die Bilder, dem brennenden Faß, hat Schriftzeichen mit mehereren Vierecken leicht unangenehmer gemacht.","0","1","0","534.3749998137355","","","<img src = 'targets/mask.png' width = '100%;'>","68","pos","GS","GSnew","2","category2/GS3.png","targets/32.png","0","indirect","27",""
"","html-keyboard-response","203","399389","0.0-10.0-0.12","573oppzqcz","one_one","1","indirect_first","0","Baum1234","1","25","1","1","3","1","Die Assoziation durch die Bilder, dem brennenden Faß, hat Schriftzeichen mit mehereren Vierecken leicht unangenehmer gemacht.","0","1","0","null","","","<div style=""font-size:60px;"">+</div>","null","","","","","","","","","",""
"","html-keyboard-response","204","399482","0.0-10.0-1.12","573oppzqcz","one_one","1","indirect_first","0","Baum1234","1","25","1","1","3","1","Die Assoziation durch die Bilder, dem brennenden Faß, hat Schriftzeichen mit mehereren Vierecken leicht unangenehmer gemacht.","0","1","0","null","","","<img src = 'category2/GS1.png' width = '100%;'>","null","","","","","","","","","",""
"","html-keyboard-response","205","399738","0.0-10.0-2.12","573oppzqcz","one_one","1","indirect_first","0","Baum1234","1","25","1","1","3","1","Die Assoziation durch die Bilder, dem brennenden Faß, hat Schriftzeichen mit mehereren Vierecken leicht unangenehmer gemacht.","0","1","0","null","","","<img src = 'targets/1.png' width = '100%;'>","null","","","","","","","","","",""
"","html-keyboard-response","206","400936","0.0-10.0-3.12","573oppzqcz","one_one","1","indirect_first","0","Baum1234","1","25","1","1","3","1","Die Assoziation durch die Bilder, dem brennenden Faß, hat Schriftzeichen mit mehereren Vierecken leicht unangenehmer gemacht.","0","1","0","1196.6450000181794","","","<img src = 'targets/mask.png' width = '100%;'>","68","pos","GS","GSnew","2","category2/GS1.png","targets/1.png","0","indirect","28",""
"","html-keyboard-response","207","402443","0.0-10.0-0.13","573oppzqcz","one_one","1","indirect_first","0","Baum1234","1","25","1","1","3","1","Die Assoziation durch die Bilder, dem brennenden Faß, hat Schriftzeichen mit mehereren Vierecken leicht unangenehmer gemacht.","0","1","0","null","","","<div style=""font-size:60px;"">+</div>","null","","","","","","","","","",""
"","html-keyboard-response","208","402536","0.0-10.0-1.13","573oppzqcz","one_one","1","indirect_first","0","Baum1234","1","25","1","1","3","1","Die Assoziation durch die Bilder, dem brennenden Faß, hat Schriftzeichen mit mehereren Vierecken leicht unangenehmer gemacht.","0","1","0","null","","","<img src = 'category4/lin.png' width = '100%;'>","null","","","","","","","","","",""
"","html-keyboard-response","209","402791","0.0-10.0-2.13","573oppzqcz","one_one","1","indirect_first","0","Baum1234","1","25","1","1","3","1","Die Assoziation durch die Bilder, dem brennenden Faß, hat Schriftzeichen mit mehereren Vierecken leicht unangenehmer gemacht.","0","1","0","null","","","<img src = 'targets/13.png' width = '100%;'>","null","","","","","","","","","",""
"","html-keyboard-response","210","403184","0.0-10.0-3.13","573oppzqcz","one_one","1","indirect_first","0","Baum1234","1","25","1","1","3","1","Die Assoziation durch die Bilder, dem brennenden Faß, hat Schriftzeichen mit mehereren Vierecken leicht unangenehmer gemacht.","0","1","0","392.2700001858175","","","<img src = 'targets/mask.png' width = '100%;'>","75","neg","GS","abstract","4","category4/lin.png","targets/13.png","1","indirect","29",""
"","html-keyboard-response","211","404689","0.0-10.0-0.14","573oppzqcz","one_one","1","indirect_first","0","Baum1234","1","25","1","1","3","1","Die Assoziation durch die Bilder, dem brennenden Faß, hat Schriftzeichen mit mehereren Vierecken leicht unangenehmer gemacht.","0","1","0","null","","","<div style=""font-size:60px;"">+</div>","null","","","","","","","","","",""
"","html-keyboard-response","212","404783","0.0-10.0-1.14","573oppzqcz","one_one","1","indirect_first","0","Baum1234","1","25","1","1","3","1","Die Assoziation durch die Bilder, dem brennenden Faß, hat Schriftzeichen mit mehereren Vierecken leicht unangenehmer gemacht.","0","1","0","null","","","<img src = 'category3/GS3.png' width = '100%;'>","null","","","","","","","","","",""
"","html-keyboard-response","213","405038","0.0-10.0-2.14","573oppzqcz","one_one","1","indirect_first","0","Baum1234","1","25","1","1","3","1","Die Assoziation durch die Bilder, dem brennenden Faß, hat Schriftzeichen mit mehereren Vierecken leicht unangenehmer gemacht.","0","1","0","null","","","<img src = 'targets/35.png' width = '100%;'>","null","","","","","","","","","",""
"","html-keyboard-response","214","405598","0.0-10.0-3.14","573oppzqcz","one_one","1","indirect_first","0","Baum1234","1","25","1","1","3","1","Die Assoziation durch die Bilder, dem brennenden Faß, hat Schriftzeichen mit mehereren Vierecken leicht unangenehmer gemacht.","0","1","0","558.699999935925","","","<img src = 'targets/mask.png' width = '100%;'>","68","neg","GS","GSnew","3","category3/GS3.png","targets/35.png","0","indirect","30",""
"","html-keyboard-response","215","407103","0.0-10.0-0.15","573oppzqcz","one_one","1","indirect_first","0","Baum1234","1","25","1","1","3","1","Die Assoziation durch die Bilder, dem brennenden Faß, hat Schriftzeichen mit mehereren Vierecken leicht unangenehmer gemacht.","0","1","0","null","","","<div style=""font-size:60px;"">+</div>","null","","","","","","","","","",""
"","html-keyboard-response","216","407198","0.0-10.0-1.15","573oppzqcz","one_one","1","indirect_first","0","Baum1234","1","25","1","1","3","1","Die Assoziation durch die Bilder, dem brennenden Faß, hat Schriftzeichen mit mehereren Vierecken leicht unangenehmer gemacht.","0","1","0","null","","","<img src = 'category3/wang.png' width = '100%;'>","null","","","","","","","","","",""
"","html-keyboard-response","217","407455","0.0-10.0-2.15","573oppzqcz","one_one","1","indirect_first","0","Baum1234","1","25","1","1","3","1","Die Assoziation durch die Bilder, dem brennenden Faß, hat Schriftzeichen mit mehereren Vierecken leicht unangenehmer gemacht.","0","1","0","null","","","<img src = 'targets/29.png' width = '100%;'>","null","","","","","","","","","",""
"","html-keyboard-response","218","410693","0.0-10.0-3.15","573oppzqcz","one_one","1","indirect_first","0","Baum1234","1","25","1","1","3","1","Die Assoziation durch die Bilder, dem brennenden Faß, hat Schriftzeichen mit mehereren Vierecken leicht unangenehmer gemacht.","0","1","0","3236.754999961704","","","<img src = 'targets/mask.png' width = '100%;'>","75","neg","GS","abstract","3","category3/wang.png","targets/29.png","1","indirect","31",""
"","survey-html-form","219","414754","0.0-11.0","573oppzqcz","one_one","1","indirect_first","0","Baum1234","1","25","1","1","3","1","Die Assoziation durch die Bilder, dem brennenden Faß, hat Schriftzeichen mit mehereren Vierecken leicht unangenehmer gemacht.","0","1","0","3557.574999984354","","{}","","","","","","","","","","","",""
"","image-slider-response","220","421018","0.0-12.0-0.0","573oppzqcz","one_one","1","indirect_first","0","Baum1234","1","25","1","1","3","1","Die Assoziation durch die Bilder, dem brennenden Faß, hat Schriftzeichen mit mehereren Vierecken leicht unangenehmer gemacht.","0","1","0","4258.614999940619","","","","","neg","GS","GSnew","4","category4/GS3.png","targets/37.png","","direct","","51"
"","image-slider-response","221","423550","0.0-12.0-0.1","573oppzqcz","one_one","1","indirect_first","0","Baum1234","1","25","1","1","3","1","Die Assoziation durch die Bilder, dem brennenden Faß, hat Schriftzeichen mit mehereren Vierecken leicht unangenehmer gemacht.","0","1","0","2530.680000083521","","","","","neg","GS","GSold","4","category4/CS5.png","targets/24.png","","direct","","48"
"","image-slider-response","222","427735","0.0-12.0-0.2","573oppzqcz","one_one","1","indirect_first","0","Baum1234","1","25","1","1","3","1","Die Assoziation durch die Bilder, dem brennenden Faß, hat Schriftzeichen mit mehereren Vierecken leicht unangenehmer gemacht.","0","1","0","4182.839999906719","","","","","neg","GS","GSold","3","category3/CS5.png","targets/19.png","","direct","","-38"
