"success","trial_type","trial_index","time_elapsed","internal_node_id","subject","condition","condition_code","measure","measure_code","codeword","gender","age","education","chinese","fach","handedness","comment","hinschauen","ablenkung","gewissenhaft","rt","url","responses","stimulus","key_press","val","type","type_specific","category","cs_selected","response","target","task","indirect","nr_pres"
"true","fullscreen","0","11820","0.0-0.0","t5jlt0xu6m","many_one","0","direct_first","1","in06as04","0","20","1","1","3","1","","0","1","0","","","","","","","","","","","","","","",""
"","external-html","1","79964","0.0-1.0","t5jlt0xu6m","many_one","0","direct_first","1","in06as04","0","20","1","1","3","1","","0","1","0","68075.17000008374","text/information.html","","","","","","","","","","","","",""
"","external-html","2","124423","0.0-2.0","t5jlt0xu6m","many_one","0","direct_first","1","in06as04","0","20","1","1","3","1","","0","1","0","44384.390000021085","text/consent.html","","","","","","","","","","","","",""
"","survey-html-form","3","185200","0.0-3.0","t5jlt0xu6m","many_one","0","direct_first","1","in06as04","0","20","1","1","3","1","","0","1","0","60772.16499997303","","{""codeword_enter"":""in06as04""}","","","","","","","","","","","",""
"","survey-html-form","4","206848","0.0-4.0","t5jlt0xu6m","many_one","0","direct_first","1","in06as04","0","20","1","1","3","1","","0","1","0","21643.42000009492","","{""age"":""20"",""education"":""1"",""subject"":""3"",""gender"":""0"",""handedness"":""1"",""chinese"":""1""}","","","","","","","","","","","",""
"","survey-html-form","5","215651","0.0-5.0","t5jlt0xu6m","many_one","0","direct_first","1","in06as04","0","20","1","1","3","1","","0","1","0","8795.780000044033","","{}","","","","","","","","","","","",""
"","html-keyboard-response","6","219663","0.0-6.0-0.0-0.0","t5jlt0xu6m","many_one","0","direct_first","1","in06as04","0","20","1","1","3","1","","0","1","0","null","","","<div class = 'row'><div class = 'column'><img src = 'category1/CS6.png' width = '70%;'></div><div class = 'column'><img src = 'usneg/9182.bmp' width = '100%;'></div></div>","null","neg","CS","CS","1","category1/CS6.png","","","","",""
"","html-keyboard-response","7","222168","0.0-6.0-0.0-0.1","t5jlt0xu6m","many_one","0","direct_first","1","in06as04","0","20","1","1","3","1","","0","1","0","null","","","<div class = 'row'><div class = 'column'><img src = 'category3/CS9.png' width = '70%;'></div><div class = 'column'><img src = 'uspos/2160.bmp' width = '100%;'></div></div>","null","pos","CS","CS","3","category3/CS9.png","","","","",""
"","html-keyboard-response","8","224672","0.0-6.0-0.0-0.2","t5jlt0xu6m","many_one","0","direct_first","1","in06as04","0","20","1","1","3","1","","0","1","0","null","","","<div class = 'row'><div class = 'column'><img src = 'uspos/7580.bmp' width = '100%;'></div><div class = 'column'><img src = 'category2/CS5.png' width = '70%;'></div></div>","null","pos","CS","CS","2","category2/CS5.png","","","","",""
"","html-keyboard-response","9","227176","0.0-6.0-0.0-0.3","t5jlt0xu6m","many_one","0","direct_first","1","in06as04","0","20","1","1","3","1","","0","1","0","null","","","<div class = 'row'><div class = 'column'><img src = 'category1/CS7.png' width = '70%;'></div><div class = 'column'><img src = 'usneg/9920.bmp' width = '100%;'></div></div>","null","neg","CS","CS","1","category1/CS7.png","","","","",""
"","html-keyboard-response","10","229684","0.0-6.0-0.0-0.4","t5jlt0xu6m","many_one","0","direct_first","1","in06as04","0","20","1","1","3","1","","0","1","0","null","","","<div class = 'row'><div class = 'column'><img src = 'category3/CS8.png' width = '70%;'></div><div class = 'column'><img src = 'uspos/4599.bmp' width = '100%;'></div></div>","null","pos","CS","CS","3","category3/CS8.png","","","","",""
"","html-keyboard-response","11","232188","0.0-6.0-0.0-0.5","t5jlt0xu6m","many_one","0","direct_first","1","in06as04","0","20","1","1","3","1","","0","1","0","null","","","<div class = 'row'><div class = 'column'><img src = 'category2/CS2.png' width = '70%;'></div><div class = 'column'><img src = 'uspos/2340.bmp' width = '100%;'></div></div>","null","pos","CS","CS","2","category2/CS2.png","","","","",""
"","html-keyboard-response","12","234693","0.0-6.0-0.0-0.6","t5jlt0xu6m","many_one","0","direct_first","1","in06as04","0","20","1","1","3","1","","0","1","0","null","","","<div class = 'row'><div class = 'column'><img src = 'usneg/9415.bmp' width = '100%;'></div><div class = 'column'><img src = 'category1/CS3.png' width = '70%;'></div></div>","null","neg","CS","CS","1","category1/CS3.png","","","","",""
"","html-keyboard-response","13","237200","0.0-6.0-0.0-0.7","t5jlt0xu6m","many_one","0","direct_first","1","in06as04","0","20","1","1","3","1","","0","1","0","null","","","<div class = 'row'><div class = 'column'><img src = 'uspos/5600.bmp' width = '100%;'></div><div class = 'column'><img src = 'category2/CS7.png' width = '70%;'></div></div>","null","pos","CS","CS","2","category2/CS7.png","","","","",""
"","html-keyboard-response","14","239706","0.0-6.0-0.0-0.8","t5jlt0xu6m","many_one","0","direct_first","1","in06as04","0","20","1","1","3","1","","0","1","0","null","","","<div class = 'row'><div class = 'column'><img src = 'usneg/9561.bmp' width = '100%;'></div><div class = 'column'><img src = 'category4/CS7.png' width = '70%;'></div></div>","null","neg","CS","CS","4","category4/CS7.png","","","","",""
"","html-keyboard-response","15","242209","0.0-6.0-0.0-0.9","t5jlt0xu6m","many_one","0","direct_first","1","in06as04","0","20","1","1","3","1","","0","1","0","null","","","<div class = 'row'><div class = 'column'><img src = 'category3/CS7.png' width = '70%;'></div><div class = 'column'><img src = 'uspos/2150.bmp' width = '100%;'></div></div>","null","pos","CS","CS","3","category3/CS7.png","","","","",""
"","html-keyboard-response","16","244714","0.0-6.0-0.0-0.10","t5jlt0xu6m","many_one","0","direct_first","1","in06as04","0","20","1","1","3","1","","0","1","0","null","","","<div class = 'row'><div class = 'column'><img src = 'category3/CS5.png' width = '70%;'></div><div class = 'column'><img src = 'uspos/1460.bmp' width = '100%;'></div></div>","null","pos","CS","CS","3","category3/CS5.png","","","","",""
"","html-keyboard-response","17","247219","0.0-6.0-0.0-0.11","t5jlt0xu6m","many_one","0","direct_first","1","in06as04","0","20","1","1","3","1","","0","1","0","null","","","<div class = 'row'><div class = 'column'><img src = 'uspos/1463.bmp' width = '100%;'></div><div class = 'column'><img src = 'category3/CS4.png' width = '70%;'></div></div>","null","pos","CS","CS","3","category3/CS4.png","","","","",""
"","html-keyboard-response","18","249728","0.0-6.0-0.0-0.12","t5jlt0xu6m","many_one","0","direct_first","1","in06as04","0","20","1","1","3","1","","0","1","0","null","","","<div class = 'row'><div class = 'column'><img src = 'usneg/2141.bmp' width = '100%;'></div><div class = 'column'><img src = 'category1/CS4.png' width = '70%;'></div></div>","null","neg","CS","CS","1","category1/CS4.png","","","","",""
"","html-keyboard-response","19","252234","0.0-6.0-0.0-0.13","t5jlt0xu6m","many_one","0","direct_first","1","in06as04","0","20","1","1","3","1","","0","1","0","null","","","<div class = 'row'><div class = 'column'><img src = 'category4/CS5.png' width = '70%;'></div><div class = 'column'><img src = 'usneg/3181.bmp' width = '100%;'></div></div>","null","neg","CS","CS","4","category4/CS5.png","","","","",""
"","html-keyboard-response","20","254740","0.0-6.0-0.0-0.14","t5jlt0xu6m","many_one","0","direct_first","1","in06as04","0","20","1","1","3","1","","0","1","0","null","","","<div class = 'row'><div class = 'column'><img src = 'uspos/5830.bmp' width = '100%;'></div><div class = 'column'><img src = 'category2/CS1.png' width = '70%;'></div></div>","null","pos","CS","CS","2","category2/CS1.png","","","","",""
"","html-keyboard-response","21","257246","0.0-6.0-0.0-0.15","t5jlt0xu6m","many_one","0","direct_first","1","in06as04","0","20","1","1","3","1","","0","1","0","null","","","<div class = 'row'><div class = 'column'><img src = 'category4/CS6.png' width = '70%;'></div><div class = 'column'><img src = 'usneg/9635.2.bmp' width = '100%;'></div></div>","null","neg","CS","CS","4","category4/CS6.png","","","","",""
"","html-keyboard-response","22","259752","0.0-6.0-0.0-0.16","t5jlt0xu6m","many_one","0","direct_first","1","in06as04","0","20","1","1","3","1","","0","1","0","null","","","<div class = 'row'><div class = 'column'><img src = 'uspos/2057.bmp' width = '100%;'></div><div class = 'column'><img src = 'category2/CS3.png' width = '70%;'></div></div>","null","pos","CS","CS","2","category2/CS3.png","","","","",""
"","html-keyboard-response","23","262258","0.0-6.0-0.0-0.17","t5jlt0xu6m","many_one","0","direct_first","1","in06as04","0","20","1","1","3","1","","0","1","0","null","","","<div class = 'row'><div class = 'column'><img src = 'usneg/9330.bmp' width = '100%;'></div><div class = 'column'><img src = 'category4/CS1.png' width = '70%;'></div></div>","null","neg","CS","CS","4","category4/CS1.png","","","","",""
"","html-keyboard-response","24","264764","0.0-6.0-0.0-0.18","t5jlt0xu6m","many_one","0","direct_first","1","in06as04","0","20","1","1","3","1","","0","1","0","null","","","<div class = 'row'><div class = 'column'><img src = 'category1/CS9.png' width = '70%;'></div><div class = 'column'><img src = 'usneg/9181.bmp' width = '100%;'></div></div>","null","neg","CS","CS","1","category1/CS9.png","","","","",""
"","html-keyboard-response","25","267270","0.0-6.0-0.0-0.19","t5jlt0xu6m","many_one","0","direct_first","1","in06as04","0","20","1","1","3","1","","0","1","0","null","","","<div class = 'row'><div class = 'column'><img src = 'usneg/6020.bmp' width = '100%;'></div><div class = 'column'><img src = 'category4/CS10.png' width = '70%;'></div></div>","null","neg","CS","CS","4","category4/CS10.png","","","","",""
"","survey-html-form","26","271266","0.0-6.0-1.0","t5jlt0xu6m","many_one","0","direct_first","1","in06as04","0","20","1","1","3","1","","0","1","0","3493.9649999141693","","{}","","","","","","","","","","","",""
"","html-keyboard-response","27","275272","0.0-6.0-2.0-0.0","t5jlt0xu6m","many_one","0","direct_first","1","in06as04","0","20","1","1","3","1","","0","1","0","null","","","<div class = 'row'><div class = 'column'><img src = 'usneg/9415.bmp' width = '100%;'></div><div class = 'column'><img src = 'category1/CS3.png' width = '70%;'></div></div>","null","neg","CS","CS","1","category1/CS3.png","","","","",""
"","html-keyboard-response","28","277778","0.0-6.0-2.0-0.1","t5jlt0xu6m","many_one","0","direct_first","1","in06as04","0","20","1","1","3","1","","0","1","0","null","","","<div class = 'row'><div class = 'column'><img src = 'uspos/2340.bmp' width = '100%;'></div><div class = 'column'><img src = 'category2/CS2.png' width = '70%;'></div></div>","null","pos","CS","CS","2","category2/CS2.png","","","","",""
"","html-keyboard-response","29","280282","0.0-6.0-2.0-0.2","t5jlt0xu6m","many_one","0","direct_first","1","in06as04","0","20","1","1","3","1","","0","1","0","null","","","<div class = 'row'><div class = 'column'><img src = 'usneg/6020.bmp' width = '100%;'></div><div class = 'column'><img src = 'category4/CS10.png' width = '70%;'></div></div>","null","neg","CS","CS","4","category4/CS10.png","","","","",""
"","html-keyboard-response","30","282788","0.0-6.0-2.0-0.3","t5jlt0xu6m","many_one","0","direct_first","1","in06as04","0","20","1","1","3","1","","0","1","0","null","","","<div class = 'row'><div class = 'column'><img src = 'category3/CS4.png' width = '70%;'></div><div class = 'column'><img src = 'uspos/1463.bmp' width = '100%;'></div></div>","null","pos","CS","CS","3","category3/CS4.png","","","","",""
"","html-keyboard-response","31","285294","0.0-6.0-2.0-0.4","t5jlt0xu6m","many_one","0","direct_first","1","in06as04","0","20","1","1","3","1","","0","1","0","null","","","<div class = 'row'><div class = 'column'><img src = 'category1/CS4.png' width = '70%;'></div><div class = 'column'><img src = 'usneg/2141.bmp' width = '100%;'></div></div>","null","neg","CS","CS","1","category1/CS4.png","","","","",""
"","html-keyboard-response","32","287799","0.0-6.0-2.0-0.5","t5jlt0xu6m","many_one","0","direct_first","1","in06as04","0","20","1","1","3","1","","0","1","0","null","","","<div class = 'row'><div class = 'column'><img src = 'category4/CS7.png' width = '70%;'></div><div class = 'column'><img src = 'usneg/9561.bmp' width = '100%;'></div></div>","null","neg","CS","CS","4","category4/CS7.png","","","","",""
"","html-keyboard-response","33","290304","0.0-6.0-2.0-0.6","t5jlt0xu6m","many_one","0","direct_first","1","in06as04","0","20","1","1","3","1","","0","1","0","null","","","<div class = 'row'><div class = 'column'><img src = 'uspos/5600.bmp' width = '100%;'></div><div class = 'column'><img src = 'category2/CS7.png' width = '70%;'></div></div>","null","pos","CS","CS","2","category2/CS7.png","","","","",""
"","html-keyboard-response","34","292810","0.0-6.0-2.0-0.7","t5jlt0xu6m","many_one","0","direct_first","1","in06as04","0","20","1","1","3","1","","0","1","0","null","","","<div class = 'row'><div class = 'column'><img src = 'category1/CS6.png' width = '70%;'></div><div class = 'column'><img src = 'usneg/9182.bmp' width = '100%;'></div></div>","null","neg","CS","CS","1","category1/CS6.png","","","","",""
"","html-keyboard-response","35","295315","0.0-6.0-2.0-0.8","t5jlt0xu6m","many_one","0","direct_first","1","in06as04","0","20","1","1","3","1","","0","1","0","null","","","<div class = 'row'><div class = 'column'><img src = 'category3/CS5.png' width = '70%;'></div><div class = 'column'><img src = 'uspos/1460.bmp' width = '100%;'></div></div>","null","pos","CS","CS","3","category3/CS5.png","","","","",""
"","html-keyboard-response","36","297821","0.0-6.0-2.0-0.9","t5jlt0xu6m","many_one","0","direct_first","1","in06as04","0","20","1","1","3","1","","0","1","0","null","","","<div class = 'row'><div class = 'column'><img src = 'usneg/9181.bmp' width = '100%;'></div><div class = 'column'><img src = 'category1/CS9.png' width = '70%;'></div></div>","null","neg","CS","CS","1","category1/CS9.png","","","","",""
"","html-keyboard-response","37","300328","0.0-6.0-2.0-0.10","t5jlt0xu6m","many_one","0","direct_first","1","in06as04","0","20","1","1","3","1","","0","1","0","null","","","<div class = 'row'><div class = 'column'><img src = 'usneg/9920.bmp' width = '100%;'></div><div class = 'column'><img src = 'category1/CS7.png' width = '70%;'></div></div>","null","neg","CS","CS","1","category1/CS7.png","","","","",""
"","html-keyboard-response","38","302833","0.0-6.0-2.0-0.11","t5jlt0xu6m","many_one","0","direct_first","1","in06as04","0","20","1","1","3","1","","0","1","0","null","","","<div class = 'row'><div class = 'column'><img src = 'category2/CS3.png' width = '70%;'></div><div class = 'column'><img src = 'uspos/2057.bmp' width = '100%;'></div></div>","null","pos","CS","CS","2","category2/CS3.png","","","","",""
"","html-keyboard-response","39","305341","0.0-6.0-2.0-0.12","t5jlt0xu6m","many_one","0","direct_first","1","in06as04","0","20","1","1","3","1","","0","1","0","null","","","<div class = 'row'><div class = 'column'><img src = 'category4/CS1.png' width = '70%;'></div><div class = 'column'><img src = 'usneg/9330.bmp' width = '100%;'></div></div>","null","neg","CS","CS","4","category4/CS1.png","","","","",""
"","html-keyboard-response","40","307846","0.0-6.0-2.0-0.13","t5jlt0xu6m","many_one","0","direct_first","1","in06as04","0","20","1","1","3","1","","0","1","0","null","","","<div class = 'row'><div class = 'column'><img src = 'usneg/3181.bmp' width = '100%;'></div><div class = 'column'><img src = 'category4/CS5.png' width = '70%;'></div></div>","null","neg","CS","CS","4","category4/CS5.png","","","","",""
"","html-keyboard-response","41","310351","0.0-6.0-2.0-0.14","t5jlt0xu6m","many_one","0","direct_first","1","in06as04","0","20","1","1","3","1","","0","1","0","null","","","<div class = 'row'><div class = 'column'><img src = 'usneg/9635.2.bmp' width = '100%;'></div><div class = 'column'><img src = 'category4/CS6.png' width = '70%;'></div></div>","null","neg","CS","CS","4","category4/CS6.png","","","","",""
"","html-keyboard-response","42","312855","0.0-6.0-2.0-0.15","t5jlt0xu6m","many_one","0","direct_first","1","in06as04","0","20","1","1","3","1","","0","1","0","null","","","<div class = 'row'><div class = 'column'><img src = 'category3/CS8.png' width = '70%;'></div><div class = 'column'><img src = 'uspos/4599.bmp' width = '100%;'></div></div>","null","pos","CS","CS","3","category3/CS8.png","","","","",""
"","html-keyboard-response","43","315361","0.0-6.0-2.0-0.16","t5jlt0xu6m","many_one","0","direct_first","1","in06as04","0","20","1","1","3","1","","0","1","0","null","","","<div class = 'row'><div class = 'column'><img src = 'category3/CS7.png' width = '70%;'></div><div class = 'column'><img src = 'uspos/2150.bmp' width = '100%;'></div></div>","null","pos","CS","CS","3","category3/CS7.png","","","","",""
"","html-keyboard-response","44","317866","0.0-6.0-2.0-0.17","t5jlt0xu6m","many_one","0","direct_first","1","in06as04","0","20","1","1","3","1","","0","1","0","null","","","<div class = 'row'><div class = 'column'><img src = 'uspos/7580.bmp' width = '100%;'></div><div class = 'column'><img src = 'category2/CS5.png' width = '70%;'></div></div>","null","pos","CS","CS","2","category2/CS5.png","","","","",""
"","html-keyboard-response","45","320373","0.0-6.0-2.0-0.18","t5jlt0xu6m","many_one","0","direct_first","1","in06as04","0","20","1","1","3","1","","0","1","0","null","","","<div class = 'row'><div class = 'column'><img src = 'category2/CS1.png' width = '70%;'></div><div class = 'column'><img src = 'uspos/5830.bmp' width = '100%;'></div></div>","null","pos","CS","CS","2","category2/CS1.png","","","","",""
"","html-keyboard-response","46","322877","0.0-6.0-2.0-0.19","t5jlt0xu6m","many_one","0","direct_first","1","in06as04","0","20","1","1","3","1","","0","1","0","null","","","<div class = 'row'><div class = 'column'><img src = 'category3/CS9.png' width = '70%;'></div><div class = 'column'><img src = 'uspos/2160.bmp' width = '100%;'></div></div>","null","pos","CS","CS","3","category3/CS9.png","","","","",""
"","survey-html-form","47","335057","0.0-6.0-3.0","t5jlt0xu6m","many_one","0","direct_first","1","in06as04","0","20","1","1","3","1","","0","1","0","11676.99999990873","","{}","","","","","","","","","","","",""
"","html-keyboard-response","48","339065","0.0-6.0-4.0-0.0","t5jlt0xu6m","many_one","0","direct_first","1","in06as04","0","20","1","1","3","1","","0","1","0","null","","","<div class = 'row'><div class = 'column'><img src = 'uspos/2057.bmp' width = '100%;'></div><div class = 'column'><img src = 'category2/CS3.png' width = '70%;'></div></div>","null","pos","CS","CS","2","category2/CS3.png","","","","",""
"","html-keyboard-response","49","341570","0.0-6.0-4.0-0.1","t5jlt0xu6m","many_one","0","direct_first","1","in06as04","0","20","1","1","3","1","","0","1","0","null","","","<div class = 'row'><div class = 'column'><img src = 'category2/CS2.png' width = '70%;'></div><div class = 'column'><img src = 'uspos/2340.bmp' width = '100%;'></div></div>","null","pos","CS","CS","2","category2/CS2.png","","","","",""
"","html-keyboard-response","50","344075","0.0-6.0-4.0-0.2","t5jlt0xu6m","many_one","0","direct_first","1","in06as04","0","20","1","1","3","1","","0","1","0","null","","","<div class = 'row'><div class = 'column'><img src = 'usneg/9415.bmp' width = '100%;'></div><div class = 'column'><img src = 'category1/CS3.png' width = '70%;'></div></div>","null","neg","CS","CS","1","category1/CS3.png","","","","",""
"","html-keyboard-response","51","346581","0.0-6.0-4.0-0.3","t5jlt0xu6m","many_one","0","direct_first","1","in06as04","0","20","1","1","3","1","","0","1","0","null","","","<div class = 'row'><div class = 'column'><img src = 'uspos/2150.bmp' width = '100%;'></div><div class = 'column'><img src = 'category3/CS7.png' width = '70%;'></div></div>","null","pos","CS","CS","3","category3/CS7.png","","","","",""
"","html-keyboard-response","52","349088","0.0-6.0-4.0-0.4","t5jlt0xu6m","many_one","0","direct_first","1","in06as04","0","20","1","1","3","1","","0","1","0","null","","","<div class = 'row'><div class = 'column'><img src = 'category4/CS6.png' width = '70%;'></div><div class = 'column'><img src = 'usneg/9635.2.bmp' width = '100%;'></div></div>","null","neg","CS","CS","4","category4/CS6.png","","","","",""
"","html-keyboard-response","53","351592","0.0-6.0-4.0-0.5","t5jlt0xu6m","many_one","0","direct_first","1","in06as04","0","20","1","1","3","1","","0","1","0","null","","","<div class = 'row'><div class = 'column'><img src = 'uspos/1463.bmp' width = '100%;'></div><div class = 'column'><img src = 'category3/CS4.png' width = '70%;'></div></div>","null","pos","CS","CS","3","category3/CS4.png","","","","",""
"","html-keyboard-response","54","354097","0.0-6.0-4.0-0.6","t5jlt0xu6m","many_one","0","direct_first","1","in06as04","0","20","1","1","3","1","","0","1","0","null","","","<div class = 'row'><div class = 'column'><img src = 'usneg/3181.bmp' width = '100%;'></div><div class = 'column'><img src = 'category4/CS5.png' width = '70%;'></div></div>","null","neg","CS","CS","4","category4/CS5.png","","","","",""
"","html-keyboard-response","55","356603","0.0-6.0-4.0-0.7","t5jlt0xu6m","many_one","0","direct_first","1","in06as04","0","20","1","1","3","1","","0","1","0","null","","","<div class = 'row'><div class = 'column'><img src = 'uspos/7580.bmp' width = '100%;'></div><div class = 'column'><img src = 'category2/CS5.png' width = '70%;'></div></div>","null","pos","CS","CS","2","category2/CS5.png","","","","",""
"","html-keyboard-response","56","359110","0.0-6.0-4.0-0.8","t5jlt0xu6m","many_one","0","direct_first","1","in06as04","0","20","1","1","3","1","","0","1","0","null","","","<div class = 'row'><div class = 'column'><img src = 'usneg/9330.bmp' width = '100%;'></div><div class = 'column'><img src = 'category4/CS1.png' width = '70%;'></div></div>","null","neg","CS","CS","4","category4/CS1.png","","","","",""
"","html-keyboard-response","57","361615","0.0-6.0-4.0-0.9","t5jlt0xu6m","many_one","0","direct_first","1","in06as04","0","20","1","1","3","1","","0","1","0","null","","","<div class = 'row'><div class = 'column'><img src = 'usneg/9181.bmp' width = '100%;'></div><div class = 'column'><img src = 'category1/CS9.png' width = '70%;'></div></div>","null","neg","CS","CS","1","category1/CS9.png","","","","",""
"","html-keyboard-response","58","364121","0.0-6.0-4.0-0.10","t5jlt0xu6m","many_one","0","direct_first","1","in06as04","0","20","1","1","3","1","","0","1","0","null","","","<div class = 'row'><div class = 'column'><img src = 'category1/CS7.png' width = '70%;'></div><div class = 'column'><img src = 'usneg/9920.bmp' width = '100%;'></div></div>","null","neg","CS","CS","1","category1/CS7.png","","","","",""
"","html-keyboard-response","59","366627","0.0-6.0-4.0-0.11","t5jlt0xu6m","many_one","0","direct_first","1","in06as04","0","20","1","1","3","1","","0","1","0","null","","","<div class = 'row'><div class = 'column'><img src = 'category1/CS6.png' width = '70%;'></div><div class = 'column'><img src = 'usneg/9182.bmp' width = '100%;'></div></div>","null","neg","CS","CS","1","category1/CS6.png","","","","",""
"","html-keyboard-response","60","369135","0.0-6.0-4.0-0.12","t5jlt0xu6m","many_one","0","direct_first","1","in06as04","0","20","1","1","3","1","","0","1","0","null","","","<div class = 'row'><div class = 'column'><img src = 'category4/CS10.png' width = '70%;'></div><div class = 'column'><img src = 'usneg/6020.bmp' width = '100%;'></div></div>","null","neg","CS","CS","4","category4/CS10.png","","","","",""
"","html-keyboard-response","61","371640","0.0-6.0-4.0-0.13","t5jlt0xu6m","many_one","0","direct_first","1","in06as04","0","20","1","1","3","1","","0","1","0","null","","","<div class = 'row'><div class = 'column'><img src = 'usneg/2141.bmp' width = '100%;'></div><div class = 'column'><img src = 'category1/CS4.png' width = '70%;'></div></div>","null","neg","CS","CS","1","category1/CS4.png","","","","",""
"","html-keyboard-response","62","374145","0.0-6.0-4.0-0.14","t5jlt0xu6m","many_one","0","direct_first","1","in06as04","0","20","1","1","3","1","","0","1","0","null","","","<div class = 'row'><div class = 'column'><img src = 'usneg/9561.bmp' width = '100%;'></div><div class = 'column'><img src = 'category4/CS7.png' width = '70%;'></div></div>","null","neg","CS","CS","4","category4/CS7.png","","","","",""
"","html-keyboard-response","63","376650","0.0-6.0-4.0-0.15","t5jlt0xu6m","many_one","0","direct_first","1","in06as04","0","20","1","1","3","1","","0","1","0","null","","","<div class = 'row'><div class = 'column'><img src = 'category3/CS5.png' width = '70%;'></div><div class = 'column'><img src = 'uspos/1460.bmp' width = '100%;'></div></div>","null","pos","CS","CS","3","category3/CS5.png","","","","",""
"","html-keyboard-response","64","379160","0.0-6.0-4.0-0.16","t5jlt0xu6m","many_one","0","direct_first","1","in06as04","0","20","1","1","3","1","","0","1","0","null","","","<div class = 'row'><div class = 'column'><img src = 'category3/CS9.png' width = '70%;'></div><div class = 'column'><img src = 'uspos/2160.bmp' width = '100%;'></div></div>","null","pos","CS","CS","3","category3/CS9.png","","","","",""
"","html-keyboard-response","65","381665","0.0-6.0-4.0-0.17","t5jlt0xu6m","many_one","0","direct_first","1","in06as04","0","20","1","1","3","1","","0","1","0","null","","","<div class = 'row'><div class = 'column'><img src = 'uspos/5830.bmp' width = '100%;'></div><div class = 'column'><img src = 'category2/CS1.png' width = '70%;'></div></div>","null","pos","CS","CS","2","category2/CS1.png","","","","",""
"","html-keyboard-response","66","384170","0.0-6.0-4.0-0.18","t5jlt0xu6m","many_one","0","direct_first","1","in06as04","0","20","1","1","3","1","","0","1","0","null","","","<div class = 'row'><div class = 'column'><img src = 'uspos/5600.bmp' width = '100%;'></div><div class = 'column'><img src = 'category2/CS7.png' width = '70%;'></div></div>","null","pos","CS","CS","2","category2/CS7.png","","","","",""
"","html-keyboard-response","67","386676","0.0-6.0-4.0-0.19","t5jlt0xu6m","many_one","0","direct_first","1","in06as04","0","20","1","1","3","1","","0","1","0","null","","","<div class = 'row'><div class = 'column'><img src = 'uspos/4599.bmp' width = '100%;'></div><div class = 'column'><img src = 'category3/CS8.png' width = '70%;'></div></div>","null","pos","CS","CS","3","category3/CS8.png","","","","",""
"","survey-html-form","68","390438","0.0-6.0-5.0","t5jlt0xu6m","many_one","0","direct_first","1","in06as04","0","20","1","1","3","1","","0","1","0","3260.065000038594","","{}","","","","","","","","","","","",""
"","html-keyboard-response","69","394449","0.0-6.0-6.0-0.0","t5jlt0xu6m","many_one","0","direct_first","1","in06as04","0","20","1","1","3","1","","0","1","0","null","","","<div class = 'row'><div class = 'column'><img src = 'usneg/9920.bmp' width = '100%;'></div><div class = 'column'><img src = 'category1/CS7.png' width = '70%;'></div></div>","null","neg","CS","CS","1","category1/CS7.png","","","","",""
"","html-keyboard-response","70","396954","0.0-6.0-6.0-0.1","t5jlt0xu6m","many_one","0","direct_first","1","in06as04","0","20","1","1","3","1","","0","1","0","null","","","<div class = 'row'><div class = 'column'><img src = 'uspos/5600.bmp' width = '100%;'></div><div class = 'column'><img src = 'category2/CS7.png' width = '70%;'></div></div>","null","pos","CS","CS","2","category2/CS7.png","","","","",""
"","html-keyboard-response","71","399459","0.0-6.0-6.0-0.2","t5jlt0xu6m","many_one","0","direct_first","1","in06as04","0","20","1","1","3","1","","0","1","0","null","","","<div class = 'row'><div class = 'column'><img src = 'usneg/9181.bmp' width = '100%;'></div><div class = 'column'><img src = 'category1/CS9.png' width = '70%;'></div></div>","null","neg","CS","CS","1","category1/CS9.png","","","","",""
"","html-keyboard-response","72","401965","0.0-6.0-6.0-0.3","t5jlt0xu6m","many_one","0","direct_first","1","in06as04","0","20","1","1","3","1","","0","1","0","null","","","<div class = 'row'><div class = 'column'><img src = 'category3/CS4.png' width = '70%;'></div><div class = 'column'><img src = 'uspos/1463.bmp' width = '100%;'></div></div>","null","pos","CS","CS","3","category3/CS4.png","","","","",""
"","html-keyboard-response","73","404470","0.0-6.0-6.0-0.4","t5jlt0xu6m","many_one","0","direct_first","1","in06as04","0","20","1","1","3","1","","0","1","0","null","","","<div class = 'row'><div class = 'column'><img src = 'usneg/9330.bmp' width = '100%;'></div><div class = 'column'><img src = 'category4/CS1.png' width = '70%;'></div></div>","null","neg","CS","CS","4","category4/CS1.png","","","","",""
"","html-keyboard-response","74","406975","0.0-6.0-6.0-0.5","t5jlt0xu6m","many_one","0","direct_first","1","in06as04","0","20","1","1","3","1","","0","1","0","null","","","<div class = 'row'><div class = 'column'><img src = 'category3/CS5.png' width = '70%;'></div><div class = 'column'><img src = 'uspos/1460.bmp' width = '100%;'></div></div>","null","pos","CS","CS","3","category3/CS5.png","","","","",""
"","html-keyboard-response","75","409481","0.0-6.0-6.0-0.6","t5jlt0xu6m","many_one","0","direct_first","1","in06as04","0","20","1","1","3","1","","0","1","0","null","","","<div class = 'row'><div class = 'column'><img src = 'category2/CS1.png' width = '70%;'></div><div class = 'column'><img src = 'uspos/5830.bmp' width = '100%;'></div></div>","null","pos","CS","CS","2","category2/CS1.png","","","","",""
"","html-keyboard-response","76","411986","0.0-6.0-6.0-0.7","t5jlt0xu6m","many_one","0","direct_first","1","in06as04","0","20","1","1","3","1","","0","1","0","null","","","<div class = 'row'><div class = 'column'><img src = 'uspos/4599.bmp' width = '100%;'></div><div class = 'column'><img src = 'category3/CS8.png' width = '70%;'></div></div>","null","pos","CS","CS","3","category3/CS8.png","","","","",""
"","html-keyboard-response","77","414493","0.0-6.0-6.0-0.8","t5jlt0xu6m","many_one","0","direct_first","1","in06as04","0","20","1","1","3","1","","0","1","0","null","","","<div class = 'row'><div class = 'column'><img src = 'category2/CS5.png' width = '70%;'></div><div class = 'column'><img src = 'uspos/7580.bmp' width = '100%;'></div></div>","null","pos","CS","CS","2","category2/CS5.png","","","","",""
"","html-keyboard-response","78","416998","0.0-6.0-6.0-0.9","t5jlt0xu6m","many_one","0","direct_first","1","in06as04","0","20","1","1","3","1","","0","1","0","null","","","<div class = 'row'><div class = 'column'><img src = 'category1/CS3.png' width = '70%;'></div><div class = 'column'><img src = 'usneg/9415.bmp' width = '100%;'></div></div>","null","neg","CS","CS","1","category1/CS3.png","","","","",""
"","html-keyboard-response","79","419504","0.0-6.0-6.0-0.10","t5jlt0xu6m","many_one","0","direct_first","1","in06as04","0","20","1","1","3","1","","0","1","0","null","","","<div class = 'row'><div class = 'column'><img src = 'category4/CS6.png' width = '70%;'></div><div class = 'column'><img src = 'usneg/9635.2.bmp' width = '100%;'></div></div>","null","neg","CS","CS","4","category4/CS6.png","","","","",""
"","html-keyboard-response","80","422009","0.0-6.0-6.0-0.11","t5jlt0xu6m","many_one","0","direct_first","1","in06as04","0","20","1","1","3","1","","0","1","0","null","","","<div class = 'row'><div class = 'column'><img src = 'category4/CS7.png' width = '70%;'></div><div class = 'column'><img src = 'usneg/9561.bmp' width = '100%;'></div></div>","null","neg","CS","CS","4","category4/CS7.png","","","","",""
"","html-keyboard-response","81","424516","0.0-6.0-6.0-0.12","t5jlt0xu6m","many_one","0","direct_first","1","in06as04","0","20","1","1","3","1","","0","1","0","null","","","<div class = 'row'><div class = 'column'><img src = 'category4/CS5.png' width = '70%;'></div><div class = 'column'><img src = 'usneg/3181.bmp' width = '100%;'></div></div>","null","neg","CS","CS","4","category4/CS5.png","","","","",""
"","html-keyboard-response","82","427020","0.0-6.0-6.0-0.13","t5jlt0xu6m","many_one","0","direct_first","1","in06as04","0","20","1","1","3","1","","0","1","0","null","","","<div class = 'row'><div class = 'column'><img src = 'category2/CS3.png' width = '70%;'></div><div class = 'column'><img src = 'uspos/2057.bmp' width = '100%;'></div></div>","null","pos","CS","CS","2","category2/CS3.png","","","","",""
"","html-keyboard-response","83","429525","0.0-6.0-6.0-0.14","t5jlt0xu6m","many_one","0","direct_first","1","in06as04","0","20","1","1","3","1","","0","1","0","null","","","<div class = 'row'><div class = 'column'><img src = 'uspos/2160.bmp' width = '100%;'></div><div class = 'column'><img src = 'category3/CS9.png' width = '70%;'></div></div>","null","pos","CS","CS","3","category3/CS9.png","","","","",""
"","html-keyboard-response","84","432030","0.0-6.0-6.0-0.15","t5jlt0xu6m","many_one","0","direct_first","1","in06as04","0","20","1","1","3","1","","0","1","0","null","","","<div class = 'row'><div class = 'column'><img src = 'uspos/2340.bmp' width = '100%;'></div><div class = 'column'><img src = 'category2/CS2.png' width = '70%;'></div></div>","null","pos","CS","CS","2","category2/CS2.png","","","","",""
"","html-keyboard-response","85","434534","0.0-6.0-6.0-0.16","t5jlt0xu6m","many_one","0","direct_first","1","in06as04","0","20","1","1","3","1","","0","1","0","null","","","<div class = 'row'><div class = 'column'><img src = 'category3/CS7.png' width = '70%;'></div><div class = 'column'><img src = 'uspos/2150.bmp' width = '100%;'></div></div>","null","pos","CS","CS","3","category3/CS7.png","","","","",""
"","html-keyboard-response","86","437039","0.0-6.0-6.0-0.17","t5jlt0xu6m","many_one","0","direct_first","1","in06as04","0","20","1","1","3","1","","0","1","0","null","","","<div class = 'row'><div class = 'column'><img src = 'usneg/6020.bmp' width = '100%;'></div><div class = 'column'><img src = 'category4/CS10.png' width = '70%;'></div></div>","null","neg","CS","CS","4","category4/CS10.png","","","","",""
"","html-keyboard-response","87","439544","0.0-6.0-6.0-0.18","t5jlt0xu6m","many_one","0","direct_first","1","in06as04","0","20","1","1","3","1","","0","1","0","null","","","<div class = 'row'><div class = 'column'><img src = 'usneg/9182.bmp' width = '100%;'></div><div class = 'column'><img src = 'category1/CS6.png' width = '70%;'></div></div>","null","neg","CS","CS","1","category1/CS6.png","","","","",""
"","html-keyboard-response","88","442050","0.0-6.0-6.0-0.19","t5jlt0xu6m","many_one","0","direct_first","1","in06as04","0","20","1","1","3","1","","0","1","0","null","","","<div class = 'row'><div class = 'column'><img src = 'category1/CS4.png' width = '70%;'></div><div class = 'column'><img src = 'usneg/2141.bmp' width = '100%;'></div></div>","null","neg","CS","CS","1","category1/CS4.png","","","","",""
"","survey-html-form","89","454745","0.0-7.0","t5jlt0xu6m","many_one","0","direct_first","1","in06as04","0","20","1","1","3","1","","0","1","0","12192.109999945387","","{}","","","","","","","","","","","",""
"","image-slider-response","90","464643","0.0-8.0-0.0","t5jlt0xu6m","many_one","0","direct_first","1","in06as04","0","20","1","1","3","1","","0","1","0","7891.135000158101","","","","","pos","GS","GSnew","2","category2/GS1.png","78","targets/34.png","direct","",""
"","image-slider-response","91","467934","0.0-8.0-0.1","t5jlt0xu6m","many_one","0","direct_first","1","in06as04","0","20","1","1","3","1","","0","1","0","3286.0349998809397","","","","","neg","CS","CS","4","category4/CS6.png","57","targets/13.png","direct","",""
"","image-slider-response","92","476438","0.0-8.0-0.2","t5jlt0xu6m","many_one","0","direct_first","1","in06as04","0","20","1","1","3","1","","0","1","0","8498.64499992691","","","","","pos","CS","CS","2","category2/CS3.png","55","targets/28.png","direct","",""
"","image-slider-response","93","481643","0.0-8.0-0.3","t5jlt0xu6m","many_one","0","direct_first","1","in06as04","0","20","1","1","3","1","","0","1","0","5198.934999993071","","","","","pos","CS","CS","3","category3/CS8.png","91","targets/6.png","direct","",""
"","image-slider-response","94","487915","0.0-8.0-0.4","t5jlt0xu6m","many_one","0","direct_first","1","in06as04","0","20","1","1","3","1","","0","1","0","6267.219999805093","","","","","neg","CS","CS","4","category4/CS1.png","48","targets/47.png","direct","",""
"","image-slider-response","95","496345","0.0-8.0-0.5","t5jlt0xu6m","many_one","0","direct_first","1","in06as04","0","20","1","1","3","1","","0","1","0","8424.159999936819","","","","","pos","GS","GSnew","3","category3/GS3.png","51","targets/41.png","direct","",""
"","image-slider-response","96","500549","0.0-8.0-0.6","t5jlt0xu6m","many_one","0","direct_first","1","in06as04","0","20","1","1","3","1","","0","1","0","4199.285000097007","","","","","pos","GS","GSnew","2","category2/GS3.png","-35","targets/27.png","direct","",""
"","image-slider-response","97","509446","0.0-8.0-0.7","t5jlt0xu6m","many_one","0","direct_first","1","in06as04","0","20","1","1","3","1","","0","1","0","8891.014999942854","","","","","pos","CS","CS","3","category3/CS7.png","9","targets/19.png","direct","",""
"","image-slider-response","98","514139","0.0-8.0-0.8","t5jlt0xu6m","many_one","0","direct_first","1","in06as04","0","20","1","1","3","1","","0","1","0","4687.025000108406","","","","","neg","GS","abstract","1","category1/ma.png","-46","targets/42.png","direct","",""
"","image-slider-response","99","519568","0.0-8.0-0.9","t5jlt0xu6m","many_one","0","direct_first","1","in06as04","0","20","1","1","3","1","","0","1","0","5422.809999901801","","","","","neg","GS","GSold","4","category4/CS9.png","-30","targets/16.png","direct","",""
"","image-slider-response","100","524641","0.0-8.0-0.10","t5jlt0xu6m","many_one","0","direct_first","1","in06as04","0","20","1","1","3","1","","0","1","0","5067.700000014156","","","","","neg","GS","GSold","4","category4/CS4.png","2","targets/44.png","direct","",""
"","image-slider-response","101","528656","0.0-8.0-0.11","t5jlt0xu6m","many_one","0","direct_first","1","in06as04","0","20","1","1","3","1","","0","1","0","4010.709999827668","","","","","neg","CS","CS","4","category4/CS5.png","-50","targets/33.png","direct","",""
"","image-slider-response","102","535797","0.0-8.0-0.12","t5jlt0xu6m","many_one","0","direct_first","1","in06as04","0","20","1","1","3","1","","0","1","0","7135.849999962375","","","","","neg","CS","CS","4","category4/CS10.png","31","targets/14.png","direct","",""
"","image-slider-response","103","541122","0.0-8.0-0.13","t5jlt0xu6m","many_one","0","direct_first","1","in06as04","0","20","1","1","3","1","","0","1","0","5318.8300000038","","","","","neg","CS","CS","4","category4/CS7.png","23","targets/35.png","direct","",""
"","image-slider-response","104","551009","0.0-8.0-0.14","t5jlt0xu6m","many_one","0","direct_first","1","in06as04","0","20","1","1","3","1","","0","1","0","9882.264999905601","","","","","neg","GS","abstract","4","category4/lin.png","-57","targets/5.png","direct","",""
"","image-slider-response","105","555128","0.0-8.0-0.15","t5jlt0xu6m","many_one","0","direct_first","1","in06as04","0","20","1","1","3","1","","0","1","0","4113.660000031814","","","","","neg","CS","CS","1","category1/CS4.png","-83","targets/4.png","direct","",""
"","image-slider-response","106","559677","0.0-8.0-0.16","t5jlt0xu6m","many_one","0","direct_first","1","in06as04","0","20","1","1","3","1","","0","1","0","4543.074999935925","","","","","neg","GS","GSold","1","category1/CS5.png","-73","targets/20.png","direct","",""
"","image-slider-response","107","565014","0.0-8.0-0.17","t5jlt0xu6m","many_one","0","direct_first","1","in06as04","0","20","1","1","3","1","","0","1","0","5330.270000034943","","","","","pos","GS","GSold","2","category2/CS9.png","43","targets/24.png","direct","",""
"","image-slider-response","108","568516","0.0-8.0-0.18","t5jlt0xu6m","many_one","0","direct_first","1","in06as04","0","20","1","1","3","1","","0","1","0","3496.5800000354648","","","","","neg","GS","GSold","1","category1/CS10.png","-32","targets/15.png","direct","",""
"","image-slider-response","109","571902","0.0-8.0-0.19","t5jlt0xu6m","many_one","0","direct_first","1","in06as04","0","20","1","1","3","1","","0","1","0","3380.8199998456985","","","","","neg","GS","GSold","4","category4/CS3.png","34","targets/17.png","direct","",""
"","image-slider-response","110","575409","0.0-8.0-0.20","t5jlt0xu6m","many_one","0","direct_first","1","in06as04","0","20","1","1","3","1","","0","1","0","3503.0600000172853","","","","","pos","CS","CS","3","category3/CS5.png","82","targets/18.png","direct","",""
"","image-slider-response","111","579852","0.0-8.0-0.21","t5jlt0xu6m","many_one","0","direct_first","1","in06as04","0","20","1","1","3","1","","0","1","0","4437.165000010282","","","","","neg","CS","CS","1","category1/CS3.png","-53","targets/12.png","direct","",""
"","image-slider-response","112","584088","0.0-8.0-0.22","t5jlt0xu6m","many_one","0","direct_first","1","in06as04","0","20","1","1","3","1","","0","1","0","4230.380000080913","","","","","neg","GS","GSnew","1","category1/GS1.png","-26","targets/30.png","direct","",""
"","image-slider-response","113","590358","0.0-8.0-0.23","t5jlt0xu6m","many_one","0","direct_first","1","in06as04","0","20","1","1","3","1","","0","1","0","6265.024999855086","","","","","pos","GS","GSold","2","category2/CS4.png","61","targets/10.png","direct","",""
"","image-slider-response","114","597036","0.0-8.0-0.24","t5jlt0xu6m","many_one","0","direct_first","1","in06as04","0","20","1","1","3","1","","0","1","0","6672.060000011697","","","","","neg","CS","CS","1","category1/CS7.png","-93","targets/48.png","direct","",""
"","image-slider-response","115","603427","0.0-8.0-0.25","t5jlt0xu6m","many_one","0","direct_first","1","in06as04","0","20","1","1","3","1","","0","1","0","6385.814999928698","","","","","pos","CS","CS","3","category3/CS9.png","80","targets/11.png","direct","",""
"","image-slider-response","116","608191","0.0-8.0-0.26","t5jlt0xu6m","many_one","0","direct_first","1","in06as04","0","20","1","1","3","1","","0","1","0","4761.434999993071","","","","","pos","CS","CS","2","category2/CS1.png","79","targets/21.png","direct","",""
"","image-slider-response","117","612124","0.0-8.0-0.27","t5jlt0xu6m","many_one","0","direct_first","1","in06as04","0","20","1","1","3","1","","0","1","0","3929.214999778196","","","","","neg","GS","GSnew","4","category4/GS3.png","-3","targets/9.png","direct","",""
"","image-slider-response","118","617465","0.0-8.0-0.28","t5jlt0xu6m","many_one","0","direct_first","1","in06as04","0","20","1","1","3","1","","0","1","0","5335.554999997839","","","","","pos","GS","GSold","2","category2/CS8.png","30","targets/29.png","direct","",""
"","image-slider-response","119","622531","0.0-8.0-0.29","t5jlt0xu6m","many_one","0","direct_first","1","in06as04","0","20","1","1","3","1","","0","1","0","5060.415000189096","","","","","neg","CS","CS","1","category1/CS6.png","10","targets/23.png","direct","",""
"","image-slider-response","120","625624","0.0-8.0-0.30","t5jlt0xu6m","many_one","0","direct_first","1","in06as04","0","20","1","1","3","1","","0","1","0","3089.24000011757","","","","","neg","GS","GSold","1","category1/CS1.png","-86","targets/31.png","direct","",""
"","image-slider-response","121","628467","0.0-8.0-0.31","t5jlt0xu6m","many_one","0","direct_first","1","in06as04","0","20","1","1","3","1","","0","1","0","2838.4150001220405","","","","","pos","GS","abstract","2","category2/men.png","90","targets/36.png","direct","",""
"","image-slider-response","122","631363","0.0-8.0-0.32","t5jlt0xu6m","many_one","0","direct_first","1","in06as04","0","20","1","1","3","1","","0","1","0","2892.390000168234","","","","","pos","GS","GSold","3","category3/CS10.png","-64","targets/39.png","direct","",""
"","image-slider-response","123","634882","0.0-8.0-0.33","t5jlt0xu6m","many_one","0","direct_first","1","in06as04","0","20","1","1","3","1","","0","1","0","3515.4299999121577","","","","","neg","GS","GSnew","4","category4/GS2.png","-22","targets/40.png","direct","",""
"","image-slider-response","124","640188","0.0-8.0-0.34","t5jlt0xu6m","many_one","0","direct_first","1","in06as04","0","20","1","1","3","1","","0","1","0","5300.879999995232","","","","","pos","GS","GSold","3","category3/CS2.png","81","targets/25.png","direct","",""
"","image-slider-response","125","646794","0.0-8.0-0.35","t5jlt0xu6m","many_one","0","direct_first","1","in06as04","0","20","1","1","3","1","","0","1","0","6603.5399998072535","","","","","pos","GS","GSnew","2","category2/GS2.png","-46","targets/43.png","direct","",""
"","image-slider-response","126","652158","0.0-8.0-0.36","t5jlt0xu6m","many_one","0","direct_first","1","in06as04","0","20","1","1","3","1","","0","1","0","5359.695000108331","","","","","pos","CS","CS","2","category2/CS7.png","79","targets/38.png","direct","",""
"","image-slider-response","127","657060","0.0-8.0-0.37","t5jlt0xu6m","many_one","0","direct_first","1","in06as04","0","20","1","1","3","1","","0","1","0","4898.984999861568","","","","","pos","CS","CS","3","category3/CS4.png","-82","targets/3.png","direct","",""
"","image-slider-response","128","662684","0.0-8.0-0.38","t5jlt0xu6m","many_one","0","direct_first","1","in06as04","0","20","1","1","3","1","","0","1","0","5619.429999962449","","","","","pos","GS","abstract","3","category3/wang.png","100","targets/32.png","direct","",""
"","image-slider-response","129","667678","0.0-8.0-0.39","t5jlt0xu6m","many_one","0","direct_first","1","in06as04","0","20","1","1","3","1","","0","1","0","4988.149999873713","","","","","neg","CS","CS","1","category1/CS9.png","-17","targets/7.png","direct","",""
"","image-slider-response","130","670805","0.0-8.0-0.40","t5jlt0xu6m","many_one","0","direct_first","1","in06as04","0","20","1","1","3","1","","0","1","0","3122.484999941662","","","","","neg","GS","GSnew","1","category1/GS3.png","-33","targets/45.png","direct","",""
"","image-slider-response","131","674008","0.0-8.0-0.41","t5jlt0xu6m","many_one","0","direct_first","1","in06as04","0","20","1","1","3","1","","0","1","0","3200.569999869913","","","","","pos","GS","GSnew","3","category3/GS2.png","-89","targets/46.png","direct","",""
"","image-slider-response","132","678378","0.0-8.0-0.42","t5jlt0xu6m","many_one","0","direct_first","1","in06as04","0","20","1","1","3","1","","0","1","0","4363.975000102073","","","","","neg","GS","GSnew","4","category4/GS1.png","-40","targets/26.png","direct","",""
"","image-slider-response","133","681250","0.0-8.0-0.43","t5jlt0xu6m","many_one","0","direct_first","1","in06as04","0","20","1","1","3","1","","0","1","0","2866.2999998778105","","","","","pos","GS","GSold","3","category3/CS3.png","78","targets/2.png","direct","",""
"","image-slider-response","134","684714","0.0-8.0-0.44","t5jlt0xu6m","many_one","0","direct_first","1","in06as04","0","20","1","1","3","1","","0","1","0","3461.8550001177937","","","","","neg","GS","GSnew","1","category1/GS2.png","-26","targets/1.png","direct","",""
"","image-slider-response","135","690340","0.0-8.0-0.45","t5jlt0xu6m","many_one","0","direct_first","1","in06as04","0","20","1","1","3","1","","0","1","0","5619.785000104457","","","","","pos","CS","CS","2","category2/CS5.png","73","targets/22.png","direct","",""
"","image-slider-response","136","696783","0.0-8.0-0.46","t5jlt0xu6m","many_one","0","direct_first","1","in06as04","0","20","1","1","3","1","","0","1","0","6438.0300000775605","","","","","pos","GS","GSnew","3","category3/GS1.png","-76","targets/8.png","direct","",""
"","image-slider-response","137","700272","0.0-8.0-0.47","t5jlt0xu6m","many_one","0","direct_first","1","in06as04","0","20","1","1","3","1","","0","1","0","3483.74000005424","","","","","pos","CS","CS","2","category2/CS2.png","80","targets/37.png","direct","",""
"","html-keyboard-response","138","728923","0.0-9.0","t5jlt0xu6m","many_one","0","direct_first","1","in06as04","0","20","1","1","3","1","","0","1","0","28647.899999981746","","","<p>Sie sehen nun die chinesischen Zeichen nur ganz kurz. Danach sehen Sie die jeweilige Aussprache der Zeichen als Silbe auf dem Bildschrim. Ihre Aufgabe ist es, für jede Silbe anzugeben, ob diese etwas angenehmes, oder unangenehmes bedeuten könnte. Verlassen Sie sich hier vor allem auf Ihre Intuition.<br><br>Die Zeichen werden nur zur Orientierung dargestellt, beachten Sie sie deshalb nicht. Konzentrieren Sie sich vor allem auf die Silben. <br>Reagieren Sie mit folgenden zwei Tasten: <br><br><b>'D' </b> wenn die Silbe etwas <b>unangenehmes</b> bedeuten könnte. <br><b>'K'</b> wenn die Silbe etwas <b>angenehmes</b> bedeuten könnte. <br><br>Bitte legen Sie nun den Zeigefinger der linken Hand auf die Taste 'D' und den Zeigefinger der rechten Hand auf die Taste 'K'. <br>Reagieren Sie auf jede Silbe so schnell wie möglich. Uns interessiert Ihre spontane Reaktion. <br> <br> <br>Drücken Sie 'D' oder 'K', um die nächste Aufgabe zu starten. </p>","68","","","","","","","","","",""
"","html-keyboard-response","139","731928","0.0-10.0-0.0","t5jlt0xu6m","many_one","0","direct_first","1","in06as04","0","20","1","1","3","1","","0","1","0","null","","","<div style=""font-size:60px;"">+</div>","null","","","","","","","","","",""
"","html-keyboard-response","140","732020","0.0-10.0-1.0","t5jlt0xu6m","many_one","0","direct_first","1","in06as04","0","20","1","1","3","1","","0","1","0","null","","","<img src = 'category1/CS5.png' width = '100%;'>","null","","","","","","","","","",""
"","html-keyboard-response","141","732275","0.0-10.0-2.0","t5jlt0xu6m","many_one","0","direct_first","1","in06as04","0","20","1","1","3","1","","0","1","0","null","","","<img src = 'targets/20.png' width = '100%;'>","null","","","","","","","","","",""
"","html-keyboard-response","142","738311","0.0-10.0-3.0","t5jlt0xu6m","many_one","0","direct_first","1","in06as04","0","20","1","1","3","1","","0","1","0","6034.8249999806285","","","<img src = 'targets/mask.png' width = '100%;'>","68","neg","GS","GSold","1","category1/CS5.png","","targets/20.png","indirect","0","0"
"","html-keyboard-response","143","739814","0.0-10.0-0.1","t5jlt0xu6m","many_one","0","direct_first","1","in06as04","0","20","1","1","3","1","","0","1","0","null","","","<div style=""font-size:60px;"">+</div>","null","","","","","","","","","",""
"","html-keyboard-response","144","739908","0.0-10.0-1.1","t5jlt0xu6m","many_one","0","direct_first","1","in06as04","0","20","1","1","3","1","","0","1","0","null","","","<img src = 'category2/CS2.png' width = '100%;'>","null","","","","","","","","","",""
"","html-keyboard-response","145","740160","0.0-10.0-2.1","t5jlt0xu6m","many_one","0","direct_first","1","in06as04","0","20","1","1","3","1","","0","1","0","null","","","<img src = 'targets/37.png' width = '100%;'>","null","","","","","","","","","",""
"","html-keyboard-response","146","743316","0.0-10.0-3.1","t5jlt0xu6m","many_one","0","direct_first","1","in06as04","0","20","1","1","3","1","","0","1","0","3154.094999888912","","","<img src = 'targets/mask.png' width = '100%;'>","75","pos","CS","CS","2","category2/CS2.png","","targets/37.png","indirect","1","1"
"","html-keyboard-response","147","744819","0.0-10.0-0.2","t5jlt0xu6m","many_one","0","direct_first","1","in06as04","0","20","1","1","3","1","","0","1","0","null","","","<div style=""font-size:60px;"">+</div>","null","","","","","","","","","",""
"","html-keyboard-response","148","744911","0.0-10.0-1.2","t5jlt0xu6m","many_one","0","direct_first","1","in06as04","0","20","1","1","3","1","","0","1","0","null","","","<img src = 'category1/CS3.png' width = '100%;'>","null","","","","","","","","","",""
"","html-keyboard-response","149","745163","0.0-10.0-2.2","t5jlt0xu6m","many_one","0","direct_first","1","in06as04","0","20","1","1","3","1","","0","1","0","null","","","<img src = 'targets/12.png' width = '100%;'>","null","","","","","","","","","",""
"","html-keyboard-response","150","746086","0.0-10.0-3.2","t5jlt0xu6m","many_one","0","direct_first","1","in06as04","0","20","1","1","3","1","","0","1","0","920.3300001099706","","","<img src = 'targets/mask.png' width = '100%;'>","68","neg","CS","CS","1","category1/CS3.png","","targets/12.png","indirect","0","2"
"","html-keyboard-response","151","747588","0.0-10.0-0.3","t5jlt0xu6m","many_one","0","direct_first","1","in06as04","0","20","1","1","3","1","","0","1","0","null","","","<div style=""font-size:60px;"">+</div>","null","","","","","","","","","",""
"","html-keyboard-response","152","747681","0.0-10.0-1.3","t5jlt0xu6m","many_one","0","direct_first","1","in06as04","0","20","1","1","3","1","","0","1","0","null","","","<img src = 'category1/CS6.png' width = '100%;'>","null","","","","","","","","","",""
"","html-keyboard-response","153","747935","0.0-10.0-2.3","t5jlt0xu6m","many_one","0","direct_first","1","in06as04","0","20","1","1","3","1","","0","1","0","null","","","<img src = 'targets/23.png' width = '100%;'>","null","","","","","","","","","",""
"","html-keyboard-response","154","749036","0.0-10.0-3.3","t5jlt0xu6m","many_one","0","direct_first","1","in06as04","0","20","1","1","3","1","","0","1","0","1098.6200000625104","","","<img src = 'targets/mask.png' width = '100%;'>","75","neg","CS","CS","1","category1/CS6.png","","targets/23.png","indirect","1","3"
"","html-keyboard-response","155","750538","0.0-10.0-0.4","t5jlt0xu6m","many_one","0","direct_first","1","in06as04","0","20","1","1","3","1","","0","1","0","null","","","<div style=""font-size:60px;"">+</div>","null","","","","","","","","","",""
"","html-keyboard-response","156","750630","0.0-10.0-1.4","t5jlt0xu6m","many_one","0","direct_first","1","in06as04","0","20","1","1","3","1","","0","1","0","null","","","<img src = 'category1/CS1.png' width = '100%;'>","null","","","","","","","","","",""
"","html-keyboard-response","157","750884","0.0-10.0-2.4","t5jlt0xu6m","many_one","0","direct_first","1","in06as04","0","20","1","1","3","1","","0","1","0","null","","","<img src = 'targets/31.png' width = '100%;'>","null","","","","","","","","","",""
"","html-keyboard-response","158","752460","0.0-10.0-3.4","t5jlt0xu6m","many_one","0","direct_first","1","in06as04","0","20","1","1","3","1","","0","1","0","1574.0350000560284","","","<img src = 'targets/mask.png' width = '100%;'>","68","neg","GS","GSold","1","category1/CS1.png","","targets/31.png","indirect","0","4"
"","html-keyboard-response","159","753962","0.0-10.0-0.5","t5jlt0xu6m","many_one","0","direct_first","1","in06as04","0","20","1","1","3","1","","0","1","0","null","","","<div style=""font-size:60px;"">+</div>","null","","","","","","","","","",""
"","html-keyboard-response","160","754055","0.0-10.0-1.5","t5jlt0xu6m","many_one","0","direct_first","1","in06as04","0","20","1","1","3","1","","0","1","0","null","","","<img src = 'category3/CS9.png' width = '100%;'>","null","","","","","","","","","",""
"","html-keyboard-response","161","754309","0.0-10.0-2.5","t5jlt0xu6m","many_one","0","direct_first","1","in06as04","0","20","1","1","3","1","","0","1","0","null","","","<img src = 'targets/11.png' width = '100%;'>","null","","","","","","","","","",""
"","html-keyboard-response","162","755664","0.0-10.0-3.5","t5jlt0xu6m","many_one","0","direct_first","1","in06as04","0","20","1","1","3","1","","0","1","0","1352.079999865964","","","<img src = 'targets/mask.png' width = '100%;'>","75","pos","CS","CS","3","category3/CS9.png","","targets/11.png","indirect","1","5"
"","html-keyboard-response","163","757166","0.0-10.0-0.6","t5jlt0xu6m","many_one","0","direct_first","1","in06as04","0","20","1","1","3","1","","0","1","0","null","","","<div style=""font-size:60px;"">+</div>","null","","","","","","","","","",""
"","html-keyboard-response","164","757257","0.0-10.0-1.6","t5jlt0xu6m","many_one","0","direct_first","1","in06as04","0","20","1","1","3","1","","0","1","0","null","","","<img src = 'category4/CS7.png' width = '100%;'>","null","","","","","","","","","",""
"","html-keyboard-response","165","757511","0.0-10.0-2.6","t5jlt0xu6m","many_one","0","direct_first","1","in06as04","0","20","1","1","3","1","","0","1","0","null","","","<img src = 'targets/35.png' width = '100%;'>","null","","","","","","","","","",""
"","html-keyboard-response","166","758438","0.0-10.0-3.6","t5jlt0xu6m","many_one","0","direct_first","1","in06as04","0","20","1","1","3","1","","0","1","0","922.8499999735504","","","<img src = 'targets/mask.png' width = '100%;'>","75","neg","CS","CS","4","category4/CS7.png","","targets/35.png","indirect","1","6"
"","html-keyboard-response","167","759940","0.0-10.0-0.7","t5jlt0xu6m","many_one","0","direct_first","1","in06as04","0","20","1","1","3","1","","0","1","0","null","","","<div style=""font-size:60px;"">+</div>","null","","","","","","","","","",""
"","html-keyboard-response","168","760033","0.0-10.0-1.7","t5jlt0xu6m","many_one","0","direct_first","1","in06as04","0","20","1","1","3","1","","0","1","0","null","","","<img src = 'category1/CS4.png' width = '100%;'>","null","","","","","","","","","",""
"","html-keyboard-response","169","760287","0.0-10.0-2.7","t5jlt0xu6m","many_one","0","direct_first","1","in06as04","0","20","1","1","3","1","","0","1","0","null","","","<img src = 'targets/4.png' width = '100%;'>","null","","","","","","","","","",""
"","html-keyboard-response","170","761438","0.0-10.0-3.7","t5jlt0xu6m","many_one","0","direct_first","1","in06as04","0","20","1","1","3","1","","0","1","0","1148.2949999626726","","","<img src = 'targets/mask.png' width = '100%;'>","68","neg","CS","CS","1","category1/CS4.png","","targets/4.png","indirect","0","7"
"","html-keyboard-response","171","762940","0.0-10.0-0.8","t5jlt0xu6m","many_one","0","direct_first","1","in06as04","0","20","1","1","3","1","","0","1","0","null","","","<div style=""font-size:60px;"">+</div>","null","","","","","","","","","",""
"","html-keyboard-response","172","763033","0.0-10.0-1.8","t5jlt0xu6m","many_one","0","direct_first","1","in06as04","0","20","1","1","3","1","","0","1","0","null","","","<img src = 'category4/CS6.png' width = '100%;'>","null","","","","","","","","","",""
"","html-keyboard-response","173","763286","0.0-10.0-2.8","t5jlt0xu6m","many_one","0","direct_first","1","in06as04","0","20","1","1","3","1","","0","1","0","null","","","<img src = 'targets/13.png' width = '100%;'>","null","","","","","","","","","",""
"","html-keyboard-response","174","764053","0.0-10.0-3.8","t5jlt0xu6m","many_one","0","direct_first","1","in06as04","0","20","1","1","3","1","","0","1","0","764.3149998039007","","","<img src = 'targets/mask.png' width = '100%;'>","75","neg","CS","CS","4","category4/CS6.png","","targets/13.png","indirect","1","8"
"","html-keyboard-response","175","765558","0.0-10.0-0.9","t5jlt0xu6m","many_one","0","direct_first","1","in06as04","0","20","1","1","3","1","","0","1","0","null","","","<div style=""font-size:60px;"">+</div>","null","","","","","","","","","",""
"","html-keyboard-response","176","765651","0.0-10.0-1.9","t5jlt0xu6m","many_one","0","direct_first","1","in06as04","0","20","1","1","3","1","","0","1","0","null","","","<img src = 'category1/CS7.png' width = '100%;'>","null","","","","","","","","","",""
"","html-keyboard-response","177","765905","0.0-10.0-2.9","t5jlt0xu6m","many_one","0","direct_first","1","in06as04","0","20","1","1","3","1","","0","1","0","null","","","<img src = 'targets/48.png' width = '100%;'>","null","","","","","","","","","",""
"","html-keyboard-response","178","766803","0.0-10.0-3.9","t5jlt0xu6m","many_one","0","direct_first","1","in06as04","0","20","1","1","3","1","","0","1","0","895.6200000829995","","","<img src = 'targets/mask.png' width = '100%;'>","68","neg","CS","CS","1","category1/CS7.png","","targets/48.png","indirect","0","9"
"","html-keyboard-response","179","768306","0.0-10.0-0.10","t5jlt0xu6m","many_one","0","direct_first","1","in06as04","0","20","1","1","3","1","","0","1","0","null","","","<div style=""font-size:60px;"">+</div>","null","","","","","","","","","",""
"","html-keyboard-response","180","768398","0.0-10.0-1.10","t5jlt0xu6m","many_one","0","direct_first","1","in06as04","0","20","1","1","3","1","","0","1","0","null","","","<img src = 'category3/CS10.png' width = '100%;'>","null","","","","","","","","","",""
"","html-keyboard-response","181","768653","0.0-10.0-2.10","t5jlt0xu6m","many_one","0","direct_first","1","in06as04","0","20","1","1","3","1","","0","1","0","null","","","<img src = 'targets/39.png' width = '100%;'>","null","","","","","","","","","",""
"","html-keyboard-response","182","769301","0.0-10.0-3.10","t5jlt0xu6m","many_one","0","direct_first","1","in06as04","0","20","1","1","3","1","","0","1","0","646.3399999774992","","","<img src = 'targets/mask.png' width = '100%;'>","75","pos","GS","GSold","3","category3/CS10.png","","targets/39.png","indirect","1","10"
"","html-keyboard-response","183","770804","0.0-10.0-0.11","t5jlt0xu6m","many_one","0","direct_first","1","in06as04","0","20","1","1","3","1","","0","1","0","null","","","<div style=""font-size:60px;"">+</div>","null","","","","","","","","","",""
"","html-keyboard-response","184","770897","0.0-10.0-1.11","t5jlt0xu6m","many_one","0","direct_first","1","in06as04","0","20","1","1","3","1","","0","1","0","null","","","<img src = 'category4/CS5.png' width = '100%;'>","null","","","","","","","","","",""
"","html-keyboard-response","185","771151","0.0-10.0-2.11","t5jlt0xu6m","many_one","0","direct_first","1","in06as04","0","20","1","1","3","1","","0","1","0","null","","","<img src = 'targets/33.png' width = '100%;'>","null","","","","","","","","","",""
"","html-keyboard-response","186","771941","0.0-10.0-3.11","t5jlt0xu6m","many_one","0","direct_first","1","in06as04","0","20","1","1","3","1","","0","1","0","787.2850000858307","","","<img src = 'targets/mask.png' width = '100%;'>","75","neg","CS","CS","4","category4/CS5.png","","targets/33.png","indirect","1","11"
"","html-keyboard-response","187","773445","0.0-10.0-0.12","t5jlt0xu6m","many_one","0","direct_first","1","in06as04","0","20","1","1","3","1","","0","1","0","null","","","<div style=""font-size:60px;"">+</div>","null","","","","","","","","","",""
"","html-keyboard-response","188","773538","0.0-10.0-1.12","t5jlt0xu6m","many_one","0","direct_first","1","in06as04","0","20","1","1","3","1","","0","1","0","null","","","<img src = 'category1/CS9.png' width = '100%;'>","null","","","","","","","","","",""
"","html-keyboard-response","189","773791","0.0-10.0-2.12","t5jlt0xu6m","many_one","0","direct_first","1","in06as04","0","20","1","1","3","1","","0","1","0","null","","","<img src = 'targets/7.png' width = '100%;'>","null","","","","","","","","","",""
"","html-keyboard-response","190","774549","0.0-10.0-3.12","t5jlt0xu6m","many_one","0","direct_first","1","in06as04","0","20","1","1","3","1","","0","1","0","755.7149999774992","","","<img src = 'targets/mask.png' width = '100%;'>","75","neg","CS","CS","1","category1/CS9.png","","targets/7.png","indirect","1","12"
"","html-keyboard-response","191","776051","0.0-10.0-0.13","t5jlt0xu6m","many_one","0","direct_first","1","in06as04","0","20","1","1","3","1","","0","1","0","null","","","<div style=""font-size:60px;"">+</div>","null","","","","","","","","","",""
"","html-keyboard-response","192","776144","0.0-10.0-1.13","t5jlt0xu6m","many_one","0","direct_first","1","in06as04","0","20","1","1","3","1","","0","1","0","null","","","<img src = 'category3/CS4.png' width = '100%;'>","null","","","","","","","","","",""
"","html-keyboard-response","193","776398","0.0-10.0-2.13","t5jlt0xu6m","many_one","0","direct_first","1","in06as04","0","20","1","1","3","1","","0","1","0","null","","","<img src = 'targets/3.png' width = '100%;'>","null","","","","","","","","","",""
"","html-keyboard-response","194","777099","0.0-10.0-3.13","t5jlt0xu6m","many_one","0","direct_first","1","in06as04","0","20","1","1","3","1","","0","1","0","697.8649999946356","","","<img src = 'targets/mask.png' width = '100%;'>","68","pos","CS","CS","3","category3/CS4.png","","targets/3.png","indirect","0","13"
"","html-keyboard-response","195","778603","0.0-10.0-0.14","t5jlt0xu6m","many_one","0","direct_first","1","in06as04","0","20","1","1","3","1","","0","1","0","null","","","<div style=""font-size:60px;"">+</div>","null","","","","","","","","","",""
"","html-keyboard-response","196","778696","0.0-10.0-1.14","t5jlt0xu6m","many_one","0","direct_first","1","in06as04","0","20","1","1","3","1","","0","1","0","null","","","<img src = 'category2/CS7.png' width = '100%;'>","null","","","","","","","","","",""
"","html-keyboard-response","197","778950","0.0-10.0-2.14","t5jlt0xu6m","many_one","0","direct_first","1","in06as04","0","20","1","1","3","1","","0","1","0","null","","","<img src = 'targets/38.png' width = '100%;'>","null","","","","","","","","","",""
"","html-keyboard-response","198","779573","0.0-10.0-3.14","t5jlt0xu6m","many_one","0","direct_first","1","in06as04","0","20","1","1","3","1","","0","1","0","620.0550000648946","","","<img src = 'targets/mask.png' width = '100%;'>","75","pos","CS","CS","2","category2/CS7.png","","targets/38.png","indirect","1","14"
"","html-keyboard-response","199","781076","0.0-10.0-0.15","t5jlt0xu6m","many_one","0","direct_first","1","in06as04","0","20","1","1","3","1","","0","1","0","null","","","<div style=""font-size:60px;"">+</div>","null","","","","","","","","","",""
"","html-keyboard-response","200","781168","0.0-10.0-1.15","t5jlt0xu6m","many_one","0","direct_first","1","in06as04","0","20","1","1","3","1","","0","1","0","null","","","<img src = 'category4/CS10.png' width = '100%;'>","null","","","","","","","","","",""
"","html-keyboard-response","201","781421","0.0-10.0-2.15","t5jlt0xu6m","many_one","0","direct_first","1","in06as04","0","20","1","1","3","1","","0","1","0","null","","","<img src = 'targets/14.png' width = '100%;'>","null","","","","","","","","","",""
"","html-keyboard-response","202","782312","0.0-10.0-3.15","t5jlt0xu6m","many_one","0","direct_first","1","in06as04","0","20","1","1","3","1","","0","1","0","888.5149999987334","","","<img src = 'targets/mask.png' width = '100%;'>","75","neg","CS","CS","4","category4/CS10.png","","targets/14.png","indirect","1","15"
"","html-keyboard-response","203","783814","0.0-10.0-0.16","t5jlt0xu6m","many_one","0","direct_first","1","in06as04","0","20","1","1","3","1","","0","1","0","null","","","<div style=""font-size:60px;"">+</div>","null","","","","","","","","","",""
"","html-keyboard-response","204","783906","0.0-10.0-1.16","t5jlt0xu6m","many_one","0","direct_first","1","in06as04","0","20","1","1","3","1","","0","1","0","null","","","<img src = 'category3/CS5.png' width = '100%;'>","null","","","","","","","","","",""
"","html-keyboard-response","205","784159","0.0-10.0-2.16","t5jlt0xu6m","many_one","0","direct_first","1","in06as04","0","20","1","1","3","1","","0","1","0","null","","","<img src = 'targets/18.png' width = '100%;'>","null","","","","","","","","","",""
"","html-keyboard-response","206","784749","0.0-10.0-3.16","t5jlt0xu6m","many_one","0","direct_first","1","in06as04","0","20","1","1","3","1","","0","1","0","589.2900000326335","","","<img src = 'targets/mask.png' width = '100%;'>","68","pos","CS","CS","3","category3/CS5.png","","targets/18.png","indirect","0","16"
"","html-keyboard-response","207","786252","0.0-10.0-0.17","t5jlt0xu6m","many_one","0","direct_first","1","in06as04","0","20","1","1","3","1","","0","1","0","null","","","<div style=""font-size:60px;"">+</div>","null","","","","","","","","","",""
"","html-keyboard-response","208","786346","0.0-10.0-1.17","t5jlt0xu6m","many_one","0","direct_first","1","in06as04","0","20","1","1","3","1","","0","1","0","null","","","<img src = 'category4/CS1.png' width = '100%;'>","null","","","","","","","","","",""
"","html-keyboard-response","209","786599","0.0-10.0-2.17","t5jlt0xu6m","many_one","0","direct_first","1","in06as04","0","20","1","1","3","1","","0","1","0","null","","","<img src = 'targets/47.png' width = '100%;'>","null","","","","","","","","","",""
"","html-keyboard-response","210","787381","0.0-10.0-3.17","t5jlt0xu6m","many_one","0","direct_first","1","in06as04","0","20","1","1","3","1","","0","1","0","778.2699998933822","","","<img src = 'targets/mask.png' width = '100%;'>","75","neg","CS","CS","4","category4/CS1.png","","targets/47.png","indirect","1","17"
"","html-keyboard-response","211","788883","0.0-10.0-0.18","t5jlt0xu6m","many_one","0","direct_first","1","in06as04","0","20","1","1","3","1","","0","1","0","null","","","<div style=""font-size:60px;"">+</div>","null","","","","","","","","","",""
"","html-keyboard-response","212","788975","0.0-10.0-1.18","t5jlt0xu6m","many_one","0","direct_first","1","in06as04","0","20","1","1","3","1","","0","1","0","null","","","<img src = 'category2/CS5.png' width = '100%;'>","null","","","","","","","","","",""
"","html-keyboard-response","213","789229","0.0-10.0-2.18","t5jlt0xu6m","many_one","0","direct_first","1","in06as04","0","20","1","1","3","1","","0","1","0","null","","","<img src = 'targets/22.png' width = '100%;'>","null","","","","","","","","","",""
"","html-keyboard-response","214","789718","0.0-10.0-3.18","t5jlt0xu6m","many_one","0","direct_first","1","in06as04","0","20","1","1","3","1","","0","1","0","485.9449998475611","","","<img src = 'targets/mask.png' width = '100%;'>","75","pos","CS","CS","2","category2/CS5.png","","targets/22.png","indirect","1","18"
"","html-keyboard-response","215","791221","0.0-10.0-0.19","t5jlt0xu6m","many_one","0","direct_first","1","in06as04","0","20","1","1","3","1","","0","1","0","null","","","<div style=""font-size:60px;"">+</div>","null","","","","","","","","","",""
"","html-keyboard-response","216","791314","0.0-10.0-1.19","t5jlt0xu6m","many_one","0","direct_first","1","in06as04","0","20","1","1","3","1","","0","1","0","null","","","<img src = 'category3/CS8.png' width = '100%;'>","null","","","","","","","","","",""
"","html-keyboard-response","217","791566","0.0-10.0-2.19","t5jlt0xu6m","many_one","0","direct_first","1","in06as04","0","20","1","1","3","1","","0","1","0","null","","","<img src = 'targets/6.png' width = '100%;'>","null","","","","","","","","","",""
"","html-keyboard-response","218","792382","0.0-10.0-3.19","t5jlt0xu6m","many_one","0","direct_first","1","in06as04","0","20","1","1","3","1","","0","1","0","812.7999999560416","","","<img src = 'targets/mask.png' width = '100%;'>","75","pos","CS","CS","3","category3/CS8.png","","targets/6.png","indirect","1","19"
"","html-keyboard-response","219","793884","0.0-10.0-0.20","t5jlt0xu6m","many_one","0","direct_first","1","in06as04","0","20","1","1","3","1","","0","1","0","null","","","<div style=""font-size:60px;"">+</div>","null","","","","","","","","","",""
"","html-keyboard-response","220","793976","0.0-10.0-1.20","t5jlt0xu6m","many_one","0","direct_first","1","in06as04","0","20","1","1","3","1","","0","1","0","null","","","<img src = 'category1/CS10.png' width = '100%;'>","null","","","","","","","","","",""
"","html-keyboard-response","221","794229","0.0-10.0-2.20","t5jlt0xu6m","many_one","0","direct_first","1","in06as04","0","20","1","1","3","1","","0","1","0","null","","","<img src = 'targets/15.png' width = '100%;'>","null","","","","","","","","","",""
"","html-keyboard-response","222","795021","0.0-10.0-3.20","t5jlt0xu6m","many_one","0","direct_first","1","in06as04","0","20","1","1","3","1","","0","1","0","790.2049999684095","","","<img src = 'targets/mask.png' width = '100%;'>","68","neg","GS","GSold","1","category1/CS10.png","","targets/15.png","indirect","0","20"
"","html-keyboard-response","223","796524","0.0-10.0-0.21","t5jlt0xu6m","many_one","0","direct_first","1","in06as04","0","20","1","1","3","1","","0","1","0","null","","","<div style=""font-size:60px;"">+</div>","null","","","","","","","","","",""
"","html-keyboard-response","224","796618","0.0-10.0-1.21","t5jlt0xu6m","many_one","0","direct_first","1","in06as04","0","20","1","1","3","1","","0","1","0","null","","","<img src = 'category2/CS1.png' width = '100%;'>","null","","","","","","","","","",""
"","html-keyboard-response","225","796872","0.0-10.0-2.21","t5jlt0xu6m","many_one","0","direct_first","1","in06as04","0","20","1","1","3","1","","0","1","0","null","","","<img src = 'targets/21.png' width = '100%;'>","null","","","","","","","","","",""
"","html-keyboard-response","226","797419","0.0-10.0-3.21","t5jlt0xu6m","many_one","0","direct_first","1","in06as04","0","20","1","1","3","1","","0","1","0","544.5349998772144","","","<img src = 'targets/mask.png' width = '100%;'>","68","pos","CS","CS","2","category2/CS1.png","","targets/21.png","indirect","0","21"
"","html-keyboard-response","227","798922","0.0-10.0-0.22","t5jlt0xu6m","many_one","0","direct_first","1","in06as04","0","20","1","1","3","1","","0","1","0","null","","","<div style=""font-size:60px;"">+</div>","null","","","","","","","","","",""
"","html-keyboard-response","228","799014","0.0-10.0-1.22","t5jlt0xu6m","many_one","0","direct_first","1","in06as04","0","20","1","1","3","1","","0","1","0","null","","","<img src = 'category3/CS7.png' width = '100%;'>","null","","","","","","","","","",""
"","html-keyboard-response","229","799266","0.0-10.0-2.22","t5jlt0xu6m","many_one","0","direct_first","1","in06as04","0","20","1","1","3","1","","0","1","0","null","","","<img src = 'targets/19.png' width = '100%;'>","null","","","","","","","","","",""
"","html-keyboard-response","230","800349","0.0-10.0-3.22","t5jlt0xu6m","many_one","0","direct_first","1","in06as04","0","20","1","1","3","1","","0","1","0","1079.264999832958","","","<img src = 'targets/mask.png' width = '100%;'>","68","pos","CS","CS","3","category3/CS7.png","","targets/19.png","indirect","0","22"
"","html-keyboard-response","231","801851","0.0-10.0-0.23","t5jlt0xu6m","many_one","0","direct_first","1","in06as04","0","20","1","1","3","1","","0","1","0","null","","","<div style=""font-size:60px;"">+</div>","null","","","","","","","","","",""
"","html-keyboard-response","232","801944","0.0-10.0-1.23","t5jlt0xu6m","many_one","0","direct_first","1","in06as04","0","20","1","1","3","1","","0","1","0","null","","","<img src = 'category2/CS3.png' width = '100%;'>","null","","","","","","","","","",""
"","html-keyboard-response","233","802198","0.0-10.0-2.23","t5jlt0xu6m","many_one","0","direct_first","1","in06as04","0","20","1","1","3","1","","0","1","0","null","","","<img src = 'targets/28.png' width = '100%;'>","null","","","","","","","","","",""
"","html-keyboard-response","234","803070","0.0-10.0-3.23","t5jlt0xu6m","many_one","0","direct_first","1","in06as04","0","20","1","1","3","1","","0","1","0","870.7299998495728","","","<img src = 'targets/mask.png' width = '100%;'>","68","pos","CS","CS","2","category2/CS3.png","","targets/28.png","indirect","0","23"
"","survey-html-form","235","809131","0.0-11.0","t5jlt0xu6m","many_one","0","direct_first","1","in06as04","0","20","1","1","3","1","","0","1","0","5558.364999946207","","{}","","","","","","","","","","","",""
"","html-keyboard-response","236","812135","0.0-12.0-0.0","t5jlt0xu6m","many_one","0","direct_first","1","in06as04","0","20","1","1","3","1","","0","1","0","null","","","<div style=""font-size:60px;"">+</div>","null","","","","","","","","","",""
"","html-keyboard-response","237","812228","0.0-12.0-1.0","t5jlt0xu6m","many_one","0","direct_first","1","in06as04","0","20","1","1","3","1","","0","1","0","null","","","<img src = 'category4/GS1.png' width = '100%;'>","null","","","","","","","","","",""
"","html-keyboard-response","238","812481","0.0-12.0-2.0","t5jlt0xu6m","many_one","0","direct_first","1","in06as04","0","20","1","1","3","1","","0","1","0","null","","","<img src = 'targets/26.png' width = '100%;'>","null","","","","","","","","","",""
"","html-keyboard-response","239","813253","0.0-12.0-3.0","t5jlt0xu6m","many_one","0","direct_first","1","in06as04","0","20","1","1","3","1","","0","1","0","768.2150001637638","","","<img src = 'targets/mask.png' width = '100%;'>","68","neg","GS","GSnew","4","category4/GS1.png","","targets/26.png","indirect","0","24"
"","html-keyboard-response","240","814756","0.0-12.0-0.1","t5jlt0xu6m","many_one","0","direct_first","1","in06as04","0","20","1","1","3","1","","0","1","0","null","","","<div style=""font-size:60px;"">+</div>","null","","","","","","","","","",""
"","html-keyboard-response","241","814849","0.0-12.0-1.1","t5jlt0xu6m","many_one","0","direct_first","1","in06as04","0","20","1","1","3","1","","0","1","0","null","","","<img src = 'category3/GS3.png' width = '100%;'>","null","","","","","","","","","",""
"","html-keyboard-response","242","815102","0.0-12.0-2.1","t5jlt0xu6m","many_one","0","direct_first","1","in06as04","0","20","1","1","3","1","","0","1","0","null","","","<img src = 'targets/41.png' width = '100%;'>","null","","","","","","","","","",""
"","html-keyboard-response","243","815703","0.0-12.0-3.1","t5jlt0xu6m","many_one","0","direct_first","1","in06as04","0","20","1","1","3","1","","0","1","0","598.5400001518428","","","<img src = 'targets/mask.png' width = '100%;'>","75","pos","GS","GSnew","3","category3/GS3.png","","targets/41.png","indirect","1","25"
"","html-keyboard-response","244","817206","0.0-12.0-0.2","t5jlt0xu6m","many_one","0","direct_first","1","in06as04","0","20","1","1","3","1","","0","1","0","null","","","<div style=""font-size:60px;"">+</div>","null","","","","","","","","","",""
"","html-keyboard-response","245","817299","0.0-12.0-1.2","t5jlt0xu6m","many_one","0","direct_first","1","in06as04","0","20","1","1","3","1","","0","1","0","null","","","<img src = 'category2/CS8.png' width = '100%;'>","null","","","","","","","","","",""
"","html-keyboard-response","246","817552","0.0-12.0-2.2","t5jlt0xu6m","many_one","0","direct_first","1","in06as04","0","20","1","1","3","1","","0","1","0","null","","","<img src = 'targets/29.png' width = '100%;'>","null","","","","","","","","","",""
"","html-keyboard-response","247","818437","0.0-12.0-3.2","t5jlt0xu6m","many_one","0","direct_first","1","in06as04","0","20","1","1","3","1","","0","1","0","883.1799998879433","","","<img src = 'targets/mask.png' width = '100%;'>","75","pos","GS","GSold","2","category2/CS8.png","","targets/29.png","indirect","1","26"
"","html-keyboard-response","248","819940","0.0-12.0-0.3","t5jlt0xu6m","many_one","0","direct_first","1","in06as04","0","20","1","1","3","1","","0","1","0","null","","","<div style=""font-size:60px;"">+</div>","null","","","","","","","","","",""
"","html-keyboard-response","249","820033","0.0-12.0-1.3","t5jlt0xu6m","many_one","0","direct_first","1","in06as04","0","20","1","1","3","1","","0","1","0","null","","","<img src = 'category2/GS3.png' width = '100%;'>","null","","","","","","","","","",""
"","html-keyboard-response","250","820286","0.0-12.0-2.3","t5jlt0xu6m","many_one","0","direct_first","1","in06as04","0","20","1","1","3","1","","0","1","0","null","","","<img src = 'targets/27.png' width = '100%;'>","null","","","","","","","","","",""
"","html-keyboard-response","251","820940","0.0-12.0-3.3","t5jlt0xu6m","many_one","0","direct_first","1","in06as04","0","20","1","1","3","1","","0","1","0","652.2899998817593","","","<img src = 'targets/mask.png' width = '100%;'>","68","pos","GS","GSnew","2","category2/GS3.png","","targets/27.png","indirect","0","27"
"","html-keyboard-response","252","822444","0.0-12.0-0.4","t5jlt0xu6m","many_one","0","direct_first","1","in06as04","0","20","1","1","3","1","","0","1","0","null","","","<div style=""font-size:60px;"">+</div>","null","","","","","","","","","",""
"","html-keyboard-response","253","822536","0.0-12.0-1.4","t5jlt0xu6m","many_one","0","direct_first","1","in06as04","0","20","1","1","3","1","","0","1","0","null","","","<img src = 'category4/GS3.png' width = '100%;'>","null","","","","","","","","","",""
"","html-keyboard-response","254","822790","0.0-12.0-2.4","t5jlt0xu6m","many_one","0","direct_first","1","in06as04","0","20","1","1","3","1","","0","1","0","null","","","<img src = 'targets/9.png' width = '100%;'>","null","","","","","","","","","",""
"","html-keyboard-response","255","823710","0.0-12.0-3.4","t5jlt0xu6m","many_one","0","direct_first","1","in06as04","0","20","1","1","3","1","","0","1","0","916.1900000181049","","","<img src = 'targets/mask.png' width = '100%;'>","75","neg","GS","GSnew","4","category4/GS3.png","","targets/9.png","indirect","1","28"
"","html-keyboard-response","256","825213","0.0-12.0-0.5","t5jlt0xu6m","many_one","0","direct_first","1","in06as04","0","20","1","1","3","1","","0","1","0","null","","","<div style=""font-size:60px;"">+</div>","null","","","","","","","","","",""
"","html-keyboard-response","257","825305","0.0-12.0-1.5","t5jlt0xu6m","many_one","0","direct_first","1","in06as04","0","20","1","1","3","1","","0","1","0","null","","","<img src = 'category2/men.png' width = '100%;'>","null","","","","","","","","","",""
"","html-keyboard-response","258","825560","0.0-12.0-2.5","t5jlt0xu6m","many_one","0","direct_first","1","in06as04","0","20","1","1","3","1","","0","1","0","null","","","<img src = 'targets/36.png' width = '100%;'>","null","","","","","","","","","",""
"","html-keyboard-response","259","826118","0.0-12.0-3.5","t5jlt0xu6m","many_one","0","direct_first","1","in06as04","0","20","1","1","3","1","","0","1","0","556.0699999332428","","","<img src = 'targets/mask.png' width = '100%;'>","68","pos","GS","abstract","2","category2/men.png","","targets/36.png","indirect","0","29"
"","html-keyboard-response","260","827622","0.0-12.0-0.6","t5jlt0xu6m","many_one","0","direct_first","1","in06as04","0","20","1","1","3","1","","0","1","0","null","","","<div style=""font-size:60px;"">+</div>","null","","","","","","","","","",""
"","html-keyboard-response","261","827714","0.0-12.0-1.6","t5jlt0xu6m","many_one","0","direct_first","1","in06as04","0","20","1","1","3","1","","0","1","0","null","","","<img src = 'category2/GS1.png' width = '100%;'>","null","","","","","","","","","",""
"","html-keyboard-response","262","827969","0.0-12.0-2.6","t5jlt0xu6m","many_one","0","direct_first","1","in06as04","0","20","1","1","3","1","","0","1","0","null","","","<img src = 'targets/34.png' width = '100%;'>","null","","","","","","","","","",""
"","html-keyboard-response","263","828694","0.0-12.0-3.6","t5jlt0xu6m","many_one","0","direct_first","1","in06as04","0","20","1","1","3","1","","0","1","0","722.8250000625849","","","<img src = 'targets/mask.png' width = '100%;'>","75","pos","GS","GSnew","2","category2/GS1.png","","targets/34.png","indirect","1","30"
"","html-keyboard-response","264","830195","0.0-12.0-0.7","t5jlt0xu6m","many_one","0","direct_first","1","in06as04","0","20","1","1","3","1","","0","1","0","null","","","<div style=""font-size:60px;"">+</div>","null","","","","","","","","","",""
"","html-keyboard-response","265","830288","0.0-12.0-1.7","t5jlt0xu6m","many_one","0","direct_first","1","in06as04","0","20","1","1","3","1","","0","1","0","null","","","<img src = 'category2/CS4.png' width = '100%;'>","null","","","","","","","","","",""
"","html-keyboard-response","266","830542","0.0-12.0-2.7","t5jlt0xu6m","many_one","0","direct_first","1","in06as04","0","20","1","1","3","1","","0","1","0","null","","","<img src = 'targets/10.png' width = '100%;'>","null","","","","","","","","","",""
"","html-keyboard-response","267","831916","0.0-12.0-3.7","t5jlt0xu6m","many_one","0","direct_first","1","in06as04","0","20","1","1","3","1","","0","1","0","1370.3850000165403","","","<img src = 'targets/mask.png' width = '100%;'>","68","pos","GS","GSold","2","category2/CS4.png","","targets/10.png","indirect","0","31"
"","html-keyboard-response","268","833418","0.0-12.0-0.8","t5jlt0xu6m","many_one","0","direct_first","1","in06as04","0","20","1","1","3","1","","0","1","0","null","","","<div style=""font-size:60px;"">+</div>","null","","","","","","","","","",""
"","html-keyboard-response","269","833511","0.0-12.0-1.8","t5jlt0xu6m","many_one","0","direct_first","1","in06as04","0","20","1","1","3","1","","0","1","0","null","","","<img src = 'category1/GS1.png' width = '100%;'>","null","","","","","","","","","",""
"","html-keyboard-response","270","833763","0.0-12.0-2.8","t5jlt0xu6m","many_one","0","direct_first","1","in06as04","0","20","1","1","3","1","","0","1","0","null","","","<img src = 'targets/30.png' width = '100%;'>","null","","","","","","","","","",""
"","html-keyboard-response","271","834909","0.0-12.0-3.8","t5jlt0xu6m","many_one","0","direct_first","1","in06as04","0","20","1","1","3","1","","0","1","0","1143.574999878183","","","<img src = 'targets/mask.png' width = '100%;'>","68","neg","GS","GSnew","1","category1/GS1.png","","targets/30.png","indirect","0","32"
"","html-keyboard-response","272","836411","0.0-12.0-0.9","t5jlt0xu6m","many_one","0","direct_first","1","in06as04","0","20","1","1","3","1","","0","1","0","null","","","<div style=""font-size:60px;"">+</div>","null","","","","","","","","","",""
"","html-keyboard-response","273","836505","0.0-12.0-1.9","t5jlt0xu6m","many_one","0","direct_first","1","in06as04","0","20","1","1","3","1","","0","1","0","null","","","<img src = 'category2/CS9.png' width = '100%;'>","null","","","","","","","","","",""
"","html-keyboard-response","274","836759","0.0-12.0-2.9","t5jlt0xu6m","many_one","0","direct_first","1","in06as04","0","20","1","1","3","1","","0","1","0","null","","","<img src = 'targets/24.png' width = '100%;'>","null","","","","","","","","","",""
"","html-keyboard-response","275","837295","0.0-12.0-3.9","t5jlt0xu6m","many_one","0","direct_first","1","in06as04","0","20","1","1","3","1","","0","1","0","531.1699998565018","","","<img src = 'targets/mask.png' width = '100%;'>","68","pos","GS","GSold","2","category2/CS9.png","","targets/24.png","indirect","0","33"
"","html-keyboard-response","276","838799","0.0-12.0-0.10","t5jlt0xu6m","many_one","0","direct_first","1","in06as04","0","20","1","1","3","1","","0","1","0","null","","","<div style=""font-size:60px;"">+</div>","null","","","","","","","","","",""
"","html-keyboard-response","277","838892","0.0-12.0-1.10","t5jlt0xu6m","many_one","0","direct_first","1","in06as04","0","20","1","1","3","1","","0","1","0","null","","","<img src = 'category4/GS2.png' width = '100%;'>","null","","","","","","","","","",""
"","html-keyboard-response","278","839146","0.0-12.0-2.10","t5jlt0xu6m","many_one","0","direct_first","1","in06as04","0","20","1","1","3","1","","0","1","0","null","","","<img src = 'targets/40.png' width = '100%;'>","null","","","","","","","","","",""
"","html-keyboard-response","279","840532","0.0-12.0-3.10","t5jlt0xu6m","many_one","0","direct_first","1","in06as04","0","20","1","1","3","1","","0","1","0","1383.29999987036","","","<img src = 'targets/mask.png' width = '100%;'>","75","neg","GS","GSnew","4","category4/GS2.png","","targets/40.png","indirect","1","34"
"","html-keyboard-response","280","842034","0.0-12.0-0.11","t5jlt0xu6m","many_one","0","direct_first","1","in06as04","0","20","1","1","3","1","","0","1","0","null","","","<div style=""font-size:60px;"">+</div>","null","","","","","","","","","",""
"","html-keyboard-response","281","842127","0.0-12.0-1.11","t5jlt0xu6m","many_one","0","direct_first","1","in06as04","0","20","1","1","3","1","","0","1","0","null","","","<img src = 'category1/GS3.png' width = '100%;'>","null","","","","","","","","","",""
"","html-keyboard-response","282","842380","0.0-12.0-2.11","t5jlt0xu6m","many_one","0","direct_first","1","in06as04","0","20","1","1","3","1","","0","1","0","null","","","<img src = 'targets/45.png' width = '100%;'>","null","","","","","","","","","",""
"","html-keyboard-response","283","842930","0.0-12.0-3.11","t5jlt0xu6m","many_one","0","direct_first","1","in06as04","0","20","1","1","3","1","","0","1","0","547.5400001741946","","","<img src = 'targets/mask.png' width = '100%;'>","75","neg","GS","GSnew","1","category1/GS3.png","","targets/45.png","indirect","1","35"
"","html-keyboard-response","284","844433","0.0-12.0-0.12","t5jlt0xu6m","many_one","0","direct_first","1","in06as04","0","20","1","1","3","1","","0","1","0","null","","","<div style=""font-size:60px;"">+</div>","null","","","","","","","","","",""
"","html-keyboard-response","285","844525","0.0-12.0-1.12","t5jlt0xu6m","many_one","0","direct_first","1","in06as04","0","20","1","1","3","1","","0","1","0","null","","","<img src = 'category1/ma.png' width = '100%;'>","null","","","","","","","","","",""
"","html-keyboard-response","286","844779","0.0-12.0-2.12","t5jlt0xu6m","many_one","0","direct_first","1","in06as04","0","20","1","1","3","1","","0","1","0","null","","","<img src = 'targets/42.png' width = '100%;'>","null","","","","","","","","","",""
"","html-keyboard-response","287","845726","0.0-12.0-3.12","t5jlt0xu6m","many_one","0","direct_first","1","in06as04","0","20","1","1","3","1","","0","1","0","943.4449998661876","","","<img src = 'targets/mask.png' width = '100%;'>","75","neg","GS","abstract","1","category1/ma.png","","targets/42.png","indirect","1","36"
"","html-keyboard-response","288","847229","0.0-12.0-0.13","t5jlt0xu6m","many_one","0","direct_first","1","in06as04","0","20","1","1","3","1","","0","1","0","null","","","<div style=""font-size:60px;"">+</div>","null","","","","","","","","","",""
"","html-keyboard-response","289","847321","0.0-12.0-1.13","t5jlt0xu6m","many_one","0","direct_first","1","in06as04","0","20","1","1","3","1","","0","1","0","null","","","<img src = 'category4/lin.png' width = '100%;'>","null","","","","","","","","","",""
"","html-keyboard-response","290","847575","0.0-12.0-2.13","t5jlt0xu6m","many_one","0","direct_first","1","in06as04","0","20","1","1","3","1","","0","1","0","null","","","<img src = 'targets/5.png' width = '100%;'>","null","","","","","","","","","",""
"","html-keyboard-response","291","848334","0.0-12.0-3.13","t5jlt0xu6m","many_one","0","direct_first","1","in06as04","0","20","1","1","3","1","","0","1","0","756.6850001458079","","","<img src = 'targets/mask.png' width = '100%;'>","75","neg","GS","abstract","4","category4/lin.png","","targets/5.png","indirect","1","37"
"","html-keyboard-response","292","849836","0.0-12.0-0.14","t5jlt0xu6m","many_one","0","direct_first","1","in06as04","0","20","1","1","3","1","","0","1","0","null","","","<div style=""font-size:60px;"">+</div>","null","","","","","","","","","",""
"","html-keyboard-response","293","849929","0.0-12.0-1.14","t5jlt0xu6m","many_one","0","direct_first","1","in06as04","0","20","1","1","3","1","","0","1","0","null","","","<img src = 'category3/GS1.png' width = '100%;'>","null","","","","","","","","","",""
"","html-keyboard-response","294","850182","0.0-12.0-2.14","t5jlt0xu6m","many_one","0","direct_first","1","in06as04","0","20","1","1","3","1","","0","1","0","null","","","<img src = 'targets/8.png' width = '100%;'>","null","","","","","","","","","",""
"","html-keyboard-response","295","850853","0.0-12.0-3.14","t5jlt0xu6m","many_one","0","direct_first","1","in06as04","0","20","1","1","3","1","","0","1","0","669.8249999899417","","","<img src = 'targets/mask.png' width = '100%;'>","68","pos","GS","GSnew","3","category3/GS1.png","","targets/8.png","indirect","0","38"
"","html-keyboard-response","296","852358","0.0-12.0-0.15","t5jlt0xu6m","many_one","0","direct_first","1","in06as04","0","20","1","1","3","1","","0","1","0","null","","","<div style=""font-size:60px;"">+</div>","null","","","","","","","","","",""
"","html-keyboard-response","297","852450","0.0-12.0-1.15","t5jlt0xu6m","many_one","0","direct_first","1","in06as04","0","20","1","1","3","1","","0","1","0","null","","","<img src = 'category3/CS3.png' width = '100%;'>","null","","","","","","","","","",""
"","html-keyboard-response","298","852703","0.0-12.0-2.15","t5jlt0xu6m","many_one","0","direct_first","1","in06as04","0","20","1","1","3","1","","0","1","0","null","","","<img src = 'targets/2.png' width = '100%;'>","null","","","","","","","","","",""
"","html-keyboard-response","299","853604","0.0-12.0-3.15","t5jlt0xu6m","many_one","0","direct_first","1","in06as04","0","20","1","1","3","1","","0","1","0","897.459999890998","","","<img src = 'targets/mask.png' width = '100%;'>","68","pos","GS","GSold","3","category3/CS3.png","","targets/2.png","indirect","0","39"
"","html-keyboard-response","300","855107","0.0-12.0-0.16","t5jlt0xu6m","many_one","0","direct_first","1","in06as04","0","20","1","1","3","1","","0","1","0","null","","","<div style=""font-size:60px;"">+</div>","null","","","","","","","","","",""
"","html-keyboard-response","301","855199","0.0-12.0-1.16","t5jlt0xu6m","many_one","0","direct_first","1","in06as04","0","20","1","1","3","1","","0","1","0","null","","","<img src = 'category3/GS2.png' width = '100%;'>","null","","","","","","","","","",""
"","html-keyboard-response","302","855453","0.0-12.0-2.16","t5jlt0xu6m","many_one","0","direct_first","1","in06as04","0","20","1","1","3","1","","0","1","0","null","","","<img src = 'targets/46.png' width = '100%;'>","null","","","","","","","","","",""
"","html-keyboard-response","303","855989","0.0-12.0-3.16","t5jlt0xu6m","many_one","0","direct_first","1","in06as04","0","20","1","1","3","1","","0","1","0","534.6850000787526","","","<img src = 'targets/mask.png' width = '100%;'>","75","pos","GS","GSnew","3","category3/GS2.png","","targets/46.png","indirect","1","40"
"","html-keyboard-response","304","857492","0.0-12.0-0.17","t5jlt0xu6m","many_one","0","direct_first","1","in06as04","0","20","1","1","3","1","","0","1","0","null","","","<div style=""font-size:60px;"">+</div>","null","","","","","","","","","",""
"","html-keyboard-response","305","857585","0.0-12.0-1.17","t5jlt0xu6m","many_one","0","direct_first","1","in06as04","0","20","1","1","3","1","","0","1","0","null","","","<img src = 'category4/CS4.png' width = '100%;'>","null","","","","","","","","","",""
"","html-keyboard-response","306","857837","0.0-12.0-2.17","t5jlt0xu6m","many_one","0","direct_first","1","in06as04","0","20","1","1","3","1","","0","1","0","null","","","<img src = 'targets/44.png' width = '100%;'>","null","","","","","","","","","",""
"","html-keyboard-response","307","858806","0.0-12.0-3.17","t5jlt0xu6m","many_one","0","direct_first","1","in06as04","0","20","1","1","3","1","","0","1","0","966.0350000485778","","","<img src = 'targets/mask.png' width = '100%;'>","68","neg","GS","GSold","4","category4/CS4.png","","targets/44.png","indirect","0","41"
"","html-keyboard-response","308","860309","0.0-12.0-0.18","t5jlt0xu6m","many_one","0","direct_first","1","in06as04","0","20","1","1","3","1","","0","1","0","null","","","<div style=""font-size:60px;"">+</div>","null","","","","","","","","","",""
"","html-keyboard-response","309","860400","0.0-12.0-1.18","t5jlt0xu6m","many_one","0","direct_first","1","in06as04","0","20","1","1","3","1","","0","1","0","null","","","<img src = 'category4/CS9.png' width = '100%;'>","null","","","","","","","","","",""
"","html-keyboard-response","310","860654","0.0-12.0-2.18","t5jlt0xu6m","many_one","0","direct_first","1","in06as04","0","20","1","1","3","1","","0","1","0","null","","","<img src = 'targets/16.png' width = '100%;'>","null","","","","","","","","","",""
"","html-keyboard-response","311","861749","0.0-12.0-3.18","t5jlt0xu6m","many_one","0","direct_first","1","in06as04","0","20","1","1","3","1","","0","1","0","1091.7749998625368","","","<img src = 'targets/mask.png' width = '100%;'>","68","neg","GS","GSold","4","category4/CS9.png","","targets/16.png","indirect","0","42"
"","html-keyboard-response","312","863251","0.0-12.0-0.19","t5jlt0xu6m","many_one","0","direct_first","1","in06as04","0","20","1","1","3","1","","0","1","0","null","","","<div style=""font-size:60px;"">+</div>","null","","","","","","","","","",""
"","html-keyboard-response","313","863344","0.0-12.0-1.19","t5jlt0xu6m","many_one","0","direct_first","1","in06as04","0","20","1","1","3","1","","0","1","0","null","","","<img src = 'category3/CS2.png' width = '100%;'>","null","","","","","","","","","",""
"","html-keyboard-response","314","863597","0.0-12.0-2.19","t5jlt0xu6m","many_one","0","direct_first","1","in06as04","0","20","1","1","3","1","","0","1","0","null","","","<img src = 'targets/25.png' width = '100%;'>","null","","","","","","","","","",""
"","html-keyboard-response","315","864666","0.0-12.0-3.19","t5jlt0xu6m","many_one","0","direct_first","1","in06as04","0","20","1","1","3","1","","0","1","0","1066.774999955669","","","<img src = 'targets/mask.png' width = '100%;'>","75","pos","GS","GSold","3","category3/CS2.png","","targets/25.png","indirect","1","43"
"","html-keyboard-response","316","866168","0.0-12.0-0.20","t5jlt0xu6m","many_one","0","direct_first","1","in06as04","0","20","1","1","3","1","","0","1","0","null","","","<div style=""font-size:60px;"">+</div>","null","","","","","","","","","",""
"","html-keyboard-response","317","866260","0.0-12.0-1.20","t5jlt0xu6m","many_one","0","direct_first","1","in06as04","0","20","1","1","3","1","","0","1","0","null","","","<img src = 'category3/wang.png' width = '100%;'>","null","","","","","","","","","",""
"","html-keyboard-response","318","866514","0.0-12.0-2.20","t5jlt0xu6m","many_one","0","direct_first","1","in06as04","0","20","1","1","3","1","","0","1","0","null","","","<img src = 'targets/32.png' width = '100%;'>","null","","","","","","","","","",""
"","html-keyboard-response","319","867054","0.0-12.0-3.20","t5jlt0xu6m","many_one","0","direct_first","1","in06as04","0","20","1","1","3","1","","0","1","0","537.1199999935925","","","<img src = 'targets/mask.png' width = '100%;'>","75","pos","GS","abstract","3","category3/wang.png","","targets/32.png","indirect","1","44"
"","html-keyboard-response","320","868556","0.0-12.0-0.21","t5jlt0xu6m","many_one","0","direct_first","1","in06as04","0","20","1","1","3","1","","0","1","0","null","","","<div style=""font-size:60px;"">+</div>","null","","","","","","","","","",""
"","html-keyboard-response","321","868649","0.0-12.0-1.21","t5jlt0xu6m","many_one","0","direct_first","1","in06as04","0","20","1","1","3","1","","0","1","0","null","","","<img src = 'category2/GS2.png' width = '100%;'>","null","","","","","","","","","",""
"","html-keyboard-response","322","868902","0.0-12.0-2.21","t5jlt0xu6m","many_one","0","direct_first","1","in06as04","0","20","1","1","3","1","","0","1","0","null","","","<img src = 'targets/43.png' width = '100%;'>","null","","","","","","","","","",""
"","html-keyboard-response","323","869510","0.0-12.0-3.21","t5jlt0xu6m","many_one","0","direct_first","1","in06as04","0","20","1","1","3","1","","0","1","0","605.2800000179559","","","<img src = 'targets/mask.png' width = '100%;'>","68","pos","GS","GSnew","2","category2/GS2.png","","targets/43.png","indirect","0","45"
"","html-keyboard-response","324","871013","0.0-12.0-0.22","t5jlt0xu6m","many_one","0","direct_first","1","in06as04","0","20","1","1","3","1","","0","1","0","null","","","<div style=""font-size:60px;"">+</div>","null","","","","","","","","","",""
"","html-keyboard-response","325","871106","0.0-12.0-1.22","t5jlt0xu6m","many_one","0","direct_first","1","in06as04","0","20","1","1","3","1","","0","1","0","null","","","<img src = 'category4/CS3.png' width = '100%;'>","null","","","","","","","","","",""
"","html-keyboard-response","326","871358","0.0-12.0-2.22","t5jlt0xu6m","many_one","0","direct_first","1","in06as04","0","20","1","1","3","1","","0","1","0","null","","","<img src = 'targets/17.png' width = '100%;'>","null","","","","","","","","","",""
"","html-keyboard-response","327","871789","0.0-12.0-3.22","t5jlt0xu6m","many_one","0","direct_first","1","in06as04","0","20","1","1","3","1","","0","1","0","429.0199999231845","","","<img src = 'targets/mask.png' width = '100%;'>","68","neg","GS","GSold","4","category4/CS3.png","","targets/17.png","indirect","0","46"
