"success","trial_type","trial_index","time_elapsed","internal_node_id","subject","condition","condition_code","measure","measure_code","codeword","gender","age","education","chinese","fach","handedness","comment","hinschauen","ablenkung","gewissenhaft","rt","url","responses","stimulus","key_press","val","type","type_specific","category","cs_selected","response","target","task","indirect","nr_pres"
"true","fullscreen","0","4381","0.0-0.0","zjfkyrqalf","one_one","1","direct_first","1","nd06er26","1","21","1","1","3","2","","0","1","0","","","","","","","","","","","","","","",""
"","external-html","1","64767","0.0-1.0","zjfkyrqalf","one_one","1","direct_first","1","nd06er26","1","21","1","1","3","2","","0","1","0","60343.36999990046","text/information.html","","","","","","","","","","","","",""
"","external-html","2","103039","0.0-2.0","zjfkyrqalf","one_one","1","direct_first","1","nd06er26","1","21","1","1","3","2","","0","1","0","38188.610000070184","text/consent.html","","","","","","","","","","","","",""
"","survey-html-form","3","139217","0.0-3.0","zjfkyrqalf","one_one","1","direct_first","1","nd06er26","1","21","1","1","3","2","","0","1","0","36167.47500002384","","{""codeword_enter"":""nd06er26""}","","","","","","","","","","","",""
"","survey-html-form","4","155208","0.0-4.0","zjfkyrqalf","one_one","1","direct_first","1","nd06er26","1","21","1","1","3","2","","0","1","0","15986.244999803603","","{""age"":""21"",""education"":""1"",""subject"":""3"",""gender"":""1"",""handedness"":""2"",""chinese"":""1""}","","","","","","","","","","","",""
"","survey-html-form","5","165290","0.0-5.0","zjfkyrqalf","one_one","1","direct_first","1","nd06er26","1","21","1","1","3","2","","0","1","0","10078.890000004321","","{}","","","","","","","","","","","",""
"","html-keyboard-response","6","169326","0.0-6.0-0.0-0.0","zjfkyrqalf","one_one","1","direct_first","1","nd06er26","1","21","1","1","3","2","","0","1","0","null","","","<div class = 'row'><div class = 'column'><img src = 'uspos/2311.bmp' width = '100%;'></div><div class = 'column'><img src = 'category2/CS9.png' width = '70%;'></div></div>","null","pos","CS","CS","2","category2/CS9.png","","","","",""
"","html-keyboard-response","7","171857","0.0-6.0-0.0-0.1","zjfkyrqalf","one_one","1","direct_first","1","nd06er26","1","21","1","1","3","2","","0","1","0","null","","","<div class = 'row'><div class = 'column'><img src = 'category3/CS3.png' width = '70%;'></div><div class = 'column'><img src = 'uspos/2360.bmp' width = '100%;'></div></div>","null","pos","CS","CS","3","category3/CS3.png","","","","",""
"","html-keyboard-response","8","174367","0.0-6.0-0.0-0.2","zjfkyrqalf","one_one","1","direct_first","1","nd06er26","1","21","1","1","3","2","","0","1","0","null","","","<div class = 'row'><div class = 'column'><img src = 'usneg/9050.bmp' width = '100%;'></div><div class = 'column'><img src = 'category1/CS3.png' width = '70%;'></div></div>","null","neg","CS","CS","1","category1/CS3.png","","","","",""
"","html-keyboard-response","9","176884","0.0-6.0-0.0-0.3","zjfkyrqalf","one_one","1","direct_first","1","nd06er26","1","21","1","1","3","2","","0","1","0","null","","","<div class = 'row'><div class = 'column'><img src = 'uspos/2311.bmp' width = '100%;'></div><div class = 'column'><img src = 'category2/CS9.png' width = '70%;'></div></div>","null","pos","CS","CS","2","category2/CS9.png","","","","",""
"","html-keyboard-response","10","179398","0.0-6.0-0.0-0.4","zjfkyrqalf","one_one","1","direct_first","1","nd06er26","1","21","1","1","3","2","","0","1","0","null","","","<div class = 'row'><div class = 'column'><img src = 'category3/CS3.png' width = '70%;'></div><div class = 'column'><img src = 'uspos/2360.bmp' width = '100%;'></div></div>","null","pos","CS","CS","3","category3/CS3.png","","","","",""
"","html-keyboard-response","11","181911","0.0-6.0-0.0-0.5","zjfkyrqalf","one_one","1","direct_first","1","nd06er26","1","21","1","1","3","2","","0","1","0","null","","","<div class = 'row'><div class = 'column'><img src = 'category4/CS2.png' width = '70%;'></div><div class = 'column'><img src = 'usneg/9635.2.bmp' width = '100%;'></div></div>","null","neg","CS","CS","4","category4/CS2.png","","","","",""
"","html-keyboard-response","12","184432","0.0-6.0-0.0-0.6","zjfkyrqalf","one_one","1","direct_first","1","nd06er26","1","21","1","1","3","2","","0","1","0","null","","","<div class = 'row'><div class = 'column'><img src = 'uspos/2360.bmp' width = '100%;'></div><div class = 'column'><img src = 'category3/CS3.png' width = '70%;'></div></div>","null","pos","CS","CS","3","category3/CS3.png","","","","",""
"","html-keyboard-response","13","186957","0.0-6.0-0.0-0.7","zjfkyrqalf","one_one","1","direct_first","1","nd06er26","1","21","1","1","3","2","","0","1","0","null","","","<div class = 'row'><div class = 'column'><img src = 'usneg/9050.bmp' width = '100%;'></div><div class = 'column'><img src = 'category1/CS3.png' width = '70%;'></div></div>","null","neg","CS","CS","1","category1/CS3.png","","","","",""
"","html-keyboard-response","14","189480","0.0-6.0-0.0-0.8","zjfkyrqalf","one_one","1","direct_first","1","nd06er26","1","21","1","1","3","2","","0","1","0","null","","","<div class = 'row'><div class = 'column'><img src = 'category4/CS2.png' width = '70%;'></div><div class = 'column'><img src = 'usneg/9635.2.bmp' width = '100%;'></div></div>","null","neg","CS","CS","4","category4/CS2.png","","","","",""
"","html-keyboard-response","15","192004","0.0-6.0-0.0-0.9","zjfkyrqalf","one_one","1","direct_first","1","nd06er26","1","21","1","1","3","2","","0","1","0","null","","","<div class = 'row'><div class = 'column'><img src = 'category2/CS9.png' width = '70%;'></div><div class = 'column'><img src = 'uspos/2311.bmp' width = '100%;'></div></div>","null","pos","CS","CS","2","category2/CS9.png","","","","",""
"","html-keyboard-response","16","194521","0.0-6.0-0.0-0.10","zjfkyrqalf","one_one","1","direct_first","1","nd06er26","1","21","1","1","3","2","","0","1","0","null","","","<div class = 'row'><div class = 'column'><img src = 'uspos/2360.bmp' width = '100%;'></div><div class = 'column'><img src = 'category3/CS3.png' width = '70%;'></div></div>","null","pos","CS","CS","3","category3/CS3.png","","","","",""
"","html-keyboard-response","17","197039","0.0-6.0-0.0-0.11","zjfkyrqalf","one_one","1","direct_first","1","nd06er26","1","21","1","1","3","2","","0","1","0","null","","","<div class = 'row'><div class = 'column'><img src = 'category2/CS9.png' width = '70%;'></div><div class = 'column'><img src = 'uspos/2311.bmp' width = '100%;'></div></div>","null","pos","CS","CS","2","category2/CS9.png","","","","",""
"","html-keyboard-response","18","199549","0.0-6.0-0.0-0.12","zjfkyrqalf","one_one","1","direct_first","1","nd06er26","1","21","1","1","3","2","","0","1","0","null","","","<div class = 'row'><div class = 'column'><img src = 'category1/CS3.png' width = '70%;'></div><div class = 'column'><img src = 'usneg/9050.bmp' width = '100%;'></div></div>","null","neg","CS","CS","1","category1/CS3.png","","","","",""
"","html-keyboard-response","19","202077","0.0-6.0-0.0-0.13","zjfkyrqalf","one_one","1","direct_first","1","nd06er26","1","21","1","1","3","2","","0","1","0","null","","","<div class = 'row'><div class = 'column'><img src = 'category3/CS3.png' width = '70%;'></div><div class = 'column'><img src = 'uspos/2360.bmp' width = '100%;'></div></div>","null","pos","CS","CS","3","category3/CS3.png","","","","",""
"","html-keyboard-response","20","204594","0.0-6.0-0.0-0.14","zjfkyrqalf","one_one","1","direct_first","1","nd06er26","1","21","1","1","3","2","","0","1","0","null","","","<div class = 'row'><div class = 'column'><img src = 'usneg/9635.2.bmp' width = '100%;'></div><div class = 'column'><img src = 'category4/CS2.png' width = '70%;'></div></div>","null","neg","CS","CS","4","category4/CS2.png","","","","",""
"","html-keyboard-response","21","207114","0.0-6.0-0.0-0.15","zjfkyrqalf","one_one","1","direct_first","1","nd06er26","1","21","1","1","3","2","","0","1","0","null","","","<div class = 'row'><div class = 'column'><img src = 'category1/CS3.png' width = '70%;'></div><div class = 'column'><img src = 'usneg/9050.bmp' width = '100%;'></div></div>","null","neg","CS","CS","1","category1/CS3.png","","","","",""
"","html-keyboard-response","22","209624","0.0-6.0-0.0-0.16","zjfkyrqalf","one_one","1","direct_first","1","nd06er26","1","21","1","1","3","2","","0","1","0","null","","","<div class = 'row'><div class = 'column'><img src = 'category4/CS2.png' width = '70%;'></div><div class = 'column'><img src = 'usneg/9635.2.bmp' width = '100%;'></div></div>","null","neg","CS","CS","4","category4/CS2.png","","","","",""
"","html-keyboard-response","23","212142","0.0-6.0-0.0-0.17","zjfkyrqalf","one_one","1","direct_first","1","nd06er26","1","21","1","1","3","2","","0","1","0","null","","","<div class = 'row'><div class = 'column'><img src = 'category2/CS9.png' width = '70%;'></div><div class = 'column'><img src = 'uspos/2311.bmp' width = '100%;'></div></div>","null","pos","CS","CS","2","category2/CS9.png","","","","",""
"","html-keyboard-response","24","214668","0.0-6.0-0.0-0.18","zjfkyrqalf","one_one","1","direct_first","1","nd06er26","1","21","1","1","3","2","","0","1","0","null","","","<div class = 'row'><div class = 'column'><img src = 'category4/CS2.png' width = '70%;'></div><div class = 'column'><img src = 'usneg/9635.2.bmp' width = '100%;'></div></div>","null","neg","CS","CS","4","category4/CS2.png","","","","",""
"","html-keyboard-response","25","217176","0.0-6.0-0.0-0.19","zjfkyrqalf","one_one","1","direct_first","1","nd06er26","1","21","1","1","3","2","","0","1","0","null","","","<div class = 'row'><div class = 'column'><img src = 'category1/CS3.png' width = '70%;'></div><div class = 'column'><img src = 'usneg/9050.bmp' width = '100%;'></div></div>","null","neg","CS","CS","1","category1/CS3.png","","","","",""
"","survey-html-form","26","220379","0.0-6.0-1.0","zjfkyrqalf","one_one","1","direct_first","1","nd06er26","1","21","1","1","3","2","","0","1","0","2686.9400003924966","","{}","","","","","","","","","","","",""
"","html-keyboard-response","27","224402","0.0-6.0-2.0-0.0","zjfkyrqalf","one_one","1","direct_first","1","nd06er26","1","21","1","1","3","2","","0","1","0","null","","","<div class = 'row'><div class = 'column'><img src = 'category2/CS9.png' width = '70%;'></div><div class = 'column'><img src = 'uspos/2311.bmp' width = '100%;'></div></div>","null","pos","CS","CS","2","category2/CS9.png","","","","",""
"","html-keyboard-response","28","226921","0.0-6.0-2.0-0.1","zjfkyrqalf","one_one","1","direct_first","1","nd06er26","1","21","1","1","3","2","","0","1","0","null","","","<div class = 'row'><div class = 'column'><img src = 'category1/CS3.png' width = '70%;'></div><div class = 'column'><img src = 'usneg/9050.bmp' width = '100%;'></div></div>","null","neg","CS","CS","1","category1/CS3.png","","","","",""
"","html-keyboard-response","29","229437","0.0-6.0-2.0-0.2","zjfkyrqalf","one_one","1","direct_first","1","nd06er26","1","21","1","1","3","2","","0","1","0","null","","","<div class = 'row'><div class = 'column'><img src = 'uspos/2311.bmp' width = '100%;'></div><div class = 'column'><img src = 'category2/CS9.png' width = '70%;'></div></div>","null","pos","CS","CS","2","category2/CS9.png","","","","",""
"","html-keyboard-response","30","231964","0.0-6.0-2.0-0.3","zjfkyrqalf","one_one","1","direct_first","1","nd06er26","1","21","1","1","3","2","","0","1","0","null","","","<div class = 'row'><div class = 'column'><img src = 'usneg/9635.2.bmp' width = '100%;'></div><div class = 'column'><img src = 'category4/CS2.png' width = '70%;'></div></div>","null","neg","CS","CS","4","category4/CS2.png","","","","",""
"","html-keyboard-response","31","234473","0.0-6.0-2.0-0.4","zjfkyrqalf","one_one","1","direct_first","1","nd06er26","1","21","1","1","3","2","","0","1","0","null","","","<div class = 'row'><div class = 'column'><img src = 'usneg/9050.bmp' width = '100%;'></div><div class = 'column'><img src = 'category1/CS3.png' width = '70%;'></div></div>","null","neg","CS","CS","1","category1/CS3.png","","","","",""
"","html-keyboard-response","32","236998","0.0-6.0-2.0-0.5","zjfkyrqalf","one_one","1","direct_first","1","nd06er26","1","21","1","1","3","2","","0","1","0","null","","","<div class = 'row'><div class = 'column'><img src = 'category3/CS3.png' width = '70%;'></div><div class = 'column'><img src = 'uspos/2360.bmp' width = '100%;'></div></div>","null","pos","CS","CS","3","category3/CS3.png","","","","",""
"","html-keyboard-response","33","239511","0.0-6.0-2.0-0.6","zjfkyrqalf","one_one","1","direct_first","1","nd06er26","1","21","1","1","3","2","","0","1","0","null","","","<div class = 'row'><div class = 'column'><img src = 'category1/CS3.png' width = '70%;'></div><div class = 'column'><img src = 'usneg/9050.bmp' width = '100%;'></div></div>","null","neg","CS","CS","1","category1/CS3.png","","","","",""
"","html-keyboard-response","34","242027","0.0-6.0-2.0-0.7","zjfkyrqalf","one_one","1","direct_first","1","nd06er26","1","21","1","1","3","2","","0","1","0","null","","","<div class = 'row'><div class = 'column'><img src = 'usneg/9635.2.bmp' width = '100%;'></div><div class = 'column'><img src = 'category4/CS2.png' width = '70%;'></div></div>","null","neg","CS","CS","4","category4/CS2.png","","","","",""
"","html-keyboard-response","35","244536","0.0-6.0-2.0-0.8","zjfkyrqalf","one_one","1","direct_first","1","nd06er26","1","21","1","1","3","2","","0","1","0","null","","","<div class = 'row'><div class = 'column'><img src = 'category3/CS3.png' width = '70%;'></div><div class = 'column'><img src = 'uspos/2360.bmp' width = '100%;'></div></div>","null","pos","CS","CS","3","category3/CS3.png","","","","",""
"","html-keyboard-response","36","247059","0.0-6.0-2.0-0.9","zjfkyrqalf","one_one","1","direct_first","1","nd06er26","1","21","1","1","3","2","","0","1","0","null","","","<div class = 'row'><div class = 'column'><img src = 'category4/CS2.png' width = '70%;'></div><div class = 'column'><img src = 'usneg/9635.2.bmp' width = '100%;'></div></div>","null","neg","CS","CS","4","category4/CS2.png","","","","",""
"","html-keyboard-response","37","249577","0.0-6.0-2.0-0.10","zjfkyrqalf","one_one","1","direct_first","1","nd06er26","1","21","1","1","3","2","","0","1","0","null","","","<div class = 'row'><div class = 'column'><img src = 'uspos/2360.bmp' width = '100%;'></div><div class = 'column'><img src = 'category3/CS3.png' width = '70%;'></div></div>","null","pos","CS","CS","3","category3/CS3.png","","","","",""
"","html-keyboard-response","38","252095","0.0-6.0-2.0-0.11","zjfkyrqalf","one_one","1","direct_first","1","nd06er26","1","21","1","1","3","2","","0","1","0","null","","","<div class = 'row'><div class = 'column'><img src = 'category2/CS9.png' width = '70%;'></div><div class = 'column'><img src = 'uspos/2311.bmp' width = '100%;'></div></div>","null","pos","CS","CS","2","category2/CS9.png","","","","",""
"","html-keyboard-response","39","254605","0.0-6.0-2.0-0.12","zjfkyrqalf","one_one","1","direct_first","1","nd06er26","1","21","1","1","3","2","","0","1","0","null","","","<div class = 'row'><div class = 'column'><img src = 'uspos/2360.bmp' width = '100%;'></div><div class = 'column'><img src = 'category3/CS3.png' width = '70%;'></div></div>","null","pos","CS","CS","3","category3/CS3.png","","","","",""
"","html-keyboard-response","40","257133","0.0-6.0-2.0-0.13","zjfkyrqalf","one_one","1","direct_first","1","nd06er26","1","21","1","1","3","2","","0","1","0","null","","","<div class = 'row'><div class = 'column'><img src = 'category4/CS2.png' width = '70%;'></div><div class = 'column'><img src = 'usneg/9635.2.bmp' width = '100%;'></div></div>","null","neg","CS","CS","4","category4/CS2.png","","","","",""
"","html-keyboard-response","41","259650","0.0-6.0-2.0-0.14","zjfkyrqalf","one_one","1","direct_first","1","nd06er26","1","21","1","1","3","2","","0","1","0","null","","","<div class = 'row'><div class = 'column'><img src = 'usneg/9050.bmp' width = '100%;'></div><div class = 'column'><img src = 'category1/CS3.png' width = '70%;'></div></div>","null","neg","CS","CS","1","category1/CS3.png","","","","",""
"","html-keyboard-response","42","262161","0.0-6.0-2.0-0.15","zjfkyrqalf","one_one","1","direct_first","1","nd06er26","1","21","1","1","3","2","","0","1","0","null","","","<div class = 'row'><div class = 'column'><img src = 'category2/CS9.png' width = '70%;'></div><div class = 'column'><img src = 'uspos/2311.bmp' width = '100%;'></div></div>","null","pos","CS","CS","2","category2/CS9.png","","","","",""
"","html-keyboard-response","43","264677","0.0-6.0-2.0-0.16","zjfkyrqalf","one_one","1","direct_first","1","nd06er26","1","21","1","1","3","2","","0","1","0","null","","","<div class = 'row'><div class = 'column'><img src = 'category3/CS3.png' width = '70%;'></div><div class = 'column'><img src = 'uspos/2360.bmp' width = '100%;'></div></div>","null","pos","CS","CS","3","category3/CS3.png","","","","",""
"","html-keyboard-response","44","267202","0.0-6.0-2.0-0.17","zjfkyrqalf","one_one","1","direct_first","1","nd06er26","1","21","1","1","3","2","","0","1","0","null","","","<div class = 'row'><div class = 'column'><img src = 'usneg/9635.2.bmp' width = '100%;'></div><div class = 'column'><img src = 'category4/CS2.png' width = '70%;'></div></div>","null","neg","CS","CS","4","category4/CS2.png","","","","",""
"","html-keyboard-response","45","269715","0.0-6.0-2.0-0.18","zjfkyrqalf","one_one","1","direct_first","1","nd06er26","1","21","1","1","3","2","","0","1","0","null","","","<div class = 'row'><div class = 'column'><img src = 'category2/CS9.png' width = '70%;'></div><div class = 'column'><img src = 'uspos/2311.bmp' width = '100%;'></div></div>","null","pos","CS","CS","2","category2/CS9.png","","","","",""
"","html-keyboard-response","46","272224","0.0-6.0-2.0-0.19","zjfkyrqalf","one_one","1","direct_first","1","nd06er26","1","21","1","1","3","2","","0","1","0","null","","","<div class = 'row'><div class = 'column'><img src = 'category1/CS3.png' width = '70%;'></div><div class = 'column'><img src = 'usneg/9050.bmp' width = '100%;'></div></div>","null","neg","CS","CS","1","category1/CS3.png","","","","",""
"","survey-html-form","47","276930","0.0-6.0-3.0","zjfkyrqalf","one_one","1","direct_first","1","nd06er26","1","21","1","1","3","2","","0","1","0","4200.115000363439","","{}","","","","","","","","","","","",""
"","html-keyboard-response","48","280959","0.0-6.0-4.0-0.0","zjfkyrqalf","one_one","1","direct_first","1","nd06er26","1","21","1","1","3","2","","0","1","0","null","","","<div class = 'row'><div class = 'column'><img src = 'category3/CS3.png' width = '70%;'></div><div class = 'column'><img src = 'uspos/2360.bmp' width = '100%;'></div></div>","null","pos","CS","CS","3","category3/CS3.png","","","","",""
"","html-keyboard-response","49","283483","0.0-6.0-4.0-0.1","zjfkyrqalf","one_one","1","direct_first","1","nd06er26","1","21","1","1","3","2","","0","1","0","null","","","<div class = 'row'><div class = 'column'><img src = 'category2/CS9.png' width = '70%;'></div><div class = 'column'><img src = 'uspos/2311.bmp' width = '100%;'></div></div>","null","pos","CS","CS","2","category2/CS9.png","","","","",""
"","html-keyboard-response","50","286004","0.0-6.0-4.0-0.2","zjfkyrqalf","one_one","1","direct_first","1","nd06er26","1","21","1","1","3","2","","0","1","0","null","","","<div class = 'row'><div class = 'column'><img src = 'category3/CS3.png' width = '70%;'></div><div class = 'column'><img src = 'uspos/2360.bmp' width = '100%;'></div></div>","null","pos","CS","CS","3","category3/CS3.png","","","","",""
"","html-keyboard-response","51","288525","0.0-6.0-4.0-0.3","zjfkyrqalf","one_one","1","direct_first","1","nd06er26","1","21","1","1","3","2","","0","1","0","null","","","<div class = 'row'><div class = 'column'><img src = 'category1/CS3.png' width = '70%;'></div><div class = 'column'><img src = 'usneg/9050.bmp' width = '100%;'></div></div>","null","neg","CS","CS","1","category1/CS3.png","","","","",""
"","html-keyboard-response","52","291048","0.0-6.0-4.0-0.4","zjfkyrqalf","one_one","1","direct_first","1","nd06er26","1","21","1","1","3","2","","0","1","0","null","","","<div class = 'row'><div class = 'column'><img src = 'usneg/9635.2.bmp' width = '100%;'></div><div class = 'column'><img src = 'category4/CS2.png' width = '70%;'></div></div>","null","neg","CS","CS","4","category4/CS2.png","","","","",""
"","html-keyboard-response","53","293568","0.0-6.0-4.0-0.5","zjfkyrqalf","one_one","1","direct_first","1","nd06er26","1","21","1","1","3","2","","0","1","0","null","","","<div class = 'row'><div class = 'column'><img src = 'usneg/9050.bmp' width = '100%;'></div><div class = 'column'><img src = 'category1/CS3.png' width = '70%;'></div></div>","null","neg","CS","CS","1","category1/CS3.png","","","","",""
"","html-keyboard-response","54","296108","0.0-6.0-4.0-0.6","zjfkyrqalf","one_one","1","direct_first","1","nd06er26","1","21","1","1","3","2","","0","1","0","null","","","<div class = 'row'><div class = 'column'><img src = 'uspos/2360.bmp' width = '100%;'></div><div class = 'column'><img src = 'category3/CS3.png' width = '70%;'></div></div>","null","pos","CS","CS","3","category3/CS3.png","","","","",""
"","html-keyboard-response","55","298622","0.0-6.0-4.0-0.7","zjfkyrqalf","one_one","1","direct_first","1","nd06er26","1","21","1","1","3","2","","0","1","0","null","","","<div class = 'row'><div class = 'column'><img src = 'uspos/2311.bmp' width = '100%;'></div><div class = 'column'><img src = 'category2/CS9.png' width = '70%;'></div></div>","null","pos","CS","CS","2","category2/CS9.png","","","","",""
"","html-keyboard-response","56","301136","0.0-6.0-4.0-0.8","zjfkyrqalf","one_one","1","direct_first","1","nd06er26","1","21","1","1","3","2","","0","1","0","null","","","<div class = 'row'><div class = 'column'><img src = 'category4/CS2.png' width = '70%;'></div><div class = 'column'><img src = 'usneg/9635.2.bmp' width = '100%;'></div></div>","null","neg","CS","CS","4","category4/CS2.png","","","","",""
"","html-keyboard-response","57","303656","0.0-6.0-4.0-0.9","zjfkyrqalf","one_one","1","direct_first","1","nd06er26","1","21","1","1","3","2","","0","1","0","null","","","<div class = 'row'><div class = 'column'><img src = 'usneg/9050.bmp' width = '100%;'></div><div class = 'column'><img src = 'category1/CS3.png' width = '70%;'></div></div>","null","neg","CS","CS","1","category1/CS3.png","","","","",""
"","html-keyboard-response","58","306175","0.0-6.0-4.0-0.10","zjfkyrqalf","one_one","1","direct_first","1","nd06er26","1","21","1","1","3","2","","0","1","0","null","","","<div class = 'row'><div class = 'column'><img src = 'uspos/2311.bmp' width = '100%;'></div><div class = 'column'><img src = 'category2/CS9.png' width = '70%;'></div></div>","null","pos","CS","CS","2","category2/CS9.png","","","","",""
"","html-keyboard-response","59","308703","0.0-6.0-4.0-0.11","zjfkyrqalf","one_one","1","direct_first","1","nd06er26","1","21","1","1","3","2","","0","1","0","null","","","<div class = 'row'><div class = 'column'><img src = 'category1/CS3.png' width = '70%;'></div><div class = 'column'><img src = 'usneg/9050.bmp' width = '100%;'></div></div>","null","neg","CS","CS","1","category1/CS3.png","","","","",""
"","html-keyboard-response","60","311215","0.0-6.0-4.0-0.12","zjfkyrqalf","one_one","1","direct_first","1","nd06er26","1","21","1","1","3","2","","0","1","0","null","","","<div class = 'row'><div class = 'column'><img src = 'category3/CS3.png' width = '70%;'></div><div class = 'column'><img src = 'uspos/2360.bmp' width = '100%;'></div></div>","null","pos","CS","CS","3","category3/CS3.png","","","","",""
"","html-keyboard-response","61","313734","0.0-6.0-4.0-0.13","zjfkyrqalf","one_one","1","direct_first","1","nd06er26","1","21","1","1","3","2","","0","1","0","null","","","<div class = 'row'><div class = 'column'><img src = 'usneg/9635.2.bmp' width = '100%;'></div><div class = 'column'><img src = 'category4/CS2.png' width = '70%;'></div></div>","null","neg","CS","CS","4","category4/CS2.png","","","","",""
"","html-keyboard-response","62","316259","0.0-6.0-4.0-0.14","zjfkyrqalf","one_one","1","direct_first","1","nd06er26","1","21","1","1","3","2","","0","1","0","null","","","<div class = 'row'><div class = 'column'><img src = 'usneg/9050.bmp' width = '100%;'></div><div class = 'column'><img src = 'category1/CS3.png' width = '70%;'></div></div>","null","neg","CS","CS","1","category1/CS3.png","","","","",""
"","html-keyboard-response","63","318791","0.0-6.0-4.0-0.15","zjfkyrqalf","one_one","1","direct_first","1","nd06er26","1","21","1","1","3","2","","0","1","0","null","","","<div class = 'row'><div class = 'column'><img src = 'category3/CS3.png' width = '70%;'></div><div class = 'column'><img src = 'uspos/2360.bmp' width = '100%;'></div></div>","null","pos","CS","CS","3","category3/CS3.png","","","","",""
"","html-keyboard-response","64","321312","0.0-6.0-4.0-0.16","zjfkyrqalf","one_one","1","direct_first","1","nd06er26","1","21","1","1","3","2","","0","1","0","null","","","<div class = 'row'><div class = 'column'><img src = 'category2/CS9.png' width = '70%;'></div><div class = 'column'><img src = 'uspos/2311.bmp' width = '100%;'></div></div>","null","pos","CS","CS","2","category2/CS9.png","","","","",""
"","html-keyboard-response","65","323819","0.0-6.0-4.0-0.17","zjfkyrqalf","one_one","1","direct_first","1","nd06er26","1","21","1","1","3","2","","0","1","0","null","","","<div class = 'row'><div class = 'column'><img src = 'usneg/9635.2.bmp' width = '100%;'></div><div class = 'column'><img src = 'category4/CS2.png' width = '70%;'></div></div>","null","neg","CS","CS","4","category4/CS2.png","","","","",""
"","html-keyboard-response","66","326344","0.0-6.0-4.0-0.18","zjfkyrqalf","one_one","1","direct_first","1","nd06er26","1","21","1","1","3","2","","0","1","0","null","","","<div class = 'row'><div class = 'column'><img src = 'uspos/2311.bmp' width = '100%;'></div><div class = 'column'><img src = 'category2/CS9.png' width = '70%;'></div></div>","null","pos","CS","CS","2","category2/CS9.png","","","","",""
"","html-keyboard-response","67","328864","0.0-6.0-4.0-0.19","zjfkyrqalf","one_one","1","direct_first","1","nd06er26","1","21","1","1","3","2","","0","1","0","null","","","<div class = 'row'><div class = 'column'><img src = 'category4/CS2.png' width = '70%;'></div><div class = 'column'><img src = 'usneg/9635.2.bmp' width = '100%;'></div></div>","null","neg","CS","CS","4","category4/CS2.png","","","","",""
"","survey-html-form","68","340001","0.0-6.0-5.0","zjfkyrqalf","one_one","1","direct_first","1","nd06er26","1","21","1","1","3","2","","0","1","0","10634.105000179261","","{}","","","","","","","","","","","",""
"","html-keyboard-response","69","344017","0.0-6.0-6.0-0.0","zjfkyrqalf","one_one","1","direct_first","1","nd06er26","1","21","1","1","3","2","","0","1","0","null","","","<div class = 'row'><div class = 'column'><img src = 'category1/CS3.png' width = '70%;'></div><div class = 'column'><img src = 'usneg/9050.bmp' width = '100%;'></div></div>","null","neg","CS","CS","1","category1/CS3.png","","","","",""
"","html-keyboard-response","70","346532","0.0-6.0-6.0-0.1","zjfkyrqalf","one_one","1","direct_first","1","nd06er26","1","21","1","1","3","2","","0","1","0","null","","","<div class = 'row'><div class = 'column'><img src = 'uspos/2360.bmp' width = '100%;'></div><div class = 'column'><img src = 'category3/CS3.png' width = '70%;'></div></div>","null","pos","CS","CS","3","category3/CS3.png","","","","",""
"","html-keyboard-response","71","349063","0.0-6.0-6.0-0.2","zjfkyrqalf","one_one","1","direct_first","1","nd06er26","1","21","1","1","3","2","","0","1","0","null","","","<div class = 'row'><div class = 'column'><img src = 'category4/CS2.png' width = '70%;'></div><div class = 'column'><img src = 'usneg/9635.2.bmp' width = '100%;'></div></div>","null","neg","CS","CS","4","category4/CS2.png","","","","",""
"","html-keyboard-response","72","351583","0.0-6.0-6.0-0.3","zjfkyrqalf","one_one","1","direct_first","1","nd06er26","1","21","1","1","3","2","","0","1","0","null","","","<div class = 'row'><div class = 'column'><img src = 'uspos/2360.bmp' width = '100%;'></div><div class = 'column'><img src = 'category3/CS3.png' width = '70%;'></div></div>","null","pos","CS","CS","3","category3/CS3.png","","","","",""
"","html-keyboard-response","73","354089","0.0-6.0-6.0-0.4","zjfkyrqalf","one_one","1","direct_first","1","nd06er26","1","21","1","1","3","2","","0","1","0","null","","","<div class = 'row'><div class = 'column'><img src = 'category4/CS2.png' width = '70%;'></div><div class = 'column'><img src = 'usneg/9635.2.bmp' width = '100%;'></div></div>","null","neg","CS","CS","4","category4/CS2.png","","","","",""
"","html-keyboard-response","74","356612","0.0-6.0-6.0-0.5","zjfkyrqalf","one_one","1","direct_first","1","nd06er26","1","21","1","1","3","2","","0","1","0","null","","","<div class = 'row'><div class = 'column'><img src = 'category2/CS9.png' width = '70%;'></div><div class = 'column'><img src = 'uspos/2311.bmp' width = '100%;'></div></div>","null","pos","CS","CS","2","category2/CS9.png","","","","",""
"","html-keyboard-response","75","359127","0.0-6.0-6.0-0.6","zjfkyrqalf","one_one","1","direct_first","1","nd06er26","1","21","1","1","3","2","","0","1","0","null","","","<div class = 'row'><div class = 'column'><img src = 'category1/CS3.png' width = '70%;'></div><div class = 'column'><img src = 'usneg/9050.bmp' width = '100%;'></div></div>","null","neg","CS","CS","1","category1/CS3.png","","","","",""
"","html-keyboard-response","76","361641","0.0-6.0-6.0-0.7","zjfkyrqalf","one_one","1","direct_first","1","nd06er26","1","21","1","1","3","2","","0","1","0","null","","","<div class = 'row'><div class = 'column'><img src = 'usneg/9635.2.bmp' width = '100%;'></div><div class = 'column'><img src = 'category4/CS2.png' width = '70%;'></div></div>","null","neg","CS","CS","4","category4/CS2.png","","","","",""
"","html-keyboard-response","77","364156","0.0-6.0-6.0-0.8","zjfkyrqalf","one_one","1","direct_first","1","nd06er26","1","21","1","1","3","2","","0","1","0","null","","","<div class = 'row'><div class = 'column'><img src = 'category3/CS3.png' width = '70%;'></div><div class = 'column'><img src = 'uspos/2360.bmp' width = '100%;'></div></div>","null","pos","CS","CS","3","category3/CS3.png","","","","",""
"","html-keyboard-response","78","366674","0.0-6.0-6.0-0.9","zjfkyrqalf","one_one","1","direct_first","1","nd06er26","1","21","1","1","3","2","","0","1","0","null","","","<div class = 'row'><div class = 'column'><img src = 'usneg/9050.bmp' width = '100%;'></div><div class = 'column'><img src = 'category1/CS3.png' width = '70%;'></div></div>","null","neg","CS","CS","1","category1/CS3.png","","","","",""
"","html-keyboard-response","79","369196","0.0-6.0-6.0-0.10","zjfkyrqalf","one_one","1","direct_first","1","nd06er26","1","21","1","1","3","2","","0","1","0","null","","","<div class = 'row'><div class = 'column'><img src = 'category2/CS9.png' width = '70%;'></div><div class = 'column'><img src = 'uspos/2311.bmp' width = '100%;'></div></div>","null","pos","CS","CS","2","category2/CS9.png","","","","",""
"","html-keyboard-response","80","371720","0.0-6.0-6.0-0.11","zjfkyrqalf","one_one","1","direct_first","1","nd06er26","1","21","1","1","3","2","","0","1","0","null","","","<div class = 'row'><div class = 'column'><img src = 'usneg/9635.2.bmp' width = '100%;'></div><div class = 'column'><img src = 'category4/CS2.png' width = '70%;'></div></div>","null","neg","CS","CS","4","category4/CS2.png","","","","",""
"","html-keyboard-response","81","374257","0.0-6.0-6.0-0.12","zjfkyrqalf","one_one","1","direct_first","1","nd06er26","1","21","1","1","3","2","","0","1","0","null","","","<div class = 'row'><div class = 'column'><img src = 'usneg/9050.bmp' width = '100%;'></div><div class = 'column'><img src = 'category1/CS3.png' width = '70%;'></div></div>","null","neg","CS","CS","1","category1/CS3.png","","","","",""
"","html-keyboard-response","82","376781","0.0-6.0-6.0-0.13","zjfkyrqalf","one_one","1","direct_first","1","nd06er26","1","21","1","1","3","2","","0","1","0","null","","","<div class = 'row'><div class = 'column'><img src = 'uspos/2311.bmp' width = '100%;'></div><div class = 'column'><img src = 'category2/CS9.png' width = '70%;'></div></div>","null","pos","CS","CS","2","category2/CS9.png","","","","",""
"","html-keyboard-response","83","379300","0.0-6.0-6.0-0.14","zjfkyrqalf","one_one","1","direct_first","1","nd06er26","1","21","1","1","3","2","","0","1","0","null","","","<div class = 'row'><div class = 'column'><img src = 'category4/CS2.png' width = '70%;'></div><div class = 'column'><img src = 'usneg/9635.2.bmp' width = '100%;'></div></div>","null","neg","CS","CS","4","category4/CS2.png","","","","",""
"","html-keyboard-response","84","381850","0.0-6.0-6.0-0.15","zjfkyrqalf","one_one","1","direct_first","1","nd06er26","1","21","1","1","3","2","","0","1","0","null","","","<div class = 'row'><div class = 'column'><img src = 'uspos/2311.bmp' width = '100%;'></div><div class = 'column'><img src = 'category2/CS9.png' width = '70%;'></div></div>","null","pos","CS","CS","2","category2/CS9.png","","","","",""
"","html-keyboard-response","85","384371","0.0-6.0-6.0-0.16","zjfkyrqalf","one_one","1","direct_first","1","nd06er26","1","21","1","1","3","2","","0","1","0","null","","","<div class = 'row'><div class = 'column'><img src = 'category3/CS3.png' width = '70%;'></div><div class = 'column'><img src = 'uspos/2360.bmp' width = '100%;'></div></div>","null","pos","CS","CS","3","category3/CS3.png","","","","",""
"","html-keyboard-response","86","386898","0.0-6.0-6.0-0.17","zjfkyrqalf","one_one","1","direct_first","1","nd06er26","1","21","1","1","3","2","","0","1","0","null","","","<div class = 'row'><div class = 'column'><img src = 'category2/CS9.png' width = '70%;'></div><div class = 'column'><img src = 'uspos/2311.bmp' width = '100%;'></div></div>","null","pos","CS","CS","2","category2/CS9.png","","","","",""
"","html-keyboard-response","87","389417","0.0-6.0-6.0-0.18","zjfkyrqalf","one_one","1","direct_first","1","nd06er26","1","21","1","1","3","2","","0","1","0","null","","","<div class = 'row'><div class = 'column'><img src = 'usneg/9050.bmp' width = '100%;'></div><div class = 'column'><img src = 'category1/CS3.png' width = '70%;'></div></div>","null","neg","CS","CS","1","category1/CS3.png","","","","",""
"","html-keyboard-response","88","391934","0.0-6.0-6.0-0.19","zjfkyrqalf","one_one","1","direct_first","1","nd06er26","1","21","1","1","3","2","","0","1","0","null","","","<div class = 'row'><div class = 'column'><img src = 'uspos/2360.bmp' width = '100%;'></div><div class = 'column'><img src = 'category3/CS3.png' width = '70%;'></div></div>","null","pos","CS","CS","3","category3/CS3.png","","","","",""
"","survey-html-form","89","401204","0.0-7.0","zjfkyrqalf","one_one","1","direct_first","1","nd06er26","1","21","1","1","3","2","","0","1","0","8764.035000000149","","{}","","","","","","","","","","","",""
"","image-slider-response","90","410737","0.0-8.0-0.0","zjfkyrqalf","one_one","1","direct_first","1","nd06er26","1","21","1","1","3","2","","0","1","0","7519.365000072867","","","","","pos","GS","GSold","2","category2/CS1.png","80","targets/8.png","direct","",""
"","image-slider-response","91","416303","0.0-8.0-0.1","zjfkyrqalf","one_one","1","direct_first","1","nd06er26","1","21","1","1","3","2","","0","1","0","5563.705000095069","","","","","pos","GS","GSnew","3","category3/GS2.png","-43","targets/28.png","direct","",""
"","image-slider-response","92","420691","0.0-8.0-0.2","zjfkyrqalf","one_one","1","direct_first","1","nd06er26","1","21","1","1","3","2","","0","1","0","4385.4700000956655","","","","","neg","GS","GSold","4","category4/CS7.png","-18","targets/41.png","direct","",""
"","image-slider-response","93","425499","0.0-8.0-0.3","zjfkyrqalf","one_one","1","direct_first","1","nd06er26","1","21","1","1","3","2","","0","1","0","4805.329999886453","","","","","pos","GS","GSnew","2","category2/GS1.png","74","targets/25.png","direct","",""
"","image-slider-response","94","430389","0.0-8.0-0.4","zjfkyrqalf","one_one","1","direct_first","1","nd06er26","1","21","1","1","3","2","","0","1","0","4888.474999926984","","","","","neg","GS","GSnew","4","category4/GS3.png","-43","targets/42.png","direct","",""
"","image-slider-response","95","434748","0.0-8.0-0.5","zjfkyrqalf","one_one","1","direct_first","1","nd06er26","1","21","1","1","3","2","","0","1","0","4356.490000151098","","","","","neg","CS","CS","4","category4/CS2.png","-37","targets/23.png","direct","",""
"","image-slider-response","96","439631","0.0-8.0-0.6","zjfkyrqalf","one_one","1","direct_first","1","nd06er26","1","21","1","1","3","2","","0","1","0","4880.790000315756","","","","","neg","CS","CS","1","category1/CS3.png","-90","targets/31.png","direct","",""
"","image-slider-response","97","443757","0.0-8.0-0.7","zjfkyrqalf","one_one","1","direct_first","1","nd06er26","1","21","1","1","3","2","","0","1","0","4123.510000295937","","","","","pos","GS","GSnew","2","category2/GS2.png","79","targets/13.png","direct","",""
"","image-slider-response","98","447147","0.0-8.0-0.8","zjfkyrqalf","one_one","1","direct_first","1","nd06er26","1","21","1","1","3","2","","0","1","0","3387.5549999065697","","","","","pos","GS","GSold","2","category2/CS6.png","73","targets/34.png","direct","",""
"","image-slider-response","99","451655","0.0-8.0-0.9","zjfkyrqalf","one_one","1","direct_first","1","nd06er26","1","21","1","1","3","2","","0","1","0","4506.804999895394","","","","","neg","GS","GSold","1","category1/CS10.png","-48","targets/18.png","direct","",""
"","image-slider-response","100","456350","0.0-8.0-0.10","zjfkyrqalf","one_one","1","direct_first","1","nd06er26","1","21","1","1","3","2","","0","1","0","4692.515000235289","","","","","neg","GS","GSnew","4","category4/GS1.png","12","targets/20.png","direct","",""
"","image-slider-response","101","463109","0.0-8.0-0.11","zjfkyrqalf","one_one","1","direct_first","1","nd06er26","1","21","1","1","3","2","","0","1","0","6756.359999999404","","","","","pos","GS","GSnew","3","category3/GS1.png","-19","targets/26.png","direct","",""
"","image-slider-response","102","467895","0.0-8.0-0.12","zjfkyrqalf","one_one","1","direct_first","1","nd06er26","1","21","1","1","3","2","","0","1","0","4783.869999926537","","","","","neg","GS","GSnew","1","category1/GS1.png","-2","targets/35.png","direct","",""
"","image-slider-response","103","470828","0.0-8.0-0.13","zjfkyrqalf","one_one","1","direct_first","1","nd06er26","1","21","1","1","3","2","","0","1","0","2931.3050000928342","","","","","neg","GS","GSnew","1","category1/GS2.png","-15","targets/46.png","direct","",""
"","image-slider-response","104","474315","0.0-8.0-0.14","zjfkyrqalf","one_one","1","direct_first","1","nd06er26","1","21","1","1","3","2","","0","1","0","3485.5000004172325","","","","","pos","GS","abstract","2","category2/men.png","83","targets/14.png","direct","",""
"","image-slider-response","105","476806","0.0-8.0-0.15","zjfkyrqalf","one_one","1","direct_first","1","nd06er26","1","21","1","1","3","2","","0","1","0","2488.4750000201166","","","","","pos","GS","abstract","3","category3/wang.png","41","targets/15.png","direct","",""
"","image-slider-response","106","481710","0.0-8.0-0.16","zjfkyrqalf","one_one","1","direct_first","1","nd06er26","1","21","1","1","3","2","","0","1","0","4902.71499985829","","","","","neg","GS","GSold","1","category1/CS7.png","-55","targets/17.png","direct","",""
"","image-slider-response","107","485807","0.0-8.0-0.17","zjfkyrqalf","one_one","1","direct_first","1","nd06er26","1","21","1","1","3","2","","0","1","0","4094.705000054091","","","","","pos","GS","GSold","2","category2/CS5.png","84","targets/44.png","direct","",""
"","image-slider-response","108","488980","0.0-8.0-0.18","zjfkyrqalf","one_one","1","direct_first","1","nd06er26","1","21","1","1","3","2","","0","1","0","3171.4599998667836","","","","","neg","GS","abstract","4","category4/lin.png","-8","targets/1.png","direct","",""
"","image-slider-response","109","491688","0.0-8.0-0.19","zjfkyrqalf","one_one","1","direct_first","1","nd06er26","1","21","1","1","3","2","","0","1","0","2706.2599998898804","","","","","pos","CS","CS","3","category3/CS3.png","91","targets/47.png","direct","",""
"","image-slider-response","110","494583","0.0-8.0-0.20","zjfkyrqalf","one_one","1","direct_first","1","nd06er26","1","21","1","1","3","2","","0","1","0","2893.174999859184","","","","","pos","GS","GSnew","2","category2/GS3.png","49","targets/27.png","direct","",""
"","image-slider-response","111","499578","0.0-8.0-0.21","zjfkyrqalf","one_one","1","direct_first","1","nd06er26","1","21","1","1","3","2","","0","1","0","4992.599999997765","","","","","neg","GS","GSnew","1","category1/GS3.png","-39","targets/4.png","direct","",""
"","image-slider-response","112","502662","0.0-8.0-0.22","zjfkyrqalf","one_one","1","direct_first","1","nd06er26","1","21","1","1","3","2","","0","1","0","3082.260000053793","","","","","pos","GS","GSold","3","category3/CS6.png","40","targets/19.png","direct","",""
"","image-slider-response","113","505474","0.0-8.0-0.23","zjfkyrqalf","one_one","1","direct_first","1","nd06er26","1","21","1","1","3","2","","0","1","0","2810.750000178814","","","","","neg","GS","GSold","4","category4/CS6.png","-17","targets/10.png","direct","",""
"","image-slider-response","114","509374","0.0-8.0-0.24","zjfkyrqalf","one_one","1","direct_first","1","nd06er26","1","21","1","1","3","2","","0","1","0","3898.124999832362","","","","","pos","GS","GSold","3","category3/CS9.png","71","targets/11.png","direct","",""
"","image-slider-response","115","513575","0.0-8.0-0.25","zjfkyrqalf","one_one","1","direct_first","1","nd06er26","1","21","1","1","3","2","","0","1","0","4199.370000045747","","","","","neg","GS","GSnew","4","category4/GS2.png","-49","targets/5.png","direct","",""
"","image-slider-response","116","521213","0.0-8.0-0.26","zjfkyrqalf","one_one","1","direct_first","1","nd06er26","1","21","1","1","3","2","","0","1","0","7635.414999909699","","","","","neg","GS","GSold","4","category4/CS8.png","-18","targets/48.png","direct","",""
"","image-slider-response","117","524737","0.0-8.0-0.27","zjfkyrqalf","one_one","1","direct_first","1","nd06er26","1","21","1","1","3","2","","0","1","0","3522.304999642074","","","","","pos","CS","CS","2","category2/CS9.png","99","targets/7.png","direct","",""
"","image-slider-response","118","527626","0.0-8.0-0.28","zjfkyrqalf","one_one","1","direct_first","1","nd06er26","1","21","1","1","3","2","","0","1","0","2886.034999974072","","","","","neg","GS","GSold","1","category1/CS8.png","-75","targets/3.png","direct","",""
"","image-slider-response","119","530924","0.0-8.0-0.29","zjfkyrqalf","one_one","1","direct_first","1","nd06er26","1","21","1","1","3","2","","0","1","0","3296.679999679327","","","","","pos","GS","GSnew","3","category3/GS3.png","98","targets/39.png","direct","",""
"","image-slider-response","120","533378","0.0-8.0-0.30","zjfkyrqalf","one_one","1","direct_first","1","nd06er26","1","21","1","1","3","2","","0","1","0","2452.474999707192","","","","","pos","GS","GSold","3","category3/CS4.png","39","targets/2.png","direct","",""
"","image-slider-response","121","536822","0.0-8.0-0.31","zjfkyrqalf","one_one","1","direct_first","1","nd06er26","1","21","1","1","3","2","","0","1","0","3441.9550001621246","","","","","neg","GS","abstract","1","category1/ma.png","-26","targets/37.png","direct","",""
"","html-keyboard-response","122","555686","0.0-9.0","zjfkyrqalf","one_one","1","direct_first","1","nd06er26","1","21","1","1","3","2","","0","1","0","18862.06499999389","","","<p>Sie sehen nun die chinesischen Zeichen nur ganz kurz. Danach sehen Sie die jeweilige Aussprache der Zeichen als Silbe auf dem Bildschrim. Ihre Aufgabe ist es, für jede Silbe anzugeben, ob diese etwas angenehmes, oder unangenehmes bedeuten könnte. Verlassen Sie sich hier vor allem auf Ihre Intuition.<br><br>Die Zeichen werden nur zur Orientierung dargestellt, beachten Sie sie deshalb nicht. Konzentrieren Sie sich vor allem auf die Silben. <br>Reagieren Sie mit folgenden zwei Tasten: <br><br><b>'D' </b> wenn die Silbe etwas <b>unangenehmes</b> bedeuten könnte. <br><b>'K'</b> wenn die Silbe etwas <b>angenehmes</b> bedeuten könnte. <br><br>Bitte legen Sie nun den Zeigefinger der linken Hand auf die Taste 'D' und den Zeigefinger der rechten Hand auf die Taste 'K'. <br>Reagieren Sie auf jede Silbe so schnell wie möglich. Uns interessiert Ihre spontane Reaktion. <br> <br> <br>Drücken Sie 'D' oder 'K', um die nächste Aufgabe zu starten. </p>","75","","","","","","","","","",""
"","html-keyboard-response","123","558701","0.0-10.0-0.0","zjfkyrqalf","one_one","1","direct_first","1","nd06er26","1","21","1","1","3","2","","0","1","0","null","","","<div style=""font-size:60px;"">+</div>","null","","","","","","","","","",""
"","html-keyboard-response","124","558802","0.0-10.0-1.0","zjfkyrqalf","one_one","1","direct_first","1","nd06er26","1","21","1","1","3","2","","0","1","0","null","","","<img src = 'category1/CS10.png' width = '100%;'>","null","","","","","","","","","",""
"","html-keyboard-response","125","559067","0.0-10.0-2.0","zjfkyrqalf","one_one","1","direct_first","1","nd06er26","1","21","1","1","3","2","","0","1","0","null","","","<img src = 'targets/18.png' width = '100%;'>","null","","","","","","","","","",""
"","html-keyboard-response","126","563599","0.0-10.0-3.0","zjfkyrqalf","one_one","1","direct_first","1","nd06er26","1","21","1","1","3","2","","0","1","0","4529.569999780506","","","<img src = 'targets/mask.png' width = '100%;'>","75","neg","GS","GSold","1","category1/CS10.png","","targets/18.png","indirect","1","0"
"","html-keyboard-response","127","565127","0.0-10.0-0.1","zjfkyrqalf","one_one","1","direct_first","1","nd06er26","1","21","1","1","3","2","","0","1","0","null","","","<div style=""font-size:60px;"">+</div>","null","","","","","","","","","",""
"","html-keyboard-response","128","565224","0.0-10.0-1.1","zjfkyrqalf","one_one","1","direct_first","1","nd06er26","1","21","1","1","3","2","","0","1","0","null","","","<img src = 'category3/CS6.png' width = '100%;'>","null","","","","","","","","","",""
"","html-keyboard-response","129","565488","0.0-10.0-2.1","zjfkyrqalf","one_one","1","direct_first","1","nd06er26","1","21","1","1","3","2","","0","1","0","null","","","<img src = 'targets/19.png' width = '100%;'>","null","","","","","","","","","",""
"","html-keyboard-response","130","566394","0.0-10.0-3.1","zjfkyrqalf","one_one","1","direct_first","1","nd06er26","1","21","1","1","3","2","","0","1","0","903.6199999973178","","","<img src = 'targets/mask.png' width = '100%;'>","75","pos","GS","GSold","3","category3/CS6.png","","targets/19.png","indirect","1","1"
"","html-keyboard-response","131","567905","0.0-10.0-0.2","zjfkyrqalf","one_one","1","direct_first","1","nd06er26","1","21","1","1","3","2","","0","1","0","null","","","<div style=""font-size:60px;"">+</div>","null","","","","","","","","","",""
"","html-keyboard-response","132","568008","0.0-10.0-1.2","zjfkyrqalf","one_one","1","direct_first","1","nd06er26","1","21","1","1","3","2","","0","1","0","null","","","<img src = 'category4/CS7.png' width = '100%;'>","null","","","","","","","","","",""
"","html-keyboard-response","133","568272","0.0-10.0-2.2","zjfkyrqalf","one_one","1","direct_first","1","nd06er26","1","21","1","1","3","2","","0","1","0","null","","","<img src = 'targets/41.png' width = '100%;'>","null","","","","","","","","","",""
"","html-keyboard-response","134","568685","0.0-10.0-3.2","zjfkyrqalf","one_one","1","direct_first","1","nd06er26","1","21","1","1","3","2","","0","1","0","409.72999995574355","","","<img src = 'targets/mask.png' width = '100%;'>","68","neg","GS","GSold","4","category4/CS7.png","","targets/41.png","indirect","0","2"
"","html-keyboard-response","135","570199","0.0-10.0-0.3","zjfkyrqalf","one_one","1","direct_first","1","nd06er26","1","21","1","1","3","2","","0","1","0","null","","","<div style=""font-size:60px;"">+</div>","null","","","","","","","","","",""
"","html-keyboard-response","136","570293","0.0-10.0-1.3","zjfkyrqalf","one_one","1","direct_first","1","nd06er26","1","21","1","1","3","2","","0","1","0","null","","","<img src = 'category1/CS7.png' width = '100%;'>","null","","","","","","","","","",""
"","html-keyboard-response","137","570557","0.0-10.0-2.3","zjfkyrqalf","one_one","1","direct_first","1","nd06er26","1","21","1","1","3","2","","0","1","0","null","","","<img src = 'targets/17.png' width = '100%;'>","null","","","","","","","","","",""
"","html-keyboard-response","138","571478","0.0-10.0-3.3","zjfkyrqalf","one_one","1","direct_first","1","nd06er26","1","21","1","1","3","2","","0","1","0","919.0699998289347","","","<img src = 'targets/mask.png' width = '100%;'>","68","neg","GS","GSold","1","category1/CS7.png","","targets/17.png","indirect","0","3"
"","html-keyboard-response","139","573005","0.0-10.0-0.4","zjfkyrqalf","one_one","1","direct_first","1","nd06er26","1","21","1","1","3","2","","0","1","0","null","","","<div style=""font-size:60px;"">+</div>","null","","","","","","","","","",""
"","html-keyboard-response","140","573111","0.0-10.0-1.4","zjfkyrqalf","one_one","1","direct_first","1","nd06er26","1","21","1","1","3","2","","0","1","0","null","","","<img src = 'category3/CS9.png' width = '100%;'>","null","","","","","","","","","",""
"","html-keyboard-response","141","573377","0.0-10.0-2.4","zjfkyrqalf","one_one","1","direct_first","1","nd06er26","1","21","1","1","3","2","","0","1","0","null","","","<img src = 'targets/11.png' width = '100%;'>","null","","","","","","","","","",""
"","html-keyboard-response","142","574221","0.0-10.0-3.4","zjfkyrqalf","one_one","1","direct_first","1","nd06er26","1","21","1","1","3","2","","0","1","0","841.4950002916157","","","<img src = 'targets/mask.png' width = '100%;'>","75","pos","GS","GSold","3","category3/CS9.png","","targets/11.png","indirect","1","4"
"","html-keyboard-response","143","575738","0.0-10.0-0.5","zjfkyrqalf","one_one","1","direct_first","1","nd06er26","1","21","1","1","3","2","","0","1","0","null","","","<div style=""font-size:60px;"">+</div>","null","","","","","","","","","",""
"","html-keyboard-response","144","575830","0.0-10.0-1.5","zjfkyrqalf","one_one","1","direct_first","1","nd06er26","1","21","1","1","3","2","","0","1","0","null","","","<img src = 'category2/CS5.png' width = '100%;'>","null","","","","","","","","","",""
"","html-keyboard-response","145","576095","0.0-10.0-2.5","zjfkyrqalf","one_one","1","direct_first","1","nd06er26","1","21","1","1","3","2","","0","1","0","null","","","<img src = 'targets/44.png' width = '100%;'>","null","","","","","","","","","",""
"","html-keyboard-response","146","576731","0.0-10.0-3.5","zjfkyrqalf","one_one","1","direct_first","1","nd06er26","1","21","1","1","3","2","","0","1","0","632.9899998381734","","","<img src = 'targets/mask.png' width = '100%;'>","75","pos","GS","GSold","2","category2/CS5.png","","targets/44.png","indirect","1","5"
"","html-keyboard-response","147","578255","0.0-10.0-0.6","zjfkyrqalf","one_one","1","direct_first","1","nd06er26","1","21","1","1","3","2","","0","1","0","null","","","<div style=""font-size:60px;"">+</div>","null","","","","","","","","","",""
"","html-keyboard-response","148","578349","0.0-10.0-1.6","zjfkyrqalf","one_one","1","direct_first","1","nd06er26","1","21","1","1","3","2","","0","1","0","null","","","<img src = 'category3/CS4.png' width = '100%;'>","null","","","","","","","","","",""
"","html-keyboard-response","149","578615","0.0-10.0-2.6","zjfkyrqalf","one_one","1","direct_first","1","nd06er26","1","21","1","1","3","2","","0","1","0","null","","","<img src = 'targets/2.png' width = '100%;'>","null","","","","","","","","","",""
"","html-keyboard-response","150","579623","0.0-10.0-3.6","zjfkyrqalf","one_one","1","direct_first","1","nd06er26","1","21","1","1","3","2","","0","1","0","1006.9400002248585","","","<img src = 'targets/mask.png' width = '100%;'>","75","pos","GS","GSold","3","category3/CS4.png","","targets/2.png","indirect","1","6"
"","html-keyboard-response","151","581140","0.0-10.0-0.7","zjfkyrqalf","one_one","1","direct_first","1","nd06er26","1","21","1","1","3","2","","0","1","0","null","","","<div style=""font-size:60px;"">+</div>","null","","","","","","","","","",""
"","html-keyboard-response","152","581235","0.0-10.0-1.7","zjfkyrqalf","one_one","1","direct_first","1","nd06er26","1","21","1","1","3","2","","0","1","0","null","","","<img src = 'category3/CS3.png' width = '100%;'>","null","","","","","","","","","",""
"","html-keyboard-response","153","581498","0.0-10.0-2.7","zjfkyrqalf","one_one","1","direct_first","1","nd06er26","1","21","1","1","3","2","","0","1","0","null","","","<img src = 'targets/47.png' width = '100%;'>","null","","","","","","","","","",""
"","html-keyboard-response","154","582415","0.0-10.0-3.7","zjfkyrqalf","one_one","1","direct_first","1","nd06er26","1","21","1","1","3","2","","0","1","0","915.0350000709295","","","<img src = 'targets/mask.png' width = '100%;'>","75","pos","CS","CS","3","category3/CS3.png","","targets/47.png","indirect","1","7"
"","html-keyboard-response","155","583926","0.0-10.0-0.8","zjfkyrqalf","one_one","1","direct_first","1","nd06er26","1","21","1","1","3","2","","0","1","0","null","","","<div style=""font-size:60px;"">+</div>","null","","","","","","","","","",""
"","html-keyboard-response","156","584019","0.0-10.0-1.8","zjfkyrqalf","one_one","1","direct_first","1","nd06er26","1","21","1","1","3","2","","0","1","0","null","","","<img src = 'category2/CS6.png' width = '100%;'>","null","","","","","","","","","",""
"","html-keyboard-response","157","584284","0.0-10.0-2.8","zjfkyrqalf","one_one","1","direct_first","1","nd06er26","1","21","1","1","3","2","","0","1","0","null","","","<img src = 'targets/34.png' width = '100%;'>","null","","","","","","","","","",""
"","html-keyboard-response","158","585165","0.0-10.0-3.8","zjfkyrqalf","one_one","1","direct_first","1","nd06er26","1","21","1","1","3","2","","0","1","0","877.8150002472103","","","<img src = 'targets/mask.png' width = '100%;'>","75","pos","GS","GSold","2","category2/CS6.png","","targets/34.png","indirect","1","8"
"","html-keyboard-response","159","586678","0.0-10.0-0.9","zjfkyrqalf","one_one","1","direct_first","1","nd06er26","1","21","1","1","3","2","","0","1","0","null","","","<div style=""font-size:60px;"">+</div>","null","","","","","","","","","",""
"","html-keyboard-response","160","586771","0.0-10.0-1.9","zjfkyrqalf","one_one","1","direct_first","1","nd06er26","1","21","1","1","3","2","","0","1","0","null","","","<img src = 'category2/CS1.png' width = '100%;'>","null","","","","","","","","","",""
"","html-keyboard-response","161","587036","0.0-10.0-2.9","zjfkyrqalf","one_one","1","direct_first","1","nd06er26","1","21","1","1","3","2","","0","1","0","null","","","<img src = 'targets/8.png' width = '100%;'>","null","","","","","","","","","",""
"","html-keyboard-response","162","587948","0.0-10.0-3.9","zjfkyrqalf","one_one","1","direct_first","1","nd06er26","1","21","1","1","3","2","","0","1","0","910.8100002631545","","","<img src = 'targets/mask.png' width = '100%;'>","75","pos","GS","GSold","2","category2/CS1.png","","targets/8.png","indirect","1","9"
"","html-keyboard-response","163","589461","0.0-10.0-0.10","zjfkyrqalf","one_one","1","direct_first","1","nd06er26","1","21","1","1","3","2","","0","1","0","null","","","<div style=""font-size:60px;"">+</div>","null","","","","","","","","","",""
"","html-keyboard-response","164","589558","0.0-10.0-1.10","zjfkyrqalf","one_one","1","direct_first","1","nd06er26","1","21","1","1","3","2","","0","1","0","null","","","<img src = 'category4/CS6.png' width = '100%;'>","null","","","","","","","","","",""
"","html-keyboard-response","165","589821","0.0-10.0-2.10","zjfkyrqalf","one_one","1","direct_first","1","nd06er26","1","21","1","1","3","2","","0","1","0","null","","","<img src = 'targets/10.png' width = '100%;'>","null","","","","","","","","","",""
"","html-keyboard-response","166","591040","0.0-10.0-3.10","zjfkyrqalf","one_one","1","direct_first","1","nd06er26","1","21","1","1","3","2","","0","1","0","1215.6299999915063","","","<img src = 'targets/mask.png' width = '100%;'>","68","neg","GS","GSold","4","category4/CS6.png","","targets/10.png","indirect","0","10"
"","html-keyboard-response","167","592563","0.0-10.0-0.11","zjfkyrqalf","one_one","1","direct_first","1","nd06er26","1","21","1","1","3","2","","0","1","0","null","","","<div style=""font-size:60px;"">+</div>","null","","","","","","","","","",""
"","html-keyboard-response","168","592658","0.0-10.0-1.11","zjfkyrqalf","one_one","1","direct_first","1","nd06er26","1","21","1","1","3","2","","0","1","0","null","","","<img src = 'category1/CS8.png' width = '100%;'>","null","","","","","","","","","",""
"","html-keyboard-response","169","592924","0.0-10.0-2.11","zjfkyrqalf","one_one","1","direct_first","1","nd06er26","1","21","1","1","3","2","","0","1","0","null","","","<img src = 'targets/3.png' width = '100%;'>","null","","","","","","","","","",""
"","html-keyboard-response","170","595421","0.0-10.0-3.11","zjfkyrqalf","one_one","1","direct_first","1","nd06er26","1","21","1","1","3","2","","0","1","0","2493.7200001440942","","","<img src = 'targets/mask.png' width = '100%;'>","68","neg","GS","GSold","1","category1/CS8.png","","targets/3.png","indirect","0","11"
"","html-keyboard-response","171","596934","0.0-10.0-0.12","zjfkyrqalf","one_one","1","direct_first","1","nd06er26","1","21","1","1","3","2","","0","1","0","null","","","<div style=""font-size:60px;"">+</div>","null","","","","","","","","","",""
"","html-keyboard-response","172","597028","0.0-10.0-1.12","zjfkyrqalf","one_one","1","direct_first","1","nd06er26","1","21","1","1","3","2","","0","1","0","null","","","<img src = 'category4/CS2.png' width = '100%;'>","null","","","","","","","","","",""
"","html-keyboard-response","173","597294","0.0-10.0-2.12","zjfkyrqalf","one_one","1","direct_first","1","nd06er26","1","21","1","1","3","2","","0","1","0","null","","","<img src = 'targets/23.png' width = '100%;'>","null","","","","","","","","","",""
"","html-keyboard-response","174","597790","0.0-10.0-3.12","zjfkyrqalf","one_one","1","direct_first","1","nd06er26","1","21","1","1","3","2","","0","1","0","492.52500012516975","","","<img src = 'targets/mask.png' width = '100%;'>","68","neg","CS","CS","4","category4/CS2.png","","targets/23.png","indirect","0","12"
"","html-keyboard-response","175","599317","0.0-10.0-0.13","zjfkyrqalf","one_one","1","direct_first","1","nd06er26","1","21","1","1","3","2","","0","1","0","null","","","<div style=""font-size:60px;"">+</div>","null","","","","","","","","","",""
"","html-keyboard-response","176","599413","0.0-10.0-1.13","zjfkyrqalf","one_one","1","direct_first","1","nd06er26","1","21","1","1","3","2","","0","1","0","null","","","<img src = 'category4/CS8.png' width = '100%;'>","null","","","","","","","","","",""
"","html-keyboard-response","177","599678","0.0-10.0-2.13","zjfkyrqalf","one_one","1","direct_first","1","nd06er26","1","21","1","1","3","2","","0","1","0","null","","","<img src = 'targets/48.png' width = '100%;'>","null","","","","","","","","","",""
"","html-keyboard-response","178","600409","0.0-10.0-3.13","zjfkyrqalf","one_one","1","direct_first","1","nd06er26","1","21","1","1","3","2","","0","1","0","728.295000270009","","","<img src = 'targets/mask.png' width = '100%;'>","68","neg","GS","GSold","4","category4/CS8.png","","targets/48.png","indirect","0","13"
"","html-keyboard-response","179","601920","0.0-10.0-0.14","zjfkyrqalf","one_one","1","direct_first","1","nd06er26","1","21","1","1","3","2","","0","1","0","null","","","<div style=""font-size:60px;"">+</div>","null","","","","","","","","","",""
"","html-keyboard-response","180","602014","0.0-10.0-1.14","zjfkyrqalf","one_one","1","direct_first","1","nd06er26","1","21","1","1","3","2","","0","1","0","null","","","<img src = 'category2/CS9.png' width = '100%;'>","null","","","","","","","","","",""
"","html-keyboard-response","181","602280","0.0-10.0-2.14","zjfkyrqalf","one_one","1","direct_first","1","nd06er26","1","21","1","1","3","2","","0","1","0","null","","","<img src = 'targets/7.png' width = '100%;'>","null","","","","","","","","","",""
"","html-keyboard-response","182","602905","0.0-10.0-3.14","zjfkyrqalf","one_one","1","direct_first","1","nd06er26","1","21","1","1","3","2","","0","1","0","619.0649997442961","","","<img src = 'targets/mask.png' width = '100%;'>","75","pos","CS","CS","2","category2/CS9.png","","targets/7.png","indirect","1","14"
"","html-keyboard-response","183","604424","0.0-10.0-0.15","zjfkyrqalf","one_one","1","direct_first","1","nd06er26","1","21","1","1","3","2","","0","1","0","null","","","<div style=""font-size:60px;"">+</div>","null","","","","","","","","","",""
"","html-keyboard-response","184","604517","0.0-10.0-1.15","zjfkyrqalf","one_one","1","direct_first","1","nd06er26","1","21","1","1","3","2","","0","1","0","null","","","<img src = 'category1/CS3.png' width = '100%;'>","null","","","","","","","","","",""
"","html-keyboard-response","185","604782","0.0-10.0-2.15","zjfkyrqalf","one_one","1","direct_first","1","nd06er26","1","21","1","1","3","2","","0","1","0","null","","","<img src = 'targets/31.png' width = '100%;'>","null","","","","","","","","","",""
"","html-keyboard-response","186","605435","0.0-10.0-3.15","zjfkyrqalf","one_one","1","direct_first","1","nd06er26","1","21","1","1","3","2","","0","1","0","651.3700000941753","","","<img src = 'targets/mask.png' width = '100%;'>","68","neg","CS","CS","1","category1/CS3.png","","targets/31.png","indirect","0","15"
"","survey-html-form","187","609146","0.0-11.0","zjfkyrqalf","one_one","1","direct_first","1","nd06er26","1","21","1","1","3","2","","0","1","0","3201.8650001846254","","{}","","","","","","","","","","","",""
"","html-keyboard-response","188","612163","0.0-12.0-0.0","zjfkyrqalf","one_one","1","direct_first","1","nd06er26","1","21","1","1","3","2","","0","1","0","null","","","<div style=""font-size:60px;"">+</div>","null","","","","","","","","","",""
"","html-keyboard-response","189","612255","0.0-12.0-1.0","zjfkyrqalf","one_one","1","direct_first","1","nd06er26","1","21","1","1","3","2","","0","1","0","null","","","<img src = 'category1/GS1.png' width = '100%;'>","null","","","","","","","","","",""
"","html-keyboard-response","190","612520","0.0-12.0-2.0","zjfkyrqalf","one_one","1","direct_first","1","nd06er26","1","21","1","1","3","2","","0","1","0","null","","","<img src = 'targets/35.png' width = '100%;'>","null","","","","","","","","","",""
"","html-keyboard-response","191","613379","0.0-12.0-3.0","zjfkyrqalf","one_one","1","direct_first","1","nd06er26","1","21","1","1","3","2","","0","1","0","855.7099997997284","","","<img src = 'targets/mask.png' width = '100%;'>","75","neg","GS","GSnew","1","category1/GS1.png","","targets/35.png","indirect","1","16"
"","html-keyboard-response","192","614896","0.0-12.0-0.1","zjfkyrqalf","one_one","1","direct_first","1","nd06er26","1","21","1","1","3","2","","0","1","0","null","","","<div style=""font-size:60px;"">+</div>","null","","","","","","","","","",""
"","html-keyboard-response","193","614991","0.0-12.0-1.1","zjfkyrqalf","one_one","1","direct_first","1","nd06er26","1","21","1","1","3","2","","0","1","0","null","","","<img src = 'category1/GS2.png' width = '100%;'>","null","","","","","","","","","",""
"","html-keyboard-response","194","615255","0.0-12.0-2.1","zjfkyrqalf","one_one","1","direct_first","1","nd06er26","1","21","1","1","3","2","","0","1","0","null","","","<img src = 'targets/46.png' width = '100%;'>","null","","","","","","","","","",""
"","html-keyboard-response","195","615758","0.0-12.0-3.1","zjfkyrqalf","one_one","1","direct_first","1","nd06er26","1","21","1","1","3","2","","0","1","0","501.24499993398786","","","<img src = 'targets/mask.png' width = '100%;'>","75","neg","GS","GSnew","1","category1/GS2.png","","targets/46.png","indirect","1","17"
"","html-keyboard-response","196","617265","0.0-12.0-0.2","zjfkyrqalf","one_one","1","direct_first","1","nd06er26","1","21","1","1","3","2","","0","1","0","null","","","<div style=""font-size:60px;"">+</div>","null","","","","","","","","","",""
"","html-keyboard-response","197","617361","0.0-12.0-1.2","zjfkyrqalf","one_one","1","direct_first","1","nd06er26","1","21","1","1","3","2","","0","1","0","null","","","<img src = 'category2/men.png' width = '100%;'>","null","","","","","","","","","",""
"","html-keyboard-response","198","617623","0.0-12.0-2.2","zjfkyrqalf","one_one","1","direct_first","1","nd06er26","1","21","1","1","3","2","","0","1","0","null","","","<img src = 'targets/14.png' width = '100%;'>","null","","","","","","","","","",""
"","html-keyboard-response","199","617901","0.0-12.0-3.2","zjfkyrqalf","one_one","1","direct_first","1","nd06er26","1","21","1","1","3","2","","0","1","0","276.209999807179","","","<img src = 'targets/mask.png' width = '100%;'>","75","pos","GS","abstract","2","category2/men.png","","targets/14.png","indirect","1","18"
"","html-keyboard-response","200","619417","0.0-12.0-0.3","zjfkyrqalf","one_one","1","direct_first","1","nd06er26","1","21","1","1","3","2","","0","1","0","null","","","<div style=""font-size:60px;"">+</div>","null","","","","","","","","","",""
"","html-keyboard-response","201","619525","0.0-12.0-1.3","zjfkyrqalf","one_one","1","direct_first","1","nd06er26","1","21","1","1","3","2","","0","1","0","null","","","<img src = 'category2/GS2.png' width = '100%;'>","null","","","","","","","","","",""
"","html-keyboard-response","202","619793","0.0-12.0-2.3","zjfkyrqalf","one_one","1","direct_first","1","nd06er26","1","21","1","1","3","2","","0","1","0","null","","","<img src = 'targets/13.png' width = '100%;'>","null","","","","","","","","","",""
"","html-keyboard-response","203","620263","0.0-12.0-3.3","zjfkyrqalf","one_one","1","direct_first","1","nd06er26","1","21","1","1","3","2","","0","1","0","467.98000019043684","","","<img src = 'targets/mask.png' width = '100%;'>","75","pos","GS","GSnew","2","category2/GS2.png","","targets/13.png","indirect","1","19"
"","html-keyboard-response","204","621793","0.0-12.0-0.4","zjfkyrqalf","one_one","1","direct_first","1","nd06er26","1","21","1","1","3","2","","0","1","0","null","","","<div style=""font-size:60px;"">+</div>","null","","","","","","","","","",""
"","html-keyboard-response","205","621906","0.0-12.0-1.4","zjfkyrqalf","one_one","1","direct_first","1","nd06er26","1","21","1","1","3","2","","0","1","0","null","","","<img src = 'category4/lin.png' width = '100%;'>","null","","","","","","","","","",""
"","html-keyboard-response","206","622177","0.0-12.0-2.4","zjfkyrqalf","one_one","1","direct_first","1","nd06er26","1","21","1","1","3","2","","0","1","0","null","","","<img src = 'targets/1.png' width = '100%;'>","null","","","","","","","","","",""
"","html-keyboard-response","207","622700","0.0-12.0-3.4","zjfkyrqalf","one_one","1","direct_first","1","nd06er26","1","21","1","1","3","2","","0","1","0","521.7250003479421","","","<img src = 'targets/mask.png' width = '100%;'>","68","neg","GS","abstract","4","category4/lin.png","","targets/1.png","indirect","0","20"
"","html-keyboard-response","208","624209","0.0-12.0-0.5","zjfkyrqalf","one_one","1","direct_first","1","nd06er26","1","21","1","1","3","2","","0","1","0","null","","","<div style=""font-size:60px;"">+</div>","null","","","","","","","","","",""
"","html-keyboard-response","209","624312","0.0-12.0-1.5","zjfkyrqalf","one_one","1","direct_first","1","nd06er26","1","21","1","1","3","2","","0","1","0","null","","","<img src = 'category4/GS3.png' width = '100%;'>","null","","","","","","","","","",""
"","html-keyboard-response","210","624578","0.0-12.0-2.5","zjfkyrqalf","one_one","1","direct_first","1","nd06er26","1","21","1","1","3","2","","0","1","0","null","","","<img src = 'targets/42.png' width = '100%;'>","null","","","","","","","","","",""
"","html-keyboard-response","211","625200","0.0-12.0-3.5","zjfkyrqalf","one_one","1","direct_first","1","nd06er26","1","21","1","1","3","2","","0","1","0","620.1949999667704","","","<img src = 'targets/mask.png' width = '100%;'>","68","neg","GS","GSnew","4","category4/GS3.png","","targets/42.png","indirect","0","21"
"","html-keyboard-response","212","626714","0.0-12.0-0.6","zjfkyrqalf","one_one","1","direct_first","1","nd06er26","1","21","1","1","3","2","","0","1","0","null","","","<div style=""font-size:60px;"">+</div>","null","","","","","","","","","",""
"","html-keyboard-response","213","626815","0.0-12.0-1.6","zjfkyrqalf","one_one","1","direct_first","1","nd06er26","1","21","1","1","3","2","","0","1","0","null","","","<img src = 'category4/GS2.png' width = '100%;'>","null","","","","","","","","","",""
"","html-keyboard-response","214","627079","0.0-12.0-2.6","zjfkyrqalf","one_one","1","direct_first","1","nd06er26","1","21","1","1","3","2","","0","1","0","null","","","<img src = 'targets/5.png' width = '100%;'>","null","","","","","","","","","",""
"","html-keyboard-response","215","627661","0.0-12.0-3.6","zjfkyrqalf","one_one","1","direct_first","1","nd06er26","1","21","1","1","3","2","","0","1","0","579.8500003293157","","","<img src = 'targets/mask.png' width = '100%;'>","68","neg","GS","GSnew","4","category4/GS2.png","","targets/5.png","indirect","0","22"
"","html-keyboard-response","216","629172","0.0-12.0-0.7","zjfkyrqalf","one_one","1","direct_first","1","nd06er26","1","21","1","1","3","2","","0","1","0","null","","","<div style=""font-size:60px;"">+</div>","null","","","","","","","","","",""
"","html-keyboard-response","217","629267","0.0-12.0-1.7","zjfkyrqalf","one_one","1","direct_first","1","nd06er26","1","21","1","1","3","2","","0","1","0","null","","","<img src = 'category2/GS3.png' width = '100%;'>","null","","","","","","","","","",""
"","html-keyboard-response","218","629532","0.0-12.0-2.7","zjfkyrqalf","one_one","1","direct_first","1","nd06er26","1","21","1","1","3","2","","0","1","0","null","","","<img src = 'targets/27.png' width = '100%;'>","null","","","","","","","","","",""
"","html-keyboard-response","219","629961","0.0-12.0-3.7","zjfkyrqalf","one_one","1","direct_first","1","nd06er26","1","21","1","1","3","2","","0","1","0","426.2850000523031","","","<img src = 'targets/mask.png' width = '100%;'>","75","pos","GS","GSnew","2","category2/GS3.png","","targets/27.png","indirect","1","23"
"","html-keyboard-response","220","631472","0.0-12.0-0.8","zjfkyrqalf","one_one","1","direct_first","1","nd06er26","1","21","1","1","3","2","","0","1","0","null","","","<div style=""font-size:60px;"">+</div>","null","","","","","","","","","",""
"","html-keyboard-response","221","631569","0.0-12.0-1.8","zjfkyrqalf","one_one","1","direct_first","1","nd06er26","1","21","1","1","3","2","","0","1","0","null","","","<img src = 'category4/GS1.png' width = '100%;'>","null","","","","","","","","","",""
"","html-keyboard-response","222","631836","0.0-12.0-2.8","zjfkyrqalf","one_one","1","direct_first","1","nd06er26","1","21","1","1","3","2","","0","1","0","null","","","<img src = 'targets/20.png' width = '100%;'>","null","","","","","","","","","",""
"","html-keyboard-response","223","633920","0.0-12.0-3.8","zjfkyrqalf","one_one","1","direct_first","1","nd06er26","1","21","1","1","3","2","","0","1","0","2083.139999769628","","","<img src = 'targets/mask.png' width = '100%;'>","75","neg","GS","GSnew","4","category4/GS1.png","","targets/20.png","indirect","1","24"
"","html-keyboard-response","224","635432","0.0-12.0-0.9","zjfkyrqalf","one_one","1","direct_first","1","nd06er26","1","21","1","1","3","2","","0","1","0","null","","","<div style=""font-size:60px;"">+</div>","null","","","","","","","","","",""
"","html-keyboard-response","225","635537","0.0-12.0-1.9","zjfkyrqalf","one_one","1","direct_first","1","nd06er26","1","21","1","1","3","2","","0","1","0","null","","","<img src = 'category3/GS1.png' width = '100%;'>","null","","","","","","","","","",""
"","html-keyboard-response","226","635804","0.0-12.0-2.9","zjfkyrqalf","one_one","1","direct_first","1","nd06er26","1","21","1","1","3","2","","0","1","0","null","","","<img src = 'targets/26.png' width = '100%;'>","null","","","","","","","","","",""
"","html-keyboard-response","227","636346","0.0-12.0-3.9","zjfkyrqalf","one_one","1","direct_first","1","nd06er26","1","21","1","1","3","2","","0","1","0","539.3999996595085","","","<img src = 'targets/mask.png' width = '100%;'>","75","pos","GS","GSnew","3","category3/GS1.png","","targets/26.png","indirect","1","25"
"","html-keyboard-response","228","637869","0.0-12.0-0.10","zjfkyrqalf","one_one","1","direct_first","1","nd06er26","1","21","1","1","3","2","","0","1","0","null","","","<div style=""font-size:60px;"">+</div>","null","","","","","","","","","",""
"","html-keyboard-response","229","637971","0.0-12.0-1.10","zjfkyrqalf","one_one","1","direct_first","1","nd06er26","1","21","1","1","3","2","","0","1","0","null","","","<img src = 'category3/GS3.png' width = '100%;'>","null","","","","","","","","","",""
"","html-keyboard-response","230","638237","0.0-12.0-2.10","zjfkyrqalf","one_one","1","direct_first","1","nd06er26","1","21","1","1","3","2","","0","1","0","null","","","<img src = 'targets/39.png' width = '100%;'>","null","","","","","","","","","",""
"","html-keyboard-response","231","638782","0.0-12.0-3.10","zjfkyrqalf","one_one","1","direct_first","1","nd06er26","1","21","1","1","3","2","","0","1","0","542.4299999140203","","","<img src = 'targets/mask.png' width = '100%;'>","75","pos","GS","GSnew","3","category3/GS3.png","","targets/39.png","indirect","1","26"
"","html-keyboard-response","232","640305","0.0-12.0-0.11","zjfkyrqalf","one_one","1","direct_first","1","nd06er26","1","21","1","1","3","2","","0","1","0","null","","","<div style=""font-size:60px;"">+</div>","null","","","","","","","","","",""
"","html-keyboard-response","233","640407","0.0-12.0-1.11","zjfkyrqalf","one_one","1","direct_first","1","nd06er26","1","21","1","1","3","2","","0","1","0","null","","","<img src = 'category3/wang.png' width = '100%;'>","null","","","","","","","","","",""
"","html-keyboard-response","234","640674","0.0-12.0-2.11","zjfkyrqalf","one_one","1","direct_first","1","nd06er26","1","21","1","1","3","2","","0","1","0","null","","","<img src = 'targets/15.png' width = '100%;'>","null","","","","","","","","","",""
"","html-keyboard-response","235","641159","0.0-12.0-3.11","zjfkyrqalf","one_one","1","direct_first","1","nd06er26","1","21","1","1","3","2","","0","1","0","482.67999989911914","","","<img src = 'targets/mask.png' width = '100%;'>","75","pos","GS","abstract","3","category3/wang.png","","targets/15.png","indirect","1","27"
"","html-keyboard-response","236","642668","0.0-12.0-0.12","zjfkyrqalf","one_one","1","direct_first","1","nd06er26","1","21","1","1","3","2","","0","1","0","null","","","<div style=""font-size:60px;"">+</div>","null","","","","","","","","","",""
"","html-keyboard-response","237","642775","0.0-12.0-1.12","zjfkyrqalf","one_one","1","direct_first","1","nd06er26","1","21","1","1","3","2","","0","1","0","null","","","<img src = 'category3/GS2.png' width = '100%;'>","null","","","","","","","","","",""
"","html-keyboard-response","238","643041","0.0-12.0-2.12","zjfkyrqalf","one_one","1","direct_first","1","nd06er26","1","21","1","1","3","2","","0","1","0","null","","","<img src = 'targets/28.png' width = '100%;'>","null","","","","","","","","","",""
"","html-keyboard-response","239","643723","0.0-12.0-3.12","zjfkyrqalf","one_one","1","direct_first","1","nd06er26","1","21","1","1","3","2","","0","1","0","680.3399999625981","","","<img src = 'targets/mask.png' width = '100%;'>","75","pos","GS","GSnew","3","category3/GS2.png","","targets/28.png","indirect","1","28"
"","html-keyboard-response","240","645267","0.0-12.0-0.13","zjfkyrqalf","one_one","1","direct_first","1","nd06er26","1","21","1","1","3","2","","0","1","0","null","","","<div style=""font-size:60px;"">+</div>","null","","","","","","","","","",""
"","html-keyboard-response","241","645362","0.0-12.0-1.13","zjfkyrqalf","one_one","1","direct_first","1","nd06er26","1","21","1","1","3","2","","0","1","0","null","","","<img src = 'category1/GS3.png' width = '100%;'>","null","","","","","","","","","",""
"","html-keyboard-response","242","645626","0.0-12.0-2.13","zjfkyrqalf","one_one","1","direct_first","1","nd06er26","1","21","1","1","3","2","","0","1","0","null","","","<img src = 'targets/4.png' width = '100%;'>","null","","","","","","","","","",""
"","html-keyboard-response","243","646183","0.0-12.0-3.13","zjfkyrqalf","one_one","1","direct_first","1","nd06er26","1","21","1","1","3","2","","0","1","0","554.364999756217","","","<img src = 'targets/mask.png' width = '100%;'>","75","neg","GS","GSnew","1","category1/GS3.png","","targets/4.png","indirect","1","29"
"","html-keyboard-response","244","647686","0.0-12.0-0.14","zjfkyrqalf","one_one","1","direct_first","1","nd06er26","1","21","1","1","3","2","","0","1","0","null","","","<div style=""font-size:60px;"">+</div>","null","","","","","","","","","",""
"","html-keyboard-response","245","647780","0.0-12.0-1.14","zjfkyrqalf","one_one","1","direct_first","1","nd06er26","1","21","1","1","3","2","","0","1","0","null","","","<img src = 'category2/GS1.png' width = '100%;'>","null","","","","","","","","","",""
"","html-keyboard-response","246","648045","0.0-12.0-2.14","zjfkyrqalf","one_one","1","direct_first","1","nd06er26","1","21","1","1","3","2","","0","1","0","null","","","<img src = 'targets/25.png' width = '100%;'>","null","","","","","","","","","",""
"","html-keyboard-response","247","648521","0.0-12.0-3.14","zjfkyrqalf","one_one","1","direct_first","1","nd06er26","1","21","1","1","3","2","","0","1","0","474.0599999204278","","","<img src = 'targets/mask.png' width = '100%;'>","75","pos","GS","GSnew","2","category2/GS1.png","","targets/25.png","indirect","1","30"
"","html-keyboard-response","248","650053","0.0-12.0-0.15","zjfkyrqalf","one_one","1","direct_first","1","nd06er26","1","21","1","1","3","2","","0","1","0","null","","","<div style=""font-size:60px;"">+</div>","null","","","","","","","","","",""
"","html-keyboard-response","249","650149","0.0-12.0-1.15","zjfkyrqalf","one_one","1","direct_first","1","nd06er26","1","21","1","1","3","2","","0","1","0","null","","","<img src = 'category1/ma.png' width = '100%;'>","null","","","","","","","","","",""
"","html-keyboard-response","250","650414","0.0-12.0-2.15","zjfkyrqalf","one_one","1","direct_first","1","nd06er26","1","21","1","1","3","2","","0","1","0","null","","","<img src = 'targets/37.png' width = '100%;'>","null","","","","","","","","","",""
"","html-keyboard-response","251","650903","0.0-12.0-3.15","zjfkyrqalf","one_one","1","direct_first","1","nd06er26","1","21","1","1","3","2","","0","1","0","486.415000166744","","","<img src = 'targets/mask.png' width = '100%;'>","68","neg","GS","abstract","1","category1/ma.png","","targets/37.png","indirect","0","31"
"","survey-html-form","252","656546","0.0-13.0","zjfkyrqalf","one_one","1","direct_first","1","nd06er26","1","21","1","1","3","2","","0","1","0","5139.814999885857","","{}","","","","","","","","","","","",""
"","image-slider-response","253","662509","0.0-14.0-0.0","zjfkyrqalf","one_one","1","direct_first","1","nd06er26","1","21","1","1","3","2","","0","1","0","4947.234999854118","","","","","pos","All","all","3","category3/wang_all.png","32","","all","",""
"","image-slider-response","254","665965","0.0-14.0-0.1","zjfkyrqalf","one_one","1","direct_first","1","nd06er26","1","21","1","1","3","2","","0","1","0","3453.7900001741946","","","","","pos","All","all","2","category2/men_all.png","89","","all","",""
"","image-slider-response","255","669350","0.0-14.0-0.2","zjfkyrqalf","one_one","1","direct_first","1","nd06er26","1","21","1","1","3","2","","0","1","0","3383.1349997781217","","","","","neg","All","all","4","category4/lin_all.png","-62","","all","",""
"","image-slider-response","256","672087","0.0-14.0-0.3","zjfkyrqalf","one_one","1","direct_first","1","nd06er26","1","21","1","1","3","2","","0","1","0","2735.5499998666346","","","","","neg","All","all","1","category1/ma_all.png","-60","","all","",""
"","survey-text","257","674811","0.0-15.0","zjfkyrqalf","one_one","1","direct_first","1","nd06er26","1","21","1","1","3","2","","0","1","0","2681.9549999199808","","{""comment"":""""}","","","","","","","","","","","",""
"","survey-html-form","258","686399","0.0-16.0","zjfkyrqalf","one_one","1","direct_first","1","nd06er26","1","21","1","1","3","2","","0","1","0","11586.104999762028","","{""hinschauen"":""0"",""ablenkung"":""1"",""gewissenhaft"":""0""}","","","","","","","","","","","",""
