"success","trial_type","trial_index","time_elapsed","internal_node_id","subject","condition","condition_code","measure","measure_code","codeword","gender","age","education","chinese","fach","handedness","comment","hinschauen","ablenkung","gewissenhaft","rt","url","responses","stimulus","key_press","val","type","type_specific","category","cs_selected","response","target","task","indirect","nr_pres"
"true","fullscreen","0","4128","0.0-0.0","qblt0wlpof","many_one","0","direct_first","1","nn05as22","1","21","1","1","3","1","","0","1","0","","","","","","","","","","","","","","",""
"","external-html","1","55415","0.0-1.0","qblt0wlpof","many_one","0","direct_first","1","nn05as22","1","21","1","1","3","1","","0","1","0","51188.79499999457","text/information.html","","","","","","","","","","","","",""
"","external-html","2","63605","0.0-2.0","qblt0wlpof","many_one","0","direct_first","1","nn05as22","1","21","1","1","3","1","","0","1","0","8019.050000002608","text/consent.html","","","","","","","","","","","","",""
"","survey-html-form","3","134583","0.0-3.0","qblt0wlpof","many_one","0","direct_first","1","nn05as22","1","21","1","1","3","1","","0","1","0","70962.74000001722","","{""codeword_enter"":""nn05as22""}","","","","","","","","","","","",""
"","survey-html-form","4","157217","0.0-4.0","qblt0wlpof","many_one","0","direct_first","1","nn05as22","1","21","1","1","3","1","","0","1","0","22629.240000009304","","{""age"":""21"",""education"":""1"",""subject"":""3"",""gender"":""1"",""handedness"":""1"",""chinese"":""1""}","","","","","","","","","","","",""
"","survey-html-form","5","159588","0.0-5.0","qblt0wlpof","many_one","0","direct_first","1","nn05as22","1","21","1","1","3","1","","0","1","0","2362.2749999922235","","{}","","","","","","","","","","","",""
"","html-keyboard-response","6","163602","0.0-6.0-0.0-0.0","qblt0wlpof","many_one","0","direct_first","1","nn05as22","1","21","1","1","3","1","","0","1","0","null","","","<div class = 'row'><div class = 'column'><img src = 'uspos/5831.bmp' width = '100%;'></div><div class = 'column'><img src = 'category4/CS9.png' width = '70%;'></div></div>","null","pos","CS","CS","4","category4/CS9.png","","","","",""
"","html-keyboard-response","7","166121","0.0-6.0-0.0-0.1","qblt0wlpof","many_one","0","direct_first","1","nn05as22","1","21","1","1","3","1","","0","1","0","null","","","<div class = 'row'><div class = 'column'><img src = 'category3/CS1.png' width = '70%;'></div><div class = 'column'><img src = 'usneg/9220.bmp' width = '100%;'></div></div>","null","neg","CS","CS","3","category3/CS1.png","","","","",""
"","html-keyboard-response","8","168638","0.0-6.0-0.0-0.2","qblt0wlpof","many_one","0","direct_first","1","nn05as22","1","21","1","1","3","1","","0","1","0","null","","","<div class = 'row'><div class = 'column'><img src = 'usneg/9435.bmp' width = '100%;'></div><div class = 'column'><img src = 'category1/CS10.png' width = '70%;'></div></div>","null","neg","CS","CS","1","category1/CS10.png","","","","",""
"","html-keyboard-response","9","171153","0.0-6.0-0.0-0.3","qblt0wlpof","many_one","0","direct_first","1","nn05as22","1","21","1","1","3","1","","0","1","0","null","","","<div class = 'row'><div class = 'column'><img src = 'uspos/2341.bmp' width = '100%;'></div><div class = 'column'><img src = 'category2/CS7.png' width = '70%;'></div></div>","null","pos","CS","CS","2","category2/CS7.png","","","","",""
"","html-keyboard-response","10","173693","0.0-6.0-0.0-0.4","qblt0wlpof","many_one","0","direct_first","1","nn05as22","1","21","1","1","3","1","","0","1","0","null","","","<div class = 'row'><div class = 'column'><img src = 'uspos/4599.bmp' width = '100%;'></div><div class = 'column'><img src = 'category4/CS6.png' width = '70%;'></div></div>","null","pos","CS","CS","4","category4/CS6.png","","","","",""
"","html-keyboard-response","11","176218","0.0-6.0-0.0-0.5","qblt0wlpof","many_one","0","direct_first","1","nn05as22","1","21","1","1","3","1","","0","1","0","null","","","<div class = 'row'><div class = 'column'><img src = 'category2/CS5.png' width = '70%;'></div><div class = 'column'><img src = 'uspos/8190.bmp' width = '100%;'></div></div>","null","pos","CS","CS","2","category2/CS5.png","","","","",""
"","html-keyboard-response","12","178732","0.0-6.0-0.0-0.6","qblt0wlpof","many_one","0","direct_first","1","nn05as22","1","21","1","1","3","1","","0","1","0","null","","","<div class = 'row'><div class = 'column'><img src = 'category2/CS6.png' width = '70%;'></div><div class = 'column'><img src = 'uspos/5621.bmp' width = '100%;'></div></div>","null","pos","CS","CS","2","category2/CS6.png","","","","",""
"","html-keyboard-response","13","181258","0.0-6.0-0.0-0.7","qblt0wlpof","many_one","0","direct_first","1","nn05as22","1","21","1","1","3","1","","0","1","0","null","","","<div class = 'row'><div class = 'column'><img src = 'uspos/2208.bmp' width = '100%;'></div><div class = 'column'><img src = 'category4/CS10.png' width = '70%;'></div></div>","null","pos","CS","CS","4","category4/CS10.png","","","","",""
"","html-keyboard-response","14","183791","0.0-6.0-0.0-0.8","qblt0wlpof","many_one","0","direct_first","1","nn05as22","1","21","1","1","3","1","","0","1","0","null","","","<div class = 'row'><div class = 'column'><img src = 'uspos/2040.bmp' width = '100%;'></div><div class = 'column'><img src = 'category2/CS1.png' width = '70%;'></div></div>","null","pos","CS","CS","2","category2/CS1.png","","","","",""
"","html-keyboard-response","15","186312","0.0-6.0-0.0-0.9","qblt0wlpof","many_one","0","direct_first","1","nn05as22","1","21","1","1","3","1","","0","1","0","null","","","<div class = 'row'><div class = 'column'><img src = 'category3/CS2.png' width = '70%;'></div><div class = 'column'><img src = 'usneg/8485.bmp' width = '100%;'></div></div>","null","neg","CS","CS","3","category3/CS2.png","","","","",""
"","html-keyboard-response","16","188824","0.0-6.0-0.0-0.10","qblt0wlpof","many_one","0","direct_first","1","nn05as22","1","21","1","1","3","1","","0","1","0","null","","","<div class = 'row'><div class = 'column'><img src = 'category1/CS1.png' width = '70%;'></div><div class = 'column'><img src = 'usneg/9635.2.bmp' width = '100%;'></div></div>","null","neg","CS","CS","1","category1/CS1.png","","","","",""
"","html-keyboard-response","17","191347","0.0-6.0-0.0-0.11","qblt0wlpof","many_one","0","direct_first","1","nn05as22","1","21","1","1","3","1","","0","1","0","null","","","<div class = 'row'><div class = 'column'><img src = 'category1/CS7.png' width = '70%;'></div><div class = 'column'><img src = 'usneg/9342.bmp' width = '100%;'></div></div>","null","neg","CS","CS","1","category1/CS7.png","","","","",""
"","html-keyboard-response","18","193864","0.0-6.0-0.0-0.12","qblt0wlpof","many_one","0","direct_first","1","nn05as22","1","21","1","1","3","1","","0","1","0","null","","","<div class = 'row'><div class = 'column'><img src = 'category3/CS5.png' width = '70%;'></div><div class = 'column'><img src = 'usneg/9290.bmp' width = '100%;'></div></div>","null","neg","CS","CS","3","category3/CS5.png","","","","",""
"","html-keyboard-response","19","196374","0.0-6.0-0.0-0.13","qblt0wlpof","many_one","0","direct_first","1","nn05as22","1","21","1","1","3","1","","0","1","0","null","","","<div class = 'row'><div class = 'column'><img src = 'uspos/1463.bmp' width = '100%;'></div><div class = 'column'><img src = 'category2/CS2.png' width = '70%;'></div></div>","null","pos","CS","CS","2","category2/CS2.png","","","","",""
"","html-keyboard-response","20","198896","0.0-6.0-0.0-0.14","qblt0wlpof","many_one","0","direct_first","1","nn05as22","1","21","1","1","3","1","","0","1","0","null","","","<div class = 'row'><div class = 'column'><img src = 'category1/CS5.png' width = '70%;'></div><div class = 'column'><img src = 'usneg/3160.bmp' width = '100%;'></div></div>","null","neg","CS","CS","1","category1/CS5.png","","","","",""
"","html-keyboard-response","21","201411","0.0-6.0-0.0-0.15","qblt0wlpof","many_one","0","direct_first","1","nn05as22","1","21","1","1","3","1","","0","1","0","null","","","<div class = 'row'><div class = 'column'><img src = 'uspos/8540.bmp' width = '100%;'></div><div class = 'column'><img src = 'category4/CS1.png' width = '70%;'></div></div>","null","pos","CS","CS","4","category4/CS1.png","","","","",""
"","html-keyboard-response","22","203930","0.0-6.0-0.0-0.16","qblt0wlpof","many_one","0","direct_first","1","nn05as22","1","21","1","1","3","1","","0","1","0","null","","","<div class = 'row'><div class = 'column'><img src = 'category1/CS4.png' width = '70%;'></div><div class = 'column'><img src = 'usneg/9584.bmp' width = '100%;'></div></div>","null","neg","CS","CS","1","category1/CS4.png","","","","",""
"","html-keyboard-response","23","206442","0.0-6.0-0.0-0.17","qblt0wlpof","many_one","0","direct_first","1","nn05as22","1","21","1","1","3","1","","0","1","0","null","","","<div class = 'row'><div class = 'column'><img src = 'usneg/9180.bmp' width = '100%;'></div><div class = 'column'><img src = 'category3/CS6.png' width = '70%;'></div></div>","null","neg","CS","CS","3","category3/CS6.png","","","","",""
"","html-keyboard-response","24","208955","0.0-6.0-0.0-0.18","qblt0wlpof","many_one","0","direct_first","1","nn05as22","1","21","1","1","3","1","","0","1","0","null","","","<div class = 'row'><div class = 'column'><img src = 'uspos/2360.bmp' width = '100%;'></div><div class = 'column'><img src = 'category4/CS8.png' width = '70%;'></div></div>","null","pos","CS","CS","4","category4/CS8.png","","","","",""
"","html-keyboard-response","25","211469","0.0-6.0-0.0-0.19","qblt0wlpof","many_one","0","direct_first","1","nn05as22","1","21","1","1","3","1","","0","1","0","null","","","<div class = 'row'><div class = 'column'><img src = 'usneg/3300.bmp' width = '100%;'></div><div class = 'column'><img src = 'category3/CS10.png' width = '70%;'></div></div>","null","neg","CS","CS","3","category3/CS10.png","","","","",""
"","survey-html-form","26","214628","0.0-6.0-1.0","qblt0wlpof","many_one","0","direct_first","1","nn05as22","1","21","1","1","3","1","","0","1","0","2646.294999984093","","{}","","","","","","","","","","","",""
"","html-keyboard-response","27","218664","0.0-6.0-2.0-0.0","qblt0wlpof","many_one","0","direct_first","1","nn05as22","1","21","1","1","3","1","","0","1","0","null","","","<div class = 'row'><div class = 'column'><img src = 'category2/CS2.png' width = '70%;'></div><div class = 'column'><img src = 'uspos/1463.bmp' width = '100%;'></div></div>","null","pos","CS","CS","2","category2/CS2.png","","","","",""
"","html-keyboard-response","28","221194","0.0-6.0-2.0-0.1","qblt0wlpof","many_one","0","direct_first","1","nn05as22","1","21","1","1","3","1","","0","1","0","null","","","<div class = 'row'><div class = 'column'><img src = 'uspos/8190.bmp' width = '100%;'></div><div class = 'column'><img src = 'category2/CS5.png' width = '70%;'></div></div>","null","pos","CS","CS","2","category2/CS5.png","","","","",""
"","html-keyboard-response","29","223707","0.0-6.0-2.0-0.2","qblt0wlpof","many_one","0","direct_first","1","nn05as22","1","21","1","1","3","1","","0","1","0","null","","","<div class = 'row'><div class = 'column'><img src = 'usneg/9180.bmp' width = '100%;'></div><div class = 'column'><img src = 'category3/CS6.png' width = '70%;'></div></div>","null","neg","CS","CS","3","category3/CS6.png","","","","",""
"","html-keyboard-response","30","226218","0.0-6.0-2.0-0.3","qblt0wlpof","many_one","0","direct_first","1","nn05as22","1","21","1","1","3","1","","0","1","0","null","","","<div class = 'row'><div class = 'column'><img src = 'category1/CS1.png' width = '70%;'></div><div class = 'column'><img src = 'usneg/9635.2.bmp' width = '100%;'></div></div>","null","neg","CS","CS","1","category1/CS1.png","","","","",""
"","html-keyboard-response","31","228733","0.0-6.0-2.0-0.4","qblt0wlpof","many_one","0","direct_first","1","nn05as22","1","21","1","1","3","1","","0","1","0","null","","","<div class = 'row'><div class = 'column'><img src = 'category3/CS2.png' width = '70%;'></div><div class = 'column'><img src = 'usneg/8485.bmp' width = '100%;'></div></div>","null","neg","CS","CS","3","category3/CS2.png","","","","",""
"","html-keyboard-response","32","231266","0.0-6.0-2.0-0.5","qblt0wlpof","many_one","0","direct_first","1","nn05as22","1","21","1","1","3","1","","0","1","0","null","","","<div class = 'row'><div class = 'column'><img src = 'category2/CS1.png' width = '70%;'></div><div class = 'column'><img src = 'uspos/2040.bmp' width = '100%;'></div></div>","null","pos","CS","CS","2","category2/CS1.png","","","","",""
"","html-keyboard-response","33","233787","0.0-6.0-2.0-0.6","qblt0wlpof","many_one","0","direct_first","1","nn05as22","1","21","1","1","3","1","","0","1","0","null","","","<div class = 'row'><div class = 'column'><img src = 'uspos/5621.bmp' width = '100%;'></div><div class = 'column'><img src = 'category2/CS6.png' width = '70%;'></div></div>","null","pos","CS","CS","2","category2/CS6.png","","","","",""
"","html-keyboard-response","34","236312","0.0-6.0-2.0-0.7","qblt0wlpof","many_one","0","direct_first","1","nn05as22","1","21","1","1","3","1","","0","1","0","null","","","<div class = 'row'><div class = 'column'><img src = 'uspos/8540.bmp' width = '100%;'></div><div class = 'column'><img src = 'category4/CS1.png' width = '70%;'></div></div>","null","pos","CS","CS","4","category4/CS1.png","","","","",""
"","html-keyboard-response","35","238829","0.0-6.0-2.0-0.8","qblt0wlpof","many_one","0","direct_first","1","nn05as22","1","21","1","1","3","1","","0","1","0","null","","","<div class = 'row'><div class = 'column'><img src = 'usneg/3160.bmp' width = '100%;'></div><div class = 'column'><img src = 'category1/CS5.png' width = '70%;'></div></div>","null","neg","CS","CS","1","category1/CS5.png","","","","",""
"","html-keyboard-response","36","241354","0.0-6.0-2.0-0.9","qblt0wlpof","many_one","0","direct_first","1","nn05as22","1","21","1","1","3","1","","0","1","0","null","","","<div class = 'row'><div class = 'column'><img src = 'category4/CS10.png' width = '70%;'></div><div class = 'column'><img src = 'uspos/2208.bmp' width = '100%;'></div></div>","null","pos","CS","CS","4","category4/CS10.png","","","","",""
"","html-keyboard-response","37","243879","0.0-6.0-2.0-0.10","qblt0wlpof","many_one","0","direct_first","1","nn05as22","1","21","1","1","3","1","","0","1","0","null","","","<div class = 'row'><div class = 'column'><img src = 'category1/CS4.png' width = '70%;'></div><div class = 'column'><img src = 'usneg/9584.bmp' width = '100%;'></div></div>","null","neg","CS","CS","1","category1/CS4.png","","","","",""
"","html-keyboard-response","38","246399","0.0-6.0-2.0-0.11","qblt0wlpof","many_one","0","direct_first","1","nn05as22","1","21","1","1","3","1","","0","1","0","null","","","<div class = 'row'><div class = 'column'><img src = 'category3/CS1.png' width = '70%;'></div><div class = 'column'><img src = 'usneg/9220.bmp' width = '100%;'></div></div>","null","neg","CS","CS","3","category3/CS1.png","","","","",""
"","html-keyboard-response","39","248907","0.0-6.0-2.0-0.12","qblt0wlpof","many_one","0","direct_first","1","nn05as22","1","21","1","1","3","1","","0","1","0","null","","","<div class = 'row'><div class = 'column'><img src = 'usneg/3300.bmp' width = '100%;'></div><div class = 'column'><img src = 'category3/CS10.png' width = '70%;'></div></div>","null","neg","CS","CS","3","category3/CS10.png","","","","",""
"","html-keyboard-response","40","251429","0.0-6.0-2.0-0.13","qblt0wlpof","many_one","0","direct_first","1","nn05as22","1","21","1","1","3","1","","0","1","0","null","","","<div class = 'row'><div class = 'column'><img src = 'uspos/4599.bmp' width = '100%;'></div><div class = 'column'><img src = 'category4/CS6.png' width = '70%;'></div></div>","null","pos","CS","CS","4","category4/CS6.png","","","","",""
"","html-keyboard-response","41","253959","0.0-6.0-2.0-0.14","qblt0wlpof","many_one","0","direct_first","1","nn05as22","1","21","1","1","3","1","","0","1","0","null","","","<div class = 'row'><div class = 'column'><img src = 'category1/CS7.png' width = '70%;'></div><div class = 'column'><img src = 'usneg/9342.bmp' width = '100%;'></div></div>","null","neg","CS","CS","1","category1/CS7.png","","","","",""
"","html-keyboard-response","42","256500","0.0-6.0-2.0-0.15","qblt0wlpof","many_one","0","direct_first","1","nn05as22","1","21","1","1","3","1","","0","1","0","null","","","<div class = 'row'><div class = 'column'><img src = 'category4/CS8.png' width = '70%;'></div><div class = 'column'><img src = 'uspos/2360.bmp' width = '100%;'></div></div>","null","pos","CS","CS","4","category4/CS8.png","","","","",""
"","html-keyboard-response","43","259021","0.0-6.0-2.0-0.16","qblt0wlpof","many_one","0","direct_first","1","nn05as22","1","21","1","1","3","1","","0","1","0","null","","","<div class = 'row'><div class = 'column'><img src = 'category2/CS7.png' width = '70%;'></div><div class = 'column'><img src = 'uspos/2341.bmp' width = '100%;'></div></div>","null","pos","CS","CS","2","category2/CS7.png","","","","",""
"","html-keyboard-response","44","261542","0.0-6.0-2.0-0.17","qblt0wlpof","many_one","0","direct_first","1","nn05as22","1","21","1","1","3","1","","0","1","0","null","","","<div class = 'row'><div class = 'column'><img src = 'category1/CS10.png' width = '70%;'></div><div class = 'column'><img src = 'usneg/9435.bmp' width = '100%;'></div></div>","null","neg","CS","CS","1","category1/CS10.png","","","","",""
"","html-keyboard-response","45","264059","0.0-6.0-2.0-0.18","qblt0wlpof","many_one","0","direct_first","1","nn05as22","1","21","1","1","3","1","","0","1","0","null","","","<div class = 'row'><div class = 'column'><img src = 'usneg/9290.bmp' width = '100%;'></div><div class = 'column'><img src = 'category3/CS5.png' width = '70%;'></div></div>","null","neg","CS","CS","3","category3/CS5.png","","","","",""
"","html-keyboard-response","46","266578","0.0-6.0-2.0-0.19","qblt0wlpof","many_one","0","direct_first","1","nn05as22","1","21","1","1","3","1","","0","1","0","null","","","<div class = 'row'><div class = 'column'><img src = 'category4/CS9.png' width = '70%;'></div><div class = 'column'><img src = 'uspos/5831.bmp' width = '100%;'></div></div>","null","pos","CS","CS","4","category4/CS9.png","","","","",""
"","survey-html-form","47","269408","0.0-6.0-3.0","qblt0wlpof","many_one","0","direct_first","1","nn05as22","1","21","1","1","3","1","","0","1","0","2317.8999999945518","","{}","","","","","","","","","","","",""
"","html-keyboard-response","48","273429","0.0-6.0-4.0-0.0","qblt0wlpof","many_one","0","direct_first","1","nn05as22","1","21","1","1","3","1","","0","1","0","null","","","<div class = 'row'><div class = 'column'><img src = 'category3/CS10.png' width = '70%;'></div><div class = 'column'><img src = 'usneg/3300.bmp' width = '100%;'></div></div>","null","neg","CS","CS","3","category3/CS10.png","","","","",""
"","html-keyboard-response","49","275956","0.0-6.0-4.0-0.1","qblt0wlpof","many_one","0","direct_first","1","nn05as22","1","21","1","1","3","1","","0","1","0","null","","","<div class = 'row'><div class = 'column'><img src = 'uspos/2040.bmp' width = '100%;'></div><div class = 'column'><img src = 'category2/CS1.png' width = '70%;'></div></div>","null","pos","CS","CS","2","category2/CS1.png","","","","",""
"","html-keyboard-response","50","278469","0.0-6.0-4.0-0.2","qblt0wlpof","many_one","0","direct_first","1","nn05as22","1","21","1","1","3","1","","0","1","0","null","","","<div class = 'row'><div class = 'column'><img src = 'category4/CS1.png' width = '70%;'></div><div class = 'column'><img src = 'uspos/8540.bmp' width = '100%;'></div></div>","null","pos","CS","CS","4","category4/CS1.png","","","","",""
"","html-keyboard-response","51","280988","0.0-6.0-4.0-0.3","qblt0wlpof","many_one","0","direct_first","1","nn05as22","1","21","1","1","3","1","","0","1","0","null","","","<div class = 'row'><div class = 'column'><img src = 'uspos/1463.bmp' width = '100%;'></div><div class = 'column'><img src = 'category2/CS2.png' width = '70%;'></div></div>","null","pos","CS","CS","2","category2/CS2.png","","","","",""
"","html-keyboard-response","52","283507","0.0-6.0-4.0-0.4","qblt0wlpof","many_one","0","direct_first","1","nn05as22","1","21","1","1","3","1","","0","1","0","null","","","<div class = 'row'><div class = 'column'><img src = 'uspos/5831.bmp' width = '100%;'></div><div class = 'column'><img src = 'category4/CS9.png' width = '70%;'></div></div>","null","pos","CS","CS","4","category4/CS9.png","","","","",""
"","html-keyboard-response","53","286024","0.0-6.0-4.0-0.5","qblt0wlpof","many_one","0","direct_first","1","nn05as22","1","21","1","1","3","1","","0","1","0","null","","","<div class = 'row'><div class = 'column'><img src = 'usneg/9342.bmp' width = '100%;'></div><div class = 'column'><img src = 'category1/CS7.png' width = '70%;'></div></div>","null","neg","CS","CS","1","category1/CS7.png","","","","",""
"","html-keyboard-response","54","288542","0.0-6.0-4.0-0.6","qblt0wlpof","many_one","0","direct_first","1","nn05as22","1","21","1","1","3","1","","0","1","0","null","","","<div class = 'row'><div class = 'column'><img src = 'category1/CS5.png' width = '70%;'></div><div class = 'column'><img src = 'usneg/3160.bmp' width = '100%;'></div></div>","null","neg","CS","CS","1","category1/CS5.png","","","","",""
"","html-keyboard-response","55","291061","0.0-6.0-4.0-0.7","qblt0wlpof","many_one","0","direct_first","1","nn05as22","1","21","1","1","3","1","","0","1","0","null","","","<div class = 'row'><div class = 'column'><img src = 'category3/CS1.png' width = '70%;'></div><div class = 'column'><img src = 'usneg/9220.bmp' width = '100%;'></div></div>","null","neg","CS","CS","3","category3/CS1.png","","","","",""
"","html-keyboard-response","56","293580","0.0-6.0-4.0-0.8","qblt0wlpof","many_one","0","direct_first","1","nn05as22","1","21","1","1","3","1","","0","1","0","null","","","<div class = 'row'><div class = 'column'><img src = 'usneg/9290.bmp' width = '100%;'></div><div class = 'column'><img src = 'category3/CS5.png' width = '70%;'></div></div>","null","neg","CS","CS","3","category3/CS5.png","","","","",""
"","html-keyboard-response","57","296109","0.0-6.0-4.0-0.9","qblt0wlpof","many_one","0","direct_first","1","nn05as22","1","21","1","1","3","1","","0","1","0","null","","","<div class = 'row'><div class = 'column'><img src = 'usneg/8485.bmp' width = '100%;'></div><div class = 'column'><img src = 'category3/CS2.png' width = '70%;'></div></div>","null","neg","CS","CS","3","category3/CS2.png","","","","",""
"","html-keyboard-response","58","298639","0.0-6.0-4.0-0.10","qblt0wlpof","many_one","0","direct_first","1","nn05as22","1","21","1","1","3","1","","0","1","0","null","","","<div class = 'row'><div class = 'column'><img src = 'usneg/9635.2.bmp' width = '100%;'></div><div class = 'column'><img src = 'category1/CS1.png' width = '70%;'></div></div>","null","neg","CS","CS","1","category1/CS1.png","","","","",""
"","html-keyboard-response","59","301158","0.0-6.0-4.0-0.11","qblt0wlpof","many_one","0","direct_first","1","nn05as22","1","21","1","1","3","1","","0","1","0","null","","","<div class = 'row'><div class = 'column'><img src = 'category2/CS5.png' width = '70%;'></div><div class = 'column'><img src = 'uspos/8190.bmp' width = '100%;'></div></div>","null","pos","CS","CS","2","category2/CS5.png","","","","",""
"","html-keyboard-response","60","303681","0.0-6.0-4.0-0.12","qblt0wlpof","many_one","0","direct_first","1","nn05as22","1","21","1","1","3","1","","0","1","0","null","","","<div class = 'row'><div class = 'column'><img src = 'uspos/4599.bmp' width = '100%;'></div><div class = 'column'><img src = 'category4/CS6.png' width = '70%;'></div></div>","null","pos","CS","CS","4","category4/CS6.png","","","","",""
"","html-keyboard-response","61","306214","0.0-6.0-4.0-0.13","qblt0wlpof","many_one","0","direct_first","1","nn05as22","1","21","1","1","3","1","","0","1","0","null","","","<div class = 'row'><div class = 'column'><img src = 'category1/CS4.png' width = '70%;'></div><div class = 'column'><img src = 'usneg/9584.bmp' width = '100%;'></div></div>","null","neg","CS","CS","1","category1/CS4.png","","","","",""
"","html-keyboard-response","62","308738","0.0-6.0-4.0-0.14","qblt0wlpof","many_one","0","direct_first","1","nn05as22","1","21","1","1","3","1","","0","1","0","null","","","<div class = 'row'><div class = 'column'><img src = 'category3/CS6.png' width = '70%;'></div><div class = 'column'><img src = 'usneg/9180.bmp' width = '100%;'></div></div>","null","neg","CS","CS","3","category3/CS6.png","","","","",""
"","html-keyboard-response","63","311260","0.0-6.0-4.0-0.15","qblt0wlpof","many_one","0","direct_first","1","nn05as22","1","21","1","1","3","1","","0","1","0","null","","","<div class = 'row'><div class = 'column'><img src = 'uspos/2208.bmp' width = '100%;'></div><div class = 'column'><img src = 'category4/CS10.png' width = '70%;'></div></div>","null","pos","CS","CS","4","category4/CS10.png","","","","",""
"","html-keyboard-response","64","313794","0.0-6.0-4.0-0.16","qblt0wlpof","many_one","0","direct_first","1","nn05as22","1","21","1","1","3","1","","0","1","0","null","","","<div class = 'row'><div class = 'column'><img src = 'uspos/5621.bmp' width = '100%;'></div><div class = 'column'><img src = 'category2/CS6.png' width = '70%;'></div></div>","null","pos","CS","CS","2","category2/CS6.png","","","","",""
"","html-keyboard-response","65","316323","0.0-6.0-4.0-0.17","qblt0wlpof","many_one","0","direct_first","1","nn05as22","1","21","1","1","3","1","","0","1","0","null","","","<div class = 'row'><div class = 'column'><img src = 'uspos/2360.bmp' width = '100%;'></div><div class = 'column'><img src = 'category4/CS8.png' width = '70%;'></div></div>","null","pos","CS","CS","4","category4/CS8.png","","","","",""
"","html-keyboard-response","66","318845","0.0-6.0-4.0-0.18","qblt0wlpof","many_one","0","direct_first","1","nn05as22","1","21","1","1","3","1","","0","1","0","null","","","<div class = 'row'><div class = 'column'><img src = 'usneg/9435.bmp' width = '100%;'></div><div class = 'column'><img src = 'category1/CS10.png' width = '70%;'></div></div>","null","neg","CS","CS","1","category1/CS10.png","","","","",""
"","html-keyboard-response","67","321372","0.0-6.0-4.0-0.19","qblt0wlpof","many_one","0","direct_first","1","nn05as22","1","21","1","1","3","1","","0","1","0","null","","","<div class = 'row'><div class = 'column'><img src = 'uspos/2341.bmp' width = '100%;'></div><div class = 'column'><img src = 'category2/CS7.png' width = '70%;'></div></div>","null","pos","CS","CS","2","category2/CS7.png","","","","",""
"","survey-html-form","68","323633","0.0-6.0-5.0","qblt0wlpof","many_one","0","direct_first","1","nn05as22","1","21","1","1","3","1","","0","1","0","1745.374999998603","","{}","","","","","","","","","","","",""
"","html-keyboard-response","69","327651","0.0-6.0-6.0-0.0","qblt0wlpof","many_one","0","direct_first","1","nn05as22","1","21","1","1","3","1","","0","1","0","null","","","<div class = 'row'><div class = 'column'><img src = 'category4/CS10.png' width = '70%;'></div><div class = 'column'><img src = 'uspos/2208.bmp' width = '100%;'></div></div>","null","pos","CS","CS","4","category4/CS10.png","","","","",""
"","html-keyboard-response","70","330171","0.0-6.0-6.0-0.1","qblt0wlpof","many_one","0","direct_first","1","nn05as22","1","21","1","1","3","1","","0","1","0","null","","","<div class = 'row'><div class = 'column'><img src = 'category2/CS1.png' width = '70%;'></div><div class = 'column'><img src = 'uspos/2040.bmp' width = '100%;'></div></div>","null","pos","CS","CS","2","category2/CS1.png","","","","",""
"","html-keyboard-response","71","332691","0.0-6.0-6.0-0.2","qblt0wlpof","many_one","0","direct_first","1","nn05as22","1","21","1","1","3","1","","0","1","0","null","","","<div class = 'row'><div class = 'column'><img src = 'category1/CS1.png' width = '70%;'></div><div class = 'column'><img src = 'usneg/9635.2.bmp' width = '100%;'></div></div>","null","neg","CS","CS","1","category1/CS1.png","","","","",""
"","html-keyboard-response","72","335212","0.0-6.0-6.0-0.3","qblt0wlpof","many_one","0","direct_first","1","nn05as22","1","21","1","1","3","1","","0","1","0","null","","","<div class = 'row'><div class = 'column'><img src = 'category4/CS1.png' width = '70%;'></div><div class = 'column'><img src = 'uspos/8540.bmp' width = '100%;'></div></div>","null","pos","CS","CS","4","category4/CS1.png","","","","",""
"","html-keyboard-response","73","337734","0.0-6.0-6.0-0.4","qblt0wlpof","many_one","0","direct_first","1","nn05as22","1","21","1","1","3","1","","0","1","0","null","","","<div class = 'row'><div class = 'column'><img src = 'category2/CS5.png' width = '70%;'></div><div class = 'column'><img src = 'uspos/8190.bmp' width = '100%;'></div></div>","null","pos","CS","CS","2","category2/CS5.png","","","","",""
"","html-keyboard-response","74","340242","0.0-6.0-6.0-0.5","qblt0wlpof","many_one","0","direct_first","1","nn05as22","1","21","1","1","3","1","","0","1","0","null","","","<div class = 'row'><div class = 'column'><img src = 'uspos/4599.bmp' width = '100%;'></div><div class = 'column'><img src = 'category4/CS6.png' width = '70%;'></div></div>","null","pos","CS","CS","4","category4/CS6.png","","","","",""
"","html-keyboard-response","75","342762","0.0-6.0-6.0-0.6","qblt0wlpof","many_one","0","direct_first","1","nn05as22","1","21","1","1","3","1","","0","1","0","null","","","<div class = 'row'><div class = 'column'><img src = 'category1/CS7.png' width = '70%;'></div><div class = 'column'><img src = 'usneg/9342.bmp' width = '100%;'></div></div>","null","neg","CS","CS","1","category1/CS7.png","","","","",""
"","html-keyboard-response","76","345291","0.0-6.0-6.0-0.7","qblt0wlpof","many_one","0","direct_first","1","nn05as22","1","21","1","1","3","1","","0","1","0","null","","","<div class = 'row'><div class = 'column'><img src = 'usneg/3160.bmp' width = '100%;'></div><div class = 'column'><img src = 'category1/CS5.png' width = '70%;'></div></div>","null","neg","CS","CS","1","category1/CS5.png","","","","",""
"","html-keyboard-response","77","347820","0.0-6.0-6.0-0.8","qblt0wlpof","many_one","0","direct_first","1","nn05as22","1","21","1","1","3","1","","0","1","0","null","","","<div class = 'row'><div class = 'column'><img src = 'category3/CS5.png' width = '70%;'></div><div class = 'column'><img src = 'usneg/9290.bmp' width = '100%;'></div></div>","null","neg","CS","CS","3","category3/CS5.png","","","","",""
"","html-keyboard-response","78","350350","0.0-6.0-6.0-0.9","qblt0wlpof","many_one","0","direct_first","1","nn05as22","1","21","1","1","3","1","","0","1","0","null","","","<div class = 'row'><div class = 'column'><img src = 'category2/CS6.png' width = '70%;'></div><div class = 'column'><img src = 'uspos/5621.bmp' width = '100%;'></div></div>","null","pos","CS","CS","2","category2/CS6.png","","","","",""
"","html-keyboard-response","79","352876","0.0-6.0-6.0-0.10","qblt0wlpof","many_one","0","direct_first","1","nn05as22","1","21","1","1","3","1","","0","1","0","null","","","<div class = 'row'><div class = 'column'><img src = 'category4/CS8.png' width = '70%;'></div><div class = 'column'><img src = 'uspos/2360.bmp' width = '100%;'></div></div>","null","pos","CS","CS","4","category4/CS8.png","","","","",""
"","html-keyboard-response","80","355394","0.0-6.0-6.0-0.11","qblt0wlpof","many_one","0","direct_first","1","nn05as22","1","21","1","1","3","1","","0","1","0","null","","","<div class = 'row'><div class = 'column'><img src = 'usneg/3300.bmp' width = '100%;'></div><div class = 'column'><img src = 'category3/CS10.png' width = '70%;'></div></div>","null","neg","CS","CS","3","category3/CS10.png","","","","",""
"","html-keyboard-response","81","357914","0.0-6.0-6.0-0.12","qblt0wlpof","many_one","0","direct_first","1","nn05as22","1","21","1","1","3","1","","0","1","0","null","","","<div class = 'row'><div class = 'column'><img src = 'uspos/2341.bmp' width = '100%;'></div><div class = 'column'><img src = 'category2/CS7.png' width = '70%;'></div></div>","null","pos","CS","CS","2","category2/CS7.png","","","","",""
"","html-keyboard-response","82","360434","0.0-6.0-6.0-0.13","qblt0wlpof","many_one","0","direct_first","1","nn05as22","1","21","1","1","3","1","","0","1","0","null","","","<div class = 'row'><div class = 'column'><img src = 'usneg/9220.bmp' width = '100%;'></div><div class = 'column'><img src = 'category3/CS1.png' width = '70%;'></div></div>","null","neg","CS","CS","3","category3/CS1.png","","","","",""
"","html-keyboard-response","83","362958","0.0-6.0-6.0-0.14","qblt0wlpof","many_one","0","direct_first","1","nn05as22","1","21","1","1","3","1","","0","1","0","null","","","<div class = 'row'><div class = 'column'><img src = 'category3/CS6.png' width = '70%;'></div><div class = 'column'><img src = 'usneg/9180.bmp' width = '100%;'></div></div>","null","neg","CS","CS","3","category3/CS6.png","","","","",""
"","html-keyboard-response","84","365483","0.0-6.0-6.0-0.15","qblt0wlpof","many_one","0","direct_first","1","nn05as22","1","21","1","1","3","1","","0","1","0","null","","","<div class = 'row'><div class = 'column'><img src = 'usneg/9584.bmp' width = '100%;'></div><div class = 'column'><img src = 'category1/CS4.png' width = '70%;'></div></div>","null","neg","CS","CS","1","category1/CS4.png","","","","",""
"","html-keyboard-response","85","368002","0.0-6.0-6.0-0.16","qblt0wlpof","many_one","0","direct_first","1","nn05as22","1","21","1","1","3","1","","0","1","0","null","","","<div class = 'row'><div class = 'column'><img src = 'uspos/1463.bmp' width = '100%;'></div><div class = 'column'><img src = 'category2/CS2.png' width = '70%;'></div></div>","null","pos","CS","CS","2","category2/CS2.png","","","","",""
"","html-keyboard-response","86","370510","0.0-6.0-6.0-0.17","qblt0wlpof","many_one","0","direct_first","1","nn05as22","1","21","1","1","3","1","","0","1","0","null","","","<div class = 'row'><div class = 'column'><img src = 'category1/CS10.png' width = '70%;'></div><div class = 'column'><img src = 'usneg/9435.bmp' width = '100%;'></div></div>","null","neg","CS","CS","1","category1/CS10.png","","","","",""
"","html-keyboard-response","87","373038","0.0-6.0-6.0-0.18","qblt0wlpof","many_one","0","direct_first","1","nn05as22","1","21","1","1","3","1","","0","1","0","null","","","<div class = 'row'><div class = 'column'><img src = 'category3/CS2.png' width = '70%;'></div><div class = 'column'><img src = 'usneg/8485.bmp' width = '100%;'></div></div>","null","neg","CS","CS","3","category3/CS2.png","","","","",""
"","html-keyboard-response","88","375564","0.0-6.0-6.0-0.19","qblt0wlpof","many_one","0","direct_first","1","nn05as22","1","21","1","1","3","1","","0","1","0","null","","","<div class = 'row'><div class = 'column'><img src = 'uspos/5831.bmp' width = '100%;'></div><div class = 'column'><img src = 'category4/CS9.png' width = '70%;'></div></div>","null","pos","CS","CS","4","category4/CS9.png","","","","",""
"","survey-html-form","89","392829","0.0-7.0","qblt0wlpof","many_one","0","direct_first","1","nn05as22","1","21","1","1","3","1","","0","1","0","16759.534999990137","","{}","","","","","","","","","","","",""
"","image-slider-response","90","400071","0.0-8.0-0.0","qblt0wlpof","many_one","0","direct_first","1","nn05as22","1","21","1","1","3","1","","0","1","0","5227.379999996629","","","","","pos","GS","GSold","2","category2/CS9.png","30","targets/18.png","direct","",""
"","image-slider-response","91","404717","0.0-8.0-0.1","qblt0wlpof","many_one","0","direct_first","1","nn05as22","1","21","1","1","3","1","","0","1","0","4643.160000006901","","","","","neg","GS","GSold","1","category1/CS9.png","32","targets/13.png","direct","",""
"","image-slider-response","92","409336","0.0-8.0-0.2","qblt0wlpof","many_one","0","direct_first","1","nn05as22","1","21","1","1","3","1","","0","1","0","4615.435000014259","","","","","neg","GS","GSold","1","category1/CS2.png","49","targets/35.png","direct","",""
"","image-slider-response","93","413208","0.0-8.0-0.3","qblt0wlpof","many_one","0","direct_first","1","nn05as22","1","21","1","1","3","1","","0","1","0","3869.810000003781","","","","","neg","CS","CS","3","category3/CS10.png","30","targets/30.png","direct","",""
"","image-slider-response","94","416929","0.0-8.0-0.4","qblt0wlpof","many_one","0","direct_first","1","nn05as22","1","21","1","1","3","1","","0","1","0","3718.2249999896158","","","","","neg","GS","GSnew","3","category3/GS1.png","-28","targets/48.png","direct","",""
"","image-slider-response","95","420887","0.0-8.0-0.5","qblt0wlpof","many_one","0","direct_first","1","nn05as22","1","21","1","1","3","1","","0","1","0","3956.1199999880046","","","","","neg","CS","CS","1","category1/CS4.png","49","targets/3.png","direct","",""
"","image-slider-response","96","423699","0.0-8.0-0.6","qblt0wlpof","many_one","0","direct_first","1","nn05as22","1","21","1","1","3","1","","0","1","0","2809.0700000175275","","","","","neg","CS","CS","3","category3/CS6.png","41","targets/37.png","direct","",""
"","image-slider-response","97","427606","0.0-8.0-0.7","qblt0wlpof","many_one","0","direct_first","1","nn05as22","1","21","1","1","3","1","","0","1","0","3904.4899999862537","","","","","pos","CS","CS","2","category2/CS1.png","39","targets/12.png","direct","",""
"","image-slider-response","98","430346","0.0-8.0-0.8","qblt0wlpof","many_one","0","direct_first","1","nn05as22","1","21","1","1","3","1","","0","1","0","2737.4200000194833","","","","","neg","CS","CS","1","category1/CS10.png","30","targets/20.png","direct","",""
"","image-slider-response","99","433924","0.0-8.0-0.9","qblt0wlpof","many_one","0","direct_first","1","nn05as22","1","21","1","1","3","1","","0","1","0","3575.6399999954738","","","","","pos","GS","GSnew","2","category2/GS2.png","-18","targets/45.png","direct","",""
"","image-slider-response","100","438398","0.0-8.0-0.10","qblt0wlpof","many_one","0","direct_first","1","nn05as22","1","21","1","1","3","1","","0","1","0","4471.599999989849","","","","","neg","GS","GSold","3","category3/CS4.png","39","targets/4.png","direct","",""
"","image-slider-response","101","441381","0.0-8.0-0.11","qblt0wlpof","many_one","0","direct_first","1","nn05as22","1","21","1","1","3","1","","0","1","0","2980.764999985695","","","","","neg","GS","GSnew","3","category3/GS3.png","30","targets/1.png","direct","",""
"","image-slider-response","102","444062","0.0-8.0-0.12","qblt0wlpof","many_one","0","direct_first","1","nn05as22","1","21","1","1","3","1","","0","1","0","2676.0599999979604","","","","","pos","GS","GSnew","2","category2/GS1.png","36","targets/2.png","direct","",""
"","image-slider-response","103","447254","0.0-8.0-0.13","qblt0wlpof","many_one","0","direct_first","1","nn05as22","1","21","1","1","3","1","","0","1","0","3189.104999997653","","","","","pos","GS","GSold","4","category4/CS5.png","49","targets/29.png","direct","",""
"","image-slider-response","104","450516","0.0-8.0-0.14","qblt0wlpof","many_one","0","direct_first","1","nn05as22","1","21","1","1","3","1","","0","1","0","3260.1549999963026","","","","","neg","GS","abstract","3","category3/wang.png","11","targets/46.png","direct","",""
"","image-slider-response","105","455098","0.0-8.0-0.15","qblt0wlpof","many_one","0","direct_first","1","nn05as22","1","21","1","1","3","1","","0","1","0","4580.064999987371","","","","","neg","GS","GSold","3","category3/CS9.png","-37","targets/24.png","direct","",""
"","image-slider-response","106","457752","0.0-8.0-0.16","qblt0wlpof","many_one","0","direct_first","1","nn05as22","1","21","1","1","3","1","","0","1","0","2650.8949999988545","","","","","pos","GS","GSold","2","category2/CS10.png","44","targets/41.png","direct","",""
"","image-slider-response","107","461961","0.0-8.0-0.17","qblt0wlpof","many_one","0","direct_first","1","nn05as22","1","21","1","1","3","1","","0","1","0","4207.330000004731","","","","","neg","CS","CS","1","category1/CS1.png","46","targets/22.png","direct","",""
"","image-slider-response","108","464994","0.0-8.0-0.18","qblt0wlpof","many_one","0","direct_first","1","nn05as22","1","21","1","1","3","1","","0","1","0","3030.4250000044703","","","","","pos","GS","GSold","4","category4/CS2.png","53","targets/44.png","direct","",""
"","image-slider-response","109","468808","0.0-8.0-0.19","qblt0wlpof","many_one","0","direct_first","1","nn05as22","1","21","1","1","3","1","","0","1","0","3812.1899999969173","","","","","pos","CS","CS","4","category4/CS9.png","37","targets/38.png","direct","",""
"","image-slider-response","110","471878","0.0-8.0-0.20","qblt0wlpof","many_one","0","direct_first","1","nn05as22","1","21","1","1","3","1","","0","1","0","3066.7499999981374","","","","","neg","GS","abstract","1","category1/ma.png","-42","targets/47.png","direct","",""
"","image-slider-response","111","474653","0.0-8.0-0.21","qblt0wlpof","many_one","0","direct_first","1","nn05as22","1","21","1","1","3","1","","0","1","0","2773.2599999872036","","","","","pos","CS","CS","4","category4/CS6.png","49","targets/43.png","direct","",""
"","image-slider-response","112","477186","0.0-8.0-0.22","qblt0wlpof","many_one","0","direct_first","1","nn05as22","1","21","1","1","3","1","","0","1","0","2530.170000012731","","","","","pos","GS","GSnew","2","category2/GS3.png","23","targets/27.png","direct","",""
"","image-slider-response","113","481666","0.0-8.0-0.23","qblt0wlpof","many_one","0","direct_first","1","nn05as22","1","21","1","1","3","1","","0","1","0","4475.2149999840185","","","","","neg","GS","GSnew","1","category1/GS1.png","45","targets/40.png","direct","",""
"","image-slider-response","114","484462","0.0-8.0-0.24","qblt0wlpof","many_one","0","direct_first","1","nn05as22","1","21","1","1","3","1","","0","1","0","2793.695000000298","","","","","neg","GS","GSnew","1","category1/GS3.png","-35","targets/39.png","direct","",""
"","image-slider-response","115","487288","0.0-8.0-0.25","qblt0wlpof","many_one","0","direct_first","1","nn05as22","1","21","1","1","3","1","","0","1","0","2823.854999995092","","","","","neg","GS","GSold","3","category3/CS8.png","-45","targets/33.png","direct","",""
"","image-slider-response","116","490278","0.0-8.0-0.26","qblt0wlpof","many_one","0","direct_first","1","nn05as22","1","21","1","1","3","1","","0","1","0","2987.3200000147335","","","","","neg","CS","CS","3","category3/CS2.png","44","targets/7.png","direct","",""
"","image-slider-response","117","492559","0.0-8.0-0.27","qblt0wlpof","many_one","0","direct_first","1","nn05as22","1","21","1","1","3","1","","0","1","0","2279.149999987567","","","","","pos","GS","abstract","4","category4/lin.png","33","targets/23.png","direct","",""
"","image-slider-response","118","495349","0.0-8.0-0.28","qblt0wlpof","many_one","0","direct_first","1","nn05as22","1","21","1","1","3","1","","0","1","0","2787.9249999823514","","","","","pos","GS","GSold","4","category4/CS7.png","32","targets/34.png","direct","",""
"","image-slider-response","119","498577","0.0-8.0-0.29","qblt0wlpof","many_one","0","direct_first","1","nn05as22","1","21","1","1","3","1","","0","1","0","3224.8450000188313","","","","","pos","CS","CS","4","category4/CS8.png","28","targets/8.png","direct","",""
"","image-slider-response","120","501429","0.0-8.0-0.30","qblt0wlpof","many_one","0","direct_first","1","nn05as22","1","21","1","1","3","1","","0","1","0","2846.285000006901","","","","","pos","CS","CS","4","category4/CS10.png","37","targets/17.png","direct","",""
"","image-slider-response","121","504720","0.0-8.0-0.31","qblt0wlpof","many_one","0","direct_first","1","nn05as22","1","21","1","1","3","1","","0","1","0","3288.2450000033714","","","","","pos","GS","GSnew","4","category4/GS1.png","-43","targets/9.png","direct","",""
"","image-slider-response","122","507073","0.0-8.0-0.32","qblt0wlpof","many_one","0","direct_first","1","nn05as22","1","21","1","1","3","1","","0","1","0","2350.7399999944028","","","","","pos","CS","CS","4","category4/CS1.png","37","targets/21.png","direct","",""
"","image-slider-response","123","509983","0.0-8.0-0.33","qblt0wlpof","many_one","0","direct_first","1","nn05as22","1","21","1","1","3","1","","0","1","0","2908.564999990631","","","","","neg","GS","GSold","1","category1/CS3.png","37","targets/5.png","direct","",""
"","image-slider-response","124","512659","0.0-8.0-0.34","qblt0wlpof","many_one","0","direct_first","1","nn05as22","1","21","1","1","3","1","","0","1","0","2673.0199999874458","","","","","neg","CS","CS","1","category1/CS7.png","37","targets/19.png","direct","",""
"","image-slider-response","125","515570","0.0-8.0-0.35","qblt0wlpof","many_one","0","direct_first","1","nn05as22","1","21","1","1","3","1","","0","1","0","2909.234999999171","","","","","pos","GS","GSold","2","category2/CS4.png","37","targets/6.png","direct","",""
"","image-slider-response","126","518395","0.0-8.0-0.36","qblt0wlpof","many_one","0","direct_first","1","nn05as22","1","21","1","1","3","1","","0","1","0","2821.4399999997113","","","","","neg","CS","CS","3","category3/CS5.png","39","targets/25.png","direct","",""
"","image-slider-response","127","521901","0.0-8.0-0.37","qblt0wlpof","many_one","0","direct_first","1","nn05as22","1","21","1","1","3","1","","0","1","0","3504.3000000005122","","","","","neg","CS","CS","3","category3/CS1.png","46","targets/10.png","direct","",""
"","image-slider-response","128","524741","0.0-8.0-0.38","qblt0wlpof","many_one","0","direct_first","1","nn05as22","1","21","1","1","3","1","","0","1","0","2837.5600000144914","","","","","pos","CS","CS","2","category2/CS7.png","-41","targets/16.png","direct","",""
"","image-slider-response","129","527036","0.0-8.0-0.39","qblt0wlpof","many_one","0","direct_first","1","nn05as22","1","21","1","1","3","1","","0","1","0","2293.0899999919347","","","","","pos","CS","CS","2","category2/CS5.png","36","targets/36.png","direct","",""
"","image-slider-response","130","529877","0.0-8.0-0.40","qblt0wlpof","many_one","0","direct_first","1","nn05as22","1","21","1","1","3","1","","0","1","0","2837.7000000036787","","","","","pos","GS","GSnew","4","category4/GS2.png","-42","targets/15.png","direct","",""
"","image-slider-response","131","532414","0.0-8.0-0.41","qblt0wlpof","many_one","0","direct_first","1","nn05as22","1","21","1","1","3","1","","0","1","0","2533.880000002682","","","","","pos","CS","CS","2","category2/CS6.png","42","targets/11.png","direct","",""
"","image-slider-response","132","534716","0.0-8.0-0.42","qblt0wlpof","many_one","0","direct_first","1","nn05as22","1","21","1","1","3","1","","0","1","0","2299.189999990631","","","","","neg","GS","GSnew","1","category1/GS2.png","38","targets/14.png","direct","",""
"","image-slider-response","133","537750","0.0-8.0-0.43","qblt0wlpof","many_one","0","direct_first","1","nn05as22","1","21","1","1","3","1","","0","1","0","3032.5900000170805","","","","","pos","GS","GSnew","4","category4/GS3.png","-48","targets/26.png","direct","",""
"","image-slider-response","134","539750","0.0-8.0-0.44","qblt0wlpof","many_one","0","direct_first","1","nn05as22","1","21","1","1","3","1","","0","1","0","1997.1399999922141","","","","","neg","CS","CS","1","category1/CS5.png","39","targets/31.png","direct","",""
"","image-slider-response","135","542053","0.0-8.0-0.45","qblt0wlpof","many_one","0","direct_first","1","nn05as22","1","21","1","1","3","1","","0","1","0","2299.6649999986403","","","","","neg","GS","GSnew","3","category3/GS2.png","43","targets/28.png","direct","",""
"","image-slider-response","136","545351","0.0-8.0-0.46","qblt0wlpof","many_one","0","direct_first","1","nn05as22","1","21","1","1","3","1","","0","1","0","3295.4400000162423","","","","","pos","CS","CS","2","category2/CS2.png","38","targets/42.png","direct","",""
"","image-slider-response","137","548334","0.0-8.0-0.47","qblt0wlpof","many_one","0","direct_first","1","nn05as22","1","21","1","1","3","1","","0","1","0","2980.0950000062585","","","","","pos","GS","abstract","2","category2/men.png","-43","targets/32.png","direct","",""
"","html-keyboard-response","138","578879","0.0-9.0","qblt0wlpof","many_one","0","direct_first","1","nn05as22","1","21","1","1","3","1","","0","1","0","30543.520000006538","","","<p>Sie sehen nun die chinesischen Zeichen nur ganz kurz. Danach sehen Sie die jeweilige Aussprache der Zeichen als Silbe auf dem Bildschrim. Ihre Aufgabe ist es, für jede Silbe anzugeben, ob diese etwas angenehmes, oder unangenehmes bedeuten könnte. Verlassen Sie sich hier vor allem auf Ihre Intuition.<br><br>Die Zeichen werden nur zur Orientierung dargestellt, beachten Sie sie deshalb nicht. Konzentrieren Sie sich vor allem auf die Silben. <br>Reagieren Sie mit folgenden zwei Tasten: <br><br><b>'D' </b> wenn die Silbe etwas <b>unangenehmes</b> bedeuten könnte. <br><b>'K'</b> wenn die Silbe etwas <b>angenehmes</b> bedeuten könnte. <br><br>Bitte legen Sie nun den Zeigefinger der linken Hand auf die Taste 'D' und den Zeigefinger der rechten Hand auf die Taste 'K'. <br>Reagieren Sie auf jede Silbe so schnell wie möglich. Uns interessiert Ihre spontane Reaktion. <br> <br> <br>Drücken Sie 'D' oder 'K', um die nächste Aufgabe zu starten. </p>","68","","","","","","","","","",""
"","html-keyboard-response","139","581895","0.0-10.0-0.0","qblt0wlpof","many_one","0","direct_first","1","nn05as22","1","21","1","1","3","1","","0","1","0","null","","","<div style=""font-size:60px;"">+</div>","null","","","","","","","","","",""
"","html-keyboard-response","140","581991","0.0-10.0-1.0","qblt0wlpof","many_one","0","direct_first","1","nn05as22","1","21","1","1","3","1","","0","1","0","null","","","<img src = 'category2/CS7.png' width = '100%;'>","null","","","","","","","","","",""
"","html-keyboard-response","141","582262","0.0-10.0-2.0","qblt0wlpof","many_one","0","direct_first","1","nn05as22","1","21","1","1","3","1","","0","1","0","null","","","<img src = 'targets/16.png' width = '100%;'>","null","","","","","","","","","",""
"","html-keyboard-response","142","586612","0.0-10.0-3.0","qblt0wlpof","many_one","0","direct_first","1","nn05as22","1","21","1","1","3","1","","0","1","0","4348.165000003064","","","<img src = 'targets/mask.png' width = '100%;'>","68","pos","CS","CS","2","category2/CS7.png","","targets/16.png","indirect","0","0"
"","html-keyboard-response","143","588134","0.0-10.0-0.1","qblt0wlpof","many_one","0","direct_first","1","nn05as22","1","21","1","1","3","1","","0","1","0","null","","","<div style=""font-size:60px;"">+</div>","null","","","","","","","","","",""
"","html-keyboard-response","144","588239","0.0-10.0-1.1","qblt0wlpof","many_one","0","direct_first","1","nn05as22","1","21","1","1","3","1","","0","1","0","null","","","<img src = 'category4/CS10.png' width = '100%;'>","null","","","","","","","","","",""
"","html-keyboard-response","145","588511","0.0-10.0-2.1","qblt0wlpof","many_one","0","direct_first","1","nn05as22","1","21","1","1","3","1","","0","1","0","null","","","<img src = 'targets/17.png' width = '100%;'>","null","","","","","","","","","",""
"","html-keyboard-response","146","589626","0.0-10.0-3.1","qblt0wlpof","many_one","0","direct_first","1","nn05as22","1","21","1","1","3","1","","0","1","0","1111.9800000160467","","","<img src = 'targets/mask.png' width = '100%;'>","75","pos","CS","CS","4","category4/CS10.png","","targets/17.png","indirect","1","1"
"","html-keyboard-response","147","591150","0.0-10.0-0.2","qblt0wlpof","many_one","0","direct_first","1","nn05as22","1","21","1","1","3","1","","0","1","0","null","","","<div style=""font-size:60px;"">+</div>","null","","","","","","","","","",""
"","html-keyboard-response","148","591244","0.0-10.0-1.2","qblt0wlpof","many_one","0","direct_first","1","nn05as22","1","21","1","1","3","1","","0","1","0","null","","","<img src = 'category3/CS10.png' width = '100%;'>","null","","","","","","","","","",""
"","html-keyboard-response","149","591520","0.0-10.0-2.2","qblt0wlpof","many_one","0","direct_first","1","nn05as22","1","21","1","1","3","1","","0","1","0","null","","","<img src = 'targets/30.png' width = '100%;'>","null","","","","","","","","","",""
"","html-keyboard-response","150","592075","0.0-10.0-3.2","qblt0wlpof","many_one","0","direct_first","1","nn05as22","1","21","1","1","3","1","","0","1","0","552.2599999967497","","","<img src = 'targets/mask.png' width = '100%;'>","68","neg","CS","CS","3","category3/CS10.png","","targets/30.png","indirect","0","2"
"","html-keyboard-response","151","593581","0.0-10.0-0.3","qblt0wlpof","many_one","0","direct_first","1","nn05as22","1","21","1","1","3","1","","0","1","0","null","","","<div style=""font-size:60px;"">+</div>","null","","","","","","","","","",""
"","html-keyboard-response","152","593673","0.0-10.0-1.3","qblt0wlpof","many_one","0","direct_first","1","nn05as22","1","21","1","1","3","1","","0","1","0","null","","","<img src = 'category1/CS1.png' width = '100%;'>","null","","","","","","","","","",""
"","html-keyboard-response","153","593939","0.0-10.0-2.3","qblt0wlpof","many_one","0","direct_first","1","nn05as22","1","21","1","1","3","1","","0","1","0","null","","","<img src = 'targets/22.png' width = '100%;'>","null","","","","","","","","","",""
"","html-keyboard-response","154","594637","0.0-10.0-3.3","qblt0wlpof","many_one","0","direct_first","1","nn05as22","1","21","1","1","3","1","","0","1","0","696.0700000054203","","","<img src = 'targets/mask.png' width = '100%;'>","75","neg","CS","CS","1","category1/CS1.png","","targets/22.png","indirect","1","3"
"","html-keyboard-response","155","596149","0.0-10.0-0.4","qblt0wlpof","many_one","0","direct_first","1","nn05as22","1","21","1","1","3","1","","0","1","0","null","","","<div style=""font-size:60px;"">+</div>","null","","","","","","","","","",""
"","html-keyboard-response","156","596262","0.0-10.0-1.4","qblt0wlpof","many_one","0","direct_first","1","nn05as22","1","21","1","1","3","1","","0","1","0","null","","","<img src = 'category2/CS5.png' width = '100%;'>","null","","","","","","","","","",""
"","html-keyboard-response","157","596535","0.0-10.0-2.4","qblt0wlpof","many_one","0","direct_first","1","nn05as22","1","21","1","1","3","1","","0","1","0","null","","","<img src = 'targets/36.png' width = '100%;'>","null","","","","","","","","","",""
"","html-keyboard-response","158","597045","0.0-10.0-3.4","qblt0wlpof","many_one","0","direct_first","1","nn05as22","1","21","1","1","3","1","","0","1","0","507.5850000139326","","","<img src = 'targets/mask.png' width = '100%;'>","75","pos","CS","CS","2","category2/CS5.png","","targets/36.png","indirect","1","4"
"","html-keyboard-response","159","598572","0.0-10.0-0.5","qblt0wlpof","many_one","0","direct_first","1","nn05as22","1","21","1","1","3","1","","0","1","0","null","","","<div style=""font-size:60px;"">+</div>","null","","","","","","","","","",""
"","html-keyboard-response","160","598677","0.0-10.0-1.5","qblt0wlpof","many_one","0","direct_first","1","nn05as22","1","21","1","1","3","1","","0","1","0","null","","","<img src = 'category2/CS6.png' width = '100%;'>","null","","","","","","","","","",""
"","html-keyboard-response","161","598944","0.0-10.0-2.5","qblt0wlpof","many_one","0","direct_first","1","nn05as22","1","21","1","1","3","1","","0","1","0","null","","","<img src = 'targets/11.png' width = '100%;'>","null","","","","","","","","","",""
"","html-keyboard-response","162","599662","0.0-10.0-3.5","qblt0wlpof","many_one","0","direct_first","1","nn05as22","1","21","1","1","3","1","","0","1","0","715.5800000182353","","","<img src = 'targets/mask.png' width = '100%;'>","75","pos","CS","CS","2","category2/CS6.png","","targets/11.png","indirect","1","5"
"","html-keyboard-response","163","601181","0.0-10.0-0.6","qblt0wlpof","many_one","0","direct_first","1","nn05as22","1","21","1","1","3","1","","0","1","0","null","","","<div style=""font-size:60px;"">+</div>","null","","","","","","","","","",""
"","html-keyboard-response","164","601287","0.0-10.0-1.6","qblt0wlpof","many_one","0","direct_first","1","nn05as22","1","21","1","1","3","1","","0","1","0","null","","","<img src = 'category4/CS5.png' width = '100%;'>","null","","","","","","","","","",""
"","html-keyboard-response","165","601552","0.0-10.0-2.6","qblt0wlpof","many_one","0","direct_first","1","nn05as22","1","21","1","1","3","1","","0","1","0","null","","","<img src = 'targets/29.png' width = '100%;'>","null","","","","","","","","","",""
"","html-keyboard-response","166","602026","0.0-10.0-3.6","qblt0wlpof","many_one","0","direct_first","1","nn05as22","1","21","1","1","3","1","","0","1","0","470.6350000051316","","","<img src = 'targets/mask.png' width = '100%;'>","68","pos","GS","GSold","4","category4/CS5.png","","targets/29.png","indirect","0","6"
"","html-keyboard-response","167","603549","0.0-10.0-0.7","qblt0wlpof","many_one","0","direct_first","1","nn05as22","1","21","1","1","3","1","","0","1","0","null","","","<div style=""font-size:60px;"">+</div>","null","","","","","","","","","",""
"","html-keyboard-response","168","603651","0.0-10.0-1.7","qblt0wlpof","many_one","0","direct_first","1","nn05as22","1","21","1","1","3","1","","0","1","0","null","","","<img src = 'category2/CS1.png' width = '100%;'>","null","","","","","","","","","",""
"","html-keyboard-response","169","603909","0.0-10.0-2.7","qblt0wlpof","many_one","0","direct_first","1","nn05as22","1","21","1","1","3","1","","0","1","0","null","","","<img src = 'targets/12.png' width = '100%;'>","null","","","","","","","","","",""
"","html-keyboard-response","170","604202","0.0-10.0-3.7","qblt0wlpof","many_one","0","direct_first","1","nn05as22","1","21","1","1","3","1","","0","1","0","291.6750000149477","","","<img src = 'targets/mask.png' width = '100%;'>","75","pos","CS","CS","2","category2/CS1.png","","targets/12.png","indirect","1","7"
"","html-keyboard-response","171","605727","0.0-10.0-0.8","qblt0wlpof","many_one","0","direct_first","1","nn05as22","1","21","1","1","3","1","","0","1","0","null","","","<div style=""font-size:60px;"">+</div>","null","","","","","","","","","",""
"","html-keyboard-response","172","605832","0.0-10.0-1.8","qblt0wlpof","many_one","0","direct_first","1","nn05as22","1","21","1","1","3","1","","0","1","0","null","","","<img src = 'category3/CS5.png' width = '100%;'>","null","","","","","","","","","",""
"","html-keyboard-response","173","606092","0.0-10.0-2.8","qblt0wlpof","many_one","0","direct_first","1","nn05as22","1","21","1","1","3","1","","0","1","0","null","","","<img src = 'targets/25.png' width = '100%;'>","null","","","","","","","","","",""
"","html-keyboard-response","174","606514","0.0-10.0-3.8","qblt0wlpof","many_one","0","direct_first","1","nn05as22","1","21","1","1","3","1","","0","1","0","420.2149999910034","","","<img src = 'targets/mask.png' width = '100%;'>","75","neg","CS","CS","3","category3/CS5.png","","targets/25.png","indirect","1","8"
"","html-keyboard-response","175","608035","0.0-10.0-0.9","qblt0wlpof","many_one","0","direct_first","1","nn05as22","1","21","1","1","3","1","","0","1","0","null","","","<div style=""font-size:60px;"">+</div>","null","","","","","","","","","",""
"","html-keyboard-response","176","608131","0.0-10.0-1.9","qblt0wlpof","many_one","0","direct_first","1","nn05as22","1","21","1","1","3","1","","0","1","0","null","","","<img src = 'category1/CS9.png' width = '100%;'>","null","","","","","","","","","",""
"","html-keyboard-response","177","608397","0.0-10.0-2.9","qblt0wlpof","many_one","0","direct_first","1","nn05as22","1","21","1","1","3","1","","0","1","0","null","","","<img src = 'targets/13.png' width = '100%;'>","null","","","","","","","","","",""
"","html-keyboard-response","178","609189","0.0-10.0-3.9","qblt0wlpof","many_one","0","direct_first","1","nn05as22","1","21","1","1","3","1","","0","1","0","789.7100000118371","","","<img src = 'targets/mask.png' width = '100%;'>","75","neg","GS","GSold","1","category1/CS9.png","","targets/13.png","indirect","1","9"
"","html-keyboard-response","179","610712","0.0-10.0-0.10","qblt0wlpof","many_one","0","direct_first","1","nn05as22","1","21","1","1","3","1","","0","1","0","null","","","<div style=""font-size:60px;"">+</div>","null","","","","","","","","","",""
"","html-keyboard-response","180","610808","0.0-10.0-1.10","qblt0wlpof","many_one","0","direct_first","1","nn05as22","1","21","1","1","3","1","","0","1","0","null","","","<img src = 'category1/CS10.png' width = '100%;'>","null","","","","","","","","","",""
"","html-keyboard-response","181","611069","0.0-10.0-2.10","qblt0wlpof","many_one","0","direct_first","1","nn05as22","1","21","1","1","3","1","","0","1","0","null","","","<img src = 'targets/20.png' width = '100%;'>","null","","","","","","","","","",""
"","html-keyboard-response","182","611798","0.0-10.0-3.10","qblt0wlpof","many_one","0","direct_first","1","nn05as22","1","21","1","1","3","1","","0","1","0","726.1500000022352","","","<img src = 'targets/mask.png' width = '100%;'>","75","neg","CS","CS","1","category1/CS10.png","","targets/20.png","indirect","1","10"
"","html-keyboard-response","183","613325","0.0-10.0-0.11","qblt0wlpof","many_one","0","direct_first","1","nn05as22","1","21","1","1","3","1","","0","1","0","null","","","<div style=""font-size:60px;"">+</div>","null","","","","","","","","","",""
"","html-keyboard-response","184","613424","0.0-10.0-1.11","qblt0wlpof","many_one","0","direct_first","1","nn05as22","1","21","1","1","3","1","","0","1","0","null","","","<img src = 'category3/CS6.png' width = '100%;'>","null","","","","","","","","","",""
"","html-keyboard-response","185","613691","0.0-10.0-2.11","qblt0wlpof","many_one","0","direct_first","1","nn05as22","1","21","1","1","3","1","","0","1","0","null","","","<img src = 'targets/37.png' width = '100%;'>","null","","","","","","","","","",""
"","html-keyboard-response","186","614212","0.0-10.0-3.11","qblt0wlpof","many_one","0","direct_first","1","nn05as22","1","21","1","1","3","1","","0","1","0","518.4599999920465","","","<img src = 'targets/mask.png' width = '100%;'>","75","neg","CS","CS","3","category3/CS6.png","","targets/37.png","indirect","1","11"
"","html-keyboard-response","187","615726","0.0-10.0-0.12","qblt0wlpof","many_one","0","direct_first","1","nn05as22","1","21","1","1","3","1","","0","1","0","null","","","<div style=""font-size:60px;"">+</div>","null","","","","","","","","","",""
"","html-keyboard-response","188","615824","0.0-10.0-1.12","qblt0wlpof","many_one","0","direct_first","1","nn05as22","1","21","1","1","3","1","","0","1","0","null","","","<img src = 'category4/CS1.png' width = '100%;'>","null","","","","","","","","","",""
"","html-keyboard-response","189","616092","0.0-10.0-2.12","qblt0wlpof","many_one","0","direct_first","1","nn05as22","1","21","1","1","3","1","","0","1","0","null","","","<img src = 'targets/21.png' width = '100%;'>","null","","","","","","","","","",""
"","html-keyboard-response","190","616685","0.0-10.0-3.12","qblt0wlpof","many_one","0","direct_first","1","nn05as22","1","21","1","1","3","1","","0","1","0","590.040000010049","","","<img src = 'targets/mask.png' width = '100%;'>","68","pos","CS","CS","4","category4/CS1.png","","targets/21.png","indirect","0","12"
"","html-keyboard-response","191","618197","0.0-10.0-0.13","qblt0wlpof","many_one","0","direct_first","1","nn05as22","1","21","1","1","3","1","","0","1","0","null","","","<div style=""font-size:60px;"">+</div>","null","","","","","","","","","",""
"","html-keyboard-response","192","618300","0.0-10.0-1.13","qblt0wlpof","many_one","0","direct_first","1","nn05as22","1","21","1","1","3","1","","0","1","0","null","","","<img src = 'category4/CS8.png' width = '100%;'>","null","","","","","","","","","",""
"","html-keyboard-response","193","618565","0.0-10.0-2.13","qblt0wlpof","many_one","0","direct_first","1","nn05as22","1","21","1","1","3","1","","0","1","0","null","","","<img src = 'targets/8.png' width = '100%;'>","null","","","","","","","","","",""
"","html-keyboard-response","194","619035","0.0-10.0-3.13","qblt0wlpof","many_one","0","direct_first","1","nn05as22","1","21","1","1","3","1","","0","1","0","467.48500000103377","","","<img src = 'targets/mask.png' width = '100%;'>","75","pos","CS","CS","4","category4/CS8.png","","targets/8.png","indirect","1","13"
"","html-keyboard-response","195","620550","0.0-10.0-0.14","qblt0wlpof","many_one","0","direct_first","1","nn05as22","1","21","1","1","3","1","","0","1","0","null","","","<div style=""font-size:60px;"">+</div>","null","","","","","","","","","",""
"","html-keyboard-response","196","620656","0.0-10.0-1.14","qblt0wlpof","many_one","0","direct_first","1","nn05as22","1","21","1","1","3","1","","0","1","0","null","","","<img src = 'category3/CS1.png' width = '100%;'>","null","","","","","","","","","",""
"","html-keyboard-response","197","620915","0.0-10.0-2.14","qblt0wlpof","many_one","0","direct_first","1","nn05as22","1","21","1","1","3","1","","0","1","0","null","","","<img src = 'targets/10.png' width = '100%;'>","null","","","","","","","","","",""
"","html-keyboard-response","198","621393","0.0-10.0-3.14","qblt0wlpof","many_one","0","direct_first","1","nn05as22","1","21","1","1","3","1","","0","1","0","475.1200000173412","","","<img src = 'targets/mask.png' width = '100%;'>","75","neg","CS","CS","3","category3/CS1.png","","targets/10.png","indirect","1","14"
"","html-keyboard-response","199","622911","0.0-10.0-0.15","qblt0wlpof","many_one","0","direct_first","1","nn05as22","1","21","1","1","3","1","","0","1","0","null","","","<div style=""font-size:60px;"">+</div>","null","","","","","","","","","",""
"","html-keyboard-response","200","623014","0.0-10.0-1.15","qblt0wlpof","many_one","0","direct_first","1","nn05as22","1","21","1","1","3","1","","0","1","0","null","","","<img src = 'category1/CS7.png' width = '100%;'>","null","","","","","","","","","",""
"","html-keyboard-response","201","623279","0.0-10.0-2.15","qblt0wlpof","many_one","0","direct_first","1","nn05as22","1","21","1","1","3","1","","0","1","0","null","","","<img src = 'targets/19.png' width = '100%;'>","null","","","","","","","","","",""
"","html-keyboard-response","202","623721","0.0-10.0-3.15","qblt0wlpof","many_one","0","direct_first","1","nn05as22","1","21","1","1","3","1","","0","1","0","439.69500000821427","","","<img src = 'targets/mask.png' width = '100%;'>","68","neg","CS","CS","1","category1/CS7.png","","targets/19.png","indirect","0","15"
"","html-keyboard-response","203","625228","0.0-10.0-0.16","qblt0wlpof","many_one","0","direct_first","1","nn05as22","1","21","1","1","3","1","","0","1","0","null","","","<div style=""font-size:60px;"">+</div>","null","","","","","","","","","",""
"","html-keyboard-response","204","625322","0.0-10.0-1.16","qblt0wlpof","many_one","0","direct_first","1","nn05as22","1","21","1","1","3","1","","0","1","0","null","","","<img src = 'category2/CS2.png' width = '100%;'>","null","","","","","","","","","",""
"","html-keyboard-response","205","625581","0.0-10.0-2.16","qblt0wlpof","many_one","0","direct_first","1","nn05as22","1","21","1","1","3","1","","0","1","0","null","","","<img src = 'targets/42.png' width = '100%;'>","null","","","","","","","","","",""
"","html-keyboard-response","206","626013","0.0-10.0-3.16","qblt0wlpof","many_one","0","direct_first","1","nn05as22","1","21","1","1","3","1","","0","1","0","430.7050000061281","","","<img src = 'targets/mask.png' width = '100%;'>","75","pos","CS","CS","2","category2/CS2.png","","targets/42.png","indirect","1","16"
"","html-keyboard-response","207","627528","0.0-10.0-0.17","qblt0wlpof","many_one","0","direct_first","1","nn05as22","1","21","1","1","3","1","","0","1","0","null","","","<div style=""font-size:60px;"">+</div>","null","","","","","","","","","",""
"","html-keyboard-response","208","627628","0.0-10.0-1.17","qblt0wlpof","many_one","0","direct_first","1","nn05as22","1","21","1","1","3","1","","0","1","0","null","","","<img src = 'category1/CS3.png' width = '100%;'>","null","","","","","","","","","",""
"","html-keyboard-response","209","627895","0.0-10.0-2.17","qblt0wlpof","many_one","0","direct_first","1","nn05as22","1","21","1","1","3","1","","0","1","0","null","","","<img src = 'targets/5.png' width = '100%;'>","null","","","","","","","","","",""
"","html-keyboard-response","210","628321","0.0-10.0-3.17","qblt0wlpof","many_one","0","direct_first","1","nn05as22","1","21","1","1","3","1","","0","1","0","424.7849999810569","","","<img src = 'targets/mask.png' width = '100%;'>","75","neg","GS","GSold","1","category1/CS3.png","","targets/5.png","indirect","1","17"
"","html-keyboard-response","211","629842","0.0-10.0-0.18","qblt0wlpof","many_one","0","direct_first","1","nn05as22","1","21","1","1","3","1","","0","1","0","null","","","<div style=""font-size:60px;"">+</div>","null","","","","","","","","","",""
"","html-keyboard-response","212","629948","0.0-10.0-1.18","qblt0wlpof","many_one","0","direct_first","1","nn05as22","1","21","1","1","3","1","","0","1","0","null","","","<img src = 'category4/CS9.png' width = '100%;'>","null","","","","","","","","","",""
"","html-keyboard-response","213","630214","0.0-10.0-2.18","qblt0wlpof","many_one","0","direct_first","1","nn05as22","1","21","1","1","3","1","","0","1","0","null","","","<img src = 'targets/38.png' width = '100%;'>","null","","","","","","","","","",""
"","html-keyboard-response","214","630624","0.0-10.0-3.18","qblt0wlpof","many_one","0","direct_first","1","nn05as22","1","21","1","1","3","1","","0","1","0","407.7899999974761","","","<img src = 'targets/mask.png' width = '100%;'>","75","pos","CS","CS","4","category4/CS9.png","","targets/38.png","indirect","1","18"
"","html-keyboard-response","215","632140","0.0-10.0-0.19","qblt0wlpof","many_one","0","direct_first","1","nn05as22","1","21","1","1","3","1","","0","1","0","null","","","<div style=""font-size:60px;"">+</div>","null","","","","","","","","","",""
"","html-keyboard-response","216","632241","0.0-10.0-1.19","qblt0wlpof","many_one","0","direct_first","1","nn05as22","1","21","1","1","3","1","","0","1","0","null","","","<img src = 'category1/CS2.png' width = '100%;'>","null","","","","","","","","","",""
"","html-keyboard-response","217","632509","0.0-10.0-2.19","qblt0wlpof","many_one","0","direct_first","1","nn05as22","1","21","1","1","3","1","","0","1","0","null","","","<img src = 'targets/35.png' width = '100%;'>","null","","","","","","","","","",""
"","html-keyboard-response","218","633104","0.0-10.0-3.19","qblt0wlpof","many_one","0","direct_first","1","nn05as22","1","21","1","1","3","1","","0","1","0","592.2500000160653","","","<img src = 'targets/mask.png' width = '100%;'>","75","neg","GS","GSold","1","category1/CS2.png","","targets/35.png","indirect","1","19"
"","html-keyboard-response","219","634627","0.0-10.0-0.20","qblt0wlpof","many_one","0","direct_first","1","nn05as22","1","21","1","1","3","1","","0","1","0","null","","","<div style=""font-size:60px;"">+</div>","null","","","","","","","","","",""
"","html-keyboard-response","220","634733","0.0-10.0-1.20","qblt0wlpof","many_one","0","direct_first","1","nn05as22","1","21","1","1","3","1","","0","1","0","null","","","<img src = 'category3/CS2.png' width = '100%;'>","null","","","","","","","","","",""
"","html-keyboard-response","221","634993","0.0-10.0-2.20","qblt0wlpof","many_one","0","direct_first","1","nn05as22","1","21","1","1","3","1","","0","1","0","null","","","<img src = 'targets/7.png' width = '100%;'>","null","","","","","","","","","",""
"","html-keyboard-response","222","635335","0.0-10.0-3.20","qblt0wlpof","many_one","0","direct_first","1","nn05as22","1","21","1","1","3","1","","0","1","0","338.900000002468","","","<img src = 'targets/mask.png' width = '100%;'>","68","neg","CS","CS","3","category3/CS2.png","","targets/7.png","indirect","0","20"
"","html-keyboard-response","223","636851","0.0-10.0-0.21","qblt0wlpof","many_one","0","direct_first","1","nn05as22","1","21","1","1","3","1","","0","1","0","null","","","<div style=""font-size:60px;"">+</div>","null","","","","","","","","","",""
"","html-keyboard-response","224","636954","0.0-10.0-1.21","qblt0wlpof","many_one","0","direct_first","1","nn05as22","1","21","1","1","3","1","","0","1","0","null","","","<img src = 'category1/CS5.png' width = '100%;'>","null","","","","","","","","","",""
"","html-keyboard-response","225","637219","0.0-10.0-2.21","qblt0wlpof","many_one","0","direct_first","1","nn05as22","1","21","1","1","3","1","","0","1","0","null","","","<img src = 'targets/31.png' width = '100%;'>","null","","","","","","","","","",""
"","html-keyboard-response","226","637733","0.0-10.0-3.21","qblt0wlpof","many_one","0","direct_first","1","nn05as22","1","21","1","1","3","1","","0","1","0","511.96999999228865","","","<img src = 'targets/mask.png' width = '100%;'>","75","neg","CS","CS","1","category1/CS5.png","","targets/31.png","indirect","1","21"
"","html-keyboard-response","227","639256","0.0-10.0-0.22","qblt0wlpof","many_one","0","direct_first","1","nn05as22","1","21","1","1","3","1","","0","1","0","null","","","<div style=""font-size:60px;"">+</div>","null","","","","","","","","","",""
"","html-keyboard-response","228","639361","0.0-10.0-1.22","qblt0wlpof","many_one","0","direct_first","1","nn05as22","1","21","1","1","3","1","","0","1","0","null","","","<img src = 'category1/CS4.png' width = '100%;'>","null","","","","","","","","","",""
"","html-keyboard-response","229","639651","0.0-10.0-2.22","qblt0wlpof","many_one","0","direct_first","1","nn05as22","1","21","1","1","3","1","","0","1","0","null","","","<img src = 'targets/3.png' width = '100%;'>","null","","","","","","","","","",""
"","html-keyboard-response","230","640047","0.0-10.0-3.22","qblt0wlpof","many_one","0","direct_first","1","nn05as22","1","21","1","1","3","1","","0","1","0","394.2449999740347","","","<img src = 'targets/mask.png' width = '100%;'>","75","neg","CS","CS","1","category1/CS4.png","","targets/3.png","indirect","1","22"
"","html-keyboard-response","231","641588","0.0-10.0-0.23","qblt0wlpof","many_one","0","direct_first","1","nn05as22","1","21","1","1","3","1","","0","1","0","null","","","<div style=""font-size:60px;"">+</div>","null","","","","","","","","","",""
"","html-keyboard-response","232","641691","0.0-10.0-1.23","qblt0wlpof","many_one","0","direct_first","1","nn05as22","1","21","1","1","3","1","","0","1","0","null","","","<img src = 'category4/CS6.png' width = '100%;'>","null","","","","","","","","","",""
"","html-keyboard-response","233","641957","0.0-10.0-2.23","qblt0wlpof","many_one","0","direct_first","1","nn05as22","1","21","1","1","3","1","","0","1","0","null","","","<img src = 'targets/43.png' width = '100%;'>","null","","","","","","","","","",""
"","html-keyboard-response","234","642312","0.0-10.0-3.23","qblt0wlpof","many_one","0","direct_first","1","nn05as22","1","21","1","1","3","1","","0","1","0","352.64500000630505","","","<img src = 'targets/mask.png' width = '100%;'>","68","pos","CS","CS","4","category4/CS6.png","","targets/43.png","indirect","0","23"
"","survey-html-form","235","645569","0.0-11.0","qblt0wlpof","many_one","0","direct_first","1","nn05as22","1","21","1","1","3","1","","0","1","0","2748.0949999880977","","{}","","","","","","","","","","","",""
"","html-keyboard-response","236","648582","0.0-12.0-0.0","qblt0wlpof","many_one","0","direct_first","1","nn05as22","1","21","1","1","3","1","","0","1","0","null","","","<div style=""font-size:60px;"">+</div>","null","","","","","","","","","",""
"","html-keyboard-response","237","648685","0.0-12.0-1.0","qblt0wlpof","many_one","0","direct_first","1","nn05as22","1","21","1","1","3","1","","0","1","0","null","","","<img src = 'category2/GS2.png' width = '100%;'>","null","","","","","","","","","",""
"","html-keyboard-response","238","648950","0.0-12.0-2.0","qblt0wlpof","many_one","0","direct_first","1","nn05as22","1","21","1","1","3","1","","0","1","0","null","","","<img src = 'targets/45.png' width = '100%;'>","null","","","","","","","","","",""
"","html-keyboard-response","239","649347","0.0-12.0-3.0","qblt0wlpof","many_one","0","direct_first","1","nn05as22","1","21","1","1","3","1","","0","1","0","395.5499999865424","","","<img src = 'targets/mask.png' width = '100%;'>","75","pos","GS","GSnew","2","category2/GS2.png","","targets/45.png","indirect","1","24"
"","html-keyboard-response","240","650863","0.0-12.0-0.1","qblt0wlpof","many_one","0","direct_first","1","nn05as22","1","21","1","1","3","1","","0","1","0","null","","","<div style=""font-size:60px;"">+</div>","null","","","","","","","","","",""
"","html-keyboard-response","241","650967","0.0-12.0-1.1","qblt0wlpof","many_one","0","direct_first","1","nn05as22","1","21","1","1","3","1","","0","1","0","null","","","<img src = 'category3/GS1.png' width = '100%;'>","null","","","","","","","","","",""
"","html-keyboard-response","242","651233","0.0-12.0-2.1","qblt0wlpof","many_one","0","direct_first","1","nn05as22","1","21","1","1","3","1","","0","1","0","null","","","<img src = 'targets/48.png' width = '100%;'>","null","","","","","","","","","",""
"","html-keyboard-response","243","654674","0.0-12.0-3.1","qblt0wlpof","many_one","0","direct_first","1","nn05as22","1","21","1","1","3","1","","0","1","0","3438.3600000001024","","","<img src = 'targets/mask.png' width = '100%;'>","68","neg","GS","GSnew","3","category3/GS1.png","","targets/48.png","indirect","0","25"
"","html-keyboard-response","244","656191","0.0-12.0-0.2","qblt0wlpof","many_one","0","direct_first","1","nn05as22","1","21","1","1","3","1","","0","1","0","null","","","<div style=""font-size:60px;"">+</div>","null","","","","","","","","","",""
"","html-keyboard-response","245","656287","0.0-12.0-1.2","qblt0wlpof","many_one","0","direct_first","1","nn05as22","1","21","1","1","3","1","","0","1","0","null","","","<img src = 'category3/wang.png' width = '100%;'>","null","","","","","","","","","",""
"","html-keyboard-response","246","656560","0.0-12.0-2.2","qblt0wlpof","many_one","0","direct_first","1","nn05as22","1","21","1","1","3","1","","0","1","0","null","","","<img src = 'targets/46.png' width = '100%;'>","null","","","","","","","","","",""
"","html-keyboard-response","247","657112","0.0-12.0-3.2","qblt0wlpof","many_one","0","direct_first","1","nn05as22","1","21","1","1","3","1","","0","1","0","550.5600000033155","","","<img src = 'targets/mask.png' width = '100%;'>","75","neg","GS","abstract","3","category3/wang.png","","targets/46.png","indirect","1","26"
"","html-keyboard-response","248","658631","0.0-12.0-0.3","qblt0wlpof","many_one","0","direct_first","1","nn05as22","1","21","1","1","3","1","","0","1","0","null","","","<div style=""font-size:60px;"">+</div>","null","","","","","","","","","",""
"","html-keyboard-response","249","658731","0.0-12.0-1.3","qblt0wlpof","many_one","0","direct_first","1","nn05as22","1","21","1","1","3","1","","0","1","0","null","","","<img src = 'category4/GS1.png' width = '100%;'>","null","","","","","","","","","",""
"","html-keyboard-response","250","658991","0.0-12.0-2.3","qblt0wlpof","many_one","0","direct_first","1","nn05as22","1","21","1","1","3","1","","0","1","0","null","","","<img src = 'targets/9.png' width = '100%;'>","null","","","","","","","","","",""
"","html-keyboard-response","251","659421","0.0-12.0-3.3","qblt0wlpof","many_one","0","direct_first","1","nn05as22","1","21","1","1","3","1","","0","1","0","428.08000001241453","","","<img src = 'targets/mask.png' width = '100%;'>","75","pos","GS","GSnew","4","category4/GS1.png","","targets/9.png","indirect","1","27"
"","html-keyboard-response","252","660938","0.0-12.0-0.4","qblt0wlpof","many_one","0","direct_first","1","nn05as22","1","21","1","1","3","1","","0","1","0","null","","","<div style=""font-size:60px;"">+</div>","null","","","","","","","","","",""
"","html-keyboard-response","253","661042","0.0-12.0-1.4","qblt0wlpof","many_one","0","direct_first","1","nn05as22","1","21","1","1","3","1","","0","1","0","null","","","<img src = 'category1/GS3.png' width = '100%;'>","null","","","","","","","","","",""
"","html-keyboard-response","254","661305","0.0-12.0-2.4","qblt0wlpof","many_one","0","direct_first","1","nn05as22","1","21","1","1","3","1","","0","1","0","null","","","<img src = 'targets/39.png' width = '100%;'>","null","","","","","","","","","",""
"","html-keyboard-response","255","661640","0.0-12.0-3.4","qblt0wlpof","many_one","0","direct_first","1","nn05as22","1","21","1","1","3","1","","0","1","0","332.0899999816902","","","<img src = 'targets/mask.png' width = '100%;'>","75","neg","GS","GSnew","1","category1/GS3.png","","targets/39.png","indirect","1","28"
"","html-keyboard-response","256","663154","0.0-12.0-0.5","qblt0wlpof","many_one","0","direct_first","1","nn05as22","1","21","1","1","3","1","","0","1","0","null","","","<div style=""font-size:60px;"">+</div>","null","","","","","","","","","",""
"","html-keyboard-response","257","663255","0.0-12.0-1.5","qblt0wlpof","many_one","0","direct_first","1","nn05as22","1","21","1","1","3","1","","0","1","0","null","","","<img src = 'category4/CS2.png' width = '100%;'>","null","","","","","","","","","",""
"","html-keyboard-response","258","663524","0.0-12.0-2.5","qblt0wlpof","many_one","0","direct_first","1","nn05as22","1","21","1","1","3","1","","0","1","0","null","","","<img src = 'targets/44.png' width = '100%;'>","null","","","","","","","","","",""
"","html-keyboard-response","259","664002","0.0-12.0-3.5","qblt0wlpof","many_one","0","direct_first","1","nn05as22","1","21","1","1","3","1","","0","1","0","476.8700000131503","","","<img src = 'targets/mask.png' width = '100%;'>","75","pos","GS","GSold","4","category4/CS2.png","","targets/44.png","indirect","1","29"
"","html-keyboard-response","260","665524","0.0-12.0-0.6","qblt0wlpof","many_one","0","direct_first","1","nn05as22","1","21","1","1","3","1","","0","1","0","null","","","<div style=""font-size:60px;"">+</div>","null","","","","","","","","","",""
"","html-keyboard-response","261","665622","0.0-12.0-1.6","qblt0wlpof","many_one","0","direct_first","1","nn05as22","1","21","1","1","3","1","","0","1","0","null","","","<img src = 'category1/ma.png' width = '100%;'>","null","","","","","","","","","",""
"","html-keyboard-response","262","665884","0.0-12.0-2.6","qblt0wlpof","many_one","0","direct_first","1","nn05as22","1","21","1","1","3","1","","0","1","0","null","","","<img src = 'targets/47.png' width = '100%;'>","null","","","","","","","","","",""
"","html-keyboard-response","263","666240","0.0-12.0-3.6","qblt0wlpof","many_one","0","direct_first","1","nn05as22","1","21","1","1","3","1","","0","1","0","353.88499998953193","","","<img src = 'targets/mask.png' width = '100%;'>","75","neg","GS","abstract","1","category1/ma.png","","targets/47.png","indirect","1","30"
"","html-keyboard-response","264","667753","0.0-12.0-0.7","qblt0wlpof","many_one","0","direct_first","1","nn05as22","1","21","1","1","3","1","","0","1","0","null","","","<div style=""font-size:60px;"">+</div>","null","","","","","","","","","",""
"","html-keyboard-response","265","667854","0.0-12.0-1.7","qblt0wlpof","many_one","0","direct_first","1","nn05as22","1","21","1","1","3","1","","0","1","0","null","","","<img src = 'category4/GS3.png' width = '100%;'>","null","","","","","","","","","",""
"","html-keyboard-response","266","668116","0.0-12.0-2.7","qblt0wlpof","many_one","0","direct_first","1","nn05as22","1","21","1","1","3","1","","0","1","0","null","","","<img src = 'targets/26.png' width = '100%;'>","null","","","","","","","","","",""
"","html-keyboard-response","267","668447","0.0-12.0-3.7","qblt0wlpof","many_one","0","direct_first","1","nn05as22","1","21","1","1","3","1","","0","1","0","329.9600000027567","","","<img src = 'targets/mask.png' width = '100%;'>","75","pos","GS","GSnew","4","category4/GS3.png","","targets/26.png","indirect","1","31"
"","html-keyboard-response","268","669972","0.0-12.0-0.8","qblt0wlpof","many_one","0","direct_first","1","nn05as22","1","21","1","1","3","1","","0","1","0","null","","","<div style=""font-size:60px;"">+</div>","null","","","","","","","","","",""
"","html-keyboard-response","269","670068","0.0-12.0-1.8","qblt0wlpof","many_one","0","direct_first","1","nn05as22","1","21","1","1","3","1","","0","1","0","null","","","<img src = 'category3/GS2.png' width = '100%;'>","null","","","","","","","","","",""
"","html-keyboard-response","270","670340","0.0-12.0-2.8","qblt0wlpof","many_one","0","direct_first","1","nn05as22","1","21","1","1","3","1","","0","1","0","null","","","<img src = 'targets/28.png' width = '100%;'>","null","","","","","","","","","",""
"","html-keyboard-response","271","670871","0.0-12.0-3.8","qblt0wlpof","many_one","0","direct_first","1","nn05as22","1","21","1","1","3","1","","0","1","0","529.58000000217","","","<img src = 'targets/mask.png' width = '100%;'>","68","neg","GS","GSnew","3","category3/GS2.png","","targets/28.png","indirect","0","32"
"","html-keyboard-response","272","672381","0.0-12.0-0.9","qblt0wlpof","many_one","0","direct_first","1","nn05as22","1","21","1","1","3","1","","0","1","0","null","","","<div style=""font-size:60px;"">+</div>","null","","","","","","","","","",""
"","html-keyboard-response","273","672483","0.0-12.0-1.9","qblt0wlpof","many_one","0","direct_first","1","nn05as22","1","21","1","1","3","1","","0","1","0","null","","","<img src = 'category4/lin.png' width = '100%;'>","null","","","","","","","","","",""
"","html-keyboard-response","274","672747","0.0-12.0-2.9","qblt0wlpof","many_one","0","direct_first","1","nn05as22","1","21","1","1","3","1","","0","1","0","null","","","<img src = 'targets/23.png' width = '100%;'>","null","","","","","","","","","",""
"","html-keyboard-response","275","673137","0.0-12.0-3.9","qblt0wlpof","many_one","0","direct_first","1","nn05as22","1","21","1","1","3","1","","0","1","0","388.35999998264015","","","<img src = 'targets/mask.png' width = '100%;'>","75","pos","GS","abstract","4","category4/lin.png","","targets/23.png","indirect","1","33"
"","html-keyboard-response","276","674659","0.0-12.0-0.10","qblt0wlpof","many_one","0","direct_first","1","nn05as22","1","21","1","1","3","1","","0","1","0","null","","","<div style=""font-size:60px;"">+</div>","null","","","","","","","","","",""
"","html-keyboard-response","277","674752","0.0-12.0-1.10","qblt0wlpof","many_one","0","direct_first","1","nn05as22","1","21","1","1","3","1","","0","1","0","null","","","<img src = 'category3/GS3.png' width = '100%;'>","null","","","","","","","","","",""
"","html-keyboard-response","278","675015","0.0-12.0-2.10","qblt0wlpof","many_one","0","direct_first","1","nn05as22","1","21","1","1","3","1","","0","1","0","null","","","<img src = 'targets/1.png' width = '100%;'>","null","","","","","","","","","",""
"","html-keyboard-response","279","675417","0.0-12.0-3.10","qblt0wlpof","many_one","0","direct_first","1","nn05as22","1","21","1","1","3","1","","0","1","0","401.1400000017602","","","<img src = 'targets/mask.png' width = '100%;'>","75","neg","GS","GSnew","3","category3/GS3.png","","targets/1.png","indirect","1","34"
"","html-keyboard-response","280","676929","0.0-12.0-0.11","qblt0wlpof","many_one","0","direct_first","1","nn05as22","1","21","1","1","3","1","","0","1","0","null","","","<div style=""font-size:60px;"">+</div>","null","","","","","","","","","",""
"","html-keyboard-response","281","677029","0.0-12.0-1.11","qblt0wlpof","many_one","0","direct_first","1","nn05as22","1","21","1","1","3","1","","0","1","0","null","","","<img src = 'category2/CS9.png' width = '100%;'>","null","","","","","","","","","",""
"","html-keyboard-response","282","677297","0.0-12.0-2.11","qblt0wlpof","many_one","0","direct_first","1","nn05as22","1","21","1","1","3","1","","0","1","0","null","","","<img src = 'targets/18.png' width = '100%;'>","null","","","","","","","","","",""
"","html-keyboard-response","283","677919","0.0-12.0-3.11","qblt0wlpof","many_one","0","direct_first","1","nn05as22","1","21","1","1","3","1","","0","1","0","619.6899999922607","","","<img src = 'targets/mask.png' width = '100%;'>","75","pos","GS","GSold","2","category2/CS9.png","","targets/18.png","indirect","1","35"
"","html-keyboard-response","284","679429","0.0-12.0-0.12","qblt0wlpof","many_one","0","direct_first","1","nn05as22","1","21","1","1","3","1","","0","1","0","null","","","<div style=""font-size:60px;"">+</div>","null","","","","","","","","","",""
"","html-keyboard-response","285","679530","0.0-12.0-1.12","qblt0wlpof","many_one","0","direct_first","1","nn05as22","1","21","1","1","3","1","","0","1","0","null","","","<img src = 'category3/CS8.png' width = '100%;'>","null","","","","","","","","","",""
"","html-keyboard-response","286","679796","0.0-12.0-2.12","qblt0wlpof","many_one","0","direct_first","1","nn05as22","1","21","1","1","3","1","","0","1","0","null","","","<img src = 'targets/33.png' width = '100%;'>","null","","","","","","","","","",""
"","html-keyboard-response","287","680452","0.0-12.0-3.12","qblt0wlpof","many_one","0","direct_first","1","nn05as22","1","21","1","1","3","1","","0","1","0","654.3500000261702","","","<img src = 'targets/mask.png' width = '100%;'>","75","neg","GS","GSold","3","category3/CS8.png","","targets/33.png","indirect","1","36"
"","html-keyboard-response","288","681961","0.0-12.0-0.13","qblt0wlpof","many_one","0","direct_first","1","nn05as22","1","21","1","1","3","1","","0","1","0","null","","","<div style=""font-size:60px;"">+</div>","null","","","","","","","","","",""
"","html-keyboard-response","289","682066","0.0-12.0-1.13","qblt0wlpof","many_one","0","direct_first","1","nn05as22","1","21","1","1","3","1","","0","1","0","null","","","<img src = 'category2/CS4.png' width = '100%;'>","null","","","","","","","","","",""
"","html-keyboard-response","290","682332","0.0-12.0-2.13","qblt0wlpof","many_one","0","direct_first","1","nn05as22","1","21","1","1","3","1","","0","1","0","null","","","<img src = 'targets/6.png' width = '100%;'>","null","","","","","","","","","",""
"","html-keyboard-response","291","682980","0.0-12.0-3.13","qblt0wlpof","many_one","0","direct_first","1","nn05as22","1","21","1","1","3","1","","0","1","0","646.40500000678","","","<img src = 'targets/mask.png' width = '100%;'>","68","pos","GS","GSold","2","category2/CS4.png","","targets/6.png","indirect","0","37"
"","html-keyboard-response","292","684505","0.0-12.0-0.14","qblt0wlpof","many_one","0","direct_first","1","nn05as22","1","21","1","1","3","1","","0","1","0","null","","","<div style=""font-size:60px;"">+</div>","null","","","","","","","","","",""
"","html-keyboard-response","293","684608","0.0-12.0-1.14","qblt0wlpof","many_one","0","direct_first","1","nn05as22","1","21","1","1","3","1","","0","1","0","null","","","<img src = 'category2/CS10.png' width = '100%;'>","null","","","","","","","","","",""
"","html-keyboard-response","294","684874","0.0-12.0-2.14","qblt0wlpof","many_one","0","direct_first","1","nn05as22","1","21","1","1","3","1","","0","1","0","null","","","<img src = 'targets/41.png' width = '100%;'>","null","","","","","","","","","",""
"","html-keyboard-response","295","685370","0.0-12.0-3.14","qblt0wlpof","many_one","0","direct_first","1","nn05as22","1","21","1","1","3","1","","0","1","0","493.0949999834411","","","<img src = 'targets/mask.png' width = '100%;'>","75","pos","GS","GSold","2","category2/CS10.png","","targets/41.png","indirect","1","38"
"","html-keyboard-response","296","686901","0.0-12.0-0.15","qblt0wlpof","many_one","0","direct_first","1","nn05as22","1","21","1","1","3","1","","0","1","0","null","","","<div style=""font-size:60px;"">+</div>","null","","","","","","","","","",""
"","html-keyboard-response","297","686995","0.0-12.0-1.15","qblt0wlpof","many_one","0","direct_first","1","nn05as22","1","21","1","1","3","1","","0","1","0","null","","","<img src = 'category2/GS1.png' width = '100%;'>","null","","","","","","","","","",""
"","html-keyboard-response","298","687255","0.0-12.0-2.15","qblt0wlpof","many_one","0","direct_first","1","nn05as22","1","21","1","1","3","1","","0","1","0","null","","","<img src = 'targets/2.png' width = '100%;'>","null","","","","","","","","","",""
"","html-keyboard-response","299","687653","0.0-12.0-3.15","qblt0wlpof","many_one","0","direct_first","1","nn05as22","1","21","1","1","3","1","","0","1","0","397.0099999860395","","","<img src = 'targets/mask.png' width = '100%;'>","75","pos","GS","GSnew","2","category2/GS1.png","","targets/2.png","indirect","1","39"
"","html-keyboard-response","300","689170","0.0-12.0-0.16","qblt0wlpof","many_one","0","direct_first","1","nn05as22","1","21","1","1","3","1","","0","1","0","null","","","<div style=""font-size:60px;"">+</div>","null","","","","","","","","","",""
"","html-keyboard-response","301","689275","0.0-12.0-1.16","qblt0wlpof","many_one","0","direct_first","1","nn05as22","1","21","1","1","3","1","","0","1","0","null","","","<img src = 'category2/men.png' width = '100%;'>","null","","","","","","","","","",""
"","html-keyboard-response","302","689541","0.0-12.0-2.16","qblt0wlpof","many_one","0","direct_first","1","nn05as22","1","21","1","1","3","1","","0","1","0","null","","","<img src = 'targets/32.png' width = '100%;'>","null","","","","","","","","","",""
"","html-keyboard-response","303","689862","0.0-12.0-3.16","qblt0wlpof","many_one","0","direct_first","1","nn05as22","1","21","1","1","3","1","","0","1","0","317.0749999990221","","","<img src = 'targets/mask.png' width = '100%;'>","68","pos","GS","abstract","2","category2/men.png","","targets/32.png","indirect","0","40"
"","html-keyboard-response","304","691375","0.0-12.0-0.17","qblt0wlpof","many_one","0","direct_first","1","nn05as22","1","21","1","1","3","1","","0","1","0","null","","","<div style=""font-size:60px;"">+</div>","null","","","","","","","","","",""
"","html-keyboard-response","305","691471","0.0-12.0-1.17","qblt0wlpof","many_one","0","direct_first","1","nn05as22","1","21","1","1","3","1","","0","1","0","null","","","<img src = 'category4/GS2.png' width = '100%;'>","null","","","","","","","","","",""
"","html-keyboard-response","306","691735","0.0-12.0-2.17","qblt0wlpof","many_one","0","direct_first","1","nn05as22","1","21","1","1","3","1","","0","1","0","null","","","<img src = 'targets/15.png' width = '100%;'>","null","","","","","","","","","",""
"","html-keyboard-response","307","691938","0.0-12.0-3.17","qblt0wlpof","many_one","0","direct_first","1","nn05as22","1","21","1","1","3","1","","0","1","0","199.98999999370426","","","<img src = 'targets/mask.png' width = '100%;'>","75","pos","GS","GSnew","4","category4/GS2.png","","targets/15.png","indirect","1","41"
"","html-keyboard-response","308","693451","0.0-12.0-0.18","qblt0wlpof","many_one","0","direct_first","1","nn05as22","1","21","1","1","3","1","","0","1","0","null","","","<div style=""font-size:60px;"">+</div>","null","","","","","","","","","",""
"","html-keyboard-response","309","693555","0.0-12.0-1.18","qblt0wlpof","many_one","0","direct_first","1","nn05as22","1","21","1","1","3","1","","0","1","0","null","","","<img src = 'category3/CS9.png' width = '100%;'>","null","","","","","","","","","",""
"","html-keyboard-response","310","693824","0.0-12.0-2.18","qblt0wlpof","many_one","0","direct_first","1","nn05as22","1","21","1","1","3","1","","0","1","0","null","","","<img src = 'targets/24.png' width = '100%;'>","null","","","","","","","","","",""
"","html-keyboard-response","311","694273","0.0-12.0-3.18","qblt0wlpof","many_one","0","direct_first","1","nn05as22","1","21","1","1","3","1","","0","1","0","448.4649999940302","","","<img src = 'targets/mask.png' width = '100%;'>","75","neg","GS","GSold","3","category3/CS9.png","","targets/24.png","indirect","1","42"
"","html-keyboard-response","312","695782","0.0-12.0-0.19","qblt0wlpof","many_one","0","direct_first","1","nn05as22","1","21","1","1","3","1","","0","1","0","null","","","<div style=""font-size:60px;"">+</div>","null","","","","","","","","","",""
"","html-keyboard-response","313","695885","0.0-12.0-1.19","qblt0wlpof","many_one","0","direct_first","1","nn05as22","1","21","1","1","3","1","","0","1","0","null","","","<img src = 'category3/CS4.png' width = '100%;'>","null","","","","","","","","","",""
"","html-keyboard-response","314","696151","0.0-12.0-2.19","qblt0wlpof","many_one","0","direct_first","1","nn05as22","1","21","1","1","3","1","","0","1","0","null","","","<img src = 'targets/4.png' width = '100%;'>","null","","","","","","","","","",""
"","html-keyboard-response","315","696393","0.0-12.0-3.19","qblt0wlpof","many_one","0","direct_first","1","nn05as22","1","21","1","1","3","1","","0","1","0","241.039999993518","","","<img src = 'targets/mask.png' width = '100%;'>","68","neg","GS","GSold","3","category3/CS4.png","","targets/4.png","indirect","0","43"
"","html-keyboard-response","316","697908","0.0-12.0-0.20","qblt0wlpof","many_one","0","direct_first","1","nn05as22","1","21","1","1","3","1","","0","1","0","null","","","<div style=""font-size:60px;"">+</div>","null","","","","","","","","","",""
"","html-keyboard-response","317","698004","0.0-12.0-1.20","qblt0wlpof","many_one","0","direct_first","1","nn05as22","1","21","1","1","3","1","","0","1","0","null","","","<img src = 'category2/GS3.png' width = '100%;'>","null","","","","","","","","","",""
"","html-keyboard-response","318","698264","0.0-12.0-2.20","qblt0wlpof","many_one","0","direct_first","1","nn05as22","1","21","1","1","3","1","","0","1","0","null","","","<img src = 'targets/27.png' width = '100%;'>","null","","","","","","","","","",""
"","html-keyboard-response","319","698558","0.0-12.0-3.20","qblt0wlpof","many_one","0","direct_first","1","nn05as22","1","21","1","1","3","1","","0","1","0","292.2400000097696","","","<img src = 'targets/mask.png' width = '100%;'>","75","pos","GS","GSnew","2","category2/GS3.png","","targets/27.png","indirect","1","44"
"","html-keyboard-response","320","700077","0.0-12.0-0.21","qblt0wlpof","many_one","0","direct_first","1","nn05as22","1","21","1","1","3","1","","0","1","0","null","","","<div style=""font-size:60px;"">+</div>","null","","","","","","","","","",""
"","html-keyboard-response","321","700181","0.0-12.0-1.21","qblt0wlpof","many_one","0","direct_first","1","nn05as22","1","21","1","1","3","1","","0","1","0","null","","","<img src = 'category1/GS1.png' width = '100%;'>","null","","","","","","","","","",""
"","html-keyboard-response","322","700446","0.0-12.0-2.21","qblt0wlpof","many_one","0","direct_first","1","nn05as22","1","21","1","1","3","1","","0","1","0","null","","","<img src = 'targets/40.png' width = '100%;'>","null","","","","","","","","","",""
"","html-keyboard-response","323","700825","0.0-12.0-3.21","qblt0wlpof","many_one","0","direct_first","1","nn05as22","1","21","1","1","3","1","","0","1","0","377.57500002044253","","","<img src = 'targets/mask.png' width = '100%;'>","68","neg","GS","GSnew","1","category1/GS1.png","","targets/40.png","indirect","0","45"
"","html-keyboard-response","324","702360","0.0-12.0-0.22","qblt0wlpof","many_one","0","direct_first","1","nn05as22","1","21","1","1","3","1","","0","1","0","null","","","<div style=""font-size:60px;"">+</div>","null","","","","","","","","","",""
"","html-keyboard-response","325","702463","0.0-12.0-1.22","qblt0wlpof","many_one","0","direct_first","1","nn05as22","1","21","1","1","3","1","","0","1","0","null","","","<img src = 'category4/CS7.png' width = '100%;'>","null","","","","","","","","","",""
"","html-keyboard-response","326","702735","0.0-12.0-2.22","qblt0wlpof","many_one","0","direct_first","1","nn05as22","1","21","1","1","3","1","","0","1","0","null","","","<img src = 'targets/34.png' width = '100%;'>","null","","","","","","","","","",""
"","html-keyboard-response","327","702993","0.0-12.0-3.22","qblt0wlpof","many_one","0","direct_first","1","nn05as22","1","21","1","1","3","1","","0","1","0","255.68999999086373","","","<img src = 'targets/mask.png' width = '100%;'>","68","pos","GS","GSold","4","category4/CS7.png","","targets/34.png","indirect","0","46"
