"success","trial_type","trial_index","time_elapsed","internal_node_id","subject","condition","condition_code","measure","measure_code","codeword","gender","age","education","chinese","fach","handedness","comment","hinschauen","ablenkung","gewissenhaft","rt","url","responses","stimulus","key_press","val","type","type_specific","category","cs_selected","response","target","task","indirect","nr_pres"
"true","fullscreen","0","31672","0.0-0.0","gc1kgz4c05","one_one","1","direct_first","1","TA06AD23","0","22","1","1","3","1","","0","1","0","","","","","","","","","","","","","","",""
"","external-html","1","36075","0.0-1.0","gc1kgz4c05","one_one","1","direct_first","1","TA06AD23","0","22","1","1","3","1","","0","1","0","4343","text/information.html","","","","","","","","","","","","",""
"","external-html","2","54959","0.0-2.0","gc1kgz4c05","one_one","1","direct_first","1","TA06AD23","0","22","1","1","3","1","","0","1","0","18847","text/consent.html","","","","","","","","","","","","",""
"","survey-html-form","3","84620","0.0-3.0","gc1kgz4c05","one_one","1","direct_first","1","TA06AD23","0","22","1","1","3","1","","0","1","0","29659","","{""codeword_enter"":""TA06AD23""}","","","","","","","","","","","",""
"","survey-html-form","4","100668","0.0-4.0","gc1kgz4c05","one_one","1","direct_first","1","TA06AD23","0","22","1","1","3","1","","0","1","0","16046","","{""age"":""22"",""education"":""1"",""subject"":""3"",""gender"":""0"",""handedness"":""1"",""chinese"":""1""}","","","","","","","","","","","",""
"","survey-html-form","5","114611","0.0-5.0","gc1kgz4c05","one_one","1","direct_first","1","TA06AD23","0","22","1","1","3","1","","0","1","0","13942","","{}","","","","","","","","","","","",""
"","html-keyboard-response","6","118624","0.0-6.0-0.0-0.0","gc1kgz4c05","one_one","1","direct_first","1","TA06AD23","0","22","1","1","3","1","","0","1","0","null","","","<div class = 'row'><div class = 'column'><img src = 'category4/CS6.png' width = '70%;'></div><div class = 'column'><img src = 'uspos/2057.bmp' width = '100%;'></div></div>","null","pos","CS","CS","4","category4/CS6.png","","","","",""
"","html-keyboard-response","7","121132","0.0-6.0-0.0-0.1","gc1kgz4c05","one_one","1","direct_first","1","TA06AD23","0","22","1","1","3","1","","0","1","0","null","","","<div class = 'row'><div class = 'column'><img src = 'category2/CS8.png' width = '70%;'></div><div class = 'column'><img src = 'usneg/9520.bmp' width = '100%;'></div></div>","null","neg","CS","CS","2","category2/CS8.png","","","","",""
"","html-keyboard-response","8","123642","0.0-6.0-0.0-0.2","gc1kgz4c05","one_one","1","direct_first","1","TA06AD23","0","22","1","1","3","1","","0","1","0","null","","","<div class = 'row'><div class = 'column'><img src = 'usneg/6020.bmp' width = '100%;'></div><div class = 'column'><img src = 'category3/CS5.png' width = '70%;'></div></div>","null","neg","CS","CS","3","category3/CS5.png","","","","",""
"","html-keyboard-response","9","126159","0.0-6.0-0.0-0.3","gc1kgz4c05","one_one","1","direct_first","1","TA06AD23","0","22","1","1","3","1","","0","1","0","null","","","<div class = 'row'><div class = 'column'><img src = 'category1/CS6.png' width = '70%;'></div><div class = 'column'><img src = 'uspos/4625.bmp' width = '100%;'></div></div>","null","pos","CS","CS","1","category1/CS6.png","","","","",""
"","html-keyboard-response","10","128677","0.0-6.0-0.0-0.4","gc1kgz4c05","one_one","1","direct_first","1","TA06AD23","0","22","1","1","3","1","","0","1","0","null","","","<div class = 'row'><div class = 'column'><img src = 'usneg/6020.bmp' width = '100%;'></div><div class = 'column'><img src = 'category3/CS5.png' width = '70%;'></div></div>","null","neg","CS","CS","3","category3/CS5.png","","","","",""
"","html-keyboard-response","11","131186","0.0-6.0-0.0-0.5","gc1kgz4c05","one_one","1","direct_first","1","TA06AD23","0","22","1","1","3","1","","0","1","0","null","","","<div class = 'row'><div class = 'column'><img src = 'category2/CS8.png' width = '70%;'></div><div class = 'column'><img src = 'usneg/9520.bmp' width = '100%;'></div></div>","null","neg","CS","CS","2","category2/CS8.png","","","","",""
"","html-keyboard-response","12","133695","0.0-6.0-0.0-0.6","gc1kgz4c05","one_one","1","direct_first","1","TA06AD23","0","22","1","1","3","1","","0","1","0","null","","","<div class = 'row'><div class = 'column'><img src = 'usneg/6020.bmp' width = '100%;'></div><div class = 'column'><img src = 'category3/CS5.png' width = '70%;'></div></div>","null","neg","CS","CS","3","category3/CS5.png","","","","",""
"","html-keyboard-response","13","136204","0.0-6.0-0.0-0.7","gc1kgz4c05","one_one","1","direct_first","1","TA06AD23","0","22","1","1","3","1","","0","1","0","null","","","<div class = 'row'><div class = 'column'><img src = 'category4/CS6.png' width = '70%;'></div><div class = 'column'><img src = 'uspos/2057.bmp' width = '100%;'></div></div>","null","pos","CS","CS","4","category4/CS6.png","","","","",""
"","html-keyboard-response","14","138720","0.0-6.0-0.0-0.8","gc1kgz4c05","one_one","1","direct_first","1","TA06AD23","0","22","1","1","3","1","","0","1","0","null","","","<div class = 'row'><div class = 'column'><img src = 'category1/CS6.png' width = '70%;'></div><div class = 'column'><img src = 'uspos/4625.bmp' width = '100%;'></div></div>","null","pos","CS","CS","1","category1/CS6.png","","","","",""
"","html-keyboard-response","15","141230","0.0-6.0-0.0-0.9","gc1kgz4c05","one_one","1","direct_first","1","TA06AD23","0","22","1","1","3","1","","0","1","0","null","","","<div class = 'row'><div class = 'column'><img src = 'category4/CS6.png' width = '70%;'></div><div class = 'column'><img src = 'uspos/2057.bmp' width = '100%;'></div></div>","null","pos","CS","CS","4","category4/CS6.png","","","","",""
"","html-keyboard-response","16","143747","0.0-6.0-0.0-0.10","gc1kgz4c05","one_one","1","direct_first","1","TA06AD23","0","22","1","1","3","1","","0","1","0","null","","","<div class = 'row'><div class = 'column'><img src = 'usneg/9520.bmp' width = '100%;'></div><div class = 'column'><img src = 'category2/CS8.png' width = '70%;'></div></div>","null","neg","CS","CS","2","category2/CS8.png","","","","",""
"","html-keyboard-response","17","146257","0.0-6.0-0.0-0.11","gc1kgz4c05","one_one","1","direct_first","1","TA06AD23","0","22","1","1","3","1","","0","1","0","null","","","<div class = 'row'><div class = 'column'><img src = 'category1/CS6.png' width = '70%;'></div><div class = 'column'><img src = 'uspos/4625.bmp' width = '100%;'></div></div>","null","pos","CS","CS","1","category1/CS6.png","","","","",""
"","html-keyboard-response","18","148774","0.0-6.0-0.0-0.12","gc1kgz4c05","one_one","1","direct_first","1","TA06AD23","0","22","1","1","3","1","","0","1","0","null","","","<div class = 'row'><div class = 'column'><img src = 'category4/CS6.png' width = '70%;'></div><div class = 'column'><img src = 'uspos/2057.bmp' width = '100%;'></div></div>","null","pos","CS","CS","4","category4/CS6.png","","","","",""
"","html-keyboard-response","19","151285","0.0-6.0-0.0-0.13","gc1kgz4c05","one_one","1","direct_first","1","TA06AD23","0","22","1","1","3","1","","0","1","0","null","","","<div class = 'row'><div class = 'column'><img src = 'usneg/9520.bmp' width = '100%;'></div><div class = 'column'><img src = 'category2/CS8.png' width = '70%;'></div></div>","null","neg","CS","CS","2","category2/CS8.png","","","","",""
"","html-keyboard-response","20","153800","0.0-6.0-0.0-0.14","gc1kgz4c05","one_one","1","direct_first","1","TA06AD23","0","22","1","1","3","1","","0","1","0","null","","","<div class = 'row'><div class = 'column'><img src = 'usneg/6020.bmp' width = '100%;'></div><div class = 'column'><img src = 'category3/CS5.png' width = '70%;'></div></div>","null","neg","CS","CS","3","category3/CS5.png","","","","",""
"","html-keyboard-response","21","156311","0.0-6.0-0.0-0.15","gc1kgz4c05","one_one","1","direct_first","1","TA06AD23","0","22","1","1","3","1","","0","1","0","null","","","<div class = 'row'><div class = 'column'><img src = 'uspos/2057.bmp' width = '100%;'></div><div class = 'column'><img src = 'category4/CS6.png' width = '70%;'></div></div>","null","pos","CS","CS","4","category4/CS6.png","","","","",""
"","html-keyboard-response","22","158825","0.0-6.0-0.0-0.16","gc1kgz4c05","one_one","1","direct_first","1","TA06AD23","0","22","1","1","3","1","","0","1","0","null","","","<div class = 'row'><div class = 'column'><img src = 'category3/CS5.png' width = '70%;'></div><div class = 'column'><img src = 'usneg/6020.bmp' width = '100%;'></div></div>","null","neg","CS","CS","3","category3/CS5.png","","","","",""
"","html-keyboard-response","23","161337","0.0-6.0-0.0-0.17","gc1kgz4c05","one_one","1","direct_first","1","TA06AD23","0","22","1","1","3","1","","0","1","0","null","","","<div class = 'row'><div class = 'column'><img src = 'category1/CS6.png' width = '70%;'></div><div class = 'column'><img src = 'uspos/4625.bmp' width = '100%;'></div></div>","null","pos","CS","CS","1","category1/CS6.png","","","","",""
"","html-keyboard-response","24","163850","0.0-6.0-0.0-0.18","gc1kgz4c05","one_one","1","direct_first","1","TA06AD23","0","22","1","1","3","1","","0","1","0","null","","","<div class = 'row'><div class = 'column'><img src = 'usneg/9520.bmp' width = '100%;'></div><div class = 'column'><img src = 'category2/CS8.png' width = '70%;'></div></div>","null","neg","CS","CS","2","category2/CS8.png","","","","",""
"","html-keyboard-response","25","166357","0.0-6.0-0.0-0.19","gc1kgz4c05","one_one","1","direct_first","1","TA06AD23","0","22","1","1","3","1","","0","1","0","null","","","<div class = 'row'><div class = 'column'><img src = 'category1/CS6.png' width = '70%;'></div><div class = 'column'><img src = 'uspos/4625.bmp' width = '100%;'></div></div>","null","pos","CS","CS","1","category1/CS6.png","","","","",""
"","survey-html-form","26","175772","0.0-6.0-1.0","gc1kgz4c05","one_one","1","direct_first","1","TA06AD23","0","22","1","1","3","1","","0","1","0","8909","","{}","","","","","","","","","","","",""
"","html-keyboard-response","27","179783","0.0-6.0-2.0-0.0","gc1kgz4c05","one_one","1","direct_first","1","TA06AD23","0","22","1","1","3","1","","0","1","0","null","","","<div class = 'row'><div class = 'column'><img src = 'category3/CS5.png' width = '70%;'></div><div class = 'column'><img src = 'usneg/6020.bmp' width = '100%;'></div></div>","null","neg","CS","CS","3","category3/CS5.png","","","","",""
"","html-keyboard-response","28","182292","0.0-6.0-2.0-0.1","gc1kgz4c05","one_one","1","direct_first","1","TA06AD23","0","22","1","1","3","1","","0","1","0","null","","","<div class = 'row'><div class = 'column'><img src = 'category4/CS6.png' width = '70%;'></div><div class = 'column'><img src = 'uspos/2057.bmp' width = '100%;'></div></div>","null","pos","CS","CS","4","category4/CS6.png","","","","",""
"","html-keyboard-response","29","184809","0.0-6.0-2.0-0.2","gc1kgz4c05","one_one","1","direct_first","1","TA06AD23","0","22","1","1","3","1","","0","1","0","null","","","<div class = 'row'><div class = 'column'><img src = 'usneg/6020.bmp' width = '100%;'></div><div class = 'column'><img src = 'category3/CS5.png' width = '70%;'></div></div>","null","neg","CS","CS","3","category3/CS5.png","","","","",""
"","html-keyboard-response","30","187319","0.0-6.0-2.0-0.3","gc1kgz4c05","one_one","1","direct_first","1","TA06AD23","0","22","1","1","3","1","","0","1","0","null","","","<div class = 'row'><div class = 'column'><img src = 'usneg/9520.bmp' width = '100%;'></div><div class = 'column'><img src = 'category2/CS8.png' width = '70%;'></div></div>","null","neg","CS","CS","2","category2/CS8.png","","","","",""
"","html-keyboard-response","31","189831","0.0-6.0-2.0-0.4","gc1kgz4c05","one_one","1","direct_first","1","TA06AD23","0","22","1","1","3","1","","0","1","0","null","","","<div class = 'row'><div class = 'column'><img src = 'category4/CS6.png' width = '70%;'></div><div class = 'column'><img src = 'uspos/2057.bmp' width = '100%;'></div></div>","null","pos","CS","CS","4","category4/CS6.png","","","","",""
"","html-keyboard-response","32","192340","0.0-6.0-2.0-0.5","gc1kgz4c05","one_one","1","direct_first","1","TA06AD23","0","22","1","1","3","1","","0","1","0","null","","","<div class = 'row'><div class = 'column'><img src = 'category1/CS6.png' width = '70%;'></div><div class = 'column'><img src = 'uspos/4625.bmp' width = '100%;'></div></div>","null","pos","CS","CS","1","category1/CS6.png","","","","",""
"","html-keyboard-response","33","194847","0.0-6.0-2.0-0.6","gc1kgz4c05","one_one","1","direct_first","1","TA06AD23","0","22","1","1","3","1","","0","1","0","null","","","<div class = 'row'><div class = 'column'><img src = 'usneg/9520.bmp' width = '100%;'></div><div class = 'column'><img src = 'category2/CS8.png' width = '70%;'></div></div>","null","neg","CS","CS","2","category2/CS8.png","","","","",""
"","html-keyboard-response","34","197362","0.0-6.0-2.0-0.7","gc1kgz4c05","one_one","1","direct_first","1","TA06AD23","0","22","1","1","3","1","","0","1","0","null","","","<div class = 'row'><div class = 'column'><img src = 'uspos/4625.bmp' width = '100%;'></div><div class = 'column'><img src = 'category1/CS6.png' width = '70%;'></div></div>","null","pos","CS","CS","1","category1/CS6.png","","","","",""
"","html-keyboard-response","35","199878","0.0-6.0-2.0-0.8","gc1kgz4c05","one_one","1","direct_first","1","TA06AD23","0","22","1","1","3","1","","0","1","0","null","","","<div class = 'row'><div class = 'column'><img src = 'usneg/9520.bmp' width = '100%;'></div><div class = 'column'><img src = 'category2/CS8.png' width = '70%;'></div></div>","null","neg","CS","CS","2","category2/CS8.png","","","","",""
"","html-keyboard-response","36","202389","0.0-6.0-2.0-0.9","gc1kgz4c05","one_one","1","direct_first","1","TA06AD23","0","22","1","1","3","1","","0","1","0","null","","","<div class = 'row'><div class = 'column'><img src = 'uspos/2057.bmp' width = '100%;'></div><div class = 'column'><img src = 'category4/CS6.png' width = '70%;'></div></div>","null","pos","CS","CS","4","category4/CS6.png","","","","",""
"","html-keyboard-response","37","204905","0.0-6.0-2.0-0.10","gc1kgz4c05","one_one","1","direct_first","1","TA06AD23","0","22","1","1","3","1","","0","1","0","null","","","<div class = 'row'><div class = 'column'><img src = 'category1/CS6.png' width = '70%;'></div><div class = 'column'><img src = 'uspos/4625.bmp' width = '100%;'></div></div>","null","pos","CS","CS","1","category1/CS6.png","","","","",""
"","html-keyboard-response","38","207416","0.0-6.0-2.0-0.11","gc1kgz4c05","one_one","1","direct_first","1","TA06AD23","0","22","1","1","3","1","","0","1","0","null","","","<div class = 'row'><div class = 'column'><img src = 'usneg/6020.bmp' width = '100%;'></div><div class = 'column'><img src = 'category3/CS5.png' width = '70%;'></div></div>","null","neg","CS","CS","3","category3/CS5.png","","","","",""
"","html-keyboard-response","39","209932","0.0-6.0-2.0-0.12","gc1kgz4c05","one_one","1","direct_first","1","TA06AD23","0","22","1","1","3","1","","0","1","0","null","","","<div class = 'row'><div class = 'column'><img src = 'uspos/4625.bmp' width = '100%;'></div><div class = 'column'><img src = 'category1/CS6.png' width = '70%;'></div></div>","null","pos","CS","CS","1","category1/CS6.png","","","","",""
"","html-keyboard-response","40","212442","0.0-6.0-2.0-0.13","gc1kgz4c05","one_one","1","direct_first","1","TA06AD23","0","22","1","1","3","1","","0","1","0","null","","","<div class = 'row'><div class = 'column'><img src = 'uspos/2057.bmp' width = '100%;'></div><div class = 'column'><img src = 'category4/CS6.png' width = '70%;'></div></div>","null","pos","CS","CS","4","category4/CS6.png","","","","",""
"","html-keyboard-response","41","214959","0.0-6.0-2.0-0.14","gc1kgz4c05","one_one","1","direct_first","1","TA06AD23","0","22","1","1","3","1","","0","1","0","null","","","<div class = 'row'><div class = 'column'><img src = 'usneg/9520.bmp' width = '100%;'></div><div class = 'column'><img src = 'category2/CS8.png' width = '70%;'></div></div>","null","neg","CS","CS","2","category2/CS8.png","","","","",""
"","html-keyboard-response","42","217467","0.0-6.0-2.0-0.15","gc1kgz4c05","one_one","1","direct_first","1","TA06AD23","0","22","1","1","3","1","","0","1","0","null","","","<div class = 'row'><div class = 'column'><img src = 'usneg/6020.bmp' width = '100%;'></div><div class = 'column'><img src = 'category3/CS5.png' width = '70%;'></div></div>","null","neg","CS","CS","3","category3/CS5.png","","","","",""
"","html-keyboard-response","43","219978","0.0-6.0-2.0-0.16","gc1kgz4c05","one_one","1","direct_first","1","TA06AD23","0","22","1","1","3","1","","0","1","0","null","","","<div class = 'row'><div class = 'column'><img src = 'usneg/9520.bmp' width = '100%;'></div><div class = 'column'><img src = 'category2/CS8.png' width = '70%;'></div></div>","null","neg","CS","CS","2","category2/CS8.png","","","","",""
"","html-keyboard-response","44","222493","0.0-6.0-2.0-0.17","gc1kgz4c05","one_one","1","direct_first","1","TA06AD23","0","22","1","1","3","1","","0","1","0","null","","","<div class = 'row'><div class = 'column'><img src = 'usneg/6020.bmp' width = '100%;'></div><div class = 'column'><img src = 'category3/CS5.png' width = '70%;'></div></div>","null","neg","CS","CS","3","category3/CS5.png","","","","",""
"","html-keyboard-response","45","225004","0.0-6.0-2.0-0.18","gc1kgz4c05","one_one","1","direct_first","1","TA06AD23","0","22","1","1","3","1","","0","1","0","null","","","<div class = 'row'><div class = 'column'><img src = 'category4/CS6.png' width = '70%;'></div><div class = 'column'><img src = 'uspos/2057.bmp' width = '100%;'></div></div>","null","pos","CS","CS","4","category4/CS6.png","","","","",""
"","html-keyboard-response","46","227520","0.0-6.0-2.0-0.19","gc1kgz4c05","one_one","1","direct_first","1","TA06AD23","0","22","1","1","3","1","","0","1","0","null","","","<div class = 'row'><div class = 'column'><img src = 'uspos/4625.bmp' width = '100%;'></div><div class = 'column'><img src = 'category1/CS6.png' width = '70%;'></div></div>","null","pos","CS","CS","1","category1/CS6.png","","","","",""
"","survey-html-form","47","232089","0.0-6.0-3.0","gc1kgz4c05","one_one","1","direct_first","1","TA06AD23","0","22","1","1","3","1","","0","1","0","4066","","{}","","","","","","","","","","","",""
"","html-keyboard-response","48","236102","0.0-6.0-4.0-0.0","gc1kgz4c05","one_one","1","direct_first","1","TA06AD23","0","22","1","1","3","1","","0","1","0","null","","","<div class = 'row'><div class = 'column'><img src = 'category2/CS8.png' width = '70%;'></div><div class = 'column'><img src = 'usneg/9520.bmp' width = '100%;'></div></div>","null","neg","CS","CS","2","category2/CS8.png","","","","",""
"","html-keyboard-response","49","238610","0.0-6.0-4.0-0.1","gc1kgz4c05","one_one","1","direct_first","1","TA06AD23","0","22","1","1","3","1","","0","1","0","null","","","<div class = 'row'><div class = 'column'><img src = 'uspos/2057.bmp' width = '100%;'></div><div class = 'column'><img src = 'category4/CS6.png' width = '70%;'></div></div>","null","pos","CS","CS","4","category4/CS6.png","","","","",""
"","html-keyboard-response","50","241118","0.0-6.0-4.0-0.2","gc1kgz4c05","one_one","1","direct_first","1","TA06AD23","0","22","1","1","3","1","","0","1","0","null","","","<div class = 'row'><div class = 'column'><img src = 'usneg/6020.bmp' width = '100%;'></div><div class = 'column'><img src = 'category3/CS5.png' width = '70%;'></div></div>","null","neg","CS","CS","3","category3/CS5.png","","","","",""
"","html-keyboard-response","51","243634","0.0-6.0-4.0-0.3","gc1kgz4c05","one_one","1","direct_first","1","TA06AD23","0","22","1","1","3","1","","0","1","0","null","","","<div class = 'row'><div class = 'column'><img src = 'uspos/2057.bmp' width = '100%;'></div><div class = 'column'><img src = 'category4/CS6.png' width = '70%;'></div></div>","null","pos","CS","CS","4","category4/CS6.png","","","","",""
"","html-keyboard-response","52","246145","0.0-6.0-4.0-0.4","gc1kgz4c05","one_one","1","direct_first","1","TA06AD23","0","22","1","1","3","1","","0","1","0","null","","","<div class = 'row'><div class = 'column'><img src = 'uspos/4625.bmp' width = '100%;'></div><div class = 'column'><img src = 'category1/CS6.png' width = '70%;'></div></div>","null","pos","CS","CS","1","category1/CS6.png","","","","",""
"","html-keyboard-response","53","248661","0.0-6.0-4.0-0.5","gc1kgz4c05","one_one","1","direct_first","1","TA06AD23","0","22","1","1","3","1","","0","1","0","null","","","<div class = 'row'><div class = 'column'><img src = 'usneg/9520.bmp' width = '100%;'></div><div class = 'column'><img src = 'category2/CS8.png' width = '70%;'></div></div>","null","neg","CS","CS","2","category2/CS8.png","","","","",""
"","html-keyboard-response","54","251172","0.0-6.0-4.0-0.6","gc1kgz4c05","one_one","1","direct_first","1","TA06AD23","0","22","1","1","3","1","","0","1","0","null","","","<div class = 'row'><div class = 'column'><img src = 'uspos/2057.bmp' width = '100%;'></div><div class = 'column'><img src = 'category4/CS6.png' width = '70%;'></div></div>","null","pos","CS","CS","4","category4/CS6.png","","","","",""
"","html-keyboard-response","55","253679","0.0-6.0-4.0-0.7","gc1kgz4c05","one_one","1","direct_first","1","TA06AD23","0","22","1","1","3","1","","0","1","0","null","","","<div class = 'row'><div class = 'column'><img src = 'category1/CS6.png' width = '70%;'></div><div class = 'column'><img src = 'uspos/4625.bmp' width = '100%;'></div></div>","null","pos","CS","CS","1","category1/CS6.png","","","","",""
"","html-keyboard-response","56","256195","0.0-6.0-4.0-0.8","gc1kgz4c05","one_one","1","direct_first","1","TA06AD23","0","22","1","1","3","1","","0","1","0","null","","","<div class = 'row'><div class = 'column'><img src = 'usneg/6020.bmp' width = '100%;'></div><div class = 'column'><img src = 'category3/CS5.png' width = '70%;'></div></div>","null","neg","CS","CS","3","category3/CS5.png","","","","",""
"","html-keyboard-response","57","258702","0.0-6.0-4.0-0.9","gc1kgz4c05","one_one","1","direct_first","1","TA06AD23","0","22","1","1","3","1","","0","1","0","null","","","<div class = 'row'><div class = 'column'><img src = 'category2/CS8.png' width = '70%;'></div><div class = 'column'><img src = 'usneg/9520.bmp' width = '100%;'></div></div>","null","neg","CS","CS","2","category2/CS8.png","","","","",""
"","html-keyboard-response","58","261213","0.0-6.0-4.0-0.10","gc1kgz4c05","one_one","1","direct_first","1","TA06AD23","0","22","1","1","3","1","","0","1","0","null","","","<div class = 'row'><div class = 'column'><img src = 'category1/CS6.png' width = '70%;'></div><div class = 'column'><img src = 'uspos/4625.bmp' width = '100%;'></div></div>","null","pos","CS","CS","1","category1/CS6.png","","","","",""
"","html-keyboard-response","59","263721","0.0-6.0-4.0-0.11","gc1kgz4c05","one_one","1","direct_first","1","TA06AD23","0","22","1","1","3","1","","0","1","0","null","","","<div class = 'row'><div class = 'column'><img src = 'category3/CS5.png' width = '70%;'></div><div class = 'column'><img src = 'usneg/6020.bmp' width = '100%;'></div></div>","null","neg","CS","CS","3","category3/CS5.png","","","","",""
"","html-keyboard-response","60","266230","0.0-6.0-4.0-0.12","gc1kgz4c05","one_one","1","direct_first","1","TA06AD23","0","22","1","1","3","1","","0","1","0","null","","","<div class = 'row'><div class = 'column'><img src = 'usneg/9520.bmp' width = '100%;'></div><div class = 'column'><img src = 'category2/CS8.png' width = '70%;'></div></div>","null","neg","CS","CS","2","category2/CS8.png","","","","",""
"","html-keyboard-response","61","268740","0.0-6.0-4.0-0.13","gc1kgz4c05","one_one","1","direct_first","1","TA06AD23","0","22","1","1","3","1","","0","1","0","null","","","<div class = 'row'><div class = 'column'><img src = 'uspos/4625.bmp' width = '100%;'></div><div class = 'column'><img src = 'category1/CS6.png' width = '70%;'></div></div>","null","pos","CS","CS","1","category1/CS6.png","","","","",""
"","html-keyboard-response","62","271256","0.0-6.0-4.0-0.14","gc1kgz4c05","one_one","1","direct_first","1","TA06AD23","0","22","1","1","3","1","","0","1","0","null","","","<div class = 'row'><div class = 'column'><img src = 'category2/CS8.png' width = '70%;'></div><div class = 'column'><img src = 'usneg/9520.bmp' width = '100%;'></div></div>","null","neg","CS","CS","2","category2/CS8.png","","","","",""
"","html-keyboard-response","63","273764","0.0-6.0-4.0-0.15","gc1kgz4c05","one_one","1","direct_first","1","TA06AD23","0","22","1","1","3","1","","0","1","0","null","","","<div class = 'row'><div class = 'column'><img src = 'category4/CS6.png' width = '70%;'></div><div class = 'column'><img src = 'uspos/2057.bmp' width = '100%;'></div></div>","null","pos","CS","CS","4","category4/CS6.png","","","","",""
"","html-keyboard-response","64","276270","0.0-6.0-4.0-0.16","gc1kgz4c05","one_one","1","direct_first","1","TA06AD23","0","22","1","1","3","1","","0","1","0","null","","","<div class = 'row'><div class = 'column'><img src = 'usneg/6020.bmp' width = '100%;'></div><div class = 'column'><img src = 'category3/CS5.png' width = '70%;'></div></div>","null","neg","CS","CS","3","category3/CS5.png","","","","",""
"","html-keyboard-response","65","278779","0.0-6.0-4.0-0.17","gc1kgz4c05","one_one","1","direct_first","1","TA06AD23","0","22","1","1","3","1","","0","1","0","null","","","<div class = 'row'><div class = 'column'><img src = 'category1/CS6.png' width = '70%;'></div><div class = 'column'><img src = 'uspos/4625.bmp' width = '100%;'></div></div>","null","pos","CS","CS","1","category1/CS6.png","","","","",""
"","html-keyboard-response","66","281295","0.0-6.0-4.0-0.18","gc1kgz4c05","one_one","1","direct_first","1","TA06AD23","0","22","1","1","3","1","","0","1","0","null","","","<div class = 'row'><div class = 'column'><img src = 'usneg/6020.bmp' width = '100%;'></div><div class = 'column'><img src = 'category3/CS5.png' width = '70%;'></div></div>","null","neg","CS","CS","3","category3/CS5.png","","","","",""
"","html-keyboard-response","67","283806","0.0-6.0-4.0-0.19","gc1kgz4c05","one_one","1","direct_first","1","TA06AD23","0","22","1","1","3","1","","0","1","0","null","","","<div class = 'row'><div class = 'column'><img src = 'uspos/2057.bmp' width = '100%;'></div><div class = 'column'><img src = 'category4/CS6.png' width = '70%;'></div></div>","null","pos","CS","CS","4","category4/CS6.png","","","","",""
"","survey-html-form","68","285879","0.0-6.0-5.0","gc1kgz4c05","one_one","1","direct_first","1","TA06AD23","0","22","1","1","3","1","","0","1","0","1565","","{}","","","","","","","","","","","",""
"","html-keyboard-response","69","289890","0.0-6.0-6.0-0.0","gc1kgz4c05","one_one","1","direct_first","1","TA06AD23","0","22","1","1","3","1","","0","1","0","null","","","<div class = 'row'><div class = 'column'><img src = 'category1/CS6.png' width = '70%;'></div><div class = 'column'><img src = 'uspos/4625.bmp' width = '100%;'></div></div>","null","pos","CS","CS","1","category1/CS6.png","","","","",""
"","html-keyboard-response","70","292406","0.0-6.0-6.0-0.1","gc1kgz4c05","one_one","1","direct_first","1","TA06AD23","0","22","1","1","3","1","","0","1","0","null","","","<div class = 'row'><div class = 'column'><img src = 'usneg/6020.bmp' width = '100%;'></div><div class = 'column'><img src = 'category3/CS5.png' width = '70%;'></div></div>","null","neg","CS","CS","3","category3/CS5.png","","","","",""
"","html-keyboard-response","71","294917","0.0-6.0-6.0-0.2","gc1kgz4c05","one_one","1","direct_first","1","TA06AD23","0","22","1","1","3","1","","0","1","0","null","","","<div class = 'row'><div class = 'column'><img src = 'category1/CS6.png' width = '70%;'></div><div class = 'column'><img src = 'uspos/4625.bmp' width = '100%;'></div></div>","null","pos","CS","CS","1","category1/CS6.png","","","","",""
"","html-keyboard-response","72","297433","0.0-6.0-6.0-0.3","gc1kgz4c05","one_one","1","direct_first","1","TA06AD23","0","22","1","1","3","1","","0","1","0","null","","","<div class = 'row'><div class = 'column'><img src = 'category3/CS5.png' width = '70%;'></div><div class = 'column'><img src = 'usneg/6020.bmp' width = '100%;'></div></div>","null","neg","CS","CS","3","category3/CS5.png","","","","",""
"","html-keyboard-response","73","299944","0.0-6.0-6.0-0.4","gc1kgz4c05","one_one","1","direct_first","1","TA06AD23","0","22","1","1","3","1","","0","1","0","null","","","<div class = 'row'><div class = 'column'><img src = 'uspos/4625.bmp' width = '100%;'></div><div class = 'column'><img src = 'category1/CS6.png' width = '70%;'></div></div>","null","pos","CS","CS","1","category1/CS6.png","","","","",""
"","html-keyboard-response","74","302460","0.0-6.0-6.0-0.5","gc1kgz4c05","one_one","1","direct_first","1","TA06AD23","0","22","1","1","3","1","","0","1","0","null","","","<div class = 'row'><div class = 'column'><img src = 'usneg/9520.bmp' width = '100%;'></div><div class = 'column'><img src = 'category2/CS8.png' width = '70%;'></div></div>","null","neg","CS","CS","2","category2/CS8.png","","","","",""
"","html-keyboard-response","75","304971","0.0-6.0-6.0-0.6","gc1kgz4c05","one_one","1","direct_first","1","TA06AD23","0","22","1","1","3","1","","0","1","0","null","","","<div class = 'row'><div class = 'column'><img src = 'category4/CS6.png' width = '70%;'></div><div class = 'column'><img src = 'uspos/2057.bmp' width = '100%;'></div></div>","null","pos","CS","CS","4","category4/CS6.png","","","","",""
"","html-keyboard-response","76","307486","0.0-6.0-6.0-0.7","gc1kgz4c05","one_one","1","direct_first","1","TA06AD23","0","22","1","1","3","1","","0","1","0","null","","","<div class = 'row'><div class = 'column'><img src = 'usneg/9520.bmp' width = '100%;'></div><div class = 'column'><img src = 'category2/CS8.png' width = '70%;'></div></div>","null","neg","CS","CS","2","category2/CS8.png","","","","",""
"","html-keyboard-response","77","309997","0.0-6.0-6.0-0.8","gc1kgz4c05","one_one","1","direct_first","1","TA06AD23","0","22","1","1","3","1","","0","1","0","null","","","<div class = 'row'><div class = 'column'><img src = 'category4/CS6.png' width = '70%;'></div><div class = 'column'><img src = 'uspos/2057.bmp' width = '100%;'></div></div>","null","pos","CS","CS","4","category4/CS6.png","","","","",""
"","html-keyboard-response","78","312513","0.0-6.0-6.0-0.9","gc1kgz4c05","one_one","1","direct_first","1","TA06AD23","0","22","1","1","3","1","","0","1","0","null","","","<div class = 'row'><div class = 'column'><img src = 'usneg/9520.bmp' width = '100%;'></div><div class = 'column'><img src = 'category2/CS8.png' width = '70%;'></div></div>","null","neg","CS","CS","2","category2/CS8.png","","","","",""
"","html-keyboard-response","79","315022","0.0-6.0-6.0-0.10","gc1kgz4c05","one_one","1","direct_first","1","TA06AD23","0","22","1","1","3","1","","0","1","0","null","","","<div class = 'row'><div class = 'column'><img src = 'usneg/6020.bmp' width = '100%;'></div><div class = 'column'><img src = 'category3/CS5.png' width = '70%;'></div></div>","null","neg","CS","CS","3","category3/CS5.png","","","","",""
"","html-keyboard-response","80","317532","0.0-6.0-6.0-0.11","gc1kgz4c05","one_one","1","direct_first","1","TA06AD23","0","22","1","1","3","1","","0","1","0","null","","","<div class = 'row'><div class = 'column'><img src = 'uspos/2057.bmp' width = '100%;'></div><div class = 'column'><img src = 'category4/CS6.png' width = '70%;'></div></div>","null","pos","CS","CS","4","category4/CS6.png","","","","",""
"","html-keyboard-response","81","320047","0.0-6.0-6.0-0.12","gc1kgz4c05","one_one","1","direct_first","1","TA06AD23","0","22","1","1","3","1","","0","1","0","null","","","<div class = 'row'><div class = 'column'><img src = 'category2/CS8.png' width = '70%;'></div><div class = 'column'><img src = 'usneg/9520.bmp' width = '100%;'></div></div>","null","neg","CS","CS","2","category2/CS8.png","","","","",""
"","html-keyboard-response","82","322559","0.0-6.0-6.0-0.13","gc1kgz4c05","one_one","1","direct_first","1","TA06AD23","0","22","1","1","3","1","","0","1","0","null","","","<div class = 'row'><div class = 'column'><img src = 'uspos/4625.bmp' width = '100%;'></div><div class = 'column'><img src = 'category1/CS6.png' width = '70%;'></div></div>","null","pos","CS","CS","1","category1/CS6.png","","","","",""
"","html-keyboard-response","83","325067","0.0-6.0-6.0-0.14","gc1kgz4c05","one_one","1","direct_first","1","TA06AD23","0","22","1","1","3","1","","0","1","0","null","","","<div class = 'row'><div class = 'column'><img src = 'category4/CS6.png' width = '70%;'></div><div class = 'column'><img src = 'uspos/2057.bmp' width = '100%;'></div></div>","null","pos","CS","CS","4","category4/CS6.png","","","","",""
"","html-keyboard-response","84","327582","0.0-6.0-6.0-0.15","gc1kgz4c05","one_one","1","direct_first","1","TA06AD23","0","22","1","1","3","1","","0","1","0","null","","","<div class = 'row'><div class = 'column'><img src = 'usneg/6020.bmp' width = '100%;'></div><div class = 'column'><img src = 'category3/CS5.png' width = '70%;'></div></div>","null","neg","CS","CS","3","category3/CS5.png","","","","",""
"","html-keyboard-response","85","330094","0.0-6.0-6.0-0.16","gc1kgz4c05","one_one","1","direct_first","1","TA06AD23","0","22","1","1","3","1","","0","1","0","null","","","<div class = 'row'><div class = 'column'><img src = 'category1/CS6.png' width = '70%;'></div><div class = 'column'><img src = 'uspos/4625.bmp' width = '100%;'></div></div>","null","pos","CS","CS","1","category1/CS6.png","","","","",""
"","html-keyboard-response","86","332606","0.0-6.0-6.0-0.17","gc1kgz4c05","one_one","1","direct_first","1","TA06AD23","0","22","1","1","3","1","","0","1","0","null","","","<div class = 'row'><div class = 'column'><img src = 'category3/CS5.png' width = '70%;'></div><div class = 'column'><img src = 'usneg/6020.bmp' width = '100%;'></div></div>","null","neg","CS","CS","3","category3/CS5.png","","","","",""
"","html-keyboard-response","87","335120","0.0-6.0-6.0-0.18","gc1kgz4c05","one_one","1","direct_first","1","TA06AD23","0","22","1","1","3","1","","0","1","0","null","","","<div class = 'row'><div class = 'column'><img src = 'usneg/9520.bmp' width = '100%;'></div><div class = 'column'><img src = 'category2/CS8.png' width = '70%;'></div></div>","null","neg","CS","CS","2","category2/CS8.png","","","","",""
"","html-keyboard-response","88","337636","0.0-6.0-6.0-0.19","gc1kgz4c05","one_one","1","direct_first","1","TA06AD23","0","22","1","1","3","1","","0","1","0","null","","","<div class = 'row'><div class = 'column'><img src = 'category4/CS6.png' width = '70%;'></div><div class = 'column'><img src = 'uspos/2057.bmp' width = '100%;'></div></div>","null","pos","CS","CS","4","category4/CS6.png","","","","",""
"","survey-html-form","89","345016","0.0-7.0","gc1kgz4c05","one_one","1","direct_first","1","TA06AD23","0","22","1","1","3","1","","0","1","0","6877","","{}","","","","","","","","","","","",""
"","image-slider-response","90","353666","0.0-8.0-0.0","gc1kgz4c05","one_one","1","direct_first","1","TA06AD23","0","22","1","1","3","1","","0","1","0","6639","","","","","neg","GS","GSnew","2","category2/GS3.png","-36","targets/26.png","direct","",""
"","image-slider-response","91","357299","0.0-8.0-0.1","gc1kgz4c05","one_one","1","direct_first","1","TA06AD23","0","22","1","1","3","1","","0","1","0","3632","","","","","neg","GS","GSold","3","category3/CS9.png","-16","targets/11.png","direct","",""
"","image-slider-response","92","362343","0.0-8.0-0.2","gc1kgz4c05","one_one","1","direct_first","1","TA06AD23","0","22","1","1","3","1","","0","1","0","5039","","","","","pos","CS","CS","1","category1/CS6.png","86","targets/48.png","direct","",""
"","image-slider-response","93","365303","0.0-8.0-0.3","gc1kgz4c05","one_one","1","direct_first","1","TA06AD23","0","22","1","1","3","1","","0","1","0","2957","","","","","pos","GS","GSnew","4","category4/GS3.png","11","targets/21.png","direct","",""
"","image-slider-response","94","369233","0.0-8.0-0.4","gc1kgz4c05","one_one","1","direct_first","1","TA06AD23","0","22","1","1","3","1","","0","1","0","3927","","","","","pos","GS","GSnew","1","category1/GS1.png","-5","targets/25.png","direct","",""
"","image-slider-response","95","371730","0.0-8.0-0.5","gc1kgz4c05","one_one","1","direct_first","1","TA06AD23","0","22","1","1","3","1","","0","1","0","2496","","","","","pos","GS","GSold","1","category1/CS2.png","-22","targets/23.png","direct","",""
"","image-slider-response","96","374312","0.0-8.0-0.6","gc1kgz4c05","one_one","1","direct_first","1","TA06AD23","0","22","1","1","3","1","","0","1","0","2579","","","","","pos","GS","GSnew","1","category1/GS2.png","-21","targets/1.png","direct","",""
"","image-slider-response","97","377026","0.0-8.0-0.7","gc1kgz4c05","one_one","1","direct_first","1","TA06AD23","0","22","1","1","3","1","","0","1","0","2710","","","","","pos","GS","GSnew","4","category4/GS1.png","82","targets/22.png","direct","",""
"","image-slider-response","98","379526","0.0-8.0-0.8","gc1kgz4c05","one_one","1","direct_first","1","TA06AD23","0","22","1","1","3","1","","0","1","0","2498","","","","","neg","CS","CS","3","category3/CS5.png","-28","targets/10.png","direct","",""
"","image-slider-response","99","382782","0.0-8.0-0.9","gc1kgz4c05","one_one","1","direct_first","1","TA06AD23","0","22","1","1","3","1","","0","1","0","3253","","","","","pos","GS","GSold","4","category4/CS3.png","55","targets/8.png","direct","",""
"","image-slider-response","100","385044","0.0-8.0-0.10","gc1kgz4c05","one_one","1","direct_first","1","TA06AD23","0","22","1","1","3","1","","0","1","0","2258","","","","","neg","GS","abstract","3","category3/wang.png","-23","targets/42.png","direct","",""
"","image-slider-response","101","387650","0.0-8.0-0.11","gc1kgz4c05","one_one","1","direct_first","1","TA06AD23","0","22","1","1","3","1","","0","1","0","2605","","","","","pos","GS","GSnew","1","category1/GS3.png","3","targets/43.png","direct","",""
"","image-slider-response","102","390488","0.0-8.0-0.12","gc1kgz4c05","one_one","1","direct_first","1","TA06AD23","0","22","1","1","3","1","","0","1","0","2836","","","","","pos","GS","abstract","1","category1/ma.png","18","targets/24.png","direct","",""
"","image-slider-response","103","392926","0.0-8.0-0.13","gc1kgz4c05","one_one","1","direct_first","1","TA06AD23","0","22","1","1","3","1","","0","1","0","2434","","","","","pos","GS","GSold","4","category4/CS4.png","51","targets/31.png","direct","",""
"","image-slider-response","104","395512","0.0-8.0-0.14","gc1kgz4c05","one_one","1","direct_first","1","TA06AD23","0","22","1","1","3","1","","0","1","0","2585","","","","","neg","GS","GSold","2","category2/CS2.png","-33","targets/30.png","direct","",""
"","image-slider-response","105","397931","0.0-8.0-0.15","gc1kgz4c05","one_one","1","direct_first","1","TA06AD23","0","22","1","1","3","1","","0","1","0","2417","","","","","neg","GS","GSold","3","category3/CS10.png","-38","targets/14.png","direct","",""
"","image-slider-response","106","403212","0.0-8.0-0.16","gc1kgz4c05","one_one","1","direct_first","1","TA06AD23","0","22","1","1","3","1","","0","1","0","5279","","","","","pos","GS","abstract","4","category4/lin.png","45","targets/19.png","direct","",""
"","image-slider-response","107","405796","0.0-8.0-0.17","gc1kgz4c05","one_one","1","direct_first","1","TA06AD23","0","22","1","1","3","1","","0","1","0","2582","","","","","neg","GS","GSnew","2","category2/GS2.png","21","targets/47.png","direct","",""
"","image-slider-response","108","408115","0.0-8.0-0.18","gc1kgz4c05","one_one","1","direct_first","1","TA06AD23","0","22","1","1","3","1","","0","1","0","2316","","","","","pos","GS","GSnew","4","category4/GS2.png","24","targets/45.png","direct","",""
"","image-slider-response","109","410448","0.0-8.0-0.19","gc1kgz4c05","one_one","1","direct_first","1","TA06AD23","0","22","1","1","3","1","","0","1","0","2331","","","","","pos","GS","GSold","4","category4/CS7.png","39","targets/3.png","direct","",""
"","image-slider-response","110","412705","0.0-8.0-0.20","gc1kgz4c05","one_one","1","direct_first","1","TA06AD23","0","22","1","1","3","1","","0","1","0","2255","","","","","neg","GS","GSnew","3","category3/GS1.png","-24","targets/5.png","direct","",""
"","image-slider-response","111","415063","0.0-8.0-0.21","gc1kgz4c05","one_one","1","direct_first","1","TA06AD23","0","22","1","1","3","1","","0","1","0","2355","","","","","pos","CS","CS","4","category4/CS6.png","56","targets/18.png","direct","",""
"","image-slider-response","112","417267","0.0-8.0-0.22","gc1kgz4c05","one_one","1","direct_first","1","TA06AD23","0","22","1","1","3","1","","0","1","0","2201","","","","","neg","GS","GSnew","3","category3/GS3.png","-25","targets/33.png","direct","",""
"","image-slider-response","113","419340","0.0-8.0-0.23","gc1kgz4c05","one_one","1","direct_first","1","TA06AD23","0","22","1","1","3","1","","0","1","0","2070","","","","","neg","GS","GSold","2","category2/CS4.png","-17","targets/40.png","direct","",""
"","image-slider-response","114","421972","0.0-8.0-0.24","gc1kgz4c05","one_one","1","direct_first","1","TA06AD23","0","22","1","1","3","1","","0","1","0","2629","","","","","neg","GS","GSold","2","category2/CS3.png","-30","targets/7.png","direct","",""
"","image-slider-response","115","424374","0.0-8.0-0.25","gc1kgz4c05","one_one","1","direct_first","1","TA06AD23","0","22","1","1","3","1","","0","1","0","2399","","","","","pos","GS","GSold","1","category1/CS9.png","6","targets/20.png","direct","",""
"","image-slider-response","116","427674","0.0-8.0-0.26","gc1kgz4c05","one_one","1","direct_first","1","TA06AD23","0","22","1","1","3","1","","0","1","0","3298","","","","","neg","GS","GSold","3","category3/CS4.png","4","targets/34.png","direct","",""
"","image-slider-response","117","429887","0.0-8.0-0.27","gc1kgz4c05","one_one","1","direct_first","1","TA06AD23","0","22","1","1","3","1","","0","1","0","2211","","","","","neg","CS","CS","2","category2/CS8.png","-20","targets/13.png","direct","",""
"","image-slider-response","118","431746","0.0-8.0-0.28","gc1kgz4c05","one_one","1","direct_first","1","TA06AD23","0","22","1","1","3","1","","0","1","0","1855","","","","","pos","GS","GSold","1","category1/CS1.png","11","targets/2.png","direct","",""
"","image-slider-response","119","433952","0.0-8.0-0.29","gc1kgz4c05","one_one","1","direct_first","1","TA06AD23","0","22","1","1","3","1","","0","1","0","2205","","","","","neg","GS","abstract","2","category2/men.png","-11","targets/6.png","direct","",""
"","image-slider-response","120","435636","0.0-8.0-0.30","gc1kgz4c05","one_one","1","direct_first","1","TA06AD23","0","22","1","1","3","1","","0","1","0","1681","","","","","neg","GS","GSnew","2","category2/GS1.png","-10","targets/27.png","direct","",""
"","image-slider-response","121","437863","0.0-8.0-0.31","gc1kgz4c05","one_one","1","direct_first","1","TA06AD23","0","22","1","1","3","1","","0","1","0","2226","","","","","neg","GS","GSnew","3","category3/GS2.png","-29","targets/17.png","direct","",""
"","html-keyboard-response","122","454285","0.0-9.0","gc1kgz4c05","one_one","1","direct_first","1","TA06AD23","0","22","1","1","3","1","","0","1","0","16421","","","<p>Sie sehen nun die chinesischen Zeichen nur ganz kurz. Danach sehen Sie die jeweilige Aussprache der Zeichen als Silbe auf dem Bildschrim. Ihre Aufgabe ist es, für jede Silbe anzugeben, ob diese etwas angenehmes, oder unangenehmes bedeuten könnte. Verlassen Sie sich hier vor allem auf Ihre Intuition.<br><br>Die Zeichen werden nur zur Orientierung dargestellt, beachten Sie sie deshalb nicht. Konzentrieren Sie sich vor allem auf die Silben. <br>Reagieren Sie mit folgenden zwei Tasten: <br><br><b>'D' </b> wenn die Silbe etwas <b>unangenehmes</b> bedeuten könnte. <br><b>'K'</b> wenn die Silbe etwas <b>angenehmes</b> bedeuten könnte. <br><br>Bitte legen Sie nun den Zeigefinger der linken Hand auf die Taste 'D' und den Zeigefinger der rechten Hand auf die Taste 'K'. <br>Reagieren Sie auf jede Silbe so schnell wie möglich. Uns interessiert Ihre spontane Reaktion. <br> <br> <br>Drücken Sie 'D' oder 'K', um die nächste Aufgabe zu starten. </p>","68","","","","","","","","","",""
"","html-keyboard-response","123","457296","0.0-10.0-0.0","gc1kgz4c05","one_one","1","direct_first","1","TA06AD23","0","22","1","1","3","1","","0","1","0","null","","","<div style=""font-size:60px;"">+</div>","null","","","","","","","","","",""
"","html-keyboard-response","124","457393","0.0-10.0-1.0","gc1kgz4c05","one_one","1","direct_first","1","TA06AD23","0","22","1","1","3","1","","0","1","0","null","","","<img src = 'category2/CS2.png' width = '100%;'>","null","","","","","","","","","",""
"","html-keyboard-response","125","457651","0.0-10.0-2.0","gc1kgz4c05","one_one","1","direct_first","1","TA06AD23","0","22","1","1","3","1","","0","1","0","null","","","<img src = 'targets/30.png' width = '100%;'>","null","","","","","","","","","",""
"","html-keyboard-response","126","459625","0.0-10.0-3.0","gc1kgz4c05","one_one","1","direct_first","1","TA06AD23","0","22","1","1","3","1","","0","1","0","1971","","","<img src = 'targets/mask.png' width = '100%;'>","68","neg","GS","GSold","2","category2/CS2.png","","targets/30.png","indirect","0","0"
"","html-keyboard-response","127","461129","0.0-10.0-0.1","gc1kgz4c05","one_one","1","direct_first","1","TA06AD23","0","22","1","1","3","1","","0","1","0","null","","","<div style=""font-size:60px;"">+</div>","null","","","","","","","","","",""
"","html-keyboard-response","128","461228","0.0-10.0-1.1","gc1kgz4c05","one_one","1","direct_first","1","TA06AD23","0","22","1","1","3","1","","0","1","0","null","","","<img src = 'category3/CS5.png' width = '100%;'>","null","","","","","","","","","",""
"","html-keyboard-response","129","461489","0.0-10.0-2.1","gc1kgz4c05","one_one","1","direct_first","1","TA06AD23","0","22","1","1","3","1","","0","1","0","null","","","<img src = 'targets/10.png' width = '100%;'>","null","","","","","","","","","",""
"","html-keyboard-response","130","462642","0.0-10.0-3.1","gc1kgz4c05","one_one","1","direct_first","1","TA06AD23","0","22","1","1","3","1","","0","1","0","1152","","","<img src = 'targets/mask.png' width = '100%;'>","68","neg","CS","CS","3","category3/CS5.png","","targets/10.png","indirect","0","1"
"","html-keyboard-response","131","464154","0.0-10.0-0.2","gc1kgz4c05","one_one","1","direct_first","1","TA06AD23","0","22","1","1","3","1","","0","1","0","null","","","<div style=""font-size:60px;"">+</div>","null","","","","","","","","","",""
"","html-keyboard-response","132","464252","0.0-10.0-1.2","gc1kgz4c05","one_one","1","direct_first","1","TA06AD23","0","22","1","1","3","1","","0","1","0","null","","","<img src = 'category3/CS4.png' width = '100%;'>","null","","","","","","","","","",""
"","html-keyboard-response","133","464508","0.0-10.0-2.2","gc1kgz4c05","one_one","1","direct_first","1","TA06AD23","0","22","1","1","3","1","","0","1","0","null","","","<img src = 'targets/34.png' width = '100%;'>","null","","","","","","","","","",""
"","html-keyboard-response","134","465554","0.0-10.0-3.2","gc1kgz4c05","one_one","1","direct_first","1","TA06AD23","0","22","1","1","3","1","","0","1","0","1044","","","<img src = 'targets/mask.png' width = '100%;'>","68","neg","GS","GSold","3","category3/CS4.png","","targets/34.png","indirect","0","2"
"","html-keyboard-response","135","467070","0.0-10.0-0.3","gc1kgz4c05","one_one","1","direct_first","1","TA06AD23","0","22","1","1","3","1","","0","1","0","null","","","<div style=""font-size:60px;"">+</div>","null","","","","","","","","","",""
"","html-keyboard-response","136","467166","0.0-10.0-1.3","gc1kgz4c05","one_one","1","direct_first","1","TA06AD23","0","22","1","1","3","1","","0","1","0","null","","","<img src = 'category3/CS10.png' width = '100%;'>","null","","","","","","","","","",""
"","html-keyboard-response","137","467419","0.0-10.0-2.3","gc1kgz4c05","one_one","1","direct_first","1","TA06AD23","0","22","1","1","3","1","","0","1","0","null","","","<img src = 'targets/14.png' width = '100%;'>","null","","","","","","","","","",""
"","html-keyboard-response","138","467944","0.0-10.0-3.3","gc1kgz4c05","one_one","1","direct_first","1","TA06AD23","0","22","1","1","3","1","","0","1","0","524","","","<img src = 'targets/mask.png' width = '100%;'>","75","neg","GS","GSold","3","category3/CS10.png","","targets/14.png","indirect","1","3"
"","html-keyboard-response","139","469451","0.0-10.0-0.4","gc1kgz4c05","one_one","1","direct_first","1","TA06AD23","0","22","1","1","3","1","","0","1","0","null","","","<div style=""font-size:60px;"">+</div>","null","","","","","","","","","",""
"","html-keyboard-response","140","469544","0.0-10.0-1.4","gc1kgz4c05","one_one","1","direct_first","1","TA06AD23","0","22","1","1","3","1","","0","1","0","null","","","<img src = 'category1/CS1.png' width = '100%;'>","null","","","","","","","","","",""
"","html-keyboard-response","141","469805","0.0-10.0-2.4","gc1kgz4c05","one_one","1","direct_first","1","TA06AD23","0","22","1","1","3","1","","0","1","0","null","","","<img src = 'targets/2.png' width = '100%;'>","null","","","","","","","","","",""
"","html-keyboard-response","142","470282","0.0-10.0-3.4","gc1kgz4c05","one_one","1","direct_first","1","TA06AD23","0","22","1","1","3","1","","0","1","0","474","","","<img src = 'targets/mask.png' width = '100%;'>","75","pos","GS","GSold","1","category1/CS1.png","","targets/2.png","indirect","1","4"
"","html-keyboard-response","143","471794","0.0-10.0-0.5","gc1kgz4c05","one_one","1","direct_first","1","TA06AD23","0","22","1","1","3","1","","0","1","0","null","","","<div style=""font-size:60px;"">+</div>","null","","","","","","","","","",""
"","html-keyboard-response","144","471891","0.0-10.0-1.5","gc1kgz4c05","one_one","1","direct_first","1","TA06AD23","0","22","1","1","3","1","","0","1","0","null","","","<img src = 'category4/CS4.png' width = '100%;'>","null","","","","","","","","","",""
"","html-keyboard-response","145","472152","0.0-10.0-2.5","gc1kgz4c05","one_one","1","direct_first","1","TA06AD23","0","22","1","1","3","1","","0","1","0","null","","","<img src = 'targets/31.png' width = '100%;'>","null","","","","","","","","","",""
"","html-keyboard-response","146","472546","0.0-10.0-3.5","gc1kgz4c05","one_one","1","direct_first","1","TA06AD23","0","22","1","1","3","1","","0","1","0","392","","","<img src = 'targets/mask.png' width = '100%;'>","75","pos","GS","GSold","4","category4/CS4.png","","targets/31.png","indirect","1","5"
"","html-keyboard-response","147","474060","0.0-10.0-0.6","gc1kgz4c05","one_one","1","direct_first","1","TA06AD23","0","22","1","1","3","1","","0","1","0","null","","","<div style=""font-size:60px;"">+</div>","null","","","","","","","","","",""
"","html-keyboard-response","148","474153","0.0-10.0-1.6","gc1kgz4c05","one_one","1","direct_first","1","TA06AD23","0","22","1","1","3","1","","0","1","0","null","","","<img src = 'category1/CS2.png' width = '100%;'>","null","","","","","","","","","",""
"","html-keyboard-response","149","474411","0.0-10.0-2.6","gc1kgz4c05","one_one","1","direct_first","1","TA06AD23","0","22","1","1","3","1","","0","1","0","null","","","<img src = 'targets/23.png' width = '100%;'>","null","","","","","","","","","",""
"","html-keyboard-response","150","475009","0.0-10.0-3.6","gc1kgz4c05","one_one","1","direct_first","1","TA06AD23","0","22","1","1","3","1","","0","1","0","598","","","<img src = 'targets/mask.png' width = '100%;'>","68","pos","GS","GSold","1","category1/CS2.png","","targets/23.png","indirect","0","6"
"","html-keyboard-response","151","476514","0.0-10.0-0.7","gc1kgz4c05","one_one","1","direct_first","1","TA06AD23","0","22","1","1","3","1","","0","1","0","null","","","<div style=""font-size:60px;"">+</div>","null","","","","","","","","","",""
"","html-keyboard-response","152","476605","0.0-10.0-1.7","gc1kgz4c05","one_one","1","direct_first","1","TA06AD23","0","22","1","1","3","1","","0","1","0","null","","","<img src = 'category1/CS6.png' width = '100%;'>","null","","","","","","","","","",""
"","html-keyboard-response","153","476864","0.0-10.0-2.7","gc1kgz4c05","one_one","1","direct_first","1","TA06AD23","0","22","1","1","3","1","","0","1","0","null","","","<img src = 'targets/48.png' width = '100%;'>","null","","","","","","","","","",""
"","html-keyboard-response","154","477191","0.0-10.0-3.7","gc1kgz4c05","one_one","1","direct_first","1","TA06AD23","0","22","1","1","3","1","","0","1","0","323","","","<img src = 'targets/mask.png' width = '100%;'>","75","pos","CS","CS","1","category1/CS6.png","","targets/48.png","indirect","1","7"
"","html-keyboard-response","155","478704","0.0-10.0-0.8","gc1kgz4c05","one_one","1","direct_first","1","TA06AD23","0","22","1","1","3","1","","0","1","0","null","","","<div style=""font-size:60px;"">+</div>","null","","","","","","","","","",""
"","html-keyboard-response","156","478799","0.0-10.0-1.8","gc1kgz4c05","one_one","1","direct_first","1","TA06AD23","0","22","1","1","3","1","","0","1","0","null","","","<img src = 'category2/CS8.png' width = '100%;'>","null","","","","","","","","","",""
"","html-keyboard-response","157","479053","0.0-10.0-2.8","gc1kgz4c05","one_one","1","direct_first","1","TA06AD23","0","22","1","1","3","1","","0","1","0","null","","","<img src = 'targets/13.png' width = '100%;'>","null","","","","","","","","","",""
"","html-keyboard-response","158","479416","0.0-10.0-3.8","gc1kgz4c05","one_one","1","direct_first","1","TA06AD23","0","22","1","1","3","1","","0","1","0","363","","","<img src = 'targets/mask.png' width = '100%;'>","68","neg","CS","CS","2","category2/CS8.png","","targets/13.png","indirect","0","8"
"","html-keyboard-response","159","480922","0.0-10.0-0.9","gc1kgz4c05","one_one","1","direct_first","1","TA06AD23","0","22","1","1","3","1","","0","1","0","null","","","<div style=""font-size:60px;"">+</div>","null","","","","","","","","","",""
"","html-keyboard-response","160","481017","0.0-10.0-1.9","gc1kgz4c05","one_one","1","direct_first","1","TA06AD23","0","22","1","1","3","1","","0","1","0","null","","","<img src = 'category1/CS9.png' width = '100%;'>","null","","","","","","","","","",""
"","html-keyboard-response","161","481272","0.0-10.0-2.9","gc1kgz4c05","one_one","1","direct_first","1","TA06AD23","0","22","1","1","3","1","","0","1","0","null","","","<img src = 'targets/20.png' width = '100%;'>","null","","","","","","","","","",""
"","html-keyboard-response","162","481751","0.0-10.0-3.9","gc1kgz4c05","one_one","1","direct_first","1","TA06AD23","0","22","1","1","3","1","","0","1","0","477","","","<img src = 'targets/mask.png' width = '100%;'>","75","pos","GS","GSold","1","category1/CS9.png","","targets/20.png","indirect","1","9"
"","html-keyboard-response","163","483264","0.0-10.0-0.10","gc1kgz4c05","one_one","1","direct_first","1","TA06AD23","0","22","1","1","3","1","","0","1","0","null","","","<div style=""font-size:60px;"">+</div>","null","","","","","","","","","",""
"","html-keyboard-response","164","483359","0.0-10.0-1.10","gc1kgz4c05","one_one","1","direct_first","1","TA06AD23","0","22","1","1","3","1","","0","1","0","null","","","<img src = 'category3/CS9.png' width = '100%;'>","null","","","","","","","","","",""
"","html-keyboard-response","165","483616","0.0-10.0-2.10","gc1kgz4c05","one_one","1","direct_first","1","TA06AD23","0","22","1","1","3","1","","0","1","0","null","","","<img src = 'targets/11.png' width = '100%;'>","null","","","","","","","","","",""
"","html-keyboard-response","166","483888","0.0-10.0-3.10","gc1kgz4c05","one_one","1","direct_first","1","TA06AD23","0","22","1","1","3","1","","0","1","0","271","","","<img src = 'targets/mask.png' width = '100%;'>","68","neg","GS","GSold","3","category3/CS9.png","","targets/11.png","indirect","0","10"
"","html-keyboard-response","167","485393","0.0-10.0-0.11","gc1kgz4c05","one_one","1","direct_first","1","TA06AD23","0","22","1","1","3","1","","0","1","0","null","","","<div style=""font-size:60px;"">+</div>","null","","","","","","","","","",""
"","html-keyboard-response","168","485485","0.0-10.0-1.11","gc1kgz4c05","one_one","1","direct_first","1","TA06AD23","0","22","1","1","3","1","","0","1","0","null","","","<img src = 'category4/CS3.png' width = '100%;'>","null","","","","","","","","","",""
"","html-keyboard-response","169","485747","0.0-10.0-2.11","gc1kgz4c05","one_one","1","direct_first","1","TA06AD23","0","22","1","1","3","1","","0","1","0","null","","","<img src = 'targets/8.png' width = '100%;'>","null","","","","","","","","","",""
"","html-keyboard-response","170","486206","0.0-10.0-3.11","gc1kgz4c05","one_one","1","direct_first","1","TA06AD23","0","22","1","1","3","1","","0","1","0","457","","","<img src = 'targets/mask.png' width = '100%;'>","75","pos","GS","GSold","4","category4/CS3.png","","targets/8.png","indirect","1","11"
"","html-keyboard-response","171","487715","0.0-10.0-0.12","gc1kgz4c05","one_one","1","direct_first","1","TA06AD23","0","22","1","1","3","1","","0","1","0","null","","","<div style=""font-size:60px;"">+</div>","null","","","","","","","","","",""
"","html-keyboard-response","172","487807","0.0-10.0-1.12","gc1kgz4c05","one_one","1","direct_first","1","TA06AD23","0","22","1","1","3","1","","0","1","0","null","","","<img src = 'category2/CS3.png' width = '100%;'>","null","","","","","","","","","",""
"","html-keyboard-response","173","488065","0.0-10.0-2.12","gc1kgz4c05","one_one","1","direct_first","1","TA06AD23","0","22","1","1","3","1","","0","1","0","null","","","<img src = 'targets/7.png' width = '100%;'>","null","","","","","","","","","",""
"","html-keyboard-response","174","488354","0.0-10.0-3.12","gc1kgz4c05","one_one","1","direct_first","1","TA06AD23","0","22","1","1","3","1","","0","1","0","286","","","<img src = 'targets/mask.png' width = '100%;'>","68","neg","GS","GSold","2","category2/CS3.png","","targets/7.png","indirect","0","12"
"","html-keyboard-response","175","489863","0.0-10.0-0.13","gc1kgz4c05","one_one","1","direct_first","1","TA06AD23","0","22","1","1","3","1","","0","1","0","null","","","<div style=""font-size:60px;"">+</div>","null","","","","","","","","","",""
"","html-keyboard-response","176","489956","0.0-10.0-1.13","gc1kgz4c05","one_one","1","direct_first","1","TA06AD23","0","22","1","1","3","1","","0","1","0","null","","","<img src = 'category2/CS4.png' width = '100%;'>","null","","","","","","","","","",""
"","html-keyboard-response","177","490217","0.0-10.0-2.13","gc1kgz4c05","one_one","1","direct_first","1","TA06AD23","0","22","1","1","3","1","","0","1","0","null","","","<img src = 'targets/40.png' width = '100%;'>","null","","","","","","","","","",""
"","html-keyboard-response","178","490437","0.0-10.0-3.13","gc1kgz4c05","one_one","1","direct_first","1","TA06AD23","0","22","1","1","3","1","","0","1","0","218","","","<img src = 'targets/mask.png' width = '100%;'>","68","neg","GS","GSold","2","category2/CS4.png","","targets/40.png","indirect","0","13"
"","html-keyboard-response","179","491945","0.0-10.0-0.14","gc1kgz4c05","one_one","1","direct_first","1","TA06AD23","0","22","1","1","3","1","","0","1","0","null","","","<div style=""font-size:60px;"">+</div>","null","","","","","","","","","",""
"","html-keyboard-response","180","492043","0.0-10.0-1.14","gc1kgz4c05","one_one","1","direct_first","1","TA06AD23","0","22","1","1","3","1","","0","1","0","null","","","<img src = 'category4/CS6.png' width = '100%;'>","null","","","","","","","","","",""
"","html-keyboard-response","181","492301","0.0-10.0-2.14","gc1kgz4c05","one_one","1","direct_first","1","TA06AD23","0","22","1","1","3","1","","0","1","0","null","","","<img src = 'targets/18.png' width = '100%;'>","null","","","","","","","","","",""
"","html-keyboard-response","182","492609","0.0-10.0-3.14","gc1kgz4c05","one_one","1","direct_first","1","TA06AD23","0","22","1","1","3","1","","0","1","0","307","","","<img src = 'targets/mask.png' width = '100%;'>","75","pos","CS","CS","4","category4/CS6.png","","targets/18.png","indirect","1","14"
"","html-keyboard-response","183","494121","0.0-10.0-0.15","gc1kgz4c05","one_one","1","direct_first","1","TA06AD23","0","22","1","1","3","1","","0","1","0","null","","","<div style=""font-size:60px;"">+</div>","null","","","","","","","","","",""
"","html-keyboard-response","184","494216","0.0-10.0-1.15","gc1kgz4c05","one_one","1","direct_first","1","TA06AD23","0","22","1","1","3","1","","0","1","0","null","","","<img src = 'category4/CS7.png' width = '100%;'>","null","","","","","","","","","",""
"","html-keyboard-response","185","494482","0.0-10.0-2.15","gc1kgz4c05","one_one","1","direct_first","1","TA06AD23","0","22","1","1","3","1","","0","1","0","null","","","<img src = 'targets/3.png' width = '100%;'>","null","","","","","","","","","",""
"","html-keyboard-response","186","494815","0.0-10.0-3.15","gc1kgz4c05","one_one","1","direct_first","1","TA06AD23","0","22","1","1","3","1","","0","1","0","331","","","<img src = 'targets/mask.png' width = '100%;'>","75","pos","GS","GSold","4","category4/CS7.png","","targets/3.png","indirect","1","15"
"","survey-html-form","187","499080","0.0-11.0","gc1kgz4c05","one_one","1","direct_first","1","TA06AD23","0","22","1","1","3","1","","0","1","0","3761","","{}","","","","","","","","","","","",""
"","html-keyboard-response","188","502088","0.0-12.0-0.0","gc1kgz4c05","one_one","1","direct_first","1","TA06AD23","0","22","1","1","3","1","","0","1","0","null","","","<div style=""font-size:60px;"">+</div>","null","","","","","","","","","",""
"","html-keyboard-response","189","502180","0.0-12.0-1.0","gc1kgz4c05","one_one","1","direct_first","1","TA06AD23","0","22","1","1","3","1","","0","1","0","null","","","<img src = 'category1/ma.png' width = '100%;'>","null","","","","","","","","","",""
"","html-keyboard-response","190","502436","0.0-12.0-2.0","gc1kgz4c05","one_one","1","direct_first","1","TA06AD23","0","22","1","1","3","1","","0","1","0","null","","","<img src = 'targets/24.png' width = '100%;'>","null","","","","","","","","","",""
"","html-keyboard-response","191","502871","0.0-12.0-3.0","gc1kgz4c05","one_one","1","direct_first","1","TA06AD23","0","22","1","1","3","1","","0","1","0","433","","","<img src = 'targets/mask.png' width = '100%;'>","75","pos","GS","abstract","1","category1/ma.png","","targets/24.png","indirect","1","16"
"","html-keyboard-response","192","504384","0.0-12.0-0.1","gc1kgz4c05","one_one","1","direct_first","1","TA06AD23","0","22","1","1","3","1","","0","1","0","null","","","<div style=""font-size:60px;"">+</div>","null","","","","","","","","","",""
"","html-keyboard-response","193","504477","0.0-12.0-1.1","gc1kgz4c05","one_one","1","direct_first","1","TA06AD23","0","22","1","1","3","1","","0","1","0","null","","","<img src = 'category3/GS2.png' width = '100%;'>","null","","","","","","","","","",""
"","html-keyboard-response","194","504733","0.0-12.0-2.1","gc1kgz4c05","one_one","1","direct_first","1","TA06AD23","0","22","1","1","3","1","","0","1","0","null","","","<img src = 'targets/17.png' width = '100%;'>","null","","","","","","","","","",""
"","html-keyboard-response","195","505176","0.0-12.0-3.1","gc1kgz4c05","one_one","1","direct_first","1","TA06AD23","0","22","1","1","3","1","","0","1","0","441","","","<img src = 'targets/mask.png' width = '100%;'>","75","neg","GS","GSnew","3","category3/GS2.png","","targets/17.png","indirect","1","17"
"","html-keyboard-response","196","506685","0.0-12.0-0.2","gc1kgz4c05","one_one","1","direct_first","1","TA06AD23","0","22","1","1","3","1","","0","1","0","null","","","<div style=""font-size:60px;"">+</div>","null","","","","","","","","","",""
"","html-keyboard-response","197","506783","0.0-12.0-1.2","gc1kgz4c05","one_one","1","direct_first","1","TA06AD23","0","22","1","1","3","1","","0","1","0","null","","","<img src = 'category2/GS1.png' width = '100%;'>","null","","","","","","","","","",""
"","html-keyboard-response","198","507045","0.0-12.0-2.2","gc1kgz4c05","one_one","1","direct_first","1","TA06AD23","0","22","1","1","3","1","","0","1","0","null","","","<img src = 'targets/27.png' width = '100%;'>","null","","","","","","","","","",""
"","html-keyboard-response","199","507076","0.0-12.0-3.2","gc1kgz4c05","one_one","1","direct_first","1","TA06AD23","0","22","1","1","3","1","","0","1","0","30","","","<img src = 'targets/mask.png' width = '100%;'>","75","neg","GS","GSnew","2","category2/GS1.png","","targets/27.png","indirect","1","18"
"","html-keyboard-response","200","508586","0.0-12.0-0.3","gc1kgz4c05","one_one","1","direct_first","1","TA06AD23","0","22","1","1","3","1","","0","1","0","null","","","<div style=""font-size:60px;"">+</div>","null","","","","","","","","","",""
"","html-keyboard-response","201","508680","0.0-12.0-1.3","gc1kgz4c05","one_one","1","direct_first","1","TA06AD23","0","22","1","1","3","1","","0","1","0","null","","","<img src = 'category1/GS1.png' width = '100%;'>","null","","","","","","","","","",""
"","html-keyboard-response","202","508935","0.0-12.0-2.3","gc1kgz4c05","one_one","1","direct_first","1","TA06AD23","0","22","1","1","3","1","","0","1","0","null","","","<img src = 'targets/25.png' width = '100%;'>","null","","","","","","","","","",""
"","html-keyboard-response","203","509116","0.0-12.0-3.3","gc1kgz4c05","one_one","1","direct_first","1","TA06AD23","0","22","1","1","3","1","","0","1","0","178","","","<img src = 'targets/mask.png' width = '100%;'>","75","pos","GS","GSnew","1","category1/GS1.png","","targets/25.png","indirect","1","19"
"","html-keyboard-response","204","510629","0.0-12.0-0.4","gc1kgz4c05","one_one","1","direct_first","1","TA06AD23","0","22","1","1","3","1","","0","1","0","null","","","<div style=""font-size:60px;"">+</div>","null","","","","","","","","","",""
"","html-keyboard-response","205","510723","0.0-12.0-1.4","gc1kgz4c05","one_one","1","direct_first","1","TA06AD23","0","22","1","1","3","1","","0","1","0","null","","","<img src = 'category1/GS3.png' width = '100%;'>","null","","","","","","","","","",""
"","html-keyboard-response","206","510983","0.0-12.0-2.4","gc1kgz4c05","one_one","1","direct_first","1","TA06AD23","0","22","1","1","3","1","","0","1","0","null","","","<img src = 'targets/43.png' width = '100%;'>","null","","","","","","","","","",""
"","html-keyboard-response","207","511275","0.0-12.0-3.4","gc1kgz4c05","one_one","1","direct_first","1","TA06AD23","0","22","1","1","3","1","","0","1","0","290","","","<img src = 'targets/mask.png' width = '100%;'>","75","pos","GS","GSnew","1","category1/GS3.png","","targets/43.png","indirect","1","20"
"","html-keyboard-response","208","512781","0.0-12.0-0.5","gc1kgz4c05","one_one","1","direct_first","1","TA06AD23","0","22","1","1","3","1","","0","1","0","null","","","<div style=""font-size:60px;"">+</div>","null","","","","","","","","","",""
"","html-keyboard-response","209","512880","0.0-12.0-1.5","gc1kgz4c05","one_one","1","direct_first","1","TA06AD23","0","22","1","1","3","1","","0","1","0","null","","","<img src = 'category3/GS3.png' width = '100%;'>","null","","","","","","","","","",""
"","html-keyboard-response","210","513145","0.0-12.0-2.5","gc1kgz4c05","one_one","1","direct_first","1","TA06AD23","0","22","1","1","3","1","","0","1","0","null","","","<img src = 'targets/33.png' width = '100%;'>","null","","","","","","","","","",""
"","html-keyboard-response","211","513452","0.0-12.0-3.5","gc1kgz4c05","one_one","1","direct_first","1","TA06AD23","0","22","1","1","3","1","","0","1","0","306","","","<img src = 'targets/mask.png' width = '100%;'>","68","neg","GS","GSnew","3","category3/GS3.png","","targets/33.png","indirect","0","21"
"","html-keyboard-response","212","514962","0.0-12.0-0.6","gc1kgz4c05","one_one","1","direct_first","1","TA06AD23","0","22","1","1","3","1","","0","1","0","null","","","<div style=""font-size:60px;"">+</div>","null","","","","","","","","","",""
"","html-keyboard-response","213","515061","0.0-12.0-1.6","gc1kgz4c05","one_one","1","direct_first","1","TA06AD23","0","22","1","1","3","1","","0","1","0","null","","","<img src = 'category4/GS1.png' width = '100%;'>","null","","","","","","","","","",""
"","html-keyboard-response","214","515320","0.0-12.0-2.6","gc1kgz4c05","one_one","1","direct_first","1","TA06AD23","0","22","1","1","3","1","","0","1","0","null","","","<img src = 'targets/22.png' width = '100%;'>","null","","","","","","","","","",""
"","html-keyboard-response","215","515492","0.0-12.0-3.6","gc1kgz4c05","one_one","1","direct_first","1","TA06AD23","0","22","1","1","3","1","","0","1","0","169","","","<img src = 'targets/mask.png' width = '100%;'>","75","pos","GS","GSnew","4","category4/GS1.png","","targets/22.png","indirect","1","22"
"","html-keyboard-response","216","517003","0.0-12.0-0.7","gc1kgz4c05","one_one","1","direct_first","1","TA06AD23","0","22","1","1","3","1","","0","1","0","null","","","<div style=""font-size:60px;"">+</div>","null","","","","","","","","","",""
"","html-keyboard-response","217","517096","0.0-12.0-1.7","gc1kgz4c05","one_one","1","direct_first","1","TA06AD23","0","22","1","1","3","1","","0","1","0","null","","","<img src = 'category2/men.png' width = '100%;'>","null","","","","","","","","","",""
"","html-keyboard-response","218","517359","0.0-12.0-2.7","gc1kgz4c05","one_one","1","direct_first","1","TA06AD23","0","22","1","1","3","1","","0","1","0","null","","","<img src = 'targets/6.png' width = '100%;'>","null","","","","","","","","","",""
"","html-keyboard-response","219","517994","0.0-12.0-3.7","gc1kgz4c05","one_one","1","direct_first","1","TA06AD23","0","22","1","1","3","1","","0","1","0","634","","","<img src = 'targets/mask.png' width = '100%;'>","68","neg","GS","abstract","2","category2/men.png","","targets/6.png","indirect","0","23"
"","html-keyboard-response","220","519509","0.0-12.0-0.8","gc1kgz4c05","one_one","1","direct_first","1","TA06AD23","0","22","1","1","3","1","","0","1","0","null","","","<div style=""font-size:60px;"">+</div>","null","","","","","","","","","",""
"","html-keyboard-response","221","519604","0.0-12.0-1.8","gc1kgz4c05","one_one","1","direct_first","1","TA06AD23","0","22","1","1","3","1","","0","1","0","null","","","<img src = 'category4/lin.png' width = '100%;'>","null","","","","","","","","","",""
"","html-keyboard-response","222","519862","0.0-12.0-2.8","gc1kgz4c05","one_one","1","direct_first","1","TA06AD23","0","22","1","1","3","1","","0","1","0","null","","","<img src = 'targets/19.png' width = '100%;'>","null","","","","","","","","","",""
"","html-keyboard-response","223","520124","0.0-12.0-3.8","gc1kgz4c05","one_one","1","direct_first","1","TA06AD23","0","22","1","1","3","1","","0","1","0","261","","","<img src = 'targets/mask.png' width = '100%;'>","75","pos","GS","abstract","4","category4/lin.png","","targets/19.png","indirect","1","24"
"","html-keyboard-response","224","521636","0.0-12.0-0.9","gc1kgz4c05","one_one","1","direct_first","1","TA06AD23","0","22","1","1","3","1","","0","1","0","null","","","<div style=""font-size:60px;"">+</div>","null","","","","","","","","","",""
"","html-keyboard-response","225","521730","0.0-12.0-1.9","gc1kgz4c05","one_one","1","direct_first","1","TA06AD23","0","22","1","1","3","1","","0","1","0","null","","","<img src = 'category4/GS3.png' width = '100%;'>","null","","","","","","","","","",""
"","html-keyboard-response","226","521991","0.0-12.0-2.9","gc1kgz4c05","one_one","1","direct_first","1","TA06AD23","0","22","1","1","3","1","","0","1","0","null","","","<img src = 'targets/21.png' width = '100%;'>","null","","","","","","","","","",""
"","html-keyboard-response","227","522011","0.0-12.0-3.9","gc1kgz4c05","one_one","1","direct_first","1","TA06AD23","0","22","1","1","3","1","","0","1","0","18","","","<img src = 'targets/mask.png' width = '100%;'>","75","pos","GS","GSnew","4","category4/GS3.png","","targets/21.png","indirect","1","25"
"","html-keyboard-response","228","523526","0.0-12.0-0.10","gc1kgz4c05","one_one","1","direct_first","1","TA06AD23","0","22","1","1","3","1","","0","1","0","null","","","<div style=""font-size:60px;"">+</div>","null","","","","","","","","","",""
"","html-keyboard-response","229","523621","0.0-12.0-1.10","gc1kgz4c05","one_one","1","direct_first","1","TA06AD23","0","22","1","1","3","1","","0","1","0","null","","","<img src = 'category3/wang.png' width = '100%;'>","null","","","","","","","","","",""
"","html-keyboard-response","230","523877","0.0-12.0-2.10","gc1kgz4c05","one_one","1","direct_first","1","TA06AD23","0","22","1","1","3","1","","0","1","0","null","","","<img src = 'targets/42.png' width = '100%;'>","null","","","","","","","","","",""
"","html-keyboard-response","231","524124","0.0-12.0-3.10","gc1kgz4c05","one_one","1","direct_first","1","TA06AD23","0","22","1","1","3","1","","0","1","0","246","","","<img src = 'targets/mask.png' width = '100%;'>","68","neg","GS","abstract","3","category3/wang.png","","targets/42.png","indirect","0","26"
"","html-keyboard-response","232","525640","0.0-12.0-0.11","gc1kgz4c05","one_one","1","direct_first","1","TA06AD23","0","22","1","1","3","1","","0","1","0","null","","","<div style=""font-size:60px;"">+</div>","null","","","","","","","","","",""
"","html-keyboard-response","233","525733","0.0-12.0-1.11","gc1kgz4c05","one_one","1","direct_first","1","TA06AD23","0","22","1","1","3","1","","0","1","0","null","","","<img src = 'category4/GS2.png' width = '100%;'>","null","","","","","","","","","",""
"","html-keyboard-response","234","525991","0.0-12.0-2.11","gc1kgz4c05","one_one","1","direct_first","1","TA06AD23","0","22","1","1","3","1","","0","1","0","null","","","<img src = 'targets/45.png' width = '100%;'>","null","","","","","","","","","",""
"","html-keyboard-response","235","526388","0.0-12.0-3.11","gc1kgz4c05","one_one","1","direct_first","1","TA06AD23","0","22","1","1","3","1","","0","1","0","395","","","<img src = 'targets/mask.png' width = '100%;'>","75","pos","GS","GSnew","4","category4/GS2.png","","targets/45.png","indirect","1","27"
"","html-keyboard-response","236","527896","0.0-12.0-0.12","gc1kgz4c05","one_one","1","direct_first","1","TA06AD23","0","22","1","1","3","1","","0","1","0","null","","","<div style=""font-size:60px;"">+</div>","null","","","","","","","","","",""
"","html-keyboard-response","237","527993","0.0-12.0-1.12","gc1kgz4c05","one_one","1","direct_first","1","TA06AD23","0","22","1","1","3","1","","0","1","0","null","","","<img src = 'category1/GS2.png' width = '100%;'>","null","","","","","","","","","",""
"","html-keyboard-response","238","528255","0.0-12.0-2.12","gc1kgz4c05","one_one","1","direct_first","1","TA06AD23","0","22","1","1","3","1","","0","1","0","null","","","<img src = 'targets/1.png' width = '100%;'>","null","","","","","","","","","",""
"","html-keyboard-response","239","528562","0.0-12.0-3.12","gc1kgz4c05","one_one","1","direct_first","1","TA06AD23","0","22","1","1","3","1","","0","1","0","305","","","<img src = 'targets/mask.png' width = '100%;'>","75","pos","GS","GSnew","1","category1/GS2.png","","targets/1.png","indirect","1","28"
"","html-keyboard-response","240","530075","0.0-12.0-0.13","gc1kgz4c05","one_one","1","direct_first","1","TA06AD23","0","22","1","1","3","1","","0","1","0","null","","","<div style=""font-size:60px;"">+</div>","null","","","","","","","","","",""
"","html-keyboard-response","241","530169","0.0-12.0-1.13","gc1kgz4c05","one_one","1","direct_first","1","TA06AD23","0","22","1","1","3","1","","0","1","0","null","","","<img src = 'category2/GS2.png' width = '100%;'>","null","","","","","","","","","",""
"","html-keyboard-response","242","530424","0.0-12.0-2.13","gc1kgz4c05","one_one","1","direct_first","1","TA06AD23","0","22","1","1","3","1","","0","1","0","null","","","<img src = 'targets/47.png' width = '100%;'>","null","","","","","","","","","",""
"","html-keyboard-response","243","530732","0.0-12.0-3.13","gc1kgz4c05","one_one","1","direct_first","1","TA06AD23","0","22","1","1","3","1","","0","1","0","307","","","<img src = 'targets/mask.png' width = '100%;'>","75","neg","GS","GSnew","2","category2/GS2.png","","targets/47.png","indirect","1","29"
"","html-keyboard-response","244","532246","0.0-12.0-0.14","gc1kgz4c05","one_one","1","direct_first","1","TA06AD23","0","22","1","1","3","1","","0","1","0","null","","","<div style=""font-size:60px;"">+</div>","null","","","","","","","","","",""
"","html-keyboard-response","245","532340","0.0-12.0-1.14","gc1kgz4c05","one_one","1","direct_first","1","TA06AD23","0","22","1","1","3","1","","0","1","0","null","","","<img src = 'category3/GS1.png' width = '100%;'>","null","","","","","","","","","",""
"","html-keyboard-response","246","532594","0.0-12.0-2.14","gc1kgz4c05","one_one","1","direct_first","1","TA06AD23","0","22","1","1","3","1","","0","1","0","null","","","<img src = 'targets/5.png' width = '100%;'>","null","","","","","","","","","",""
"","html-keyboard-response","247","532941","0.0-12.0-3.14","gc1kgz4c05","one_one","1","direct_first","1","TA06AD23","0","22","1","1","3","1","","0","1","0","343","","","<img src = 'targets/mask.png' width = '100%;'>","68","neg","GS","GSnew","3","category3/GS1.png","","targets/5.png","indirect","0","30"
"","html-keyboard-response","248","534443","0.0-12.0-0.15","gc1kgz4c05","one_one","1","direct_first","1","TA06AD23","0","22","1","1","3","1","","0","1","0","null","","","<div style=""font-size:60px;"">+</div>","null","","","","","","","","","",""
"","html-keyboard-response","249","534542","0.0-12.0-1.15","gc1kgz4c05","one_one","1","direct_first","1","TA06AD23","0","22","1","1","3","1","","0","1","0","null","","","<img src = 'category2/GS3.png' width = '100%;'>","null","","","","","","","","","",""
"","html-keyboard-response","250","534801","0.0-12.0-2.15","gc1kgz4c05","one_one","1","direct_first","1","TA06AD23","0","22","1","1","3","1","","0","1","0","null","","","<img src = 'targets/26.png' width = '100%;'>","null","","","","","","","","","",""
"","html-keyboard-response","251","535232","0.0-12.0-3.15","gc1kgz4c05","one_one","1","direct_first","1","TA06AD23","0","22","1","1","3","1","","0","1","0","428","","","<img src = 'targets/mask.png' width = '100%;'>","75","neg","GS","GSnew","2","category2/GS3.png","","targets/26.png","indirect","1","31"
"","survey-html-form","252","541284","0.0-13.0","gc1kgz4c05","one_one","1","direct_first","1","TA06AD23","0","22","1","1","3","1","","0","1","0","5544","","{}","","","","","","","","","","","",""
"","image-slider-response","253","546212","0.0-14.0-0.0","gc1kgz4c05","one_one","1","direct_first","1","TA06AD23","0","22","1","1","3","1","","0","1","0","3920","","","","","pos","All","all","4","category4/lin_all.png","-31","","all","",""
"","image-slider-response","254","548792","0.0-14.0-0.1","gc1kgz4c05","one_one","1","direct_first","1","TA06AD23","0","22","1","1","3","1","","0","1","0","2575","","","","","neg","All","all","2","category2/men_all.png","-45","","all","",""
"","image-slider-response","255","551440","0.0-14.0-0.2","gc1kgz4c05","one_one","1","direct_first","1","TA06AD23","0","22","1","1","3","1","","0","1","0","2646","","","","","pos","All","all","1","category1/ma_all.png","27","","all","",""
"","image-slider-response","256","553947","0.0-14.0-0.3","gc1kgz4c05","one_one","1","direct_first","1","TA06AD23","0","22","1","1","3","1","","0","1","0","2504","","","","","neg","All","all","3","category3/wang_all.png","-7","","all","",""
"","survey-text","257","556594","0.0-15.0","gc1kgz4c05","one_one","1","direct_first","1","TA06AD23","0","22","1","1","3","1","","0","1","0","2631","","{""comment"":""""}","","","","","","","","","","","",""
"","survey-html-form","258","569356","0.0-16.0","gc1kgz4c05","one_one","1","direct_first","1","TA06AD23","0","22","1","1","3","1","","0","1","0","12760","","{""hinschauen"":""0"",""ablenkung"":""1"",""gewissenhaft"":""0""}","","","","","","","","","","","",""
