"success","trial_type","trial_index","time_elapsed","internal_node_id","subject","condition","condition_code","measure","measure_code","codeword","gender","age","education","chinese","fach","handedness","comment","hinschauen","ablenkung","gewissenhaft","rt","url","responses","stimulus","key_press","val","type","type_specific","category","cs_selected","response","target","task","indirect","nr_pres"
"true","fullscreen","0","5022","0.0-0.0","9222elwu5w","many_one","0","direct_first","1","wu06ie28","0","18","1","0","3","1","","0","1","0","","","","","","","","","","","","","","",""
"","external-html","1","12706","0.0-1.0","9222elwu5w","many_one","0","direct_first","1","wu06ie28","0","18","1","0","3","1","","0","1","0","7644","text/information.html","","","","","","","","","","","","",""
"","external-html","2","18324","0.0-2.0","9222elwu5w","many_one","0","direct_first","1","wu06ie28","0","18","1","0","3","1","","0","1","0","5579","text/consent.html","","","","","","","","","","","","",""
"","survey-html-form","3","53791","0.0-3.0","9222elwu5w","many_one","0","direct_first","1","wu06ie28","0","18","1","0","3","1","","0","1","0","35464","","{""codeword_enter"":""wu06ie28""}","","","","","","","","","","","",""
"","survey-html-form","4","69353","0.0-4.0","9222elwu5w","many_one","0","direct_first","1","wu06ie28","0","18","1","0","3","1","","0","1","0","15559.999999999985","","{""age"":""18"",""education"":""1"",""subject"":""3"",""gender"":""0"",""handedness"":""1"",""chinese"":""0""}","","","","","","","","","","","",""
"","survey-html-form","5","70878","0.0-5.0","9222elwu5w","many_one","0","direct_first","1","wu06ie28","0","18","1","0","3","1","","0","1","0","1522","","{}","","","","","","","","","","","",""
"","html-keyboard-response","6","74884","0.0-6.0-0.0-0.0","9222elwu5w","many_one","0","direct_first","1","wu06ie28","0","18","1","0","3","1","","0","1","0","null","","","<div class = 'row'><div class = 'column'><img src = 'category3/CS8.png' width = '70%;'></div><div class = 'column'><img src = 'uspos/2360.bmp' width = '100%;'></div></div>","null","pos","CS","CS","3","category3/CS8.png","","","","",""
"","html-keyboard-response","7","77389","0.0-6.0-0.0-0.1","9222elwu5w","many_one","0","direct_first","1","wu06ie28","0","18","1","0","3","1","","0","1","0","null","","","<div class = 'row'><div class = 'column'><img src = 'category1/CS1.png' width = '70%;'></div><div class = 'column'><img src = 'usneg/2205.bmp' width = '100%;'></div></div>","null","neg","CS","CS","1","category1/CS1.png","","","","",""
"","html-keyboard-response","8","79894","0.0-6.0-0.0-0.2","9222elwu5w","many_one","0","direct_first","1","wu06ie28","0","18","1","0","3","1","","0","1","0","null","","","<div class = 'row'><div class = 'column'><img src = 'category1/CS5.png' width = '70%;'></div><div class = 'column'><img src = 'usneg/9182.bmp' width = '100%;'></div></div>","null","neg","CS","CS","1","category1/CS5.png","","","","",""
"","html-keyboard-response","9","82397","0.0-6.0-0.0-0.3","9222elwu5w","many_one","0","direct_first","1","wu06ie28","0","18","1","0","3","1","","0","1","0","null","","","<div class = 'row'><div class = 'column'><img src = 'usneg/6838.bmp' width = '100%;'></div><div class = 'column'><img src = 'category4/CS2.png' width = '70%;'></div></div>","null","neg","CS","CS","4","category4/CS2.png","","","","",""
"","html-keyboard-response","10","84902","0.0-6.0-0.0-0.4","9222elwu5w","many_one","0","direct_first","1","wu06ie28","0","18","1","0","3","1","","0","1","0","null","","","<div class = 'row'><div class = 'column'><img src = 'category2/CS8.png' width = '70%;'></div><div class = 'column'><img src = 'uspos/2058.bmp' width = '100%;'></div></div>","null","pos","CS","CS","2","category2/CS8.png","","","","",""
"","html-keyboard-response","11","87406","0.0-6.0-0.0-0.5","9222elwu5w","many_one","0","direct_first","1","wu06ie28","0","18","1","0","3","1","","0","1","0","null","","","<div class = 'row'><div class = 'column'><img src = 'uspos/5700.bmp' width = '100%;'></div><div class = 'column'><img src = 'category2/CS9.png' width = '70%;'></div></div>","null","pos","CS","CS","2","category2/CS9.png","","","","",""
"","html-keyboard-response","12","89911","0.0-6.0-0.0-0.6","9222elwu5w","many_one","0","direct_first","1","wu06ie28","0","18","1","0","3","1","","0","1","0","null","","","<div class = 'row'><div class = 'column'><img src = 'category4/CS3.png' width = '70%;'></div><div class = 'column'><img src = 'usneg/9340.bmp' width = '100%;'></div></div>","null","neg","CS","CS","4","category4/CS3.png","","","","",""
"","html-keyboard-response","13","92415","0.0-6.0-0.0-0.7","9222elwu5w","many_one","0","direct_first","1","wu06ie28","0","18","1","0","3","1","","0","1","0","null","","","<div class = 'row'><div class = 'column'><img src = 'category1/CS6.png' width = '70%;'></div><div class = 'column'><img src = 'usneg/9220.bmp' width = '100%;'></div></div>","null","neg","CS","CS","1","category1/CS6.png","","","","",""
"","html-keyboard-response","14","94920","0.0-6.0-0.0-0.8","9222elwu5w","many_one","0","direct_first","1","wu06ie28","0","18","1","0","3","1","","0","1","0","null","","","<div class = 'row'><div class = 'column'><img src = 'category2/CS6.png' width = '70%;'></div><div class = 'column'><img src = 'uspos/2150.bmp' width = '100%;'></div></div>","null","pos","CS","CS","2","category2/CS6.png","","","","",""
"","html-keyboard-response","15","97425","0.0-6.0-0.0-0.9","9222elwu5w","many_one","0","direct_first","1","wu06ie28","0","18","1","0","3","1","","0","1","0","null","","","<div class = 'row'><div class = 'column'><img src = 'category3/CS10.png' width = '70%;'></div><div class = 'column'><img src = 'uspos/5831.bmp' width = '100%;'></div></div>","null","pos","CS","CS","3","category3/CS10.png","","","","",""
"","html-keyboard-response","16","99929","0.0-6.0-0.0-0.10","9222elwu5w","many_one","0","direct_first","1","wu06ie28","0","18","1","0","3","1","","0","1","0","null","","","<div class = 'row'><div class = 'column'><img src = 'category3/CS4.png' width = '70%;'></div><div class = 'column'><img src = 'uspos/1460.bmp' width = '100%;'></div></div>","null","pos","CS","CS","3","category3/CS4.png","","","","",""
"","html-keyboard-response","17","102433","0.0-6.0-0.0-0.11","9222elwu5w","many_one","0","direct_first","1","wu06ie28","0","18","1","0","3","1","","0","1","0","null","","","<div class = 'row'><div class = 'column'><img src = 'usneg/9180.bmp' width = '100%;'></div><div class = 'column'><img src = 'category1/CS2.png' width = '70%;'></div></div>","null","neg","CS","CS","1","category1/CS2.png","","","","",""
"","html-keyboard-response","18","104936","0.0-6.0-0.0-0.12","9222elwu5w","many_one","0","direct_first","1","wu06ie28","0","18","1","0","3","1","","0","1","0","null","","","<div class = 'row'><div class = 'column'><img src = 'category4/CS10.png' width = '70%;'></div><div class = 'column'><img src = 'usneg/9635.2.bmp' width = '100%;'></div></div>","null","neg","CS","CS","4","category4/CS10.png","","","","",""
"","html-keyboard-response","19","107441","0.0-6.0-0.0-0.13","9222elwu5w","many_one","0","direct_first","1","wu06ie28","0","18","1","0","3","1","","0","1","0","null","","","<div class = 'row'><div class = 'column'><img src = 'category3/CS5.png' width = '70%;'></div><div class = 'column'><img src = 'uspos/5830.bmp' width = '100%;'></div></div>","null","pos","CS","CS","3","category3/CS5.png","","","","",""
"","html-keyboard-response","20","109945","0.0-6.0-0.0-0.14","9222elwu5w","many_one","0","direct_first","1","wu06ie28","0","18","1","0","3","1","","0","1","0","null","","","<div class = 'row'><div class = 'column'><img src = 'category1/CS7.png' width = '70%;'></div><div class = 'column'><img src = 'usneg/9920.bmp' width = '100%;'></div></div>","null","neg","CS","CS","1","category1/CS7.png","","","","",""
"","html-keyboard-response","21","112449","0.0-6.0-0.0-0.15","9222elwu5w","many_one","0","direct_first","1","wu06ie28","0","18","1","0","3","1","","0","1","0","null","","","<div class = 'row'><div class = 'column'><img src = 'usneg/9415.bmp' width = '100%;'></div><div class = 'column'><img src = 'category4/CS9.png' width = '70%;'></div></div>","null","neg","CS","CS","4","category4/CS9.png","","","","",""
"","html-keyboard-response","22","114953","0.0-6.0-0.0-0.16","9222elwu5w","many_one","0","direct_first","1","wu06ie28","0","18","1","0","3","1","","0","1","0","null","","","<div class = 'row'><div class = 'column'><img src = 'uspos/2550.bmp' width = '100%;'></div><div class = 'column'><img src = 'category2/CS5.png' width = '70%;'></div></div>","null","pos","CS","CS","2","category2/CS5.png","","","","",""
"","html-keyboard-response","23","117458","0.0-6.0-0.0-0.17","9222elwu5w","many_one","0","direct_first","1","wu06ie28","0","18","1","0","3","1","","0","1","0","null","","","<div class = 'row'><div class = 'column'><img src = 'category4/CS7.png' width = '70%;'></div><div class = 'column'><img src = 'usneg/9520.bmp' width = '100%;'></div></div>","null","neg","CS","CS","4","category4/CS7.png","","","","",""
"","html-keyboard-response","24","119962","0.0-6.0-0.0-0.18","9222elwu5w","many_one","0","direct_first","1","wu06ie28","0","18","1","0","3","1","","0","1","0","null","","","<div class = 'row'><div class = 'column'><img src = 'uspos/8350.bmp' width = '100%;'></div><div class = 'column'><img src = 'category3/CS3.png' width = '70%;'></div></div>","null","pos","CS","CS","3","category3/CS3.png","","","","",""
"","html-keyboard-response","25","122466","0.0-6.0-0.0-0.19","9222elwu5w","many_one","0","direct_first","1","wu06ie28","0","18","1","0","3","1","","0","1","0","null","","","<div class = 'row'><div class = 'column'><img src = 'category2/CS1.png' width = '70%;'></div><div class = 'column'><img src = 'uspos/2057.bmp' width = '100%;'></div></div>","null","pos","CS","CS","2","category2/CS1.png","","","","",""
"","survey-html-form","26","124640","0.0-6.0-1.0","9222elwu5w","many_one","0","direct_first","1","wu06ie28","0","18","1","0","3","1","","0","1","0","1671","","{}","","","","","","","","","","","",""
"","html-keyboard-response","27","128644","0.0-6.0-2.0-0.0","9222elwu5w","many_one","0","direct_first","1","wu06ie28","0","18","1","0","3","1","","0","1","0","null","","","<div class = 'row'><div class = 'column'><img src = 'category3/CS8.png' width = '70%;'></div><div class = 'column'><img src = 'uspos/2360.bmp' width = '100%;'></div></div>","null","pos","CS","CS","3","category3/CS8.png","","","","",""
"","html-keyboard-response","28","131148","0.0-6.0-2.0-0.1","9222elwu5w","many_one","0","direct_first","1","wu06ie28","0","18","1","0","3","1","","0","1","0","null","","","<div class = 'row'><div class = 'column'><img src = 'category4/CS10.png' width = '70%;'></div><div class = 'column'><img src = 'usneg/9635.2.bmp' width = '100%;'></div></div>","null","neg","CS","CS","4","category4/CS10.png","","","","",""
"","html-keyboard-response","29","133653","0.0-6.0-2.0-0.2","9222elwu5w","many_one","0","direct_first","1","wu06ie28","0","18","1","0","3","1","","0","1","0","null","","","<div class = 'row'><div class = 'column'><img src = 'category4/CS9.png' width = '70%;'></div><div class = 'column'><img src = 'usneg/9415.bmp' width = '100%;'></div></div>","null","neg","CS","CS","4","category4/CS9.png","","","","",""
"","html-keyboard-response","30","136157","0.0-6.0-2.0-0.3","9222elwu5w","many_one","0","direct_first","1","wu06ie28","0","18","1","0","3","1","","0","1","0","null","","","<div class = 'row'><div class = 'column'><img src = 'category2/CS8.png' width = '70%;'></div><div class = 'column'><img src = 'uspos/2058.bmp' width = '100%;'></div></div>","null","pos","CS","CS","2","category2/CS8.png","","","","",""
"","html-keyboard-response","31","138662","0.0-6.0-2.0-0.4","9222elwu5w","many_one","0","direct_first","1","wu06ie28","0","18","1","0","3","1","","0","1","0","null","","","<div class = 'row'><div class = 'column'><img src = 'uspos/2550.bmp' width = '100%;'></div><div class = 'column'><img src = 'category2/CS5.png' width = '70%;'></div></div>","null","pos","CS","CS","2","category2/CS5.png","","","","",""
"","html-keyboard-response","32","141167","0.0-6.0-2.0-0.5","9222elwu5w","many_one","0","direct_first","1","wu06ie28","0","18","1","0","3","1","","0","1","0","null","","","<div class = 'row'><div class = 'column'><img src = 'usneg/9920.bmp' width = '100%;'></div><div class = 'column'><img src = 'category1/CS7.png' width = '70%;'></div></div>","null","neg","CS","CS","1","category1/CS7.png","","","","",""
"","html-keyboard-response","33","143671","0.0-6.0-2.0-0.6","9222elwu5w","many_one","0","direct_first","1","wu06ie28","0","18","1","0","3","1","","0","1","0","null","","","<div class = 'row'><div class = 'column'><img src = 'category1/CS6.png' width = '70%;'></div><div class = 'column'><img src = 'usneg/9220.bmp' width = '100%;'></div></div>","null","neg","CS","CS","1","category1/CS6.png","","","","",""
"","html-keyboard-response","34","146175","0.0-6.0-2.0-0.7","9222elwu5w","many_one","0","direct_first","1","wu06ie28","0","18","1","0","3","1","","0","1","0","null","","","<div class = 'row'><div class = 'column'><img src = 'category4/CS3.png' width = '70%;'></div><div class = 'column'><img src = 'usneg/9340.bmp' width = '100%;'></div></div>","null","neg","CS","CS","4","category4/CS3.png","","","","",""
"","html-keyboard-response","35","148680","0.0-6.0-2.0-0.8","9222elwu5w","many_one","0","direct_first","1","wu06ie28","0","18","1","0","3","1","","0","1","0","null","","","<div class = 'row'><div class = 'column'><img src = 'uspos/5830.bmp' width = '100%;'></div><div class = 'column'><img src = 'category3/CS5.png' width = '70%;'></div></div>","null","pos","CS","CS","3","category3/CS5.png","","","","",""
"","html-keyboard-response","36","151183","0.0-6.0-2.0-0.9","9222elwu5w","many_one","0","direct_first","1","wu06ie28","0","18","1","0","3","1","","0","1","0","null","","","<div class = 'row'><div class = 'column'><img src = 'usneg/9182.bmp' width = '100%;'></div><div class = 'column'><img src = 'category1/CS5.png' width = '70%;'></div></div>","null","neg","CS","CS","1","category1/CS5.png","","","","",""
"","html-keyboard-response","37","153687","0.0-6.0-2.0-0.10","9222elwu5w","many_one","0","direct_first","1","wu06ie28","0","18","1","0","3","1","","0","1","0","null","","","<div class = 'row'><div class = 'column'><img src = 'usneg/6838.bmp' width = '100%;'></div><div class = 'column'><img src = 'category4/CS2.png' width = '70%;'></div></div>","null","neg","CS","CS","4","category4/CS2.png","","","","",""
"","html-keyboard-response","38","156191","0.0-6.0-2.0-0.11","9222elwu5w","many_one","0","direct_first","1","wu06ie28","0","18","1","0","3","1","","0","1","0","null","","","<div class = 'row'><div class = 'column'><img src = 'usneg/9520.bmp' width = '100%;'></div><div class = 'column'><img src = 'category4/CS7.png' width = '70%;'></div></div>","null","neg","CS","CS","4","category4/CS7.png","","","","",""
"","html-keyboard-response","39","158696","0.0-6.0-2.0-0.12","9222elwu5w","many_one","0","direct_first","1","wu06ie28","0","18","1","0","3","1","","0","1","0","null","","","<div class = 'row'><div class = 'column'><img src = 'uspos/2057.bmp' width = '100%;'></div><div class = 'column'><img src = 'category2/CS1.png' width = '70%;'></div></div>","null","pos","CS","CS","2","category2/CS1.png","","","","",""
"","html-keyboard-response","40","161201","0.0-6.0-2.0-0.13","9222elwu5w","many_one","0","direct_first","1","wu06ie28","0","18","1","0","3","1","","0","1","0","null","","","<div class = 'row'><div class = 'column'><img src = 'uspos/8350.bmp' width = '100%;'></div><div class = 'column'><img src = 'category3/CS3.png' width = '70%;'></div></div>","null","pos","CS","CS","3","category3/CS3.png","","","","",""
"","html-keyboard-response","41","163705","0.0-6.0-2.0-0.14","9222elwu5w","many_one","0","direct_first","1","wu06ie28","0","18","1","0","3","1","","0","1","0","null","","","<div class = 'row'><div class = 'column'><img src = 'category3/CS4.png' width = '70%;'></div><div class = 'column'><img src = 'uspos/1460.bmp' width = '100%;'></div></div>","null","pos","CS","CS","3","category3/CS4.png","","","","",""
"","html-keyboard-response","42","166209","0.0-6.0-2.0-0.15","9222elwu5w","many_one","0","direct_first","1","wu06ie28","0","18","1","0","3","1","","0","1","0","null","","","<div class = 'row'><div class = 'column'><img src = 'usneg/2205.bmp' width = '100%;'></div><div class = 'column'><img src = 'category1/CS1.png' width = '70%;'></div></div>","null","neg","CS","CS","1","category1/CS1.png","","","","",""
"","html-keyboard-response","43","168713","0.0-6.0-2.0-0.16","9222elwu5w","many_one","0","direct_first","1","wu06ie28","0","18","1","0","3","1","","0","1","0","null","","","<div class = 'row'><div class = 'column'><img src = 'category2/CS6.png' width = '70%;'></div><div class = 'column'><img src = 'uspos/2150.bmp' width = '100%;'></div></div>","null","pos","CS","CS","2","category2/CS6.png","","","","",""
"","html-keyboard-response","44","171216","0.0-6.0-2.0-0.17","9222elwu5w","many_one","0","direct_first","1","wu06ie28","0","18","1","0","3","1","","0","1","0","null","","","<div class = 'row'><div class = 'column'><img src = 'uspos/5700.bmp' width = '100%;'></div><div class = 'column'><img src = 'category2/CS9.png' width = '70%;'></div></div>","null","pos","CS","CS","2","category2/CS9.png","","","","",""
"","html-keyboard-response","45","173720","0.0-6.0-2.0-0.18","9222elwu5w","many_one","0","direct_first","1","wu06ie28","0","18","1","0","3","1","","0","1","0","null","","","<div class = 'row'><div class = 'column'><img src = 'category1/CS2.png' width = '70%;'></div><div class = 'column'><img src = 'usneg/9180.bmp' width = '100%;'></div></div>","null","neg","CS","CS","1","category1/CS2.png","","","","",""
"","html-keyboard-response","46","176224","0.0-6.0-2.0-0.19","9222elwu5w","many_one","0","direct_first","1","wu06ie28","0","18","1","0","3","1","","0","1","0","null","","","<div class = 'row'><div class = 'column'><img src = 'uspos/5831.bmp' width = '100%;'></div><div class = 'column'><img src = 'category3/CS10.png' width = '70%;'></div></div>","null","pos","CS","CS","3","category3/CS10.png","","","","",""
"","survey-html-form","47","177596","0.0-6.0-3.0","9222elwu5w","many_one","0","direct_first","1","wu06ie28","0","18","1","0","3","1","","0","1","0","870","","{}","","","","","","","","","","","",""
"","html-keyboard-response","48","181600","0.0-6.0-4.0-0.0","9222elwu5w","many_one","0","direct_first","1","wu06ie28","0","18","1","0","3","1","","0","1","0","null","","","<div class = 'row'><div class = 'column'><img src = 'usneg/2205.bmp' width = '100%;'></div><div class = 'column'><img src = 'category1/CS1.png' width = '70%;'></div></div>","null","neg","CS","CS","1","category1/CS1.png","","","","",""
"","html-keyboard-response","49","184106","0.0-6.0-4.0-0.1","9222elwu5w","many_one","0","direct_first","1","wu06ie28","0","18","1","0","3","1","","0","1","0","null","","","<div class = 'row'><div class = 'column'><img src = 'uspos/2360.bmp' width = '100%;'></div><div class = 'column'><img src = 'category3/CS8.png' width = '70%;'></div></div>","null","pos","CS","CS","3","category3/CS8.png","","","","",""
"","html-keyboard-response","50","186611","0.0-6.0-4.0-0.2","9222elwu5w","many_one","0","direct_first","1","wu06ie28","0","18","1","0","3","1","","0","1","0","null","","","<div class = 'row'><div class = 'column'><img src = 'usneg/9635.2.bmp' width = '100%;'></div><div class = 'column'><img src = 'category4/CS10.png' width = '70%;'></div></div>","null","neg","CS","CS","4","category4/CS10.png","","","","",""
"","html-keyboard-response","51","189116","0.0-6.0-4.0-0.3","9222elwu5w","many_one","0","direct_first","1","wu06ie28","0","18","1","0","3","1","","0","1","0","null","","","<div class = 'row'><div class = 'column'><img src = 'category1/CS6.png' width = '70%;'></div><div class = 'column'><img src = 'usneg/9220.bmp' width = '100%;'></div></div>","null","neg","CS","CS","1","category1/CS6.png","","","","",""
"","html-keyboard-response","52","191620","0.0-6.0-4.0-0.4","9222elwu5w","many_one","0","direct_first","1","wu06ie28","0","18","1","0","3","1","","0","1","0","null","","","<div class = 'row'><div class = 'column'><img src = 'uspos/2550.bmp' width = '100%;'></div><div class = 'column'><img src = 'category2/CS5.png' width = '70%;'></div></div>","null","pos","CS","CS","2","category2/CS5.png","","","","",""
"","html-keyboard-response","53","194125","0.0-6.0-4.0-0.5","9222elwu5w","many_one","0","direct_first","1","wu06ie28","0","18","1","0","3","1","","0","1","0","null","","","<div class = 'row'><div class = 'column'><img src = 'uspos/1460.bmp' width = '100%;'></div><div class = 'column'><img src = 'category3/CS4.png' width = '70%;'></div></div>","null","pos","CS","CS","3","category3/CS4.png","","","","",""
"","html-keyboard-response","54","196629","0.0-6.0-4.0-0.6","9222elwu5w","many_one","0","direct_first","1","wu06ie28","0","18","1","0","3","1","","0","1","0","null","","","<div class = 'row'><div class = 'column'><img src = 'category4/CS2.png' width = '70%;'></div><div class = 'column'><img src = 'usneg/6838.bmp' width = '100%;'></div></div>","null","neg","CS","CS","4","category4/CS2.png","","","","",""
"","html-keyboard-response","55","199134","0.0-6.0-4.0-0.7","9222elwu5w","many_one","0","direct_first","1","wu06ie28","0","18","1","0","3","1","","0","1","0","null","","","<div class = 'row'><div class = 'column'><img src = 'usneg/9182.bmp' width = '100%;'></div><div class = 'column'><img src = 'category1/CS5.png' width = '70%;'></div></div>","null","neg","CS","CS","1","category1/CS5.png","","","","",""
"","html-keyboard-response","56","201638","0.0-6.0-4.0-0.8","9222elwu5w","many_one","0","direct_first","1","wu06ie28","0","18","1","0","3","1","","0","1","0","null","","","<div class = 'row'><div class = 'column'><img src = 'category4/CS3.png' width = '70%;'></div><div class = 'column'><img src = 'usneg/9340.bmp' width = '100%;'></div></div>","null","neg","CS","CS","4","category4/CS3.png","","","","",""
"","html-keyboard-response","57","204143","0.0-6.0-4.0-0.9","9222elwu5w","many_one","0","direct_first","1","wu06ie28","0","18","1","0","3","1","","0","1","0","null","","","<div class = 'row'><div class = 'column'><img src = 'usneg/9920.bmp' width = '100%;'></div><div class = 'column'><img src = 'category1/CS7.png' width = '70%;'></div></div>","null","neg","CS","CS","1","category1/CS7.png","","","","",""
"","html-keyboard-response","58","206647","0.0-6.0-4.0-0.10","9222elwu5w","many_one","0","direct_first","1","wu06ie28","0","18","1","0","3","1","","0","1","0","null","","","<div class = 'row'><div class = 'column'><img src = 'category3/CS5.png' width = '70%;'></div><div class = 'column'><img src = 'uspos/5830.bmp' width = '100%;'></div></div>","null","pos","CS","CS","3","category3/CS5.png","","","","",""
"","html-keyboard-response","59","209155","0.0-6.0-4.0-0.11","9222elwu5w","many_one","0","direct_first","1","wu06ie28","0","18","1","0","3","1","","0","1","0","null","","","<div class = 'row'><div class = 'column'><img src = 'category4/CS7.png' width = '70%;'></div><div class = 'column'><img src = 'usneg/9520.bmp' width = '100%;'></div></div>","null","neg","CS","CS","4","category4/CS7.png","","","","",""
"","html-keyboard-response","60","211660","0.0-6.0-4.0-0.12","9222elwu5w","many_one","0","direct_first","1","wu06ie28","0","18","1","0","3","1","","0","1","0","null","","","<div class = 'row'><div class = 'column'><img src = 'uspos/2058.bmp' width = '100%;'></div><div class = 'column'><img src = 'category2/CS8.png' width = '70%;'></div></div>","null","pos","CS","CS","2","category2/CS8.png","","","","",""
"","html-keyboard-response","61","214165","0.0-6.0-4.0-0.13","9222elwu5w","many_one","0","direct_first","1","wu06ie28","0","18","1","0","3","1","","0","1","0","null","","","<div class = 'row'><div class = 'column'><img src = 'usneg/9415.bmp' width = '100%;'></div><div class = 'column'><img src = 'category4/CS9.png' width = '70%;'></div></div>","null","neg","CS","CS","4","category4/CS9.png","","","","",""
"","html-keyboard-response","62","216669","0.0-6.0-4.0-0.14","9222elwu5w","many_one","0","direct_first","1","wu06ie28","0","18","1","0","3","1","","0","1","0","null","","","<div class = 'row'><div class = 'column'><img src = 'usneg/9180.bmp' width = '100%;'></div><div class = 'column'><img src = 'category1/CS2.png' width = '70%;'></div></div>","null","neg","CS","CS","1","category1/CS2.png","","","","",""
"","html-keyboard-response","63","219174","0.0-6.0-4.0-0.15","9222elwu5w","many_one","0","direct_first","1","wu06ie28","0","18","1","0","3","1","","0","1","0","null","","","<div class = 'row'><div class = 'column'><img src = 'category2/CS9.png' width = '70%;'></div><div class = 'column'><img src = 'uspos/5700.bmp' width = '100%;'></div></div>","null","pos","CS","CS","2","category2/CS9.png","","","","",""
"","html-keyboard-response","64","221677","0.0-6.0-4.0-0.16","9222elwu5w","many_one","0","direct_first","1","wu06ie28","0","18","1","0","3","1","","0","1","0","null","","","<div class = 'row'><div class = 'column'><img src = 'uspos/5831.bmp' width = '100%;'></div><div class = 'column'><img src = 'category3/CS10.png' width = '70%;'></div></div>","null","pos","CS","CS","3","category3/CS10.png","","","","",""
"","html-keyboard-response","65","224183","0.0-6.0-4.0-0.17","9222elwu5w","many_one","0","direct_first","1","wu06ie28","0","18","1","0","3","1","","0","1","0","null","","","<div class = 'row'><div class = 'column'><img src = 'uspos/8350.bmp' width = '100%;'></div><div class = 'column'><img src = 'category3/CS3.png' width = '70%;'></div></div>","null","pos","CS","CS","3","category3/CS3.png","","","","",""
"","html-keyboard-response","66","226688","0.0-6.0-4.0-0.18","9222elwu5w","many_one","0","direct_first","1","wu06ie28","0","18","1","0","3","1","","0","1","0","null","","","<div class = 'row'><div class = 'column'><img src = 'uspos/2057.bmp' width = '100%;'></div><div class = 'column'><img src = 'category2/CS1.png' width = '70%;'></div></div>","null","pos","CS","CS","2","category2/CS1.png","","","","",""
"","html-keyboard-response","67","229192","0.0-6.0-4.0-0.19","9222elwu5w","many_one","0","direct_first","1","wu06ie28","0","18","1","0","3","1","","0","1","0","null","","","<div class = 'row'><div class = 'column'><img src = 'category2/CS6.png' width = '70%;'></div><div class = 'column'><img src = 'uspos/2150.bmp' width = '100%;'></div></div>","null","pos","CS","CS","2","category2/CS6.png","","","","",""
"","survey-html-form","68","231183","0.0-6.0-5.0","9222elwu5w","many_one","0","direct_first","1","wu06ie28","0","18","1","0","3","1","","0","1","0","1490","","{}","","","","","","","","","","","",""
"","html-keyboard-response","69","235188","0.0-6.0-6.0-0.0","9222elwu5w","many_one","0","direct_first","1","wu06ie28","0","18","1","0","3","1","","0","1","0","null","","","<div class = 'row'><div class = 'column'><img src = 'category1/CS1.png' width = '70%;'></div><div class = 'column'><img src = 'usneg/2205.bmp' width = '100%;'></div></div>","null","neg","CS","CS","1","category1/CS1.png","","","","",""
"","html-keyboard-response","70","237691","0.0-6.0-6.0-0.1","9222elwu5w","many_one","0","direct_first","1","wu06ie28","0","18","1","0","3","1","","0","1","0","null","","","<div class = 'row'><div class = 'column'><img src = 'category3/CS4.png' width = '70%;'></div><div class = 'column'><img src = 'uspos/1460.bmp' width = '100%;'></div></div>","null","pos","CS","CS","3","category3/CS4.png","","","","",""
"","html-keyboard-response","71","240195","0.0-6.0-6.0-0.2","9222elwu5w","many_one","0","direct_first","1","wu06ie28","0","18","1","0","3","1","","0","1","0","null","","","<div class = 'row'><div class = 'column'><img src = 'uspos/2360.bmp' width = '100%;'></div><div class = 'column'><img src = 'category3/CS8.png' width = '70%;'></div></div>","null","pos","CS","CS","3","category3/CS8.png","","","","",""
"","html-keyboard-response","72","242700","0.0-6.0-6.0-0.3","9222elwu5w","many_one","0","direct_first","1","wu06ie28","0","18","1","0","3","1","","0","1","0","null","","","<div class = 'row'><div class = 'column'><img src = 'usneg/9182.bmp' width = '100%;'></div><div class = 'column'><img src = 'category1/CS5.png' width = '70%;'></div></div>","null","neg","CS","CS","1","category1/CS5.png","","","","",""
"","html-keyboard-response","73","245205","0.0-6.0-6.0-0.4","9222elwu5w","many_one","0","direct_first","1","wu06ie28","0","18","1","0","3","1","","0","1","0","null","","","<div class = 'row'><div class = 'column'><img src = 'uspos/2150.bmp' width = '100%;'></div><div class = 'column'><img src = 'category2/CS6.png' width = '70%;'></div></div>","null","pos","CS","CS","2","category2/CS6.png","","","","",""
"","html-keyboard-response","74","247709","0.0-6.0-6.0-0.5","9222elwu5w","many_one","0","direct_first","1","wu06ie28","0","18","1","0","3","1","","0","1","0","null","","","<div class = 'row'><div class = 'column'><img src = 'category2/CS8.png' width = '70%;'></div><div class = 'column'><img src = 'uspos/2058.bmp' width = '100%;'></div></div>","null","pos","CS","CS","2","category2/CS8.png","","","","",""
"","html-keyboard-response","75","250215","0.0-6.0-6.0-0.6","9222elwu5w","many_one","0","direct_first","1","wu06ie28","0","18","1","0","3","1","","0","1","0","null","","","<div class = 'row'><div class = 'column'><img src = 'category1/CS2.png' width = '70%;'></div><div class = 'column'><img src = 'usneg/9180.bmp' width = '100%;'></div></div>","null","neg","CS","CS","1","category1/CS2.png","","","","",""
"","html-keyboard-response","76","252720","0.0-6.0-6.0-0.7","9222elwu5w","many_one","0","direct_first","1","wu06ie28","0","18","1","0","3","1","","0","1","0","null","","","<div class = 'row'><div class = 'column'><img src = 'uspos/5700.bmp' width = '100%;'></div><div class = 'column'><img src = 'category2/CS9.png' width = '70%;'></div></div>","null","pos","CS","CS","2","category2/CS9.png","","","","",""
"","html-keyboard-response","77","255224","0.0-6.0-6.0-0.8","9222elwu5w","many_one","0","direct_first","1","wu06ie28","0","18","1","0","3","1","","0","1","0","null","","","<div class = 'row'><div class = 'column'><img src = 'usneg/9340.bmp' width = '100%;'></div><div class = 'column'><img src = 'category4/CS3.png' width = '70%;'></div></div>","null","neg","CS","CS","4","category4/CS3.png","","","","",""
"","html-keyboard-response","78","257729","0.0-6.0-6.0-0.9","9222elwu5w","many_one","0","direct_first","1","wu06ie28","0","18","1","0","3","1","","0","1","0","null","","","<div class = 'row'><div class = 'column'><img src = 'uspos/2057.bmp' width = '100%;'></div><div class = 'column'><img src = 'category2/CS1.png' width = '70%;'></div></div>","null","pos","CS","CS","2","category2/CS1.png","","","","",""
"","html-keyboard-response","79","260233","0.0-6.0-6.0-0.10","9222elwu5w","many_one","0","direct_first","1","wu06ie28","0","18","1","0","3","1","","0","1","0","null","","","<div class = 'row'><div class = 'column'><img src = 'category4/CS2.png' width = '70%;'></div><div class = 'column'><img src = 'usneg/6838.bmp' width = '100%;'></div></div>","null","neg","CS","CS","4","category4/CS2.png","","","","",""
"","html-keyboard-response","80","262739","0.0-6.0-6.0-0.11","9222elwu5w","many_one","0","direct_first","1","wu06ie28","0","18","1","0","3","1","","0","1","0","null","","","<div class = 'row'><div class = 'column'><img src = 'category2/CS5.png' width = '70%;'></div><div class = 'column'><img src = 'uspos/2550.bmp' width = '100%;'></div></div>","null","pos","CS","CS","2","category2/CS5.png","","","","",""
"","html-keyboard-response","81","265388","0.0-6.0-6.0-0.12","9222elwu5w","many_one","0","direct_first","1","wu06ie28","0","18","1","0","3","1","","0","1","0","null","","","<div class = 'row'><div class = 'column'><img src = 'usneg/9415.bmp' width = '100%;'></div><div class = 'column'><img src = 'category4/CS9.png' width = '70%;'></div></div>","null","neg","CS","CS","4","category4/CS9.png","","","","",""
"","html-keyboard-response","82","267892","0.0-6.0-6.0-0.13","9222elwu5w","many_one","0","direct_first","1","wu06ie28","0","18","1","0","3","1","","0","1","0","null","","","<div class = 'row'><div class = 'column'><img src = 'category4/CS10.png' width = '70%;'></div><div class = 'column'><img src = 'usneg/9635.2.bmp' width = '100%;'></div></div>","null","neg","CS","CS","4","category4/CS10.png","","","","",""
"","html-keyboard-response","83","271389","0.0-6.0-6.0-0.14","9222elwu5w","many_one","0","direct_first","1","wu06ie28","0","18","1","0","3","1","","0","1","0","null","","","<div class = 'row'><div class = 'column'><img src = 'usneg/9520.bmp' width = '100%;'></div><div class = 'column'><img src = 'category4/CS7.png' width = '70%;'></div></div>","null","neg","CS","CS","4","category4/CS7.png","","","","",""
"","html-keyboard-response","84","273893","0.0-6.0-6.0-0.15","9222elwu5w","many_one","0","direct_first","1","wu06ie28","0","18","1","0","3","1","","0","1","0","null","","","<div class = 'row'><div class = 'column'><img src = 'category1/CS7.png' width = '70%;'></div><div class = 'column'><img src = 'usneg/9920.bmp' width = '100%;'></div></div>","null","neg","CS","CS","1","category1/CS7.png","","","","",""
"","html-keyboard-response","85","277450","0.0-6.0-6.0-0.16","9222elwu5w","many_one","0","direct_first","1","wu06ie28","0","18","1","0","3","1","","0","1","0","null","","","<div class = 'row'><div class = 'column'><img src = 'uspos/5831.bmp' width = '100%;'></div><div class = 'column'><img src = 'category3/CS10.png' width = '70%;'></div></div>","null","pos","CS","CS","3","category3/CS10.png","","","","",""
"","html-keyboard-response","86","279952","0.0-6.0-6.0-0.17","9222elwu5w","many_one","0","direct_first","1","wu06ie28","0","18","1","0","3","1","","0","1","0","null","","","<div class = 'row'><div class = 'column'><img src = 'usneg/9220.bmp' width = '100%;'></div><div class = 'column'><img src = 'category1/CS6.png' width = '70%;'></div></div>","null","neg","CS","CS","1","category1/CS6.png","","","","",""
"","html-keyboard-response","87","282456","0.0-6.0-6.0-0.18","9222elwu5w","many_one","0","direct_first","1","wu06ie28","0","18","1","0","3","1","","0","1","0","null","","","<div class = 'row'><div class = 'column'><img src = 'uspos/8350.bmp' width = '100%;'></div><div class = 'column'><img src = 'category3/CS3.png' width = '70%;'></div></div>","null","pos","CS","CS","3","category3/CS3.png","","","","",""
"","html-keyboard-response","88","284962","0.0-6.0-6.0-0.19","9222elwu5w","many_one","0","direct_first","1","wu06ie28","0","18","1","0","3","1","","0","1","0","null","","","<div class = 'row'><div class = 'column'><img src = 'uspos/5830.bmp' width = '100%;'></div><div class = 'column'><img src = 'category3/CS5.png' width = '70%;'></div></div>","null","pos","CS","CS","3","category3/CS5.png","","","","",""
"","survey-html-form","89","289731","0.0-7.0","9222elwu5w","many_one","0","direct_first","1","wu06ie28","0","18","1","0","3","1","","0","1","0","4266","","{}","","","","","","","","","","","",""
"","image-slider-response","90","295686","0.0-8.0-0.0","9222elwu5w","many_one","0","direct_first","1","wu06ie28","0","18","1","0","3","1","","0","1","0","3952","","","","","pos","CS","CS","3","category3/CS10.png","85","targets/36.png","direct","",""
"","image-slider-response","91","302055","0.0-8.0-0.1","9222elwu5w","many_one","0","direct_first","1","wu06ie28","0","18","1","0","3","1","","0","1","0","6367","","","","","pos","GS","GSnew","2","category2/GS2.png","35","targets/24.png","direct","",""
"","image-slider-response","92","305887","0.0-8.0-0.2","9222elwu5w","many_one","0","direct_first","1","wu06ie28","0","18","1","0","3","1","","0","1","0","3830","","","","","pos","GS","GSnew","3","category3/GS1.png","53","targets/15.png","direct","",""
"","image-slider-response","93","309143","0.0-8.0-0.3","9222elwu5w","many_one","0","direct_first","1","wu06ie28","0","18","1","0","3","1","","0","1","0","3255","","","","","neg","CS","CS","1","category1/CS5.png","-36","targets/40.png","direct","",""
"","image-slider-response","94","312371","0.0-8.0-0.4","9222elwu5w","many_one","0","direct_first","1","wu06ie28","0","18","1","0","3","1","","0","1","0","3226","","","","","pos","CS","CS","2","category2/CS1.png","42","targets/32.png","direct","",""
"","image-slider-response","95","314719","0.0-8.0-0.5","9222elwu5w","many_one","0","direct_first","1","wu06ie28","0","18","1","0","3","1","","0","1","0","2347","","","","","pos","GS","GSold","2","category2/CS10.png","40","targets/16.png","direct","",""
"","image-slider-response","96","317422","0.0-8.0-0.6","9222elwu5w","many_one","0","direct_first","1","wu06ie28","0","18","1","0","3","1","","0","1","0","2701","","","","","neg","GS","abstract","4","category4/lin.png","-23","targets/29.png","direct","",""
"","image-slider-response","97","322073","0.0-8.0-0.7","9222elwu5w","many_one","0","direct_first","1","wu06ie28","0","18","1","0","3","1","","0","1","0","4650","","","","","neg","GS","GSold","4","category4/CS4.png","30","targets/47.png","direct","",""
"","image-slider-response","98","324756","0.0-8.0-0.8","9222elwu5w","many_one","0","direct_first","1","wu06ie28","0","18","1","0","3","1","","0","1","0","2681","","","","","pos","GS","GSnew","2","category2/GS3.png","42","targets/44.png","direct","",""
"","image-slider-response","99","327165","0.0-8.0-0.9","9222elwu5w","many_one","0","direct_first","1","wu06ie28","0","18","1","0","3","1","","0","1","0","2409.000000000058","","","","","pos","CS","CS","2","category2/CS9.png","61","targets/6.png","direct","",""
"","image-slider-response","100","335537","0.0-8.0-0.10","9222elwu5w","many_one","0","direct_first","1","wu06ie28","0","18","1","0","3","1","","0","1","0","8370","","","","","pos","GS","abstract","2","category2/men.png","5","targets/43.png","direct","",""
"","image-slider-response","101","338064","0.0-8.0-0.11","9222elwu5w","many_one","0","direct_first","1","wu06ie28","0","18","1","0","3","1","","0","1","0","2525","","","","","neg","GS","GSold","1","category1/CS3.png","-22","targets/12.png","direct","",""
"","image-slider-response","102","340629","0.0-8.0-0.12","9222elwu5w","many_one","0","direct_first","1","wu06ie28","0","18","1","0","3","1","","0","1","0","2562","","","","","pos","GS","GSold","2","category2/CS4.png","9","targets/10.png","direct","",""
"","image-slider-response","103","343881","0.0-8.0-0.13","9222elwu5w","many_one","0","direct_first","1","wu06ie28","0","18","1","0","3","1","","0","1","0","3250","","","","","neg","GS","GSold","4","category4/CS5.png","13","targets/4.png","direct","",""
"","image-slider-response","104","346012","0.0-8.0-0.14","9222elwu5w","many_one","0","direct_first","1","wu06ie28","0","18","1","0","3","1","","0","1","0","2129","","","","","pos","CS","CS","2","category2/CS6.png","12","targets/1.png","direct","",""
"","image-slider-response","105","349035","0.0-8.0-0.15","9222elwu5w","many_one","0","direct_first","1","wu06ie28","0","18","1","0","3","1","","0","1","0","3021","","","","","neg","GS","GSnew","4","category4/GS1.png","16","targets/20.png","direct","",""
"","image-slider-response","106","350989","0.0-8.0-0.16","9222elwu5w","many_one","0","direct_first","1","wu06ie28","0","18","1","0","3","1","","0","1","0","1952.9999999999418","","","","","pos","GS","GSnew","3","category3/GS3.png","22","targets/35.png","direct","",""
"","image-slider-response","107","353102","0.0-8.0-0.17","9222elwu5w","many_one","0","direct_first","1","wu06ie28","0","18","1","0","3","1","","0","1","0","2111.000000000058","","","","","pos","GS","GSold","3","category3/CS7.png","25","targets/18.png","direct","",""
"","image-slider-response","108","355225","0.0-8.0-0.18","9222elwu5w","many_one","0","direct_first","1","wu06ie28","0","18","1","0","3","1","","0","1","0","2123","","","","","neg","CS","CS","4","category4/CS7.png","-23","targets/42.png","direct","",""
"","image-slider-response","109","357216","0.0-8.0-0.19","9222elwu5w","many_one","0","direct_first","1","wu06ie28","0","18","1","0","3","1","","0","1","0","1988.9999999999418","","","","","pos","CS","CS","3","category3/CS5.png","21","targets/33.png","direct","",""
"","image-slider-response","110","359583","0.0-8.0-0.20","9222elwu5w","many_one","0","direct_first","1","wu06ie28","0","18","1","0","3","1","","0","1","0","2366","","","","","neg","GS","abstract","1","category1/ma.png","-11","targets/23.png","direct","",""
"","image-slider-response","111","361729","0.0-8.0-0.21","9222elwu5w","many_one","0","direct_first","1","wu06ie28","0","18","1","0","3","1","","0","1","0","2144","","","","","neg","GS","GSnew","1","category1/GS1.png","-11","targets/9.png","direct","",""
"","image-slider-response","112","364081","0.0-8.0-0.22","9222elwu5w","many_one","0","direct_first","1","wu06ie28","0","18","1","0","3","1","","0","1","0","2350","","","","","pos","GS","GSold","3","category3/CS2.png","18","targets/26.png","direct","",""
"","image-slider-response","113","366348","0.0-8.0-0.23","9222elwu5w","many_one","0","direct_first","1","wu06ie28","0","18","1","0","3","1","","0","1","0","2264","","","","","pos","CS","CS","3","category3/CS3.png","25","targets/27.png","direct","",""
"","image-slider-response","114","368439","0.0-8.0-0.24","9222elwu5w","many_one","0","direct_first","1","wu06ie28","0","18","1","0","3","1","","0","1","0","2090","","","","","pos","CS","CS","2","category2/CS5.png","19","targets/21.png","direct","",""
"","image-slider-response","115","370568","0.0-8.0-0.25","9222elwu5w","many_one","0","direct_first","1","wu06ie28","0","18","1","0","3","1","","0","1","0","2127","","","","","pos","GS","GSnew","3","category3/GS2.png","18","targets/39.png","direct","",""
"","image-slider-response","116","375749","0.0-8.0-0.26","9222elwu5w","many_one","0","direct_first","1","wu06ie28","0","18","1","0","3","1","","0","1","0","5179","","","","","pos","GS","GSnew","2","category2/GS1.png","24","targets/14.png","direct","",""
"","image-slider-response","117","378361","0.0-8.0-0.27","9222elwu5w","many_one","0","direct_first","1","wu06ie28","0","18","1","0","3","1","","0","1","0","2610","","","","","pos","CS","CS","3","category3/CS8.png","33","targets/34.png","direct","",""
"","image-slider-response","118","383135","0.0-8.0-0.28","9222elwu5w","many_one","0","direct_first","1","wu06ie28","0","18","1","0","3","1","","0","1","0","4773","","","","","neg","GS","GSnew","4","category4/GS2.png","-45","targets/46.png","direct","",""
"","image-slider-response","119","385316","0.0-8.0-0.29","9222elwu5w","many_one","0","direct_first","1","wu06ie28","0","18","1","0","3","1","","0","1","0","2180.000000000058","","","","","neg","CS","CS","4","category4/CS10.png","32","targets/37.png","direct","",""
"","image-slider-response","120","387558","0.0-8.0-0.30","9222elwu5w","many_one","0","direct_first","1","wu06ie28","0","18","1","0","3","1","","0","1","0","2241","","","","","pos","CS","CS","2","category2/CS8.png","34","targets/31.png","direct","",""
"","image-slider-response","121","390863","0.0-8.0-0.31","9222elwu5w","many_one","0","direct_first","1","wu06ie28","0","18","1","0","3","1","","0","1","0","3303","","","","","neg","GS","GSold","1","category1/CS10.png","-40","targets/38.png","direct","",""
"","image-slider-response","122","393048","0.0-8.0-0.32","9222elwu5w","many_one","0","direct_first","1","wu06ie28","0","18","1","0","3","1","","0","1","0","2183.999999999942","","","","","neg","GS","GSold","4","category4/CS8.png","48","targets/7.png","direct","",""
"","image-slider-response","123","395311","0.0-8.0-0.33","9222elwu5w","many_one","0","direct_first","1","wu06ie28","0","18","1","0","3","1","","0","1","0","2260.999999999942","","","","","neg","CS","CS","4","category4/CS3.png","14","targets/19.png","direct","",""
"","image-slider-response","124","397407","0.0-8.0-0.34","9222elwu5w","many_one","0","direct_first","1","wu06ie28","0","18","1","0","3","1","","0","1","0","2094","","","","","neg","CS","CS","1","category1/CS6.png","-22","targets/11.png","direct","",""
"","image-slider-response","125","399670","0.0-8.0-0.35","9222elwu5w","many_one","0","direct_first","1","wu06ie28","0","18","1","0","3","1","","0","1","0","2261","","","","","neg","GS","GSnew","4","category4/GS3.png","53","targets/22.png","direct","",""
"","image-slider-response","126","402896","0.0-8.0-0.36","9222elwu5w","many_one","0","direct_first","1","wu06ie28","0","18","1","0","3","1","","0","1","0","3225","","","","","neg","CS","CS","1","category1/CS7.png","37","targets/28.png","direct","",""
"","image-slider-response","127","406506","0.0-8.0-0.37","9222elwu5w","many_one","0","direct_first","1","wu06ie28","0","18","1","0","3","1","","0","1","0","3608","","","","","neg","GS","GSnew","1","category1/GS3.png","100","targets/45.png","direct","",""
"","image-slider-response","128","409309","0.0-8.0-0.38","9222elwu5w","many_one","0","direct_first","1","wu06ie28","0","18","1","0","3","1","","0","1","0","2801.999999999942","","","","","pos","CS","CS","3","category3/CS4.png","31","targets/41.png","direct","",""
"","image-slider-response","129","411450","0.0-8.0-0.39","9222elwu5w","many_one","0","direct_first","1","wu06ie28","0","18","1","0","3","1","","0","1","0","2139","","","","","pos","GS","GSold","3","category3/CS1.png","20","targets/17.png","direct","",""
"","image-slider-response","130","413512","0.0-8.0-0.40","9222elwu5w","many_one","0","direct_first","1","wu06ie28","0","18","1","0","3","1","","0","1","0","2060","","","","","neg","CS","CS","1","category1/CS1.png","-44","targets/2.png","direct","",""
"","image-slider-response","131","415930","0.0-8.0-0.41","9222elwu5w","many_one","0","direct_first","1","wu06ie28","0","18","1","0","3","1","","0","1","0","2414.999999999942","","","","","neg","GS","GSnew","1","category1/GS2.png","-25","targets/13.png","direct","",""
"","image-slider-response","132","421110","0.0-8.0-0.42","9222elwu5w","many_one","0","direct_first","1","wu06ie28","0","18","1","0","3","1","","0","1","0","5179","","","","","neg","CS","CS","4","category4/CS9.png","-19","targets/30.png","direct","",""
"","image-slider-response","133","423288","0.0-8.0-0.43","9222elwu5w","many_one","0","direct_first","1","wu06ie28","0","18","1","0","3","1","","0","1","0","2176","","","","","neg","CS","CS","1","category1/CS2.png","-10","targets/3.png","direct","",""
"","image-slider-response","134","425518","0.0-8.0-0.44","9222elwu5w","many_one","0","direct_first","1","wu06ie28","0","18","1","0","3","1","","0","1","0","2228","","","","","neg","GS","GSold","1","category1/CS9.png","-24","targets/48.png","direct","",""
"","image-slider-response","135","427961","0.0-8.0-0.45","9222elwu5w","many_one","0","direct_first","1","wu06ie28","0","18","1","0","3","1","","0","1","0","2440","","","","","pos","GS","abstract","3","category3/wang.png","38","targets/5.png","direct","",""
"","image-slider-response","136","430252","0.0-8.0-0.46","9222elwu5w","many_one","0","direct_first","1","wu06ie28","0","18","1","0","3","1","","0","1","0","2289","","","","","neg","CS","CS","4","category4/CS2.png","-17","targets/25.png","direct","",""
"","image-slider-response","137","432645","0.0-8.0-0.47","9222elwu5w","many_one","0","direct_first","1","wu06ie28","0","18","1","0","3","1","","0","1","0","2391.000000000058","","","","","pos","GS","GSold","2","category2/CS2.png","-12","targets/8.png","direct","",""
"","html-keyboard-response","138","443061","0.0-9.0","9222elwu5w","many_one","0","direct_first","1","wu06ie28","0","18","1","0","3","1","","0","1","0","10414","","","<p>Sie sehen nun die chinesischen Zeichen nur ganz kurz. Danach sehen Sie die jeweilige Aussprache der Zeichen als Silbe auf dem Bildschrim. Ihre Aufgabe ist es, für jede Silbe anzugeben, ob diese etwas angenehmes, oder unangenehmes bedeuten könnte. Verlassen Sie sich hier vor allem auf Ihre Intuition.<br><br>Die Zeichen werden nur zur Orientierung dargestellt, beachten Sie sie deshalb nicht. Konzentrieren Sie sich vor allem auf die Silben. <br>Reagieren Sie mit folgenden zwei Tasten: <br><br><b>'D' </b> wenn die Silbe etwas <b>unangenehmes</b> bedeuten könnte. <br><b>'K'</b> wenn die Silbe etwas <b>angenehmes</b> bedeuten könnte. <br><br>Bitte legen Sie nun den Zeigefinger der linken Hand auf die Taste 'D' und den Zeigefinger der rechten Hand auf die Taste 'K'. <br>Reagieren Sie auf jede Silbe so schnell wie möglich. Uns interessiert Ihre spontane Reaktion. <br> <br> <br>Drücken Sie 'D' oder 'K', um die nächste Aufgabe zu starten. </p>","75","","","","","","","","","",""
"","html-keyboard-response","139","446065","0.0-10.0-0.0","9222elwu5w","many_one","0","direct_first","1","wu06ie28","0","18","1","0","3","1","","0","1","0","null","","","<div style=""font-size:60px;"">+</div>","null","","","","","","","","","",""
"","html-keyboard-response","140","446158","0.0-10.0-1.0","9222elwu5w","many_one","0","direct_first","1","wu06ie28","0","18","1","0","3","1","","0","1","0","null","","","<img src = 'category2/CS6.png' width = '100%;'>","null","","","","","","","","","",""
"","html-keyboard-response","141","446411","0.0-10.0-2.0","9222elwu5w","many_one","0","direct_first","1","wu06ie28","0","18","1","0","3","1","","0","1","0","null","","","<img src = 'targets/1.png' width = '100%;'>","null","","","","","","","","","",""
"","html-keyboard-response","142","448883","0.0-10.0-3.0","9222elwu5w","many_one","0","direct_first","1","wu06ie28","0","18","1","0","3","1","","0","1","0","2470","","","<img src = 'targets/mask.png' width = '100%;'>","75","pos","CS","CS","2","category2/CS6.png","","targets/1.png","indirect","1","0"
"","html-keyboard-response","143","450387","0.0-10.0-0.1","9222elwu5w","many_one","0","direct_first","1","wu06ie28","0","18","1","0","3","1","","0","1","0","null","","","<div style=""font-size:60px;"">+</div>","null","","","","","","","","","",""
"","html-keyboard-response","144","450479","0.0-10.0-1.1","9222elwu5w","many_one","0","direct_first","1","wu06ie28","0","18","1","0","3","1","","0","1","0","null","","","<img src = 'category4/CS10.png' width = '100%;'>","null","","","","","","","","","",""
"","html-keyboard-response","145","450732","0.0-10.0-2.1","9222elwu5w","many_one","0","direct_first","1","wu06ie28","0","18","1","0","3","1","","0","1","0","null","","","<img src = 'targets/37.png' width = '100%;'>","null","","","","","","","","","",""
"","html-keyboard-response","146","451417","0.0-10.0-3.1","9222elwu5w","many_one","0","direct_first","1","wu06ie28","0","18","1","0","3","1","","0","1","0","684","","","<img src = 'targets/mask.png' width = '100%;'>","75","neg","CS","CS","4","category4/CS10.png","","targets/37.png","indirect","1","1"
"","html-keyboard-response","147","452920","0.0-10.0-0.2","9222elwu5w","many_one","0","direct_first","1","wu06ie28","0","18","1","0","3","1","","0","1","0","null","","","<div style=""font-size:60px;"">+</div>","null","","","","","","","","","",""
"","html-keyboard-response","148","453014","0.0-10.0-1.2","9222elwu5w","many_one","0","direct_first","1","wu06ie28","0","18","1","0","3","1","","0","1","0","null","","","<img src = 'category3/CS5.png' width = '100%;'>","null","","","","","","","","","",""
"","html-keyboard-response","149","453267","0.0-10.0-2.2","9222elwu5w","many_one","0","direct_first","1","wu06ie28","0","18","1","0","3","1","","0","1","0","null","","","<img src = 'targets/33.png' width = '100%;'>","null","","","","","","","","","",""
"","html-keyboard-response","150","454439","0.0-10.0-3.2","9222elwu5w","many_one","0","direct_first","1","wu06ie28","0","18","1","0","3","1","","0","1","0","1171.0000000000582","","","<img src = 'targets/mask.png' width = '100%;'>","75","pos","CS","CS","3","category3/CS5.png","","targets/33.png","indirect","1","2"
"","html-keyboard-response","151","455944","0.0-10.0-0.3","9222elwu5w","many_one","0","direct_first","1","wu06ie28","0","18","1","0","3","1","","0","1","0","null","","","<div style=""font-size:60px;"">+</div>","null","","","","","","","","","",""
"","html-keyboard-response","152","456036","0.0-10.0-1.3","9222elwu5w","many_one","0","direct_first","1","wu06ie28","0","18","1","0","3","1","","0","1","0","null","","","<img src = 'category4/CS2.png' width = '100%;'>","null","","","","","","","","","",""
"","html-keyboard-response","153","456289","0.0-10.0-2.3","9222elwu5w","many_one","0","direct_first","1","wu06ie28","0","18","1","0","3","1","","0","1","0","null","","","<img src = 'targets/25.png' width = '100%;'>","null","","","","","","","","","",""
"","html-keyboard-response","154","458103","0.0-10.0-3.3","9222elwu5w","many_one","0","direct_first","1","wu06ie28","0","18","1","0","3","1","","0","1","0","1812","","","<img src = 'targets/mask.png' width = '100%;'>","68","neg","CS","CS","4","category4/CS2.png","","targets/25.png","indirect","0","3"
"","html-keyboard-response","155","459608","0.0-10.0-0.4","9222elwu5w","many_one","0","direct_first","1","wu06ie28","0","18","1","0","3","1","","0","1","0","null","","","<div style=""font-size:60px;"">+</div>","null","","","","","","","","","",""
"","html-keyboard-response","156","459700","0.0-10.0-1.4","9222elwu5w","many_one","0","direct_first","1","wu06ie28","0","18","1","0","3","1","","0","1","0","null","","","<img src = 'category1/CS1.png' width = '100%;'>","null","","","","","","","","","",""
"","html-keyboard-response","157","459953","0.0-10.0-2.4","9222elwu5w","many_one","0","direct_first","1","wu06ie28","0","18","1","0","3","1","","0","1","0","null","","","<img src = 'targets/2.png' width = '100%;'>","null","","","","","","","","","",""
"","html-keyboard-response","158","460363","0.0-10.0-3.4","9222elwu5w","many_one","0","direct_first","1","wu06ie28","0","18","1","0","3","1","","0","1","0","408","","","<img src = 'targets/mask.png' width = '100%;'>","68","neg","CS","CS","1","category1/CS1.png","","targets/2.png","indirect","0","4"
"","html-keyboard-response","159","461868","0.0-10.0-0.5","9222elwu5w","many_one","0","direct_first","1","wu06ie28","0","18","1","0","3","1","","0","1","0","null","","","<div style=""font-size:60px;"">+</div>","null","","","","","","","","","",""
"","html-keyboard-response","160","461960","0.0-10.0-1.5","9222elwu5w","many_one","0","direct_first","1","wu06ie28","0","18","1","0","3","1","","0","1","0","null","","","<img src = 'category3/CS8.png' width = '100%;'>","null","","","","","","","","","",""
"","html-keyboard-response","161","462213","0.0-10.0-2.5","9222elwu5w","many_one","0","direct_first","1","wu06ie28","0","18","1","0","3","1","","0","1","0","null","","","<img src = 'targets/34.png' width = '100%;'>","null","","","","","","","","","",""
"","html-keyboard-response","162","462634","0.0-10.0-3.5","9222elwu5w","many_one","0","direct_first","1","wu06ie28","0","18","1","0","3","1","","0","1","0","419.0000000000582","","","<img src = 'targets/mask.png' width = '100%;'>","75","pos","CS","CS","3","category3/CS8.png","","targets/34.png","indirect","1","5"
"","html-keyboard-response","163","464138","0.0-10.0-0.6","9222elwu5w","many_one","0","direct_first","1","wu06ie28","0","18","1","0","3","1","","0","1","0","null","","","<div style=""font-size:60px;"">+</div>","null","","","","","","","","","",""
"","html-keyboard-response","164","464230","0.0-10.0-1.6","9222elwu5w","many_one","0","direct_first","1","wu06ie28","0","18","1","0","3","1","","0","1","0","null","","","<img src = 'category3/CS4.png' width = '100%;'>","null","","","","","","","","","",""
"","html-keyboard-response","165","464484","0.0-10.0-2.6","9222elwu5w","many_one","0","direct_first","1","wu06ie28","0","18","1","0","3","1","","0","1","0","null","","","<img src = 'targets/41.png' width = '100%;'>","null","","","","","","","","","",""
"","html-keyboard-response","166","464648","0.0-10.0-3.6","9222elwu5w","many_one","0","direct_first","1","wu06ie28","0","18","1","0","3","1","","0","1","0","164","","","<img src = 'targets/mask.png' width = '100%;'>","75","pos","CS","CS","3","category3/CS4.png","","targets/41.png","indirect","1","6"
"","html-keyboard-response","167","466153","0.0-10.0-0.7","9222elwu5w","many_one","0","direct_first","1","wu06ie28","0","18","1","0","3","1","","0","1","0","null","","","<div style=""font-size:60px;"">+</div>","null","","","","","","","","","",""
"","html-keyboard-response","168","466245","0.0-10.0-1.7","9222elwu5w","many_one","0","direct_first","1","wu06ie28","0","18","1","0","3","1","","0","1","0","null","","","<img src = 'category4/CS3.png' width = '100%;'>","null","","","","","","","","","",""
"","html-keyboard-response","169","466498","0.0-10.0-2.7","9222elwu5w","many_one","0","direct_first","1","wu06ie28","0","18","1","0","3","1","","0","1","0","null","","","<img src = 'targets/19.png' width = '100%;'>","null","","","","","","","","","",""
"","html-keyboard-response","170","466678","0.0-10.0-3.7","9222elwu5w","many_one","0","direct_first","1","wu06ie28","0","18","1","0","3","1","","0","1","0","178","","","<img src = 'targets/mask.png' width = '100%;'>","68","neg","CS","CS","4","category4/CS3.png","","targets/19.png","indirect","0","7"
"","html-keyboard-response","171","468183","0.0-10.0-0.8","9222elwu5w","many_one","0","direct_first","1","wu06ie28","0","18","1","0","3","1","","0","1","0","null","","","<div style=""font-size:60px;"">+</div>","null","","","","","","","","","",""
"","html-keyboard-response","172","468275","0.0-10.0-1.8","9222elwu5w","many_one","0","direct_first","1","wu06ie28","0","18","1","0","3","1","","0","1","0","null","","","<img src = 'category2/CS5.png' width = '100%;'>","null","","","","","","","","","",""
"","html-keyboard-response","173","468528","0.0-10.0-2.8","9222elwu5w","many_one","0","direct_first","1","wu06ie28","0","18","1","0","3","1","","0","1","0","null","","","<img src = 'targets/21.png' width = '100%;'>","null","","","","","","","","","",""
"","html-keyboard-response","174","468904","0.0-10.0-3.8","9222elwu5w","many_one","0","direct_first","1","wu06ie28","0","18","1","0","3","1","","0","1","0","374.0000000000582","","","<img src = 'targets/mask.png' width = '100%;'>","75","pos","CS","CS","2","category2/CS5.png","","targets/21.png","indirect","1","8"
"","html-keyboard-response","175","470408","0.0-10.0-0.9","9222elwu5w","many_one","0","direct_first","1","wu06ie28","0","18","1","0","3","1","","0","1","0","null","","","<div style=""font-size:60px;"">+</div>","null","","","","","","","","","",""
"","html-keyboard-response","176","470500","0.0-10.0-1.9","9222elwu5w","many_one","0","direct_first","1","wu06ie28","0","18","1","0","3","1","","0","1","0","null","","","<img src = 'category1/CS5.png' width = '100%;'>","null","","","","","","","","","",""
"","html-keyboard-response","177","470753","0.0-10.0-2.9","9222elwu5w","many_one","0","direct_first","1","wu06ie28","0","18","1","0","3","1","","0","1","0","null","","","<img src = 'targets/40.png' width = '100%;'>","null","","","","","","","","","",""
"","html-keyboard-response","178","472333","0.0-10.0-3.9","9222elwu5w","many_one","0","direct_first","1","wu06ie28","0","18","1","0","3","1","","0","1","0","1577.9999999999418","","","<img src = 'targets/mask.png' width = '100%;'>","68","neg","CS","CS","1","category1/CS5.png","","targets/40.png","indirect","0","9"
"","html-keyboard-response","179","473838","0.0-10.0-0.10","9222elwu5w","many_one","0","direct_first","1","wu06ie28","0","18","1","0","3","1","","0","1","0","null","","","<div style=""font-size:60px;"">+</div>","null","","","","","","","","","",""
"","html-keyboard-response","180","473930","0.0-10.0-1.10","9222elwu5w","many_one","0","direct_first","1","wu06ie28","0","18","1","0","3","1","","0","1","0","null","","","<img src = 'category3/CS10.png' width = '100%;'>","null","","","","","","","","","",""
"","html-keyboard-response","181","474182","0.0-10.0-2.10","9222elwu5w","many_one","0","direct_first","1","wu06ie28","0","18","1","0","3","1","","0","1","0","null","","","<img src = 'targets/36.png' width = '100%;'>","null","","","","","","","","","",""
"","html-keyboard-response","182","474453","0.0-10.0-3.10","9222elwu5w","many_one","0","direct_first","1","wu06ie28","0","18","1","0","3","1","","0","1","0","270","","","<img src = 'targets/mask.png' width = '100%;'>","75","pos","CS","CS","3","category3/CS10.png","","targets/36.png","indirect","1","10"
"","html-keyboard-response","183","475958","0.0-10.0-0.11","9222elwu5w","many_one","0","direct_first","1","wu06ie28","0","18","1","0","3","1","","0","1","0","null","","","<div style=""font-size:60px;"">+</div>","null","","","","","","","","","",""
"","html-keyboard-response","184","476051","0.0-10.0-1.11","9222elwu5w","many_one","0","direct_first","1","wu06ie28","0","18","1","0","3","1","","0","1","0","null","","","<img src = 'category4/CS9.png' width = '100%;'>","null","","","","","","","","","",""
"","html-keyboard-response","185","476304","0.0-10.0-2.11","9222elwu5w","many_one","0","direct_first","1","wu06ie28","0","18","1","0","3","1","","0","1","0","null","","","<img src = 'targets/30.png' width = '100%;'>","null","","","","","","","","","",""
"","html-keyboard-response","186","476485","0.0-10.0-3.11","9222elwu5w","many_one","0","direct_first","1","wu06ie28","0","18","1","0","3","1","","0","1","0","180.0000000000582","","","<img src = 'targets/mask.png' width = '100%;'>","75","neg","CS","CS","4","category4/CS9.png","","targets/30.png","indirect","1","11"
"","html-keyboard-response","187","477989","0.0-10.0-0.12","9222elwu5w","many_one","0","direct_first","1","wu06ie28","0","18","1","0","3","1","","0","1","0","null","","","<div style=""font-size:60px;"">+</div>","null","","","","","","","","","",""
"","html-keyboard-response","188","478084","0.0-10.0-1.12","9222elwu5w","many_one","0","direct_first","1","wu06ie28","0","18","1","0","3","1","","0","1","0","null","","","<img src = 'category4/CS7.png' width = '100%;'>","null","","","","","","","","","",""
"","html-keyboard-response","189","478337","0.0-10.0-2.12","9222elwu5w","many_one","0","direct_first","1","wu06ie28","0","18","1","0","3","1","","0","1","0","null","","","<img src = 'targets/42.png' width = '100%;'>","null","","","","","","","","","",""
"","html-keyboard-response","190","478508","0.0-10.0-3.12","9222elwu5w","many_one","0","direct_first","1","wu06ie28","0","18","1","0","3","1","","0","1","0","170.0000000000582","","","<img src = 'targets/mask.png' width = '100%;'>","75","neg","CS","CS","4","category4/CS7.png","","targets/42.png","indirect","1","12"
"","html-keyboard-response","191","480012","0.0-10.0-0.13","9222elwu5w","many_one","0","direct_first","1","wu06ie28","0","18","1","0","3","1","","0","1","0","null","","","<div style=""font-size:60px;"">+</div>","null","","","","","","","","","",""
"","html-keyboard-response","192","480103","0.0-10.0-1.13","9222elwu5w","many_one","0","direct_first","1","wu06ie28","0","18","1","0","3","1","","0","1","0","null","","","<img src = 'category3/CS3.png' width = '100%;'>","null","","","","","","","","","",""
"","html-keyboard-response","193","480356","0.0-10.0-2.13","9222elwu5w","many_one","0","direct_first","1","wu06ie28","0","18","1","0","3","1","","0","1","0","null","","","<img src = 'targets/27.png' width = '100%;'>","null","","","","","","","","","",""
"","html-keyboard-response","194","480694","0.0-10.0-3.13","9222elwu5w","many_one","0","direct_first","1","wu06ie28","0","18","1","0","3","1","","0","1","0","337","","","<img src = 'targets/mask.png' width = '100%;'>","75","pos","CS","CS","3","category3/CS3.png","","targets/27.png","indirect","1","13"
"","html-keyboard-response","195","482198","0.0-10.0-0.14","9222elwu5w","many_one","0","direct_first","1","wu06ie28","0","18","1","0","3","1","","0","1","0","null","","","<div style=""font-size:60px;"">+</div>","null","","","","","","","","","",""
"","html-keyboard-response","196","482289","0.0-10.0-1.14","9222elwu5w","many_one","0","direct_first","1","wu06ie28","0","18","1","0","3","1","","0","1","0","null","","","<img src = 'category1/CS9.png' width = '100%;'>","null","","","","","","","","","",""
"","html-keyboard-response","197","482542","0.0-10.0-2.14","9222elwu5w","many_one","0","direct_first","1","wu06ie28","0","18","1","0","3","1","","0","1","0","null","","","<img src = 'targets/48.png' width = '100%;'>","null","","","","","","","","","",""
"","html-keyboard-response","198","483035","0.0-10.0-3.14","9222elwu5w","many_one","0","direct_first","1","wu06ie28","0","18","1","0","3","1","","0","1","0","491","","","<img src = 'targets/mask.png' width = '100%;'>","68","neg","GS","GSold","1","category1/CS9.png","","targets/48.png","indirect","0","14"
"","html-keyboard-response","199","484539","0.0-10.0-0.15","9222elwu5w","many_one","0","direct_first","1","wu06ie28","0","18","1","0","3","1","","0","1","0","null","","","<div style=""font-size:60px;"">+</div>","null","","","","","","","","","",""
"","html-keyboard-response","200","484631","0.0-10.0-1.15","9222elwu5w","many_one","0","direct_first","1","wu06ie28","0","18","1","0","3","1","","0","1","0","null","","","<img src = 'category1/CS2.png' width = '100%;'>","null","","","","","","","","","",""
"","html-keyboard-response","201","484884","0.0-10.0-2.15","9222elwu5w","many_one","0","direct_first","1","wu06ie28","0","18","1","0","3","1","","0","1","0","null","","","<img src = 'targets/3.png' width = '100%;'>","null","","","","","","","","","",""
"","html-keyboard-response","202","485244","0.0-10.0-3.15","9222elwu5w","many_one","0","direct_first","1","wu06ie28","0","18","1","0","3","1","","0","1","0","357.0000000001164","","","<img src = 'targets/mask.png' width = '100%;'>","68","neg","CS","CS","1","category1/CS2.png","","targets/3.png","indirect","0","15"
"","html-keyboard-response","203","486747","0.0-10.0-0.16","9222elwu5w","many_one","0","direct_first","1","wu06ie28","0","18","1","0","3","1","","0","1","0","null","","","<div style=""font-size:60px;"">+</div>","null","","","","","","","","","",""
"","html-keyboard-response","204","486837","0.0-10.0-1.16","9222elwu5w","many_one","0","direct_first","1","wu06ie28","0","18","1","0","3","1","","0","1","0","null","","","<img src = 'category1/CS10.png' width = '100%;'>","null","","","","","","","","","",""
"","html-keyboard-response","205","487089","0.0-10.0-2.16","9222elwu5w","many_one","0","direct_first","1","wu06ie28","0","18","1","0","3","1","","0","1","0","null","","","<img src = 'targets/38.png' width = '100%;'>","null","","","","","","","","","",""
"","html-keyboard-response","206","488474","0.0-10.0-3.16","9222elwu5w","many_one","0","direct_first","1","wu06ie28","0","18","1","0","3","1","","0","1","0","1384","","","<img src = 'targets/mask.png' width = '100%;'>","68","neg","GS","GSold","1","category1/CS10.png","","targets/38.png","indirect","0","16"
"","html-keyboard-response","207","489979","0.0-10.0-0.17","9222elwu5w","many_one","0","direct_first","1","wu06ie28","0","18","1","0","3","1","","0","1","0","null","","","<div style=""font-size:60px;"">+</div>","null","","","","","","","","","",""
"","html-keyboard-response","208","490070","0.0-10.0-1.17","9222elwu5w","many_one","0","direct_first","1","wu06ie28","0","18","1","0","3","1","","0","1","0","null","","","<img src = 'category1/CS7.png' width = '100%;'>","null","","","","","","","","","",""
"","html-keyboard-response","209","490322","0.0-10.0-2.17","9222elwu5w","many_one","0","direct_first","1","wu06ie28","0","18","1","0","3","1","","0","1","0","null","","","<img src = 'targets/28.png' width = '100%;'>","null","","","","","","","","","",""
"","html-keyboard-response","210","491223","0.0-10.0-3.17","9222elwu5w","many_one","0","direct_first","1","wu06ie28","0","18","1","0","3","1","","0","1","0","899","","","<img src = 'targets/mask.png' width = '100%;'>","68","neg","CS","CS","1","category1/CS7.png","","targets/28.png","indirect","0","17"
"","html-keyboard-response","211","492728","0.0-10.0-0.18","9222elwu5w","many_one","0","direct_first","1","wu06ie28","0","18","1","0","3","1","","0","1","0","null","","","<div style=""font-size:60px;"">+</div>","null","","","","","","","","","",""
"","html-keyboard-response","212","492820","0.0-10.0-1.18","9222elwu5w","many_one","0","direct_first","1","wu06ie28","0","18","1","0","3","1","","0","1","0","null","","","<img src = 'category2/CS9.png' width = '100%;'>","null","","","","","","","","","",""
"","html-keyboard-response","213","493073","0.0-10.0-2.18","9222elwu5w","many_one","0","direct_first","1","wu06ie28","0","18","1","0","3","1","","0","1","0","null","","","<img src = 'targets/6.png' width = '100%;'>","null","","","","","","","","","",""
"","html-keyboard-response","214","494611","0.0-10.0-3.18","9222elwu5w","many_one","0","direct_first","1","wu06ie28","0","18","1","0","3","1","","0","1","0","1535","","","<img src = 'targets/mask.png' width = '100%;'>","75","pos","CS","CS","2","category2/CS9.png","","targets/6.png","indirect","1","18"
"","html-keyboard-response","215","496116","0.0-10.0-0.19","9222elwu5w","many_one","0","direct_first","1","wu06ie28","0","18","1","0","3","1","","0","1","0","null","","","<div style=""font-size:60px;"">+</div>","null","","","","","","","","","",""
"","html-keyboard-response","216","496209","0.0-10.0-1.19","9222elwu5w","many_one","0","direct_first","1","wu06ie28","0","18","1","0","3","1","","0","1","0","null","","","<img src = 'category1/CS6.png' width = '100%;'>","null","","","","","","","","","",""
"","html-keyboard-response","217","496462","0.0-10.0-2.19","9222elwu5w","many_one","0","direct_first","1","wu06ie28","0","18","1","0","3","1","","0","1","0","null","","","<img src = 'targets/11.png' width = '100%;'>","null","","","","","","","","","",""
"","html-keyboard-response","218","496967","0.0-10.0-3.19","9222elwu5w","many_one","0","direct_first","1","wu06ie28","0","18","1","0","3","1","","0","1","0","503","","","<img src = 'targets/mask.png' width = '100%;'>","68","neg","CS","CS","1","category1/CS6.png","","targets/11.png","indirect","0","19"
"","html-keyboard-response","219","498470","0.0-10.0-0.20","9222elwu5w","many_one","0","direct_first","1","wu06ie28","0","18","1","0","3","1","","0","1","0","null","","","<div style=""font-size:60px;"">+</div>","null","","","","","","","","","",""
"","html-keyboard-response","220","498562","0.0-10.0-1.20","9222elwu5w","many_one","0","direct_first","1","wu06ie28","0","18","1","0","3","1","","0","1","0","null","","","<img src = 'category2/CS8.png' width = '100%;'>","null","","","","","","","","","",""
"","html-keyboard-response","221","498815","0.0-10.0-2.20","9222elwu5w","many_one","0","direct_first","1","wu06ie28","0","18","1","0","3","1","","0","1","0","null","","","<img src = 'targets/31.png' width = '100%;'>","null","","","","","","","","","",""
"","html-keyboard-response","222","499518","0.0-10.0-3.20","9222elwu5w","many_one","0","direct_first","1","wu06ie28","0","18","1","0","3","1","","0","1","0","701","","","<img src = 'targets/mask.png' width = '100%;'>","68","pos","CS","CS","2","category2/CS8.png","","targets/31.png","indirect","0","20"
"","html-keyboard-response","223","501022","0.0-10.0-0.21","9222elwu5w","many_one","0","direct_first","1","wu06ie28","0","18","1","0","3","1","","0","1","0","null","","","<div style=""font-size:60px;"">+</div>","null","","","","","","","","","",""
"","html-keyboard-response","224","501113","0.0-10.0-1.21","9222elwu5w","many_one","0","direct_first","1","wu06ie28","0","18","1","0","3","1","","0","1","0","null","","","<img src = 'category1/CS3.png' width = '100%;'>","null","","","","","","","","","",""
"","html-keyboard-response","225","501366","0.0-10.0-2.21","9222elwu5w","many_one","0","direct_first","1","wu06ie28","0","18","1","0","3","1","","0","1","0","null","","","<img src = 'targets/12.png' width = '100%;'>","null","","","","","","","","","",""
"","html-keyboard-response","226","501793","0.0-10.0-3.21","9222elwu5w","many_one","0","direct_first","1","wu06ie28","0","18","1","0","3","1","","0","1","0","424","","","<img src = 'targets/mask.png' width = '100%;'>","68","neg","GS","GSold","1","category1/CS3.png","","targets/12.png","indirect","0","21"
"","html-keyboard-response","227","503297","0.0-10.0-0.22","9222elwu5w","many_one","0","direct_first","1","wu06ie28","0","18","1","0","3","1","","0","1","0","null","","","<div style=""font-size:60px;"">+</div>","null","","","","","","","","","",""
"","html-keyboard-response","228","503389","0.0-10.0-1.22","9222elwu5w","many_one","0","direct_first","1","wu06ie28","0","18","1","0","3","1","","0","1","0","null","","","<img src = 'category2/CS1.png' width = '100%;'>","null","","","","","","","","","",""
"","html-keyboard-response","229","503642","0.0-10.0-2.22","9222elwu5w","many_one","0","direct_first","1","wu06ie28","0","18","1","0","3","1","","0","1","0","null","","","<img src = 'targets/32.png' width = '100%;'>","null","","","","","","","","","",""
"","html-keyboard-response","230","503977","0.0-10.0-3.22","9222elwu5w","many_one","0","direct_first","1","wu06ie28","0","18","1","0","3","1","","0","1","0","333.9999999998836","","","<img src = 'targets/mask.png' width = '100%;'>","75","pos","CS","CS","2","category2/CS1.png","","targets/32.png","indirect","1","22"
"","html-keyboard-response","231","505480","0.0-10.0-0.23","9222elwu5w","many_one","0","direct_first","1","wu06ie28","0","18","1","0","3","1","","0","1","0","null","","","<div style=""font-size:60px;"">+</div>","null","","","","","","","","","",""
"","html-keyboard-response","232","505572","0.0-10.0-1.23","9222elwu5w","many_one","0","direct_first","1","wu06ie28","0","18","1","0","3","1","","0","1","0","null","","","<img src = 'category2/CS4.png' width = '100%;'>","null","","","","","","","","","",""
"","html-keyboard-response","233","505824","0.0-10.0-2.23","9222elwu5w","many_one","0","direct_first","1","wu06ie28","0","18","1","0","3","1","","0","1","0","null","","","<img src = 'targets/10.png' width = '100%;'>","null","","","","","","","","","",""
"","html-keyboard-response","234","506090","0.0-10.0-3.23","9222elwu5w","many_one","0","direct_first","1","wu06ie28","0","18","1","0","3","1","","0","1","0","265","","","<img src = 'targets/mask.png' width = '100%;'>","75","pos","GS","GSold","2","category2/CS4.png","","targets/10.png","indirect","1","23"
"","survey-html-form","235","507897","0.0-11.0","9222elwu5w","many_one","0","direct_first","1","wu06ie28","0","18","1","0","3","1","","0","1","0","1304","","{}","","","","","","","","","","","",""
"","html-keyboard-response","236","510900","0.0-12.0-0.0","9222elwu5w","many_one","0","direct_first","1","wu06ie28","0","18","1","0","3","1","","0","1","0","null","","","<div style=""font-size:60px;"">+</div>","null","","","","","","","","","",""
"","html-keyboard-response","237","510992","0.0-12.0-1.0","9222elwu5w","many_one","0","direct_first","1","wu06ie28","0","18","1","0","3","1","","0","1","0","null","","","<img src = 'category4/GS1.png' width = '100%;'>","null","","","","","","","","","",""
"","html-keyboard-response","238","511244","0.0-12.0-2.0","9222elwu5w","many_one","0","direct_first","1","wu06ie28","0","18","1","0","3","1","","0","1","0","null","","","<img src = 'targets/20.png' width = '100%;'>","null","","","","","","","","","",""
"","html-keyboard-response","239","512520","0.0-12.0-3.0","9222elwu5w","many_one","0","direct_first","1","wu06ie28","0","18","1","0","3","1","","0","1","0","1274","","","<img src = 'targets/mask.png' width = '100%;'>","75","neg","GS","GSnew","4","category4/GS1.png","","targets/20.png","indirect","1","24"
"","html-keyboard-response","240","514025","0.0-12.0-0.1","9222elwu5w","many_one","0","direct_first","1","wu06ie28","0","18","1","0","3","1","","0","1","0","null","","","<div style=""font-size:60px;"">+</div>","null","","","","","","","","","",""
"","html-keyboard-response","241","514117","0.0-12.0-1.1","9222elwu5w","many_one","0","direct_first","1","wu06ie28","0","18","1","0","3","1","","0","1","0","null","","","<img src = 'category3/CS1.png' width = '100%;'>","null","","","","","","","","","",""
"","html-keyboard-response","242","514370","0.0-12.0-2.1","9222elwu5w","many_one","0","direct_first","1","wu06ie28","0","18","1","0","3","1","","0","1","0","null","","","<img src = 'targets/17.png' width = '100%;'>","null","","","","","","","","","",""
"","html-keyboard-response","243","514729","0.0-12.0-3.1","9222elwu5w","many_one","0","direct_first","1","wu06ie28","0","18","1","0","3","1","","0","1","0","356","","","<img src = 'targets/mask.png' width = '100%;'>","75","pos","GS","GSold","3","category3/CS1.png","","targets/17.png","indirect","1","25"
"","html-keyboard-response","244","516233","0.0-12.0-0.2","9222elwu5w","many_one","0","direct_first","1","wu06ie28","0","18","1","0","3","1","","0","1","0","null","","","<div style=""font-size:60px;"">+</div>","null","","","","","","","","","",""
"","html-keyboard-response","245","516325","0.0-12.0-1.2","9222elwu5w","many_one","0","direct_first","1","wu06ie28","0","18","1","0","3","1","","0","1","0","null","","","<img src = 'category4/GS3.png' width = '100%;'>","null","","","","","","","","","",""
"","html-keyboard-response","246","516577","0.0-12.0-2.2","9222elwu5w","many_one","0","direct_first","1","wu06ie28","0","18","1","0","3","1","","0","1","0","null","","","<img src = 'targets/22.png' width = '100%;'>","null","","","","","","","","","",""
"","html-keyboard-response","247","517166","0.0-12.0-3.2","9222elwu5w","many_one","0","direct_first","1","wu06ie28","0","18","1","0","3","1","","0","1","0","587","","","<img src = 'targets/mask.png' width = '100%;'>","68","neg","GS","GSnew","4","category4/GS3.png","","targets/22.png","indirect","0","26"
"","html-keyboard-response","248","518670","0.0-12.0-0.3","9222elwu5w","many_one","0","direct_first","1","wu06ie28","0","18","1","0","3","1","","0","1","0","null","","","<div style=""font-size:60px;"">+</div>","null","","","","","","","","","",""
"","html-keyboard-response","249","518762","0.0-12.0-1.3","9222elwu5w","many_one","0","direct_first","1","wu06ie28","0","18","1","0","3","1","","0","1","0","null","","","<img src = 'category1/GS3.png' width = '100%;'>","null","","","","","","","","","",""
"","html-keyboard-response","250","519015","0.0-12.0-2.3","9222elwu5w","many_one","0","direct_first","1","wu06ie28","0","18","1","0","3","1","","0","1","0","null","","","<img src = 'targets/45.png' width = '100%;'>","null","","","","","","","","","",""
"","html-keyboard-response","251","519901","0.0-12.0-3.3","9222elwu5w","many_one","0","direct_first","1","wu06ie28","0","18","1","0","3","1","","0","1","0","884","","","<img src = 'targets/mask.png' width = '100%;'>","75","neg","GS","GSnew","1","category1/GS3.png","","targets/45.png","indirect","1","27"
"","html-keyboard-response","252","521405","0.0-12.0-0.4","9222elwu5w","many_one","0","direct_first","1","wu06ie28","0","18","1","0","3","1","","0","1","0","null","","","<div style=""font-size:60px;"">+</div>","null","","","","","","","","","",""
"","html-keyboard-response","253","521497","0.0-12.0-1.4","9222elwu5w","many_one","0","direct_first","1","wu06ie28","0","18","1","0","3","1","","0","1","0","null","","","<img src = 'category2/GS3.png' width = '100%;'>","null","","","","","","","","","",""
"","html-keyboard-response","254","521750","0.0-12.0-2.4","9222elwu5w","many_one","0","direct_first","1","wu06ie28","0","18","1","0","3","1","","0","1","0","null","","","<img src = 'targets/44.png' width = '100%;'>","null","","","","","","","","","",""
"","html-keyboard-response","255","522131","0.0-12.0-3.4","9222elwu5w","many_one","0","direct_first","1","wu06ie28","0","18","1","0","3","1","","0","1","0","379","","","<img src = 'targets/mask.png' width = '100%;'>","75","pos","GS","GSnew","2","category2/GS3.png","","targets/44.png","indirect","1","28"
"","html-keyboard-response","256","523635","0.0-12.0-0.5","9222elwu5w","many_one","0","direct_first","1","wu06ie28","0","18","1","0","3","1","","0","1","0","null","","","<div style=""font-size:60px;"">+</div>","null","","","","","","","","","",""
"","html-keyboard-response","257","523727","0.0-12.0-1.5","9222elwu5w","many_one","0","direct_first","1","wu06ie28","0","18","1","0","3","1","","0","1","0","null","","","<img src = 'category2/GS1.png' width = '100%;'>","null","","","","","","","","","",""
"","html-keyboard-response","258","523980","0.0-12.0-2.5","9222elwu5w","many_one","0","direct_first","1","wu06ie28","0","18","1","0","3","1","","0","1","0","null","","","<img src = 'targets/14.png' width = '100%;'>","null","","","","","","","","","",""
"","html-keyboard-response","259","524576","0.0-12.0-3.5","9222elwu5w","many_one","0","direct_first","1","wu06ie28","0","18","1","0","3","1","","0","1","0","593","","","<img src = 'targets/mask.png' width = '100%;'>","75","pos","GS","GSnew","2","category2/GS1.png","","targets/14.png","indirect","1","29"
"","html-keyboard-response","260","526080","0.0-12.0-0.6","9222elwu5w","many_one","0","direct_first","1","wu06ie28","0","18","1","0","3","1","","0","1","0","null","","","<div style=""font-size:60px;"">+</div>","null","","","","","","","","","",""
"","html-keyboard-response","261","526173","0.0-12.0-1.6","9222elwu5w","many_one","0","direct_first","1","wu06ie28","0","18","1","0","3","1","","0","1","0","null","","","<img src = 'category4/GS2.png' width = '100%;'>","null","","","","","","","","","",""
"","html-keyboard-response","262","526426","0.0-12.0-2.6","9222elwu5w","many_one","0","direct_first","1","wu06ie28","0","18","1","0","3","1","","0","1","0","null","","","<img src = 'targets/46.png' width = '100%;'>","null","","","","","","","","","",""
"","html-keyboard-response","263","589411","0.0-12.0-3.6","9222elwu5w","many_one","0","direct_first","1","wu06ie28","0","18","1","0","3","1","","0","1","0","62980.99999999988","","","<img src = 'targets/mask.png' width = '100%;'>","75","neg","GS","GSnew","4","category4/GS2.png","","targets/46.png","indirect","1","30"
"","html-keyboard-response","264","590915","0.0-12.0-0.7","9222elwu5w","many_one","0","direct_first","1","wu06ie28","0","18","1","0","3","1","","0","1","0","null","","","<div style=""font-size:60px;"">+</div>","null","","","","","","","","","",""
"","html-keyboard-response","265","591009","0.0-12.0-1.7","9222elwu5w","many_one","0","direct_first","1","wu06ie28","0","18","1","0","3","1","","0","1","0","null","","","<img src = 'category1/GS1.png' width = '100%;'>","null","","","","","","","","","",""
"","html-keyboard-response","266","591262","0.0-12.0-2.7","9222elwu5w","many_one","0","direct_first","1","wu06ie28","0","18","1","0","3","1","","0","1","0","null","","","<img src = 'targets/9.png' width = '100%;'>","null","","","","","","","","","",""
"","html-keyboard-response","267","591981","0.0-12.0-3.7","9222elwu5w","many_one","0","direct_first","1","wu06ie28","0","18","1","0","3","1","","0","1","0","716","","","<img src = 'targets/mask.png' width = '100%;'>","75","neg","GS","GSnew","1","category1/GS1.png","","targets/9.png","indirect","1","31"
"","html-keyboard-response","268","593485","0.0-12.0-0.8","9222elwu5w","many_one","0","direct_first","1","wu06ie28","0","18","1","0","3","1","","0","1","0","null","","","<div style=""font-size:60px;"">+</div>","null","","","","","","","","","",""
"","html-keyboard-response","269","593578","0.0-12.0-1.8","9222elwu5w","many_one","0","direct_first","1","wu06ie28","0","18","1","0","3","1","","0","1","0","null","","","<img src = 'category2/men.png' width = '100%;'>","null","","","","","","","","","",""
"","html-keyboard-response","270","593830","0.0-12.0-2.8","9222elwu5w","many_one","0","direct_first","1","wu06ie28","0","18","1","0","3","1","","0","1","0","null","","","<img src = 'targets/43.png' width = '100%;'>","null","","","","","","","","","",""
"","html-keyboard-response","271","594359","0.0-12.0-3.8","9222elwu5w","many_one","0","direct_first","1","wu06ie28","0","18","1","0","3","1","","0","1","0","528","","","<img src = 'targets/mask.png' width = '100%;'>","75","pos","GS","abstract","2","category2/men.png","","targets/43.png","indirect","1","32"
"","html-keyboard-response","272","595863","0.0-12.0-0.9","9222elwu5w","many_one","0","direct_first","1","wu06ie28","0","18","1","0","3","1","","0","1","0","null","","","<div style=""font-size:60px;"">+</div>","null","","","","","","","","","",""
"","html-keyboard-response","273","595955","0.0-12.0-1.9","9222elwu5w","many_one","0","direct_first","1","wu06ie28","0","18","1","0","3","1","","0","1","0","null","","","<img src = 'category4/CS4.png' width = '100%;'>","null","","","","","","","","","",""
"","html-keyboard-response","274","596208","0.0-12.0-2.9","9222elwu5w","many_one","0","direct_first","1","wu06ie28","0","18","1","0","3","1","","0","1","0","null","","","<img src = 'targets/47.png' width = '100%;'>","null","","","","","","","","","",""
"","html-keyboard-response","275","598483","0.0-12.0-3.9","9222elwu5w","many_one","0","direct_first","1","wu06ie28","0","18","1","0","3","1","","0","1","0","2273","","","<img src = 'targets/mask.png' width = '100%;'>","68","neg","GS","GSold","4","category4/CS4.png","","targets/47.png","indirect","0","33"
"","html-keyboard-response","276","599988","0.0-12.0-0.10","9222elwu5w","many_one","0","direct_first","1","wu06ie28","0","18","1","0","3","1","","0","1","0","null","","","<div style=""font-size:60px;"">+</div>","null","","","","","","","","","",""
"","html-keyboard-response","277","600079","0.0-12.0-1.10","9222elwu5w","many_one","0","direct_first","1","wu06ie28","0","18","1","0","3","1","","0","1","0","null","","","<img src = 'category2/CS10.png' width = '100%;'>","null","","","","","","","","","",""
"","html-keyboard-response","278","600333","0.0-12.0-2.10","9222elwu5w","many_one","0","direct_first","1","wu06ie28","0","18","1","0","3","1","","0","1","0","null","","","<img src = 'targets/16.png' width = '100%;'>","null","","","","","","","","","",""
"","html-keyboard-response","279","600720","0.0-12.0-3.10","9222elwu5w","many_one","0","direct_first","1","wu06ie28","0","18","1","0","3","1","","0","1","0","385","","","<img src = 'targets/mask.png' width = '100%;'>","75","pos","GS","GSold","2","category2/CS10.png","","targets/16.png","indirect","1","34"
"","html-keyboard-response","280","602224","0.0-12.0-0.11","9222elwu5w","many_one","0","direct_first","1","wu06ie28","0","18","1","0","3","1","","0","1","0","null","","","<div style=""font-size:60px;"">+</div>","null","","","","","","","","","",""
"","html-keyboard-response","281","602315","0.0-12.0-1.11","9222elwu5w","many_one","0","direct_first","1","wu06ie28","0","18","1","0","3","1","","0","1","0","null","","","<img src = 'category4/CS5.png' width = '100%;'>","null","","","","","","","","","",""
"","html-keyboard-response","282","602569","0.0-12.0-2.11","9222elwu5w","many_one","0","direct_first","1","wu06ie28","0","18","1","0","3","1","","0","1","0","null","","","<img src = 'targets/4.png' width = '100%;'>","null","","","","","","","","","",""
"","html-keyboard-response","283","603375","0.0-12.0-3.11","9222elwu5w","many_one","0","direct_first","1","wu06ie28","0","18","1","0","3","1","","0","1","0","805","","","<img src = 'targets/mask.png' width = '100%;'>","68","neg","GS","GSold","4","category4/CS5.png","","targets/4.png","indirect","0","35"
"","html-keyboard-response","284","604879","0.0-12.0-0.12","9222elwu5w","many_one","0","direct_first","1","wu06ie28","0","18","1","0","3","1","","0","1","0","null","","","<div style=""font-size:60px;"">+</div>","null","","","","","","","","","",""
"","html-keyboard-response","285","604970","0.0-12.0-1.12","9222elwu5w","many_one","0","direct_first","1","wu06ie28","0","18","1","0","3","1","","0","1","0","null","","","<img src = 'category3/CS2.png' width = '100%;'>","null","","","","","","","","","",""
"","html-keyboard-response","286","605223","0.0-12.0-2.12","9222elwu5w","many_one","0","direct_first","1","wu06ie28","0","18","1","0","3","1","","0","1","0","null","","","<img src = 'targets/26.png' width = '100%;'>","null","","","","","","","","","",""
"","html-keyboard-response","287","605487","0.0-12.0-3.12","9222elwu5w","many_one","0","direct_first","1","wu06ie28","0","18","1","0","3","1","","0","1","0","262","","","<img src = 'targets/mask.png' width = '100%;'>","75","pos","GS","GSold","3","category3/CS2.png","","targets/26.png","indirect","1","36"
"","html-keyboard-response","288","606991","0.0-12.0-0.13","9222elwu5w","many_one","0","direct_first","1","wu06ie28","0","18","1","0","3","1","","0","1","0","null","","","<div style=""font-size:60px;"">+</div>","null","","","","","","","","","",""
"","html-keyboard-response","289","607083","0.0-12.0-1.13","9222elwu5w","many_one","0","direct_first","1","wu06ie28","0","18","1","0","3","1","","0","1","0","null","","","<img src = 'category2/GS2.png' width = '100%;'>","null","","","","","","","","","",""
"","html-keyboard-response","290","607336","0.0-12.0-2.13","9222elwu5w","many_one","0","direct_first","1","wu06ie28","0","18","1","0","3","1","","0","1","0","null","","","<img src = 'targets/24.png' width = '100%;'>","null","","","","","","","","","",""
"","html-keyboard-response","291","607738","0.0-12.0-3.13","9222elwu5w","many_one","0","direct_first","1","wu06ie28","0","18","1","0","3","1","","0","1","0","400","","","<img src = 'targets/mask.png' width = '100%;'>","68","pos","GS","GSnew","2","category2/GS2.png","","targets/24.png","indirect","0","37"
"","html-keyboard-response","292","609243","0.0-12.0-0.14","9222elwu5w","many_one","0","direct_first","1","wu06ie28","0","18","1","0","3","1","","0","1","0","null","","","<div style=""font-size:60px;"">+</div>","null","","","","","","","","","",""
"","html-keyboard-response","293","609335","0.0-12.0-1.14","9222elwu5w","many_one","0","direct_first","1","wu06ie28","0","18","1","0","3","1","","0","1","0","null","","","<img src = 'category3/GS2.png' width = '100%;'>","null","","","","","","","","","",""
"","html-keyboard-response","294","609587","0.0-12.0-2.14","9222elwu5w","many_one","0","direct_first","1","wu06ie28","0","18","1","0","3","1","","0","1","0","null","","","<img src = 'targets/39.png' width = '100%;'>","null","","","","","","","","","",""
"","html-keyboard-response","295","610037","0.0-12.0-3.14","9222elwu5w","many_one","0","direct_first","1","wu06ie28","0","18","1","0","3","1","","0","1","0","447","","","<img src = 'targets/mask.png' width = '100%;'>","75","pos","GS","GSnew","3","category3/GS2.png","","targets/39.png","indirect","1","38"
"","html-keyboard-response","296","611542","0.0-12.0-0.15","9222elwu5w","many_one","0","direct_first","1","wu06ie28","0","18","1","0","3","1","","0","1","0","null","","","<div style=""font-size:60px;"">+</div>","null","","","","","","","","","",""
"","html-keyboard-response","297","611636","0.0-12.0-1.15","9222elwu5w","many_one","0","direct_first","1","wu06ie28","0","18","1","0","3","1","","0","1","0","null","","","<img src = 'category3/wang.png' width = '100%;'>","null","","","","","","","","","",""
"","html-keyboard-response","298","611889","0.0-12.0-2.15","9222elwu5w","many_one","0","direct_first","1","wu06ie28","0","18","1","0","3","1","","0","1","0","null","","","<img src = 'targets/5.png' width = '100%;'>","null","","","","","","","","","",""
"","html-keyboard-response","299","612123","0.0-12.0-3.15","9222elwu5w","many_one","0","direct_first","1","wu06ie28","0","18","1","0","3","1","","0","1","0","233","","","<img src = 'targets/mask.png' width = '100%;'>","75","pos","GS","abstract","3","category3/wang.png","","targets/5.png","indirect","1","39"
"","html-keyboard-response","300","613627","0.0-12.0-0.16","9222elwu5w","many_one","0","direct_first","1","wu06ie28","0","18","1","0","3","1","","0","1","0","null","","","<div style=""font-size:60px;"">+</div>","null","","","","","","","","","",""
"","html-keyboard-response","301","613719","0.0-12.0-1.16","9222elwu5w","many_one","0","direct_first","1","wu06ie28","0","18","1","0","3","1","","0","1","0","null","","","<img src = 'category1/ma.png' width = '100%;'>","null","","","","","","","","","",""
"","html-keyboard-response","302","613973","0.0-12.0-2.16","9222elwu5w","many_one","0","direct_first","1","wu06ie28","0","18","1","0","3","1","","0","1","0","null","","","<img src = 'targets/23.png' width = '100%;'>","null","","","","","","","","","",""
"","html-keyboard-response","303","614745","0.0-12.0-3.16","9222elwu5w","many_one","0","direct_first","1","wu06ie28","0","18","1","0","3","1","","0","1","0","770.9999999998836","","","<img src = 'targets/mask.png' width = '100%;'>","68","neg","GS","abstract","1","category1/ma.png","","targets/23.png","indirect","0","40"
"","html-keyboard-response","304","616249","0.0-12.0-0.17","9222elwu5w","many_one","0","direct_first","1","wu06ie28","0","18","1","0","3","1","","0","1","0","null","","","<div style=""font-size:60px;"">+</div>","null","","","","","","","","","",""
"","html-keyboard-response","305","616341","0.0-12.0-1.17","9222elwu5w","many_one","0","direct_first","1","wu06ie28","0","18","1","0","3","1","","0","1","0","null","","","<img src = 'category3/GS3.png' width = '100%;'>","null","","","","","","","","","",""
"","html-keyboard-response","306","616594","0.0-12.0-2.17","9222elwu5w","many_one","0","direct_first","1","wu06ie28","0","18","1","0","3","1","","0","1","0","null","","","<img src = 'targets/35.png' width = '100%;'>","null","","","","","","","","","",""
"","html-keyboard-response","307","617343","0.0-12.0-3.17","9222elwu5w","many_one","0","direct_first","1","wu06ie28","0","18","1","0","3","1","","0","1","0","747","","","<img src = 'targets/mask.png' width = '100%;'>","68","pos","GS","GSnew","3","category3/GS3.png","","targets/35.png","indirect","0","41"
"","html-keyboard-response","308","618848","0.0-12.0-0.18","9222elwu5w","many_one","0","direct_first","1","wu06ie28","0","18","1","0","3","1","","0","1","0","null","","","<div style=""font-size:60px;"">+</div>","null","","","","","","","","","",""
"","html-keyboard-response","309","618940","0.0-12.0-1.18","9222elwu5w","many_one","0","direct_first","1","wu06ie28","0","18","1","0","3","1","","0","1","0","null","","","<img src = 'category2/CS2.png' width = '100%;'>","null","","","","","","","","","",""
"","html-keyboard-response","310","619193","0.0-12.0-2.18","9222elwu5w","many_one","0","direct_first","1","wu06ie28","0","18","1","0","3","1","","0","1","0","null","","","<img src = 'targets/8.png' width = '100%;'>","null","","","","","","","","","",""
"","html-keyboard-response","311","619557","0.0-12.0-3.18","9222elwu5w","many_one","0","direct_first","1","wu06ie28","0","18","1","0","3","1","","0","1","0","361.9999999998836","","","<img src = 'targets/mask.png' width = '100%;'>","75","pos","GS","GSold","2","category2/CS2.png","","targets/8.png","indirect","1","42"
"","html-keyboard-response","312","621062","0.0-12.0-0.19","9222elwu5w","many_one","0","direct_first","1","wu06ie28","0","18","1","0","3","1","","0","1","0","null","","","<div style=""font-size:60px;"">+</div>","null","","","","","","","","","",""
"","html-keyboard-response","313","621152","0.0-12.0-1.19","9222elwu5w","many_one","0","direct_first","1","wu06ie28","0","18","1","0","3","1","","0","1","0","null","","","<img src = 'category1/GS2.png' width = '100%;'>","null","","","","","","","","","",""
"","html-keyboard-response","314","621405","0.0-12.0-2.19","9222elwu5w","many_one","0","direct_first","1","wu06ie28","0","18","1","0","3","1","","0","1","0","null","","","<img src = 'targets/13.png' width = '100%;'>","null","","","","","","","","","",""
"","html-keyboard-response","315","623143","0.0-12.0-3.19","9222elwu5w","many_one","0","direct_first","1","wu06ie28","0","18","1","0","3","1","","0","1","0","1737","","","<img src = 'targets/mask.png' width = '100%;'>","68","neg","GS","GSnew","1","category1/GS2.png","","targets/13.png","indirect","0","43"
"","html-keyboard-response","316","624648","0.0-12.0-0.20","9222elwu5w","many_one","0","direct_first","1","wu06ie28","0","18","1","0","3","1","","0","1","0","null","","","<div style=""font-size:60px;"">+</div>","null","","","","","","","","","",""
"","html-keyboard-response","317","624740","0.0-12.0-1.20","9222elwu5w","many_one","0","direct_first","1","wu06ie28","0","18","1","0","3","1","","0","1","0","null","","","<img src = 'category4/lin.png' width = '100%;'>","null","","","","","","","","","",""
"","html-keyboard-response","318","624992","0.0-12.0-2.20","9222elwu5w","many_one","0","direct_first","1","wu06ie28","0","18","1","0","3","1","","0","1","0","null","","","<img src = 'targets/29.png' width = '100%;'>","null","","","","","","","","","",""
"","html-keyboard-response","319","626255","0.0-12.0-3.20","9222elwu5w","many_one","0","direct_first","1","wu06ie28","0","18","1","0","3","1","","0","1","0","1260","","","<img src = 'targets/mask.png' width = '100%;'>","75","neg","GS","abstract","4","category4/lin.png","","targets/29.png","indirect","1","44"
"","html-keyboard-response","320","627759","0.0-12.0-0.21","9222elwu5w","many_one","0","direct_first","1","wu06ie28","0","18","1","0","3","1","","0","1","0","null","","","<div style=""font-size:60px;"">+</div>","null","","","","","","","","","",""
"","html-keyboard-response","321","627853","0.0-12.0-1.21","9222elwu5w","many_one","0","direct_first","1","wu06ie28","0","18","1","0","3","1","","0","1","0","null","","","<img src = 'category3/CS7.png' width = '100%;'>","null","","","","","","","","","",""
"","html-keyboard-response","322","628106","0.0-12.0-2.21","9222elwu5w","many_one","0","direct_first","1","wu06ie28","0","18","1","0","3","1","","0","1","0","null","","","<img src = 'targets/18.png' width = '100%;'>","null","","","","","","","","","",""
"","html-keyboard-response","323","628402","0.0-12.0-3.21","9222elwu5w","many_one","0","direct_first","1","wu06ie28","0","18","1","0","3","1","","0","1","0","294.0000000001164","","","<img src = 'targets/mask.png' width = '100%;'>","75","pos","GS","GSold","3","category3/CS7.png","","targets/18.png","indirect","1","45"
"","html-keyboard-response","324","629906","0.0-12.0-0.22","9222elwu5w","many_one","0","direct_first","1","wu06ie28","0","18","1","0","3","1","","0","1","0","null","","","<div style=""font-size:60px;"">+</div>","null","","","","","","","","","",""
"","html-keyboard-response","325","629998","0.0-12.0-1.22","9222elwu5w","many_one","0","direct_first","1","wu06ie28","0","18","1","0","3","1","","0","1","0","null","","","<img src = 'category4/CS8.png' width = '100%;'>","null","","","","","","","","","",""
"","html-keyboard-response","326","630252","0.0-12.0-2.22","9222elwu5w","many_one","0","direct_first","1","wu06ie28","0","18","1","0","3","1","","0","1","0","null","","","<img src = 'targets/7.png' width = '100%;'>","null","","","","","","","","","",""
"","html-keyboard-response","327","631361","0.0-12.0-3.22","9222elwu5w","many_one","0","direct_first","1","wu06ie28","0","18","1","0","3","1","","0","1","0","1106.9999999998836","","","<img src = 'targets/mask.png' width = '100%;'>","68","neg","GS","GSold","4","category4/CS8.png","","targets/7.png","indirect","0","46"
"","html-keyboard-response","328","632865","0.0-12.0-0.23","9222elwu5w","many_one","0","direct_first","1","wu06ie28","0","18","1","0","3","1","","0","1","0","null","","","<div style=""font-size:60px;"">+</div>","null","","","","","","","","","",""
"","html-keyboard-response","329","632957","0.0-12.0-1.23","9222elwu5w","many_one","0","direct_first","1","wu06ie28","0","18","1","0","3","1","","0","1","0","null","","","<img src = 'category3/GS1.png' width = '100%;'>","null","","","","","","","","","",""
"","html-keyboard-response","330","633210","0.0-12.0-2.23","9222elwu5w","many_one","0","direct_first","1","wu06ie28","0","18","1","0","3","1","","0","1","0","null","","","<img src = 'targets/15.png' width = '100%;'>","null","","","","","","","","","",""
"","html-keyboard-response","331","633523","0.0-12.0-3.23","9222elwu5w","many_one","0","direct_first","1","wu06ie28","0","18","1","0","3","1","","0","1","0","311","","","<img src = 'targets/mask.png' width = '100%;'>","75","pos","GS","GSnew","3","category3/GS1.png","","targets/15.png","indirect","1","47"
