"success","trial_type","trial_index","time_elapsed","internal_node_id","subject","condition","condition_code","measure","measure_code","codeword","gender","age","education","chinese","fach","handedness","rt","url","responses","stimulus","key_press","val","type","type_specific","category","cs_selected","target","indirect","task","nr_pres","response"
"true","fullscreen","0","3952","0.0-0.0","ye4qmyzvta","one_one","1","indirect_first","0","on03ek17","0","21","1","1","3","1","","","","","","","","","","","","","","",""
"","external-html","1","12566","0.0-1.0","ye4qmyzvta","one_one","1","indirect_first","0","on03ek17","0","21","1","1","3","1","8588","text/information.html","","","","","","","","","","","","",""
"","external-html","2","27302","0.0-2.0","ye4qmyzvta","one_one","1","indirect_first","0","on03ek17","0","21","1","1","3","1","14714","text/consent.html","","","","","","","","","","","","",""
"","survey-html-form","3","106964","0.0-3.0","ye4qmyzvta","one_one","1","indirect_first","0","on03ek17","0","21","1","1","3","1","79662","","{""codeword_enter"":""on03ek17""}","","","","","","","","","","","",""
"","survey-html-form","4","139621","0.0-4.0","ye4qmyzvta","one_one","1","indirect_first","0","on03ek17","0","21","1","1","3","1","32657","","{""age"":""21"",""education"":""1"",""subject"":""3"",""gender"":""0"",""handedness"":""1"",""chinese"":""1""}","","","","","","","","","","","",""
"","survey-html-form","5","191258","0.0-5.0","ye4qmyzvta","one_one","1","indirect_first","0","on03ek17","0","21","1","1","3","1","51638","","{}","","","","","","","","","","","",""
"","html-keyboard-response","6","195283","0.0-6.0-0.0-0.0","ye4qmyzvta","one_one","1","indirect_first","0","on03ek17","0","21","1","1","3","1","null","","","<div class = 'row'><div class = 'column'><img src = 'category1/CS8.png' width = '70%;'></div><div class = 'column'><img src = 'uspos/5760.bmp' width = '100%;'></div></div>","null","pos","CS","CS","1","category1/CS8.png","","","","",""
"","html-keyboard-response","7","197823","0.0-6.0-0.0-0.1","ye4qmyzvta","one_one","1","indirect_first","0","on03ek17","0","21","1","1","3","1","null","","","<div class = 'row'><div class = 'column'><img src = 'category2/CS1.png' width = '70%;'></div><div class = 'column'><img src = 'uspos/2030.bmp' width = '100%;'></div></div>","null","pos","CS","CS","2","category2/CS1.png","","","","",""
"","html-keyboard-response","8","200362","0.0-6.0-0.0-0.2","ye4qmyzvta","one_one","1","indirect_first","0","on03ek17","0","21","1","1","3","1","null","","","<div class = 'row'><div class = 'column'><img src = 'category1/CS8.png' width = '70%;'></div><div class = 'column'><img src = 'uspos/5760.bmp' width = '100%;'></div></div>","null","pos","CS","CS","1","category1/CS8.png","","","","",""
"","html-keyboard-response","9","202902","0.0-6.0-0.0-0.3","ye4qmyzvta","one_one","1","indirect_first","0","on03ek17","0","21","1","1","3","1","null","","","<div class = 'row'><div class = 'column'><img src = 'category4/CS1.png' width = '70%;'></div><div class = 'column'><img src = 'usneg/2205.bmp' width = '100%;'></div></div>","null","neg","CS","CS","4","category4/CS1.png","","","","",""
"","html-keyboard-response","10","205431","0.0-6.0-0.0-0.4","ye4qmyzvta","one_one","1","indirect_first","0","on03ek17","0","21","1","1","3","1","null","","","<div class = 'row'><div class = 'column'><img src = 'category3/CS1.png' width = '70%;'></div><div class = 'column'><img src = 'usneg/3181.bmp' width = '100%;'></div></div>","null","neg","CS","CS","3","category3/CS1.png","","","","",""
"","html-keyboard-response","11","207960","0.0-6.0-0.0-0.5","ye4qmyzvta","one_one","1","indirect_first","0","on03ek17","0","21","1","1","3","1","null","","","<div class = 'row'><div class = 'column'><img src = 'category4/CS1.png' width = '70%;'></div><div class = 'column'><img src = 'usneg/2205.bmp' width = '100%;'></div></div>","null","neg","CS","CS","4","category4/CS1.png","","","","",""
"","html-keyboard-response","12","210476","0.0-6.0-0.0-0.6","ye4qmyzvta","one_one","1","indirect_first","0","on03ek17","0","21","1","1","3","1","null","","","<div class = 'row'><div class = 'column'><img src = 'uspos/2030.bmp' width = '100%;'></div><div class = 'column'><img src = 'category2/CS1.png' width = '70%;'></div></div>","null","pos","CS","CS","2","category2/CS1.png","","","","",""
"","html-keyboard-response","13","212992","0.0-6.0-0.0-0.7","ye4qmyzvta","one_one","1","indirect_first","0","on03ek17","0","21","1","1","3","1","null","","","<div class = 'row'><div class = 'column'><img src = 'usneg/3181.bmp' width = '100%;'></div><div class = 'column'><img src = 'category3/CS1.png' width = '70%;'></div></div>","null","neg","CS","CS","3","category3/CS1.png","","","","",""
"","html-keyboard-response","14","215510","0.0-6.0-0.0-0.8","ye4qmyzvta","one_one","1","indirect_first","0","on03ek17","0","21","1","1","3","1","null","","","<div class = 'row'><div class = 'column'><img src = 'uspos/5760.bmp' width = '100%;'></div><div class = 'column'><img src = 'category1/CS8.png' width = '70%;'></div></div>","null","pos","CS","CS","1","category1/CS8.png","","","","",""
"","html-keyboard-response","15","218031","0.0-6.0-0.0-0.9","ye4qmyzvta","one_one","1","indirect_first","0","on03ek17","0","21","1","1","3","1","null","","","<div class = 'row'><div class = 'column'><img src = 'category2/CS1.png' width = '70%;'></div><div class = 'column'><img src = 'uspos/2030.bmp' width = '100%;'></div></div>","null","pos","CS","CS","2","category2/CS1.png","","","","",""
"","html-keyboard-response","16","220551","0.0-6.0-0.0-0.10","ye4qmyzvta","one_one","1","indirect_first","0","on03ek17","0","21","1","1","3","1","null","","","<div class = 'row'><div class = 'column'><img src = 'category4/CS1.png' width = '70%;'></div><div class = 'column'><img src = 'usneg/2205.bmp' width = '100%;'></div></div>","null","neg","CS","CS","4","category4/CS1.png","","","","",""
"","html-keyboard-response","17","223061","0.0-6.0-0.0-0.11","ye4qmyzvta","one_one","1","indirect_first","0","on03ek17","0","21","1","1","3","1","null","","","<div class = 'row'><div class = 'column'><img src = 'uspos/2030.bmp' width = '100%;'></div><div class = 'column'><img src = 'category2/CS1.png' width = '70%;'></div></div>","null","pos","CS","CS","2","category2/CS1.png","","","","",""
"","html-keyboard-response","18","225590","0.0-6.0-0.0-0.12","ye4qmyzvta","one_one","1","indirect_first","0","on03ek17","0","21","1","1","3","1","null","","","<div class = 'row'><div class = 'column'><img src = 'usneg/2205.bmp' width = '100%;'></div><div class = 'column'><img src = 'category4/CS1.png' width = '70%;'></div></div>","null","neg","CS","CS","4","category4/CS1.png","","","","",""
"","html-keyboard-response","19","228131","0.0-6.0-0.0-0.13","ye4qmyzvta","one_one","1","indirect_first","0","on03ek17","0","21","1","1","3","1","null","","","<div class = 'row'><div class = 'column'><img src = 'uspos/2030.bmp' width = '100%;'></div><div class = 'column'><img src = 'category2/CS1.png' width = '70%;'></div></div>","null","pos","CS","CS","2","category2/CS1.png","","","","",""
"","html-keyboard-response","20","230671","0.0-6.0-0.0-0.14","ye4qmyzvta","one_one","1","indirect_first","0","on03ek17","0","21","1","1","3","1","null","","","<div class = 'row'><div class = 'column'><img src = 'category1/CS8.png' width = '70%;'></div><div class = 'column'><img src = 'uspos/5760.bmp' width = '100%;'></div></div>","null","pos","CS","CS","1","category1/CS8.png","","","","",""
"","html-keyboard-response","21","233211","0.0-6.0-0.0-0.15","ye4qmyzvta","one_one","1","indirect_first","0","on03ek17","0","21","1","1","3","1","null","","","<div class = 'row'><div class = 'column'><img src = 'usneg/3181.bmp' width = '100%;'></div><div class = 'column'><img src = 'category3/CS1.png' width = '70%;'></div></div>","null","neg","CS","CS","3","category3/CS1.png","","","","",""
"","html-keyboard-response","22","235750","0.0-6.0-0.0-0.16","ye4qmyzvta","one_one","1","indirect_first","0","on03ek17","0","21","1","1","3","1","null","","","<div class = 'row'><div class = 'column'><img src = 'category1/CS8.png' width = '70%;'></div><div class = 'column'><img src = 'uspos/5760.bmp' width = '100%;'></div></div>","null","pos","CS","CS","1","category1/CS8.png","","","","",""
"","html-keyboard-response","23","238291","0.0-6.0-0.0-0.17","ye4qmyzvta","one_one","1","indirect_first","0","on03ek17","0","21","1","1","3","1","null","","","<div class = 'row'><div class = 'column'><img src = 'category3/CS1.png' width = '70%;'></div><div class = 'column'><img src = 'usneg/3181.bmp' width = '100%;'></div></div>","null","neg","CS","CS","3","category3/CS1.png","","","","",""
"","html-keyboard-response","24","240831","0.0-6.0-0.0-0.18","ye4qmyzvta","one_one","1","indirect_first","0","on03ek17","0","21","1","1","3","1","null","","","<div class = 'row'><div class = 'column'><img src = 'usneg/2205.bmp' width = '100%;'></div><div class = 'column'><img src = 'category4/CS1.png' width = '70%;'></div></div>","null","neg","CS","CS","4","category4/CS1.png","","","","",""
"","html-keyboard-response","25","243361","0.0-6.0-0.0-0.19","ye4qmyzvta","one_one","1","indirect_first","0","on03ek17","0","21","1","1","3","1","null","","","<div class = 'row'><div class = 'column'><img src = 'category3/CS1.png' width = '70%;'></div><div class = 'column'><img src = 'usneg/3181.bmp' width = '100%;'></div></div>","null","neg","CS","CS","3","category3/CS1.png","","","","",""
"","survey-html-form","26","246017","0.0-6.0-1.0","ye4qmyzvta","one_one","1","indirect_first","0","on03ek17","0","21","1","1","3","1","2136","","{}","","","","","","","","","","","",""
"","html-keyboard-response","27","250040","0.0-6.0-2.0-0.0","ye4qmyzvta","one_one","1","indirect_first","0","on03ek17","0","21","1","1","3","1","null","","","<div class = 'row'><div class = 'column'><img src = 'uspos/2030.bmp' width = '100%;'></div><div class = 'column'><img src = 'category2/CS1.png' width = '70%;'></div></div>","null","pos","CS","CS","2","category2/CS1.png","","","","",""
"","html-keyboard-response","28","252580","0.0-6.0-2.0-0.1","ye4qmyzvta","one_one","1","indirect_first","0","on03ek17","0","21","1","1","3","1","null","","","<div class = 'row'><div class = 'column'><img src = 'usneg/2205.bmp' width = '100%;'></div><div class = 'column'><img src = 'category4/CS1.png' width = '70%;'></div></div>","null","neg","CS","CS","4","category4/CS1.png","","","","",""
"","html-keyboard-response","29","255120","0.0-6.0-2.0-0.2","ye4qmyzvta","one_one","1","indirect_first","0","on03ek17","0","21","1","1","3","1","null","","","<div class = 'row'><div class = 'column'><img src = 'uspos/5760.bmp' width = '100%;'></div><div class = 'column'><img src = 'category1/CS8.png' width = '70%;'></div></div>","null","pos","CS","CS","1","category1/CS8.png","","","","",""
"","html-keyboard-response","30","257650","0.0-6.0-2.0-0.3","ye4qmyzvta","one_one","1","indirect_first","0","on03ek17","0","21","1","1","3","1","null","","","<div class = 'row'><div class = 'column'><img src = 'category3/CS1.png' width = '70%;'></div><div class = 'column'><img src = 'usneg/3181.bmp' width = '100%;'></div></div>","null","neg","CS","CS","3","category3/CS1.png","","","","",""
"","html-keyboard-response","31","260180","0.0-6.0-2.0-0.4","ye4qmyzvta","one_one","1","indirect_first","0","on03ek17","0","21","1","1","3","1","null","","","<div class = 'row'><div class = 'column'><img src = 'category4/CS1.png' width = '70%;'></div><div class = 'column'><img src = 'usneg/2205.bmp' width = '100%;'></div></div>","null","neg","CS","CS","4","category4/CS1.png","","","","",""
"","html-keyboard-response","32","262710","0.0-6.0-2.0-0.5","ye4qmyzvta","one_one","1","indirect_first","0","on03ek17","0","21","1","1","3","1","null","","","<div class = 'row'><div class = 'column'><img src = 'category3/CS1.png' width = '70%;'></div><div class = 'column'><img src = 'usneg/3181.bmp' width = '100%;'></div></div>","null","neg","CS","CS","3","category3/CS1.png","","","","",""
"","html-keyboard-response","33","265250","0.0-6.0-2.0-0.6","ye4qmyzvta","one_one","1","indirect_first","0","on03ek17","0","21","1","1","3","1","null","","","<div class = 'row'><div class = 'column'><img src = 'category1/CS8.png' width = '70%;'></div><div class = 'column'><img src = 'uspos/5760.bmp' width = '100%;'></div></div>","null","pos","CS","CS","1","category1/CS8.png","","","","",""
"","html-keyboard-response","34","267780","0.0-6.0-2.0-0.7","ye4qmyzvta","one_one","1","indirect_first","0","on03ek17","0","21","1","1","3","1","null","","","<div class = 'row'><div class = 'column'><img src = 'category4/CS1.png' width = '70%;'></div><div class = 'column'><img src = 'usneg/2205.bmp' width = '100%;'></div></div>","null","neg","CS","CS","4","category4/CS1.png","","","","",""
"","html-keyboard-response","35","270309","0.0-6.0-2.0-0.8","ye4qmyzvta","one_one","1","indirect_first","0","on03ek17","0","21","1","1","3","1","null","","","<div class = 'row'><div class = 'column'><img src = 'usneg/3181.bmp' width = '100%;'></div><div class = 'column'><img src = 'category3/CS1.png' width = '70%;'></div></div>","null","neg","CS","CS","3","category3/CS1.png","","","","",""
"","html-keyboard-response","36","272839","0.0-6.0-2.0-0.9","ye4qmyzvta","one_one","1","indirect_first","0","on03ek17","0","21","1","1","3","1","null","","","<div class = 'row'><div class = 'column'><img src = 'category2/CS1.png' width = '70%;'></div><div class = 'column'><img src = 'uspos/2030.bmp' width = '100%;'></div></div>","null","pos","CS","CS","2","category2/CS1.png","","","","",""
"","html-keyboard-response","37","275360","0.0-6.0-2.0-0.10","ye4qmyzvta","one_one","1","indirect_first","0","on03ek17","0","21","1","1","3","1","null","","","<div class = 'row'><div class = 'column'><img src = 'uspos/5760.bmp' width = '100%;'></div><div class = 'column'><img src = 'category1/CS8.png' width = '70%;'></div></div>","null","pos","CS","CS","1","category1/CS8.png","","","","",""
"","html-keyboard-response","38","277900","0.0-6.0-2.0-0.11","ye4qmyzvta","one_one","1","indirect_first","0","on03ek17","0","21","1","1","3","1","null","","","<div class = 'row'><div class = 'column'><img src = 'category3/CS1.png' width = '70%;'></div><div class = 'column'><img src = 'usneg/3181.bmp' width = '100%;'></div></div>","null","neg","CS","CS","3","category3/CS1.png","","","","",""
"","html-keyboard-response","39","280430","0.0-6.0-2.0-0.12","ye4qmyzvta","one_one","1","indirect_first","0","on03ek17","0","21","1","1","3","1","null","","","<div class = 'row'><div class = 'column'><img src = 'uspos/5760.bmp' width = '100%;'></div><div class = 'column'><img src = 'category1/CS8.png' width = '70%;'></div></div>","null","pos","CS","CS","1","category1/CS8.png","","","","",""
"","html-keyboard-response","40","282959","0.0-6.0-2.0-0.13","ye4qmyzvta","one_one","1","indirect_first","0","on03ek17","0","21","1","1","3","1","null","","","<div class = 'row'><div class = 'column'><img src = 'category2/CS1.png' width = '70%;'></div><div class = 'column'><img src = 'uspos/2030.bmp' width = '100%;'></div></div>","null","pos","CS","CS","2","category2/CS1.png","","","","",""
"","html-keyboard-response","41","285499","0.0-6.0-2.0-0.14","ye4qmyzvta","one_one","1","indirect_first","0","on03ek17","0","21","1","1","3","1","null","","","<div class = 'row'><div class = 'column'><img src = 'category1/CS8.png' width = '70%;'></div><div class = 'column'><img src = 'uspos/5760.bmp' width = '100%;'></div></div>","null","pos","CS","CS","1","category1/CS8.png","","","","",""
"","html-keyboard-response","42","288029","0.0-6.0-2.0-0.15","ye4qmyzvta","one_one","1","indirect_first","0","on03ek17","0","21","1","1","3","1","null","","","<div class = 'row'><div class = 'column'><img src = 'category2/CS1.png' width = '70%;'></div><div class = 'column'><img src = 'uspos/2030.bmp' width = '100%;'></div></div>","null","pos","CS","CS","2","category2/CS1.png","","","","",""
"","html-keyboard-response","43","290569","0.0-6.0-2.0-0.16","ye4qmyzvta","one_one","1","indirect_first","0","on03ek17","0","21","1","1","3","1","null","","","<div class = 'row'><div class = 'column'><img src = 'category4/CS1.png' width = '70%;'></div><div class = 'column'><img src = 'usneg/2205.bmp' width = '100%;'></div></div>","null","neg","CS","CS","4","category4/CS1.png","","","","",""
"","html-keyboard-response","44","293099","0.0-6.0-2.0-0.17","ye4qmyzvta","one_one","1","indirect_first","0","on03ek17","0","21","1","1","3","1","null","","","<div class = 'row'><div class = 'column'><img src = 'category2/CS1.png' width = '70%;'></div><div class = 'column'><img src = 'uspos/2030.bmp' width = '100%;'></div></div>","null","pos","CS","CS","2","category2/CS1.png","","","","",""
"","html-keyboard-response","45","295637","0.0-6.0-2.0-0.18","ye4qmyzvta","one_one","1","indirect_first","0","on03ek17","0","21","1","1","3","1","null","","","<div class = 'row'><div class = 'column'><img src = 'category3/CS1.png' width = '70%;'></div><div class = 'column'><img src = 'usneg/3181.bmp' width = '100%;'></div></div>","null","neg","CS","CS","3","category3/CS1.png","","","","",""
"","html-keyboard-response","46","298139","0.0-6.0-2.0-0.19","ye4qmyzvta","one_one","1","indirect_first","0","on03ek17","0","21","1","1","3","1","null","","","<div class = 'row'><div class = 'column'><img src = 'category4/CS1.png' width = '70%;'></div><div class = 'column'><img src = 'usneg/2205.bmp' width = '100%;'></div></div>","null","neg","CS","CS","4","category4/CS1.png","","","","",""
"","survey-html-form","47","301471","0.0-6.0-3.0","ye4qmyzvta","one_one","1","indirect_first","0","on03ek17","0","21","1","1","3","1","2811","","{}","","","","","","","","","","","",""
"","html-keyboard-response","48","305489","0.0-6.0-4.0-0.0","ye4qmyzvta","one_one","1","indirect_first","0","on03ek17","0","21","1","1","3","1","null","","","<div class = 'row'><div class = 'column'><img src = 'uspos/2030.bmp' width = '100%;'></div><div class = 'column'><img src = 'category2/CS1.png' width = '70%;'></div></div>","null","pos","CS","CS","2","category2/CS1.png","","","","",""
"","html-keyboard-response","49","308029","0.0-6.0-4.0-0.1","ye4qmyzvta","one_one","1","indirect_first","0","on03ek17","0","21","1","1","3","1","null","","","<div class = 'row'><div class = 'column'><img src = 'category3/CS1.png' width = '70%;'></div><div class = 'column'><img src = 'usneg/3181.bmp' width = '100%;'></div></div>","null","neg","CS","CS","3","category3/CS1.png","","","","",""
"","html-keyboard-response","50","310569","0.0-6.0-4.0-0.2","ye4qmyzvta","one_one","1","indirect_first","0","on03ek17","0","21","1","1","3","1","null","","","<div class = 'row'><div class = 'column'><img src = 'usneg/2205.bmp' width = '100%;'></div><div class = 'column'><img src = 'category4/CS1.png' width = '70%;'></div></div>","null","neg","CS","CS","4","category4/CS1.png","","","","",""
"","html-keyboard-response","51","313109","0.0-6.0-4.0-0.3","ye4qmyzvta","one_one","1","indirect_first","0","on03ek17","0","21","1","1","3","1","null","","","<div class = 'row'><div class = 'column'><img src = 'category1/CS8.png' width = '70%;'></div><div class = 'column'><img src = 'uspos/5760.bmp' width = '100%;'></div></div>","null","pos","CS","CS","1","category1/CS8.png","","","","",""
"","html-keyboard-response","52","315649","0.0-6.0-4.0-0.4","ye4qmyzvta","one_one","1","indirect_first","0","on03ek17","0","21","1","1","3","1","null","","","<div class = 'row'><div class = 'column'><img src = 'usneg/3181.bmp' width = '100%;'></div><div class = 'column'><img src = 'category3/CS1.png' width = '70%;'></div></div>","null","neg","CS","CS","3","category3/CS1.png","","","","",""
"","html-keyboard-response","53","318169","0.0-6.0-4.0-0.5","ye4qmyzvta","one_one","1","indirect_first","0","on03ek17","0","21","1","1","3","1","null","","","<div class = 'row'><div class = 'column'><img src = 'uspos/2030.bmp' width = '100%;'></div><div class = 'column'><img src = 'category2/CS1.png' width = '70%;'></div></div>","null","pos","CS","CS","2","category2/CS1.png","","","","",""
"","html-keyboard-response","54","320706","0.0-6.0-4.0-0.6","ye4qmyzvta","one_one","1","indirect_first","0","on03ek17","0","21","1","1","3","1","null","","","<div class = 'row'><div class = 'column'><img src = 'category4/CS1.png' width = '70%;'></div><div class = 'column'><img src = 'usneg/2205.bmp' width = '100%;'></div></div>","null","neg","CS","CS","4","category4/CS1.png","","","","",""
"","html-keyboard-response","55","323208","0.0-6.0-4.0-0.7","ye4qmyzvta","one_one","1","indirect_first","0","on03ek17","0","21","1","1","3","1","null","","","<div class = 'row'><div class = 'column'><img src = 'usneg/3181.bmp' width = '100%;'></div><div class = 'column'><img src = 'category3/CS1.png' width = '70%;'></div></div>","null","neg","CS","CS","3","category3/CS1.png","","","","",""
"","html-keyboard-response","56","325738","0.0-6.0-4.0-0.8","ye4qmyzvta","one_one","1","indirect_first","0","on03ek17","0","21","1","1","3","1","null","","","<div class = 'row'><div class = 'column'><img src = 'uspos/2030.bmp' width = '100%;'></div><div class = 'column'><img src = 'category2/CS1.png' width = '70%;'></div></div>","null","pos","CS","CS","2","category2/CS1.png","","","","",""
"","html-keyboard-response","57","328278","0.0-6.0-4.0-0.9","ye4qmyzvta","one_one","1","indirect_first","0","on03ek17","0","21","1","1","3","1","null","","","<div class = 'row'><div class = 'column'><img src = 'category1/CS8.png' width = '70%;'></div><div class = 'column'><img src = 'uspos/5760.bmp' width = '100%;'></div></div>","null","pos","CS","CS","1","category1/CS8.png","","","","",""
"","html-keyboard-response","58","330789","0.0-6.0-4.0-0.10","ye4qmyzvta","one_one","1","indirect_first","0","on03ek17","0","21","1","1","3","1","null","","","<div class = 'row'><div class = 'column'><img src = 'uspos/2030.bmp' width = '100%;'></div><div class = 'column'><img src = 'category2/CS1.png' width = '70%;'></div></div>","null","pos","CS","CS","2","category2/CS1.png","","","","",""
"","html-keyboard-response","59","333329","0.0-6.0-4.0-0.11","ye4qmyzvta","one_one","1","indirect_first","0","on03ek17","0","21","1","1","3","1","null","","","<div class = 'row'><div class = 'column'><img src = 'uspos/5760.bmp' width = '100%;'></div><div class = 'column'><img src = 'category1/CS8.png' width = '70%;'></div></div>","null","pos","CS","CS","1","category1/CS8.png","","","","",""
"","html-keyboard-response","60","335849","0.0-6.0-4.0-0.12","ye4qmyzvta","one_one","1","indirect_first","0","on03ek17","0","21","1","1","3","1","null","","","<div class = 'row'><div class = 'column'><img src = 'category4/CS1.png' width = '70%;'></div><div class = 'column'><img src = 'usneg/2205.bmp' width = '100%;'></div></div>","null","neg","CS","CS","4","category4/CS1.png","","","","",""
"","html-keyboard-response","61","338369","0.0-6.0-4.0-0.13","ye4qmyzvta","one_one","1","indirect_first","0","on03ek17","0","21","1","1","3","1","null","","","<div class = 'row'><div class = 'column'><img src = 'category1/CS8.png' width = '70%;'></div><div class = 'column'><img src = 'uspos/5760.bmp' width = '100%;'></div></div>","null","pos","CS","CS","1","category1/CS8.png","","","","",""
"","html-keyboard-response","62","340909","0.0-6.0-4.0-0.14","ye4qmyzvta","one_one","1","indirect_first","0","on03ek17","0","21","1","1","3","1","null","","","<div class = 'row'><div class = 'column'><img src = 'category2/CS1.png' width = '70%;'></div><div class = 'column'><img src = 'uspos/2030.bmp' width = '100%;'></div></div>","null","pos","CS","CS","2","category2/CS1.png","","","","",""
"","html-keyboard-response","63","343449","0.0-6.0-4.0-0.15","ye4qmyzvta","one_one","1","indirect_first","0","on03ek17","0","21","1","1","3","1","null","","","<div class = 'row'><div class = 'column'><img src = 'category3/CS1.png' width = '70%;'></div><div class = 'column'><img src = 'usneg/3181.bmp' width = '100%;'></div></div>","null","neg","CS","CS","3","category3/CS1.png","","","","",""
"","html-keyboard-response","64","345989","0.0-6.0-4.0-0.16","ye4qmyzvta","one_one","1","indirect_first","0","on03ek17","0","21","1","1","3","1","null","","","<div class = 'row'><div class = 'column'><img src = 'uspos/5760.bmp' width = '100%;'></div><div class = 'column'><img src = 'category1/CS8.png' width = '70%;'></div></div>","null","pos","CS","CS","1","category1/CS8.png","","","","",""
"","html-keyboard-response","65","348518","0.0-6.0-4.0-0.17","ye4qmyzvta","one_one","1","indirect_first","0","on03ek17","0","21","1","1","3","1","null","","","<div class = 'row'><div class = 'column'><img src = 'usneg/2205.bmp' width = '100%;'></div><div class = 'column'><img src = 'category4/CS1.png' width = '70%;'></div></div>","null","neg","CS","CS","4","category4/CS1.png","","","","",""
"","html-keyboard-response","66","351058","0.0-6.0-4.0-0.18","ye4qmyzvta","one_one","1","indirect_first","0","on03ek17","0","21","1","1","3","1","null","","","<div class = 'row'><div class = 'column'><img src = 'category3/CS1.png' width = '70%;'></div><div class = 'column'><img src = 'usneg/3181.bmp' width = '100%;'></div></div>","null","neg","CS","CS","3","category3/CS1.png","","","","",""
"","html-keyboard-response","67","353599","0.0-6.0-4.0-0.19","ye4qmyzvta","one_one","1","indirect_first","0","on03ek17","0","21","1","1","3","1","null","","","<div class = 'row'><div class = 'column'><img src = 'category4/CS1.png' width = '70%;'></div><div class = 'column'><img src = 'usneg/2205.bmp' width = '100%;'></div></div>","null","neg","CS","CS","4","category4/CS1.png","","","","",""
"","survey-html-form","68","356967","0.0-6.0-5.0","ye4qmyzvta","one_one","1","indirect_first","0","on03ek17","0","21","1","1","3","1","2850","","{}","","","","","","","","","","","",""
"","html-keyboard-response","69","360998","0.0-6.0-6.0-0.0","ye4qmyzvta","one_one","1","indirect_first","0","on03ek17","0","21","1","1","3","1","null","","","<div class = 'row'><div class = 'column'><img src = 'usneg/3181.bmp' width = '100%;'></div><div class = 'column'><img src = 'category3/CS1.png' width = '70%;'></div></div>","null","neg","CS","CS","3","category3/CS1.png","","","","",""
"","html-keyboard-response","70","363539","0.0-6.0-6.0-0.1","ye4qmyzvta","one_one","1","indirect_first","0","on03ek17","0","21","1","1","3","1","null","","","<div class = 'row'><div class = 'column'><img src = 'category2/CS1.png' width = '70%;'></div><div class = 'column'><img src = 'uspos/2030.bmp' width = '100%;'></div></div>","null","pos","CS","CS","2","category2/CS1.png","","","","",""
"","html-keyboard-response","71","366078","0.0-6.0-6.0-0.2","ye4qmyzvta","one_one","1","indirect_first","0","on03ek17","0","21","1","1","3","1","null","","","<div class = 'row'><div class = 'column'><img src = 'usneg/3181.bmp' width = '100%;'></div><div class = 'column'><img src = 'category3/CS1.png' width = '70%;'></div></div>","null","neg","CS","CS","3","category3/CS1.png","","","","",""
"","html-keyboard-response","72","368598","0.0-6.0-6.0-0.3","ye4qmyzvta","one_one","1","indirect_first","0","on03ek17","0","21","1","1","3","1","null","","","<div class = 'row'><div class = 'column'><img src = 'usneg/2205.bmp' width = '100%;'></div><div class = 'column'><img src = 'category4/CS1.png' width = '70%;'></div></div>","null","neg","CS","CS","4","category4/CS1.png","","","","",""
"","html-keyboard-response","73","371119","0.0-6.0-6.0-0.4","ye4qmyzvta","one_one","1","indirect_first","0","on03ek17","0","21","1","1","3","1","null","","","<div class = 'row'><div class = 'column'><img src = 'category1/CS8.png' width = '70%;'></div><div class = 'column'><img src = 'uspos/5760.bmp' width = '100%;'></div></div>","null","pos","CS","CS","1","category1/CS8.png","","","","",""
"","html-keyboard-response","74","373649","0.0-6.0-6.0-0.5","ye4qmyzvta","one_one","1","indirect_first","0","on03ek17","0","21","1","1","3","1","null","","","<div class = 'row'><div class = 'column'><img src = 'category3/CS1.png' width = '70%;'></div><div class = 'column'><img src = 'usneg/3181.bmp' width = '100%;'></div></div>","null","neg","CS","CS","3","category3/CS1.png","","","","",""
"","html-keyboard-response","75","376185","0.0-6.0-6.0-0.6","ye4qmyzvta","one_one","1","indirect_first","0","on03ek17","0","21","1","1","3","1","null","","","<div class = 'row'><div class = 'column'><img src = 'category1/CS8.png' width = '70%;'></div><div class = 'column'><img src = 'uspos/5760.bmp' width = '100%;'></div></div>","null","pos","CS","CS","1","category1/CS8.png","","","","",""
"","html-keyboard-response","76","378688","0.0-6.0-6.0-0.7","ye4qmyzvta","one_one","1","indirect_first","0","on03ek17","0","21","1","1","3","1","null","","","<div class = 'row'><div class = 'column'><img src = 'uspos/2030.bmp' width = '100%;'></div><div class = 'column'><img src = 'category2/CS1.png' width = '70%;'></div></div>","null","pos","CS","CS","2","category2/CS1.png","","","","",""
"","html-keyboard-response","77","381228","0.0-6.0-6.0-0.8","ye4qmyzvta","one_one","1","indirect_first","0","on03ek17","0","21","1","1","3","1","null","","","<div class = 'row'><div class = 'column'><img src = 'category1/CS8.png' width = '70%;'></div><div class = 'column'><img src = 'uspos/5760.bmp' width = '100%;'></div></div>","null","pos","CS","CS","1","category1/CS8.png","","","","",""
"","html-keyboard-response","78","383758","0.0-6.0-6.0-0.9","ye4qmyzvta","one_one","1","indirect_first","0","on03ek17","0","21","1","1","3","1","null","","","<div class = 'row'><div class = 'column'><img src = 'category2/CS1.png' width = '70%;'></div><div class = 'column'><img src = 'uspos/2030.bmp' width = '100%;'></div></div>","null","pos","CS","CS","2","category2/CS1.png","","","","",""
"","html-keyboard-response","79","386298","0.0-6.0-6.0-0.10","ye4qmyzvta","one_one","1","indirect_first","0","on03ek17","0","21","1","1","3","1","null","","","<div class = 'row'><div class = 'column'><img src = 'usneg/3181.bmp' width = '100%;'></div><div class = 'column'><img src = 'category3/CS1.png' width = '70%;'></div></div>","null","neg","CS","CS","3","category3/CS1.png","","","","",""
"","html-keyboard-response","80","388818","0.0-6.0-6.0-0.11","ye4qmyzvta","one_one","1","indirect_first","0","on03ek17","0","21","1","1","3","1","null","","","<div class = 'row'><div class = 'column'><img src = 'uspos/2030.bmp' width = '100%;'></div><div class = 'column'><img src = 'category2/CS1.png' width = '70%;'></div></div>","null","pos","CS","CS","2","category2/CS1.png","","","","",""
"","html-keyboard-response","81","391338","0.0-6.0-6.0-0.12","ye4qmyzvta","one_one","1","indirect_first","0","on03ek17","0","21","1","1","3","1","null","","","<div class = 'row'><div class = 'column'><img src = 'uspos/5760.bmp' width = '100%;'></div><div class = 'column'><img src = 'category1/CS8.png' width = '70%;'></div></div>","null","pos","CS","CS","1","category1/CS8.png","","","","",""
"","html-keyboard-response","82","393879","0.0-6.0-6.0-0.13","ye4qmyzvta","one_one","1","indirect_first","0","on03ek17","0","21","1","1","3","1","null","","","<div class = 'row'><div class = 'column'><img src = 'usneg/2205.bmp' width = '100%;'></div><div class = 'column'><img src = 'category4/CS1.png' width = '70%;'></div></div>","null","neg","CS","CS","4","category4/CS1.png","","","","",""
"","html-keyboard-response","83","396409","0.0-6.0-6.0-0.14","ye4qmyzvta","one_one","1","indirect_first","0","on03ek17","0","21","1","1","3","1","null","","","<div class = 'row'><div class = 'column'><img src = 'uspos/5760.bmp' width = '100%;'></div><div class = 'column'><img src = 'category1/CS8.png' width = '70%;'></div></div>","null","pos","CS","CS","1","category1/CS8.png","","","","",""
"","html-keyboard-response","84","398928","0.0-6.0-6.0-0.15","ye4qmyzvta","one_one","1","indirect_first","0","on03ek17","0","21","1","1","3","1","null","","","<div class = 'row'><div class = 'column'><img src = 'category4/CS1.png' width = '70%;'></div><div class = 'column'><img src = 'usneg/2205.bmp' width = '100%;'></div></div>","null","neg","CS","CS","4","category4/CS1.png","","","","",""
"","html-keyboard-response","85","401448","0.0-6.0-6.0-0.16","ye4qmyzvta","one_one","1","indirect_first","0","on03ek17","0","21","1","1","3","1","null","","","<div class = 'row'><div class = 'column'><img src = 'usneg/3181.bmp' width = '100%;'></div><div class = 'column'><img src = 'category3/CS1.png' width = '70%;'></div></div>","null","neg","CS","CS","3","category3/CS1.png","","","","",""
"","html-keyboard-response","86","403968","0.0-6.0-6.0-0.17","ye4qmyzvta","one_one","1","indirect_first","0","on03ek17","0","21","1","1","3","1","null","","","<div class = 'row'><div class = 'column'><img src = 'category4/CS1.png' width = '70%;'></div><div class = 'column'><img src = 'usneg/2205.bmp' width = '100%;'></div></div>","null","neg","CS","CS","4","category4/CS1.png","","","","",""
"","html-keyboard-response","87","406488","0.0-6.0-6.0-0.18","ye4qmyzvta","one_one","1","indirect_first","0","on03ek17","0","21","1","1","3","1","null","","","<div class = 'row'><div class = 'column'><img src = 'category2/CS1.png' width = '70%;'></div><div class = 'column'><img src = 'uspos/2030.bmp' width = '100%;'></div></div>","null","pos","CS","CS","2","category2/CS1.png","","","","",""
"","html-keyboard-response","88","409029","0.0-6.0-6.0-0.19","ye4qmyzvta","one_one","1","indirect_first","0","on03ek17","0","21","1","1","3","1","null","","","<div class = 'row'><div class = 'column'><img src = 'usneg/2205.bmp' width = '100%;'></div><div class = 'column'><img src = 'category4/CS1.png' width = '70%;'></div></div>","null","neg","CS","CS","4","category4/CS1.png","","","","",""
"","html-keyboard-response","89","526278","0.0-7.0","ye4qmyzvta","one_one","1","indirect_first","0","on03ek17","0","21","1","1","3","1","116729","","","<p>Sie sehen nun die chinesischen Zeichen nur ganz kurz. Danach sehen Sie die jeweilige Aussprache der Zeichen als Silbe auf dem Bildschrim. Ihre Aufgabe ist es, für jede Silbe anzugeben, ob diese etwas angenehmes, oder unangenehmes bedeuten könnte. Verlassen Sie sich hier vor allem auf Ihre Intuition.<br><br>Die Zeichen werden nur zur Orientierung dargestellt, beachten Sie sie deshalb nicht. Konzentrieren Sie sich vor allem auf die Silben. <br>Reagieren Sie mit folgenden zwei Tasten: <br><br><b>'D' </b> wenn die Silbe etwas <b>unangenehmes</b> bedeuten könnte. <br><b>'K'</b> wenn die Silbe etwas <b>angenehmes</b> bedeuten könnte. <br><br>Bitte legen Sie nun den Zeigefinger der linken Hand auf die Taste 'D' und den Zeigefinger der rechten Hand auf die Taste 'K'. <br>Reagieren Sie auf jede Silbe so schnell wie möglich. Uns interessiert Ihre spontane Reaktion. <br> <br> <br>Drücken Sie 'D' oder 'K', um die nächste Aufgabe zu starten. </p>","75","","","","","","","","","",""
"","html-keyboard-response","90","529309","0.0-8.0-0.0","ye4qmyzvta","one_one","1","indirect_first","0","on03ek17","0","21","1","1","3","1","null","","","<div style=""font-size:60px;"">+</div>","null","","","","","","","","","",""
"","html-keyboard-response","91","529408","0.0-8.0-1.0","ye4qmyzvta","one_one","1","indirect_first","0","on03ek17","0","21","1","1","3","1","null","","","<img src = 'category2/CS3.png' width = '100%;'>","null","","","","","","","","","",""
"","html-keyboard-response","92","529688","0.0-8.0-2.0","ye4qmyzvta","one_one","1","indirect_first","0","on03ek17","0","21","1","1","3","1","null","","","<img src = 'targets/29.png' width = '100%;'>","null","","","","","","","","","",""
"","html-keyboard-response","93","535511","0.0-8.0-3.0","ye4qmyzvta","one_one","1","indirect_first","0","on03ek17","0","21","1","1","3","1","5820","","","<img src = 'targets/mask.png' width = '100%;'>","75","pos","GS","GSold","2","category2/CS3.png","targets/29.png","1","indirect","0",""
"","html-keyboard-response","94","537049","0.0-8.0-0.1","ye4qmyzvta","one_one","1","indirect_first","0","on03ek17","0","21","1","1","3","1","null","","","<div style=""font-size:60px;"">+</div>","null","","","","","","","","","",""
"","html-keyboard-response","95","537149","0.0-8.0-1.1","ye4qmyzvta","one_one","1","indirect_first","0","on03ek17","0","21","1","1","3","1","null","","","<img src = 'category4/CS6.png' width = '100%;'>","null","","","","","","","","","",""
"","html-keyboard-response","96","537429","0.0-8.0-2.1","ye4qmyzvta","one_one","1","indirect_first","0","on03ek17","0","21","1","1","3","1","null","","","<img src = 'targets/34.png' width = '100%;'>","null","","","","","","","","","",""
"","html-keyboard-response","97","542880","0.0-8.0-3.1","ye4qmyzvta","one_one","1","indirect_first","0","on03ek17","0","21","1","1","3","1","5449","","","<img src = 'targets/mask.png' width = '100%;'>","68","neg","GS","GSold","4","category4/CS6.png","targets/34.png","0","indirect","1",""
"","html-keyboard-response","98","544418","0.0-8.0-0.2","ye4qmyzvta","one_one","1","indirect_first","0","on03ek17","0","21","1","1","3","1","null","","","<div style=""font-size:60px;"">+</div>","null","","","","","","","","","",""
"","html-keyboard-response","99","544518","0.0-8.0-1.2","ye4qmyzvta","one_one","1","indirect_first","0","on03ek17","0","21","1","1","3","1","null","","","<img src = 'category3/CS6.png' width = '100%;'>","null","","","","","","","","","",""
"","html-keyboard-response","100","544798","0.0-8.0-2.2","ye4qmyzvta","one_one","1","indirect_first","0","on03ek17","0","21","1","1","3","1","null","","","<img src = 'targets/33.png' width = '100%;'>","null","","","","","","","","","",""
"","html-keyboard-response","101","545983","0.0-8.0-3.2","ye4qmyzvta","one_one","1","indirect_first","0","on03ek17","0","21","1","1","3","1","1183","","","<img src = 'targets/mask.png' width = '100%;'>","75","neg","GS","GSold","3","category3/CS6.png","targets/33.png","1","indirect","2",""
"","html-keyboard-response","102","547508","0.0-8.0-0.3","ye4qmyzvta","one_one","1","indirect_first","0","on03ek17","0","21","1","1","3","1","null","","","<div style=""font-size:60px;"">+</div>","null","","","","","","","","","",""
"","html-keyboard-response","103","547608","0.0-8.0-1.3","ye4qmyzvta","one_one","1","indirect_first","0","on03ek17","0","21","1","1","3","1","null","","","<img src = 'category1/CS4.png' width = '100%;'>","null","","","","","","","","","",""
"","html-keyboard-response","104","547888","0.0-8.0-2.3","ye4qmyzvta","one_one","1","indirect_first","0","on03ek17","0","21","1","1","3","1","null","","","<img src = 'targets/21.png' width = '100%;'>","null","","","","","","","","","",""
"","html-keyboard-response","105","548471","0.0-8.0-3.3","ye4qmyzvta","one_one","1","indirect_first","0","on03ek17","0","21","1","1","3","1","580","","","<img src = 'targets/mask.png' width = '100%;'>","68","pos","GS","GSold","1","category1/CS4.png","targets/21.png","0","indirect","3",""
"","html-keyboard-response","106","549989","0.0-8.0-0.4","ye4qmyzvta","one_one","1","indirect_first","0","on03ek17","0","21","1","1","3","1","null","","","<div style=""font-size:60px;"">+</div>","null","","","","","","","","","",""
"","html-keyboard-response","107","550088","0.0-8.0-1.4","ye4qmyzvta","one_one","1","indirect_first","0","on03ek17","0","21","1","1","3","1","null","","","<img src = 'category2/CS1.png' width = '100%;'>","null","","","","","","","","","",""
"","html-keyboard-response","108","550358","0.0-8.0-2.4","ye4qmyzvta","one_one","1","indirect_first","0","on03ek17","0","21","1","1","3","1","null","","","<img src = 'targets/43.png' width = '100%;'>","null","","","","","","","","","",""
"","html-keyboard-response","109","552599","0.0-8.0-3.4","ye4qmyzvta","one_one","1","indirect_first","0","on03ek17","0","21","1","1","3","1","2240","","","<img src = 'targets/mask.png' width = '100%;'>","75","pos","CS","CS","2","category2/CS1.png","targets/43.png","1","indirect","4",""
"","html-keyboard-response","110","554128","0.0-8.0-0.5","ye4qmyzvta","one_one","1","indirect_first","0","on03ek17","0","21","1","1","3","1","null","","","<div style=""font-size:60px;"">+</div>","null","","","","","","","","","",""
"","html-keyboard-response","111","554229","0.0-8.0-1.5","ye4qmyzvta","one_one","1","indirect_first","0","on03ek17","0","21","1","1","3","1","null","","","<img src = 'category2/CS4.png' width = '100%;'>","null","","","","","","","","","",""
"","html-keyboard-response","112","554508","0.0-8.0-2.5","ye4qmyzvta","one_one","1","indirect_first","0","on03ek17","0","21","1","1","3","1","null","","","<img src = 'targets/1.png' width = '100%;'>","null","","","","","","","","","",""
"","html-keyboard-response","113","556991","0.0-8.0-3.5","ye4qmyzvta","one_one","1","indirect_first","0","on03ek17","0","21","1","1","3","1","2482","","","<img src = 'targets/mask.png' width = '100%;'>","75","pos","GS","GSold","2","category2/CS4.png","targets/1.png","1","indirect","5",""
"","html-keyboard-response","114","558528","0.0-8.0-0.6","ye4qmyzvta","one_one","1","indirect_first","0","on03ek17","0","21","1","1","3","1","null","","","<div style=""font-size:60px;"">+</div>","null","","","","","","","","","",""
"","html-keyboard-response","115","558628","0.0-8.0-1.6","ye4qmyzvta","one_one","1","indirect_first","0","on03ek17","0","21","1","1","3","1","null","","","<img src = 'category2/CS7.png' width = '100%;'>","null","","","","","","","","","",""
"","html-keyboard-response","116","558909","0.0-8.0-2.6","ye4qmyzvta","one_one","1","indirect_first","0","on03ek17","0","21","1","1","3","1","null","","","<img src = 'targets/22.png' width = '100%;'>","null","","","","","","","","","",""
"","html-keyboard-response","117","561071","0.0-8.0-3.6","ye4qmyzvta","one_one","1","indirect_first","0","on03ek17","0","21","1","1","3","1","2162","","","<img src = 'targets/mask.png' width = '100%;'>","68","pos","GS","GSold","2","category2/CS7.png","targets/22.png","0","indirect","6",""
"","html-keyboard-response","118","562598","0.0-8.0-0.7","ye4qmyzvta","one_one","1","indirect_first","0","on03ek17","0","21","1","1","3","1","null","","","<div style=""font-size:60px;"">+</div>","null","","","","","","","","","",""
"","html-keyboard-response","119","562698","0.0-8.0-1.7","ye4qmyzvta","one_one","1","indirect_first","0","on03ek17","0","21","1","1","3","1","null","","","<img src = 'category4/CS1.png' width = '100%;'>","null","","","","","","","","","",""
"","html-keyboard-response","120","562978","0.0-8.0-2.7","ye4qmyzvta","one_one","1","indirect_first","0","on03ek17","0","21","1","1","3","1","null","","","<img src = 'targets/46.png' width = '100%;'>","null","","","","","","","","","",""
"","html-keyboard-response","121","564671","0.0-8.0-3.7","ye4qmyzvta","one_one","1","indirect_first","0","on03ek17","0","21","1","1","3","1","1691","","","<img src = 'targets/mask.png' width = '100%;'>","68","neg","CS","CS","4","category4/CS1.png","targets/46.png","0","indirect","7",""
"","html-keyboard-response","122","566199","0.0-8.0-0.8","ye4qmyzvta","one_one","1","indirect_first","0","on03ek17","0","21","1","1","3","1","null","","","<div style=""font-size:60px;"">+</div>","null","","","","","","","","","",""
"","html-keyboard-response","123","566298","0.0-8.0-1.8","ye4qmyzvta","one_one","1","indirect_first","0","on03ek17","0","21","1","1","3","1","null","","","<img src = 'category1/CS9.png' width = '100%;'>","null","","","","","","","","","",""
"","html-keyboard-response","124","566578","0.0-8.0-2.8","ye4qmyzvta","one_one","1","indirect_first","0","on03ek17","0","21","1","1","3","1","null","","","<img src = 'targets/11.png' width = '100%;'>","null","","","","","","","","","",""
"","html-keyboard-response","125","569511","0.0-8.0-3.8","ye4qmyzvta","one_one","1","indirect_first","0","on03ek17","0","21","1","1","3","1","2931","","","<img src = 'targets/mask.png' width = '100%;'>","68","pos","GS","GSold","1","category1/CS9.png","targets/11.png","0","indirect","8",""
"","html-keyboard-response","126","571019","0.0-8.0-0.9","ye4qmyzvta","one_one","1","indirect_first","0","on03ek17","0","21","1","1","3","1","null","","","<div style=""font-size:60px;"">+</div>","null","","","","","","","","","",""
"","html-keyboard-response","127","571119","0.0-8.0-1.9","ye4qmyzvta","one_one","1","indirect_first","0","on03ek17","0","21","1","1","3","1","null","","","<img src = 'category3/CS1.png' width = '100%;'>","null","","","","","","","","","",""
"","html-keyboard-response","128","571398","0.0-8.0-2.9","ye4qmyzvta","one_one","1","indirect_first","0","on03ek17","0","21","1","1","3","1","null","","","<img src = 'targets/14.png' width = '100%;'>","null","","","","","","","","","",""
"","html-keyboard-response","129","572175","0.0-8.0-3.9","ye4qmyzvta","one_one","1","indirect_first","0","on03ek17","0","21","1","1","3","1","776","","","<img src = 'targets/mask.png' width = '100%;'>","68","neg","CS","CS","3","category3/CS1.png","targets/14.png","0","indirect","9",""
"","html-keyboard-response","130","573698","0.0-8.0-0.10","ye4qmyzvta","one_one","1","indirect_first","0","on03ek17","0","21","1","1","3","1","null","","","<div style=""font-size:60px;"">+</div>","null","","","","","","","","","",""
"","html-keyboard-response","131","573798","0.0-8.0-1.10","ye4qmyzvta","one_one","1","indirect_first","0","on03ek17","0","21","1","1","3","1","null","","","<img src = 'category1/CS3.png' width = '100%;'>","null","","","","","","","","","",""
"","html-keyboard-response","132","574078","0.0-8.0-2.10","ye4qmyzvta","one_one","1","indirect_first","0","on03ek17","0","21","1","1","3","1","null","","","<img src = 'targets/38.png' width = '100%;'>","null","","","","","","","","","",""
"","html-keyboard-response","133","575127","0.0-8.0-3.10","ye4qmyzvta","one_one","1","indirect_first","0","on03ek17","0","21","1","1","3","1","1047","","","<img src = 'targets/mask.png' width = '100%;'>","75","pos","GS","GSold","1","category1/CS3.png","targets/38.png","1","indirect","10",""
"","html-keyboard-response","134","576658","0.0-8.0-0.11","ye4qmyzvta","one_one","1","indirect_first","0","on03ek17","0","21","1","1","3","1","null","","","<div style=""font-size:60px;"">+</div>","null","","","","","","","","","",""
"","html-keyboard-response","135","576758","0.0-8.0-1.11","ye4qmyzvta","one_one","1","indirect_first","0","on03ek17","0","21","1","1","3","1","null","","","<img src = 'category4/CS5.png' width = '100%;'>","null","","","","","","","","","",""
"","html-keyboard-response","136","577038","0.0-8.0-2.11","ye4qmyzvta","one_one","1","indirect_first","0","on03ek17","0","21","1","1","3","1","null","","","<img src = 'targets/18.png' width = '100%;'>","null","","","","","","","","","",""
"","html-keyboard-response","137","578135","0.0-8.0-3.11","ye4qmyzvta","one_one","1","indirect_first","0","on03ek17","0","21","1","1","3","1","1096","","","<img src = 'targets/mask.png' width = '100%;'>","68","neg","GS","GSold","4","category4/CS5.png","targets/18.png","0","indirect","11",""
"","html-keyboard-response","138","579638","0.0-8.0-0.12","ye4qmyzvta","one_one","1","indirect_first","0","on03ek17","0","21","1","1","3","1","null","","","<div style=""font-size:60px;"">+</div>","null","","","","","","","","","",""
"","html-keyboard-response","139","579731","0.0-8.0-1.12","ye4qmyzvta","one_one","1","indirect_first","0","on03ek17","0","21","1","1","3","1","null","","","<img src = 'category1/CS8.png' width = '100%;'>","null","","","","","","","","","",""
"","html-keyboard-response","140","579983","0.0-8.0-2.12","ye4qmyzvta","one_one","1","indirect_first","0","on03ek17","0","21","1","1","3","1","null","","","<img src = 'targets/15.png' width = '100%;'>","null","","","","","","","","","",""
"","html-keyboard-response","141","580679","0.0-8.0-3.12","ye4qmyzvta","one_one","1","indirect_first","0","on03ek17","0","21","1","1","3","1","696","","","<img src = 'targets/mask.png' width = '100%;'>","75","pos","CS","CS","1","category1/CS8.png","targets/15.png","1","indirect","12",""
"","html-keyboard-response","142","582198","0.0-8.0-0.13","ye4qmyzvta","one_one","1","indirect_first","0","on03ek17","0","21","1","1","3","1","null","","","<div style=""font-size:60px;"">+</div>","null","","","","","","","","","",""
"","html-keyboard-response","143","582299","0.0-8.0-1.13","ye4qmyzvta","one_one","1","indirect_first","0","on03ek17","0","21","1","1","3","1","null","","","<img src = 'category3/CS4.png' width = '100%;'>","null","","","","","","","","","",""
"","html-keyboard-response","144","582579","0.0-8.0-2.13","ye4qmyzvta","one_one","1","indirect_first","0","on03ek17","0","21","1","1","3","1","null","","","<img src = 'targets/5.png' width = '100%;'>","null","","","","","","","","","",""
"","html-keyboard-response","145","583311","0.0-8.0-3.13","ye4qmyzvta","one_one","1","indirect_first","0","on03ek17","0","21","1","1","3","1","732","","","<img src = 'targets/mask.png' width = '100%;'>","68","neg","GS","GSold","3","category3/CS4.png","targets/5.png","0","indirect","13",""
"","html-keyboard-response","146","584838","0.0-8.0-0.14","ye4qmyzvta","one_one","1","indirect_first","0","on03ek17","0","21","1","1","3","1","null","","","<div style=""font-size:60px;"">+</div>","null","","","","","","","","","",""
"","html-keyboard-response","147","584938","0.0-8.0-1.14","ye4qmyzvta","one_one","1","indirect_first","0","on03ek17","0","21","1","1","3","1","null","","","<img src = 'category4/CS4.png' width = '100%;'>","null","","","","","","","","","",""
"","html-keyboard-response","148","585218","0.0-8.0-2.14","ye4qmyzvta","one_one","1","indirect_first","0","on03ek17","0","21","1","1","3","1","null","","","<img src = 'targets/9.png' width = '100%;'>","null","","","","","","","","","",""
"","html-keyboard-response","149","588334","0.0-8.0-3.14","ye4qmyzvta","one_one","1","indirect_first","0","on03ek17","0","21","1","1","3","1","3114","","","<img src = 'targets/mask.png' width = '100%;'>","75","neg","GS","GSold","4","category4/CS4.png","targets/9.png","1","indirect","14",""
"","html-keyboard-response","150","589838","0.0-8.0-0.15","ye4qmyzvta","one_one","1","indirect_first","0","on03ek17","0","21","1","1","3","1","null","","","<div style=""font-size:60px;"">+</div>","null","","","","","","","","","",""
"","html-keyboard-response","151","589938","0.0-8.0-1.15","ye4qmyzvta","one_one","1","indirect_first","0","on03ek17","0","21","1","1","3","1","null","","","<img src = 'category3/CS9.png' width = '100%;'>","null","","","","","","","","","",""
"","html-keyboard-response","152","590199","0.0-8.0-2.15","ye4qmyzvta","one_one","1","indirect_first","0","on03ek17","0","21","1","1","3","1","null","","","<img src = 'targets/27.png' width = '100%;'>","null","","","","","","","","","",""
"","html-keyboard-response","153","592615","0.0-8.0-3.15","ye4qmyzvta","one_one","1","indirect_first","0","on03ek17","0","21","1","1","3","1","2415","","","<img src = 'targets/mask.png' width = '100%;'>","68","neg","GS","GSold","3","category3/CS9.png","targets/27.png","0","indirect","15",""
"","survey-html-form","154","599536","0.0-9.0","ye4qmyzvta","one_one","1","indirect_first","0","on03ek17","0","21","1","1","3","1","6418","","{}","","","","","","","","","","","",""
"","html-keyboard-response","155","602568","0.0-10.0-0.0","ye4qmyzvta","one_one","1","indirect_first","0","on03ek17","0","21","1","1","3","1","null","","","<div style=""font-size:60px;"">+</div>","null","","","","","","","","","",""
"","html-keyboard-response","156","602668","0.0-10.0-1.0","ye4qmyzvta","one_one","1","indirect_first","0","on03ek17","0","21","1","1","3","1","null","","","<img src = 'category3/GS1.png' width = '100%;'>","null","","","","","","","","","",""
"","html-keyboard-response","157","602948","0.0-10.0-2.0","ye4qmyzvta","one_one","1","indirect_first","0","on03ek17","0","21","1","1","3","1","null","","","<img src = 'targets/40.png' width = '100%;'>","null","","","","","","","","","",""
"","html-keyboard-response","158","605535","0.0-10.0-3.0","ye4qmyzvta","one_one","1","indirect_first","0","on03ek17","0","21","1","1","3","1","2585","","","<img src = 'targets/mask.png' width = '100%;'>","75","neg","GS","GSnew","3","category3/GS1.png","targets/40.png","1","indirect","16",""
"","html-keyboard-response","159","607048","0.0-10.0-0.1","ye4qmyzvta","one_one","1","indirect_first","0","on03ek17","0","21","1","1","3","1","null","","","<div style=""font-size:60px;"">+</div>","null","","","","","","","","","",""
"","html-keyboard-response","160","607149","0.0-10.0-1.1","ye4qmyzvta","one_one","1","indirect_first","0","on03ek17","0","21","1","1","3","1","null","","","<img src = 'category2/men.png' width = '100%;'>","null","","","","","","","","","",""
"","html-keyboard-response","161","607428","0.0-10.0-2.1","ye4qmyzvta","one_one","1","indirect_first","0","on03ek17","0","21","1","1","3","1","null","","","<img src = 'targets/12.png' width = '100%;'>","null","","","","","","","","","",""
"","html-keyboard-response","162","608751","0.0-10.0-3.1","ye4qmyzvta","one_one","1","indirect_first","0","on03ek17","0","21","1","1","3","1","1321","","","<img src = 'targets/mask.png' width = '100%;'>","68","pos","GS","abstract","2","category2/men.png","targets/12.png","0","indirect","17",""
"","html-keyboard-response","163","610287","0.0-10.0-0.2","ye4qmyzvta","one_one","1","indirect_first","0","on03ek17","0","21","1","1","3","1","null","","","<div style=""font-size:60px;"">+</div>","null","","","","","","","","","",""
"","html-keyboard-response","164","610388","0.0-10.0-1.2","ye4qmyzvta","one_one","1","indirect_first","0","on03ek17","0","21","1","1","3","1","null","","","<img src = 'category2/GS2.png' width = '100%;'>","null","","","","","","","","","",""
"","html-keyboard-response","165","610669","0.0-10.0-2.2","ye4qmyzvta","one_one","1","indirect_first","0","on03ek17","0","21","1","1","3","1","null","","","<img src = 'targets/17.png' width = '100%;'>","null","","","","","","","","","",""
"","html-keyboard-response","166","612255","0.0-10.0-3.2","ye4qmyzvta","one_one","1","indirect_first","0","on03ek17","0","21","1","1","3","1","1585","","","<img src = 'targets/mask.png' width = '100%;'>","75","pos","GS","GSnew","2","category2/GS2.png","targets/17.png","1","indirect","18",""
"","html-keyboard-response","167","613768","0.0-10.0-0.3","ye4qmyzvta","one_one","1","indirect_first","0","on03ek17","0","21","1","1","3","1","null","","","<div style=""font-size:60px;"">+</div>","null","","","","","","","","","",""
"","html-keyboard-response","168","613868","0.0-10.0-1.3","ye4qmyzvta","one_one","1","indirect_first","0","on03ek17","0","21","1","1","3","1","null","","","<img src = 'category1/ma.png' width = '100%;'>","null","","","","","","","","","",""
"","html-keyboard-response","169","614148","0.0-10.0-2.3","ye4qmyzvta","one_one","1","indirect_first","0","on03ek17","0","21","1","1","3","1","null","","","<img src = 'targets/28.png' width = '100%;'>","null","","","","","","","","","",""
"","html-keyboard-response","170","615431","0.0-10.0-3.3","ye4qmyzvta","one_one","1","indirect_first","0","on03ek17","0","21","1","1","3","1","1281","","","<img src = 'targets/mask.png' width = '100%;'>","75","pos","GS","abstract","1","category1/ma.png","targets/28.png","1","indirect","19",""
"","html-keyboard-response","171","616968","0.0-10.0-0.4","ye4qmyzvta","one_one","1","indirect_first","0","on03ek17","0","21","1","1","3","1","null","","","<div style=""font-size:60px;"">+</div>","null","","","","","","","","","",""
"","html-keyboard-response","172","617069","0.0-10.0-1.4","ye4qmyzvta","one_one","1","indirect_first","0","on03ek17","0","21","1","1","3","1","null","","","<img src = 'category4/GS1.png' width = '100%;'>","null","","","","","","","","","",""
"","html-keyboard-response","173","617348","0.0-10.0-2.4","ye4qmyzvta","one_one","1","indirect_first","0","on03ek17","0","21","1","1","3","1","null","","","<img src = 'targets/4.png' width = '100%;'>","null","","","","","","","","","",""
"","html-keyboard-response","174","618095","0.0-10.0-3.4","ye4qmyzvta","one_one","1","indirect_first","0","on03ek17","0","21","1","1","3","1","746","","","<img src = 'targets/mask.png' width = '100%;'>","68","neg","GS","GSnew","4","category4/GS1.png","targets/4.png","0","indirect","20",""
"","html-keyboard-response","175","619608","0.0-10.0-0.5","ye4qmyzvta","one_one","1","indirect_first","0","on03ek17","0","21","1","1","3","1","null","","","<div style=""font-size:60px;"">+</div>","null","","","","","","","","","",""
"","html-keyboard-response","176","619709","0.0-10.0-1.5","ye4qmyzvta","one_one","1","indirect_first","0","on03ek17","0","21","1","1","3","1","null","","","<img src = 'category1/GS1.png' width = '100%;'>","null","","","","","","","","","",""
"","html-keyboard-response","177","619988","0.0-10.0-2.5","ye4qmyzvta","one_one","1","indirect_first","0","on03ek17","0","21","1","1","3","1","null","","","<img src = 'targets/47.png' width = '100%;'>","null","","","","","","","","","",""
"","html-keyboard-response","178","621591","0.0-10.0-3.5","ye4qmyzvta","one_one","1","indirect_first","0","on03ek17","0","21","1","1","3","1","1601","","","<img src = 'targets/mask.png' width = '100%;'>","68","pos","GS","GSnew","1","category1/GS1.png","targets/47.png","0","indirect","21",""
"","html-keyboard-response","179","623124","0.0-10.0-0.6","ye4qmyzvta","one_one","1","indirect_first","0","on03ek17","0","21","1","1","3","1","null","","","<div style=""font-size:60px;"">+</div>","null","","","","","","","","","",""
"","html-keyboard-response","180","623225","0.0-10.0-1.6","ye4qmyzvta","one_one","1","indirect_first","0","on03ek17","0","21","1","1","3","1","null","","","<img src = 'category4/GS2.png' width = '100%;'>","null","","","","","","","","","",""
"","html-keyboard-response","181","623509","0.0-10.0-2.6","ye4qmyzvta","one_one","1","indirect_first","0","on03ek17","0","21","1","1","3","1","null","","","<img src = 'targets/45.png' width = '100%;'>","null","","","","","","","","","",""
"","html-keyboard-response","182","624615","0.0-10.0-3.6","ye4qmyzvta","one_one","1","indirect_first","0","on03ek17","0","21","1","1","3","1","1106","","","<img src = 'targets/mask.png' width = '100%;'>","68","neg","GS","GSnew","4","category4/GS2.png","targets/45.png","0","indirect","22",""
"","html-keyboard-response","183","626148","0.0-10.0-0.7","ye4qmyzvta","one_one","1","indirect_first","0","on03ek17","0","21","1","1","3","1","null","","","<div style=""font-size:60px;"">+</div>","null","","","","","","","","","",""
"","html-keyboard-response","184","626249","0.0-10.0-1.7","ye4qmyzvta","one_one","1","indirect_first","0","on03ek17","0","21","1","1","3","1","null","","","<img src = 'category1/GS3.png' width = '100%;'>","null","","","","","","","","","",""
"","html-keyboard-response","185","626528","0.0-10.0-2.7","ye4qmyzvta","one_one","1","indirect_first","0","on03ek17","0","21","1","1","3","1","null","","","<img src = 'targets/13.png' width = '100%;'>","null","","","","","","","","","",""
"","html-keyboard-response","186","627271","0.0-10.0-3.7","ye4qmyzvta","one_one","1","indirect_first","0","on03ek17","0","21","1","1","3","1","742","","","<img src = 'targets/mask.png' width = '100%;'>","68","pos","GS","GSnew","1","category1/GS3.png","targets/13.png","0","indirect","23",""
"","html-keyboard-response","187","628788","0.0-10.0-0.8","ye4qmyzvta","one_one","1","indirect_first","0","on03ek17","0","21","1","1","3","1","null","","","<div style=""font-size:60px;"">+</div>","null","","","","","","","","","",""
"","html-keyboard-response","188","628888","0.0-10.0-1.8","ye4qmyzvta","one_one","1","indirect_first","0","on03ek17","0","21","1","1","3","1","null","","","<img src = 'category4/GS3.png' width = '100%;'>","null","","","","","","","","","",""
"","html-keyboard-response","189","629168","0.0-10.0-2.8","ye4qmyzvta","one_one","1","indirect_first","0","on03ek17","0","21","1","1","3","1","null","","","<img src = 'targets/25.png' width = '100%;'>","null","","","","","","","","","",""
"","html-keyboard-response","190","629622","0.0-10.0-3.8","ye4qmyzvta","one_one","1","indirect_first","0","on03ek17","0","21","1","1","3","1","453","","","<img src = 'targets/mask.png' width = '100%;'>","68","neg","GS","GSnew","4","category4/GS3.png","targets/25.png","0","indirect","24",""
"","html-keyboard-response","191","631148","0.0-10.0-0.9","ye4qmyzvta","one_one","1","indirect_first","0","on03ek17","0","21","1","1","3","1","null","","","<div style=""font-size:60px;"">+</div>","null","","","","","","","","","",""
"","html-keyboard-response","192","631248","0.0-10.0-1.9","ye4qmyzvta","one_one","1","indirect_first","0","on03ek17","0","21","1","1","3","1","null","","","<img src = 'category4/lin.png' width = '100%;'>","null","","","","","","","","","",""
"","html-keyboard-response","193","631528","0.0-10.0-2.9","ye4qmyzvta","one_one","1","indirect_first","0","on03ek17","0","21","1","1","3","1","null","","","<img src = 'targets/16.png' width = '100%;'>","null","","","","","","","","","",""
"","html-keyboard-response","194","632302","0.0-10.0-3.9","ye4qmyzvta","one_one","1","indirect_first","0","on03ek17","0","21","1","1","3","1","774","","","<img src = 'targets/mask.png' width = '100%;'>","68","neg","GS","abstract","4","category4/lin.png","targets/16.png","0","indirect","25",""
"","html-keyboard-response","195","633838","0.0-10.0-0.10","ye4qmyzvta","one_one","1","indirect_first","0","on03ek17","0","21","1","1","3","1","null","","","<div style=""font-size:60px;"">+</div>","null","","","","","","","","","",""
"","html-keyboard-response","196","633938","0.0-10.0-1.10","ye4qmyzvta","one_one","1","indirect_first","0","on03ek17","0","21","1","1","3","1","null","","","<img src = 'category1/GS2.png' width = '100%;'>","null","","","","","","","","","",""
"","html-keyboard-response","197","634218","0.0-10.0-2.10","ye4qmyzvta","one_one","1","indirect_first","0","on03ek17","0","21","1","1","3","1","null","","","<img src = 'targets/3.png' width = '100%;'>","null","","","","","","","","","",""
"","html-keyboard-response","198","636159","0.0-10.0-3.10","ye4qmyzvta","one_one","1","indirect_first","0","on03ek17","0","21","1","1","3","1","1939","","","<img src = 'targets/mask.png' width = '100%;'>","68","pos","GS","GSnew","1","category1/GS2.png","targets/3.png","0","indirect","26",""
"","html-keyboard-response","199","637698","0.0-10.0-0.11","ye4qmyzvta","one_one","1","indirect_first","0","on03ek17","0","21","1","1","3","1","null","","","<div style=""font-size:60px;"">+</div>","null","","","","","","","","","",""
"","html-keyboard-response","200","637798","0.0-10.0-1.11","ye4qmyzvta","one_one","1","indirect_first","0","on03ek17","0","21","1","1","3","1","null","","","<img src = 'category3/GS3.png' width = '100%;'>","null","","","","","","","","","",""
"","html-keyboard-response","201","638079","0.0-10.0-2.11","ye4qmyzvta","one_one","1","indirect_first","0","on03ek17","0","21","1","1","3","1","null","","","<img src = 'targets/2.png' width = '100%;'>","null","","","","","","","","","",""
"","html-keyboard-response","202","638655","0.0-10.0-3.11","ye4qmyzvta","one_one","1","indirect_first","0","on03ek17","0","21","1","1","3","1","575","","","<img src = 'targets/mask.png' width = '100%;'>","68","neg","GS","GSnew","3","category3/GS3.png","targets/2.png","0","indirect","27",""
"","html-keyboard-response","203","640158","0.0-10.0-0.12","ye4qmyzvta","one_one","1","indirect_first","0","on03ek17","0","21","1","1","3","1","null","","","<div style=""font-size:60px;"">+</div>","null","","","","","","","","","",""
"","html-keyboard-response","204","640259","0.0-10.0-1.12","ye4qmyzvta","one_one","1","indirect_first","0","on03ek17","0","21","1","1","3","1","null","","","<img src = 'category3/GS2.png' width = '100%;'>","null","","","","","","","","","",""
"","html-keyboard-response","205","640538","0.0-10.0-2.12","ye4qmyzvta","one_one","1","indirect_first","0","on03ek17","0","21","1","1","3","1","null","","","<img src = 'targets/37.png' width = '100%;'>","null","","","","","","","","","",""
"","html-keyboard-response","206","641167","0.0-10.0-3.12","ye4qmyzvta","one_one","1","indirect_first","0","on03ek17","0","21","1","1","3","1","628","","","<img src = 'targets/mask.png' width = '100%;'>","68","neg","GS","GSnew","3","category3/GS2.png","targets/37.png","0","indirect","28",""
"","html-keyboard-response","207","642678","0.0-10.0-0.13","ye4qmyzvta","one_one","1","indirect_first","0","on03ek17","0","21","1","1","3","1","null","","","<div style=""font-size:60px;"">+</div>","null","","","","","","","","","",""
"","html-keyboard-response","208","642778","0.0-10.0-1.13","ye4qmyzvta","one_one","1","indirect_first","0","on03ek17","0","21","1","1","3","1","null","","","<img src = 'category2/GS3.png' width = '100%;'>","null","","","","","","","","","",""
"","html-keyboard-response","209","643059","0.0-10.0-2.13","ye4qmyzvta","one_one","1","indirect_first","0","on03ek17","0","21","1","1","3","1","null","","","<img src = 'targets/44.png' width = '100%;'>","null","","","","","","","","","",""
"","html-keyboard-response","210","643711","0.0-10.0-3.13","ye4qmyzvta","one_one","1","indirect_first","0","on03ek17","0","21","1","1","3","1","652","","","<img src = 'targets/mask.png' width = '100%;'>","68","pos","GS","GSnew","2","category2/GS3.png","targets/44.png","0","indirect","29",""
"","html-keyboard-response","211","645238","0.0-10.0-0.14","ye4qmyzvta","one_one","1","indirect_first","0","on03ek17","0","21","1","1","3","1","null","","","<div style=""font-size:60px;"">+</div>","null","","","","","","","","","",""
"","html-keyboard-response","212","645339","0.0-10.0-1.14","ye4qmyzvta","one_one","1","indirect_first","0","on03ek17","0","21","1","1","3","1","null","","","<img src = 'category2/GS1.png' width = '100%;'>","null","","","","","","","","","",""
"","html-keyboard-response","213","645618","0.0-10.0-2.14","ye4qmyzvta","one_one","1","indirect_first","0","on03ek17","0","21","1","1","3","1","null","","","<img src = 'targets/23.png' width = '100%;'>","null","","","","","","","","","",""
"","html-keyboard-response","214","646335","0.0-10.0-3.14","ye4qmyzvta","one_one","1","indirect_first","0","on03ek17","0","21","1","1","3","1","714","","","<img src = 'targets/mask.png' width = '100%;'>","75","pos","GS","GSnew","2","category2/GS1.png","targets/23.png","1","indirect","30",""
"","html-keyboard-response","215","647858","0.0-10.0-0.15","ye4qmyzvta","one_one","1","indirect_first","0","on03ek17","0","21","1","1","3","1","null","","","<div style=""font-size:60px;"">+</div>","null","","","","","","","","","",""
"","html-keyboard-response","216","647958","0.0-10.0-1.15","ye4qmyzvta","one_one","1","indirect_first","0","on03ek17","0","21","1","1","3","1","null","","","<img src = 'category3/wang.png' width = '100%;'>","null","","","","","","","","","",""
"","html-keyboard-response","217","648238","0.0-10.0-2.15","ye4qmyzvta","one_one","1","indirect_first","0","on03ek17","0","21","1","1","3","1","null","","","<img src = 'targets/41.png' width = '100%;'>","null","","","","","","","","","",""
"","html-keyboard-response","218","648775","0.0-10.0-3.15","ye4qmyzvta","one_one","1","indirect_first","0","on03ek17","0","21","1","1","3","1","535","","","<img src = 'targets/mask.png' width = '100%;'>","68","neg","GS","abstract","3","category3/wang.png","targets/41.png","0","indirect","31",""
"","survey-html-form","219","661599","0.0-11.0","ye4qmyzvta","one_one","1","indirect_first","0","on03ek17","0","21","1","1","3","1","12321","","{}","","","","","","","","","","","",""
"","image-slider-response","220","674142","0.0-12.0-0.0","ye4qmyzvta","one_one","1","indirect_first","0","on03ek17","0","21","1","1","3","1","10527","","","","","neg","GS","GSold","4","category4/CS4.png","targets/9.png","","direct","","-18"
"","image-slider-response","221","677822","0.0-12.0-0.1","ye4qmyzvta","one_one","1","indirect_first","0","on03ek17","0","21","1","1","3","1","3678","","","","","pos","GS","GSold","2","category2/CS3.png","targets/29.png","","direct","","45"
"","image-slider-response","222","681301","0.0-12.0-0.2","ye4qmyzvta","one_one","1","indirect_first","0","on03ek17","0","21","1","1","3","1","3477","","","","","neg","CS","CS","3","category3/CS1.png","targets/14.png","","direct","","-100"
"","image-slider-response","223","684358","0.0-12.0-0.3","ye4qmyzvta","one_one","1","indirect_first","0","on03ek17","0","21","1","1","3","1","3055","","","","","pos","CS","CS","1","category1/CS8.png","targets/15.png","","direct","","100"
"","image-slider-response","224","687478","0.0-12.0-0.4","ye4qmyzvta","one_one","1","indirect_first","0","on03ek17","0","21","1","1","3","1","3118","","","","","pos","GS","GSold","2","category2/CS4.png","targets/1.png","","direct","","-41"
"","image-slider-response","225","690462","0.0-12.0-0.5","ye4qmyzvta","one_one","1","indirect_first","0","on03ek17","0","21","1","1","3","1","2983","","","","","pos","GS","GSold","1","category1/CS9.png","targets/11.png","","direct","","-89"
"","image-slider-response","226","693854","0.0-12.0-0.6","ye4qmyzvta","one_one","1","indirect_first","0","on03ek17","0","21","1","1","3","1","3391","","","","","neg","GS","GSnew","3","category3/GS1.png","targets/40.png","","direct","","-100"
"","image-slider-response","227","696477","0.0-12.0-0.7","ye4qmyzvta","one_one","1","indirect_first","0","on03ek17","0","21","1","1","3","1","2622","","","","","neg","GS","GSold","4","category4/CS6.png","targets/34.png","","direct","","-74"
"","image-slider-response","228","699678","0.0-12.0-0.8","ye4qmyzvta","one_one","1","indirect_first","0","on03ek17","0","21","1","1","3","1","3199","","","","","neg","GS","GSnew","4","category4/GS2.png","targets/45.png","","direct","","-69"
"","image-slider-response","229","702230","0.0-12.0-0.9","ye4qmyzvta","one_one","1","indirect_first","0","on03ek17","0","21","1","1","3","1","2552","","","","","neg","GS","GSnew","3","category3/GS3.png","targets/2.png","","direct","","-42"
"","image-slider-response","230","705918","0.0-12.0-0.10","ye4qmyzvta","one_one","1","indirect_first","0","on03ek17","0","21","1","1","3","1","3687","","","","","pos","GS","GSnew","2","category2/GS3.png","targets/44.png","","direct","","-49"
"","image-slider-response","231","708469","0.0-12.0-0.11","ye4qmyzvta","one_one","1","indirect_first","0","on03ek17","0","21","1","1","3","1","2550","","","","","neg","GS","abstract","3","category3/wang.png","targets/41.png","","direct","","-11"
"","image-slider-response","232","710805","0.0-12.0-0.12","ye4qmyzvta","one_one","1","indirect_first","0","on03ek17","0","21","1","1","3","1","2335","","","","","pos","GS","abstract","1","category1/ma.png","targets/28.png","","direct","","37"
"","image-slider-response","233","713830","0.0-12.0-0.13","ye4qmyzvta","one_one","1","indirect_first","0","on03ek17","0","21","1","1","3","1","3022","","","","","neg","GS","GSold","3","category3/CS4.png","targets/5.png","","direct","","-39"
"","image-slider-response","234","717061","0.0-12.0-0.14","ye4qmyzvta","one_one","1","indirect_first","0","on03ek17","0","21","1","1","3","1","3231","","","","","pos","GS","GSold","1","category1/CS4.png","targets/21.png","","direct","","100"
"","image-slider-response","235","719277","0.0-12.0-0.15","ye4qmyzvta","one_one","1","indirect_first","0","on03ek17","0","21","1","1","3","1","2214","","","","","pos","GS","GSnew","1","category1/GS2.png","targets/3.png","","direct","","27"
"","image-slider-response","236","721670","0.0-12.0-0.16","ye4qmyzvta","one_one","1","indirect_first","0","on03ek17","0","21","1","1","3","1","2390","","","","","pos","GS","GSnew","1","category1/GS3.png","targets/13.png","","direct","","34"
"","image-slider-response","237","725350","0.0-12.0-0.17","ye4qmyzvta","one_one","1","indirect_first","0","on03ek17","0","21","1","1","3","1","3679","","","","","pos","GS","GSnew","2","category2/GS2.png","targets/17.png","","direct","","-23"
"","image-slider-response","238","727854","0.0-12.0-0.18","ye4qmyzvta","one_one","1","indirect_first","0","on03ek17","0","21","1","1","3","1","2503","","","","","pos","CS","CS","2","category2/CS1.png","targets/43.png","","direct","","100"
"","image-slider-response","239","732158","0.0-12.0-0.19","ye4qmyzvta","one_one","1","indirect_first","0","on03ek17","0","21","1","1","3","1","4302","","","","","pos","GS","GSnew","1","category1/GS1.png","targets/47.png","","direct","","-16"
"","image-slider-response","240","735174","0.0-12.0-0.20","ye4qmyzvta","one_one","1","indirect_first","0","on03ek17","0","21","1","1","3","1","3016","","","","","pos","GS","GSold","2","category2/CS7.png","targets/22.png","","direct","","57"
"","image-slider-response","241","739590","0.0-12.0-0.21","ye4qmyzvta","one_one","1","indirect_first","0","on03ek17","0","21","1","1","3","1","4415","","","","","neg","GS","GSnew","4","category4/GS1.png","targets/4.png","","direct","","-100"
"","image-slider-response","242","741846","0.0-12.0-0.22","ye4qmyzvta","one_one","1","indirect_first","0","on03ek17","0","21","1","1","3","1","2255","","","","","pos","GS","abstract","2","category2/men.png","targets/12.png","","direct","","-100"
"","image-slider-response","243","744014","0.0-12.0-0.23","ye4qmyzvta","one_one","1","indirect_first","0","on03ek17","0","21","1","1","3","1","2166","","","","","pos","GS","GSnew","2","category2/GS1.png","targets/23.png","","direct","","-43"
"","image-slider-response","244","746533","0.0-12.0-0.24","ye4qmyzvta","one_one","1","indirect_first","0","on03ek17","0","21","1","1","3","1","2518","","","","","neg","GS","GSnew","4","category4/GS3.png","targets/25.png","","direct","","-71"
"","image-slider-response","245","748405","0.0-12.0-0.25","ye4qmyzvta","one_one","1","indirect_first","0","on03ek17","0","21","1","1","3","1","1871","","","","","neg","GS","GSold","3","category3/CS9.png","targets/27.png","","direct","","-54"
"","image-slider-response","246","750678","0.0-12.0-0.26","ye4qmyzvta","one_one","1","indirect_first","0","on03ek17","0","21","1","1","3","1","2271","","","","","neg","GS","GSold","4","category4/CS5.png","targets/18.png","","direct","","-63"
"","image-slider-response","247","752934","0.0-12.0-0.27","ye4qmyzvta","one_one","1","indirect_first","0","on03ek17","0","21","1","1","3","1","2255","","","","","neg","CS","CS","4","category4/CS1.png","targets/46.png","","direct","","-100"
"","image-slider-response","248","755758","0.0-12.0-0.28","ye4qmyzvta","one_one","1","indirect_first","0","on03ek17","0","21","1","1","3","1","2822","","","","","neg","GS","abstract","4","category4/lin.png","targets/16.png","","direct","","-100"
"","image-slider-response","249","762142","0.0-12.0-0.29","ye4qmyzvta","one_one","1","indirect_first","0","on03ek17","0","21","1","1","3","1","6383","","","","","pos","GS","GSold","1","category1/CS3.png","targets/38.png","","direct","","71"
"","image-slider-response","250","767590","0.0-12.0-0.30","ye4qmyzvta","one_one","1","indirect_first","0","on03ek17","0","21","1","1","3","1","5446","","","","","neg","GS","GSnew","3","category3/GS2.png","targets/37.png","","direct","","-28"
"","image-slider-response","251","773598","0.0-12.0-0.31","ye4qmyzvta","one_one","1","indirect_first","0","on03ek17","0","21","1","1","3","1","6007","","","","","neg","GS","GSold","3","category3/CS6.png","targets/33.png","","direct","","-21"
"","survey-html-form","252","781638","0.0-13.0","ye4qmyzvta","one_one","1","indirect_first","0","on03ek17","0","21","1","1","3","1","8040","","{}","","","","","","","","","","","",""
"","image-slider-response","253","788038","0.0-14.0-0.0","ye4qmyzvta","one_one","1","indirect_first","0","on03ek17","0","21","1","1","3","1","5377","","","","","neg","All","all","3","category3/wang_all.png","","","all","","-77"
"","image-slider-response","254","793494","0.0-14.0-0.1","ye4qmyzvta","one_one","1","indirect_first","0","on03ek17","0","21","1","1","3","1","5455","","","","","pos","All","all","1","category1/ma_all.png","","","all","","100"
"","image-slider-response","255","797630","0.0-14.0-0.2","ye4qmyzvta","one_one","1","indirect_first","0","on03ek17","0","21","1","1","3","1","4133","","","","","pos","All","all","2","category2/men_all.png","","","all","","-56"
"","image-slider-response","256","800462","0.0-14.0-0.3","ye4qmyzvta","one_one","1","indirect_first","0","on03ek17","0","21","1","1","3","1","2831","","","","","neg","All","all","4","category4/lin_all.png","","","all","","-37"
"","survey-text","257","856399","0.0-15.0","ye4qmyzvta","one_one","1","indirect_first","0","on03ek17","0","21","1","1","3","1","55935","","{""Q0"":""nach unten geschwungene zeichen hatte ich als unangenhem in erinnerung . nach oben geschwungene punkte als positiv ""}","","","","","","","","","","","",""
