"success","trial_type","trial_index","time_elapsed","internal_node_id","subject","condition","condition_code","measure","measure_code","codeword","gender","age","education","chinese","fach","handedness","rt","url","responses","stimulus","key_press","val","type","type_specific","category","cs_selected","response","target","task","indirect","nr_pres"
"true","fullscreen","0","42516","0.0-0.0","w6tl5wxxfo","one_one","1","direct_first","1","ig09nn27","0","23","1","1","3","1","","","","","","","","","","","","","","",""
"","external-html","1","93557","0.0-1.0","w6tl5wxxfo","one_one","1","direct_first","1","ig09nn27","0","23","1","1","3","1","50974.49","text/information.html","","","","","","","","","","","","",""
"","external-html","2","105508","0.0-2.0","w6tl5wxxfo","one_one","1","direct_first","1","ig09nn27","0","23","1","1","3","1","11882.16999999997","text/consent.html","","","","","","","","","","","","",""
"","survey-html-form","3","152936","0.0-3.0","w6tl5wxxfo","one_one","1","direct_first","1","ig09nn27","0","23","1","1","3","1","47425.34500000006","","{""codeword_enter"":""ig09nn27""}","","","","","","","","","","","",""
"","survey-html-form","4","169667","0.0-4.0","w6tl5wxxfo","one_one","1","direct_first","1","ig09nn27","0","23","1","1","3","1","16728.01000000004","","{""age"":""23"",""education"":""1"",""subject"":""3"",""gender"":""0"",""handedness"":""1"",""chinese"":""1""}","","","","","","","","","","","",""
"","survey-html-form","5","184786","0.0-5.0","w6tl5wxxfo","one_one","1","direct_first","1","ig09nn27","0","23","1","1","3","1","15117.11499999999","","{}","","","","","","","","","","","",""
"","html-keyboard-response","6","188815","0.0-6.0-0.0-0.0","w6tl5wxxfo","one_one","1","direct_first","1","ig09nn27","0","23","1","1","3","1","null","","","<div class = 'row'><div class = 'column'><img src = 'usneg/9290.bmp' width = '100%;'></div><div class = 'column'><img src = 'category3/CS6.png' width = '70%;'></div></div>","null","neg","CS","CS","3","category3/CS6.png","","","","",""
"","html-keyboard-response","7","191344","0.0-6.0-0.0-0.1","w6tl5wxxfo","one_one","1","direct_first","1","ig09nn27","0","23","1","1","3","1","null","","","<div class = 'row'><div class = 'column'><img src = 'category2/CS5.png' width = '70%;'></div><div class = 'column'><img src = 'uspos/5621.bmp' width = '100%;'></div></div>","null","pos","CS","CS","2","category2/CS5.png","","","","",""
"","html-keyboard-response","8","193863","0.0-6.0-0.0-0.2","w6tl5wxxfo","one_one","1","direct_first","1","ig09nn27","0","23","1","1","3","1","null","","","<div class = 'row'><div class = 'column'><img src = 'usneg/9290.bmp' width = '100%;'></div><div class = 'column'><img src = 'category3/CS6.png' width = '70%;'></div></div>","null","neg","CS","CS","3","category3/CS6.png","","","","",""
"","html-keyboard-response","9","196389","0.0-6.0-0.0-0.3","w6tl5wxxfo","one_one","1","direct_first","1","ig09nn27","0","23","1","1","3","1","null","","","<div class = 'row'><div class = 'column'><img src = 'uspos/5621.bmp' width = '100%;'></div><div class = 'column'><img src = 'category2/CS5.png' width = '70%;'></div></div>","null","pos","CS","CS","2","category2/CS5.png","","","","",""
"","html-keyboard-response","10","198922","0.0-6.0-0.0-0.4","w6tl5wxxfo","one_one","1","direct_first","1","ig09nn27","0","23","1","1","3","1","null","","","<div class = 'row'><div class = 'column'><img src = 'usneg/9340.bmp' width = '100%;'></div><div class = 'column'><img src = 'category4/CS6.png' width = '70%;'></div></div>","null","neg","CS","CS","4","category4/CS6.png","","","","",""
"","html-keyboard-response","11","201450","0.0-6.0-0.0-0.5","w6tl5wxxfo","one_one","1","direct_first","1","ig09nn27","0","23","1","1","3","1","null","","","<div class = 'row'><div class = 'column'><img src = 'category1/CS10.png' width = '70%;'></div><div class = 'column'><img src = 'uspos/2900.2.bmp' width = '100%;'></div></div>","null","pos","CS","CS","1","category1/CS10.png","","","","",""
"","html-keyboard-response","12","203981","0.0-6.0-0.0-0.6","w6tl5wxxfo","one_one","1","direct_first","1","ig09nn27","0","23","1","1","3","1","null","","","<div class = 'row'><div class = 'column'><img src = 'usneg/9340.bmp' width = '100%;'></div><div class = 'column'><img src = 'category4/CS6.png' width = '70%;'></div></div>","null","neg","CS","CS","4","category4/CS6.png","","","","",""
"","html-keyboard-response","13","206514","0.0-6.0-0.0-0.7","w6tl5wxxfo","one_one","1","direct_first","1","ig09nn27","0","23","1","1","3","1","null","","","<div class = 'row'><div class = 'column'><img src = 'category1/CS10.png' width = '70%;'></div><div class = 'column'><img src = 'uspos/2900.2.bmp' width = '100%;'></div></div>","null","pos","CS","CS","1","category1/CS10.png","","","","",""
"","html-keyboard-response","14","209044","0.0-6.0-0.0-0.8","w6tl5wxxfo","one_one","1","direct_first","1","ig09nn27","0","23","1","1","3","1","null","","","<div class = 'row'><div class = 'column'><img src = 'usneg/9290.bmp' width = '100%;'></div><div class = 'column'><img src = 'category3/CS6.png' width = '70%;'></div></div>","null","neg","CS","CS","3","category3/CS6.png","","","","",""
"","html-keyboard-response","15","211575","0.0-6.0-0.0-0.9","w6tl5wxxfo","one_one","1","direct_first","1","ig09nn27","0","23","1","1","3","1","null","","","<div class = 'row'><div class = 'column'><img src = 'usneg/9340.bmp' width = '100%;'></div><div class = 'column'><img src = 'category4/CS6.png' width = '70%;'></div></div>","null","neg","CS","CS","4","category4/CS6.png","","","","",""
"","html-keyboard-response","16","214106","0.0-6.0-0.0-0.10","w6tl5wxxfo","one_one","1","direct_first","1","ig09nn27","0","23","1","1","3","1","null","","","<div class = 'row'><div class = 'column'><img src = 'category3/CS6.png' width = '70%;'></div><div class = 'column'><img src = 'usneg/9290.bmp' width = '100%;'></div></div>","null","neg","CS","CS","3","category3/CS6.png","","","","",""
"","html-keyboard-response","17","216636","0.0-6.0-0.0-0.11","w6tl5wxxfo","one_one","1","direct_first","1","ig09nn27","0","23","1","1","3","1","null","","","<div class = 'row'><div class = 'column'><img src = 'category2/CS5.png' width = '70%;'></div><div class = 'column'><img src = 'uspos/5621.bmp' width = '100%;'></div></div>","null","pos","CS","CS","2","category2/CS5.png","","","","",""
"","html-keyboard-response","18","219167","0.0-6.0-0.0-0.12","w6tl5wxxfo","one_one","1","direct_first","1","ig09nn27","0","23","1","1","3","1","null","","","<div class = 'row'><div class = 'column'><img src = 'usneg/9340.bmp' width = '100%;'></div><div class = 'column'><img src = 'category4/CS6.png' width = '70%;'></div></div>","null","neg","CS","CS","4","category4/CS6.png","","","","",""
"","html-keyboard-response","19","219508","0.0-6.0-0.0-0.13","w6tl5wxxfo","one_one","1","direct_first","1","ig09nn27","0","23","1","1","3","1","null","","","<div class = 'row'><div class = 'column'><img src = 'category3/CS6.png' width = '70%;'></div><div class = 'column'><img src = 'usneg/9290.bmp' width = '100%;'></div></div>","null","neg","CS","CS","3","category3/CS6.png","","","","",""
"","html-keyboard-response","20","222041","0.0-6.0-0.0-0.14","w6tl5wxxfo","one_one","1","direct_first","1","ig09nn27","0","23","1","1","3","1","null","","","<div class = 'row'><div class = 'column'><img src = 'uspos/2900.2.bmp' width = '100%;'></div><div class = 'column'><img src = 'category1/CS10.png' width = '70%;'></div></div>","null","pos","CS","CS","1","category1/CS10.png","","","","",""
"","html-keyboard-response","21","224572","0.0-6.0-0.0-0.15","w6tl5wxxfo","one_one","1","direct_first","1","ig09nn27","0","23","1","1","3","1","null","","","<div class = 'row'><div class = 'column'><img src = 'category2/CS5.png' width = '70%;'></div><div class = 'column'><img src = 'uspos/5621.bmp' width = '100%;'></div></div>","null","pos","CS","CS","2","category2/CS5.png","","","","",""
"","html-keyboard-response","22","227102","0.0-6.0-0.0-0.16","w6tl5wxxfo","one_one","1","direct_first","1","ig09nn27","0","23","1","1","3","1","null","","","<div class = 'row'><div class = 'column'><img src = 'category4/CS6.png' width = '70%;'></div><div class = 'column'><img src = 'usneg/9340.bmp' width = '100%;'></div></div>","null","neg","CS","CS","4","category4/CS6.png","","","","",""
"","html-keyboard-response","23","229633","0.0-6.0-0.0-0.17","w6tl5wxxfo","one_one","1","direct_first","1","ig09nn27","0","23","1","1","3","1","null","","","<div class = 'row'><div class = 'column'><img src = 'uspos/2900.2.bmp' width = '100%;'></div><div class = 'column'><img src = 'category1/CS10.png' width = '70%;'></div></div>","null","pos","CS","CS","1","category1/CS10.png","","","","",""
"","html-keyboard-response","24","232163","0.0-6.0-0.0-0.18","w6tl5wxxfo","one_one","1","direct_first","1","ig09nn27","0","23","1","1","3","1","null","","","<div class = 'row'><div class = 'column'><img src = 'category2/CS5.png' width = '70%;'></div><div class = 'column'><img src = 'uspos/5621.bmp' width = '100%;'></div></div>","null","pos","CS","CS","2","category2/CS5.png","","","","",""
"","html-keyboard-response","25","234695","0.0-6.0-0.0-0.19","w6tl5wxxfo","one_one","1","direct_first","1","ig09nn27","0","23","1","1","3","1","null","","","<div class = 'row'><div class = 'column'><img src = 'category1/CS10.png' width = '70%;'></div><div class = 'column'><img src = 'uspos/2900.2.bmp' width = '100%;'></div></div>","null","pos","CS","CS","1","category1/CS10.png","","","","",""
"","survey-html-form","26","238943","0.0-6.0-1.0","w6tl5wxxfo","one_one","1","direct_first","1","ig09nn27","0","23","1","1","3","1","3733.749999999971","","{}","","","","","","","","","","","",""
"","html-keyboard-response","27","242970","0.0-6.0-2.0-0.0","w6tl5wxxfo","one_one","1","direct_first","1","ig09nn27","0","23","1","1","3","1","null","","","<div class = 'row'><div class = 'column'><img src = 'usneg/9290.bmp' width = '100%;'></div><div class = 'column'><img src = 'category3/CS6.png' width = '70%;'></div></div>","null","neg","CS","CS","3","category3/CS6.png","","","","",""
"","html-keyboard-response","28","245500","0.0-6.0-2.0-0.1","w6tl5wxxfo","one_one","1","direct_first","1","ig09nn27","0","23","1","1","3","1","null","","","<div class = 'row'><div class = 'column'><img src = 'category2/CS5.png' width = '70%;'></div><div class = 'column'><img src = 'uspos/5621.bmp' width = '100%;'></div></div>","null","pos","CS","CS","2","category2/CS5.png","","","","",""
"","html-keyboard-response","29","248031","0.0-6.0-2.0-0.2","w6tl5wxxfo","one_one","1","direct_first","1","ig09nn27","0","23","1","1","3","1","null","","","<div class = 'row'><div class = 'column'><img src = 'uspos/2900.2.bmp' width = '100%;'></div><div class = 'column'><img src = 'category1/CS10.png' width = '70%;'></div></div>","null","pos","CS","CS","1","category1/CS10.png","","","","",""
"","html-keyboard-response","30","250562","0.0-6.0-2.0-0.3","w6tl5wxxfo","one_one","1","direct_first","1","ig09nn27","0","23","1","1","3","1","null","","","<div class = 'row'><div class = 'column'><img src = 'usneg/9290.bmp' width = '100%;'></div><div class = 'column'><img src = 'category3/CS6.png' width = '70%;'></div></div>","null","neg","CS","CS","3","category3/CS6.png","","","","",""
"","html-keyboard-response","31","253090","0.0-6.0-2.0-0.4","w6tl5wxxfo","one_one","1","direct_first","1","ig09nn27","0","23","1","1","3","1","null","","","<div class = 'row'><div class = 'column'><img src = 'category1/CS10.png' width = '70%;'></div><div class = 'column'><img src = 'uspos/2900.2.bmp' width = '100%;'></div></div>","null","pos","CS","CS","1","category1/CS10.png","","","","",""
"","html-keyboard-response","32","255596","0.0-6.0-2.0-0.5","w6tl5wxxfo","one_one","1","direct_first","1","ig09nn27","0","23","1","1","3","1","null","","","<div class = 'row'><div class = 'column'><img src = 'usneg/9340.bmp' width = '100%;'></div><div class = 'column'><img src = 'category4/CS6.png' width = '70%;'></div></div>","null","neg","CS","CS","4","category4/CS6.png","","","","",""
"","html-keyboard-response","33","258121","0.0-6.0-2.0-0.6","w6tl5wxxfo","one_one","1","direct_first","1","ig09nn27","0","23","1","1","3","1","null","","","<div class = 'row'><div class = 'column'><img src = 'usneg/9290.bmp' width = '100%;'></div><div class = 'column'><img src = 'category3/CS6.png' width = '70%;'></div></div>","null","neg","CS","CS","3","category3/CS6.png","","","","",""
"","html-keyboard-response","34","260652","0.0-6.0-2.0-0.7","w6tl5wxxfo","one_one","1","direct_first","1","ig09nn27","0","23","1","1","3","1","null","","","<div class = 'row'><div class = 'column'><img src = 'usneg/9340.bmp' width = '100%;'></div><div class = 'column'><img src = 'category4/CS6.png' width = '70%;'></div></div>","null","neg","CS","CS","4","category4/CS6.png","","","","",""
"","html-keyboard-response","35","263183","0.0-6.0-2.0-0.8","w6tl5wxxfo","one_one","1","direct_first","1","ig09nn27","0","23","1","1","3","1","null","","","<div class = 'row'><div class = 'column'><img src = 'uspos/5621.bmp' width = '100%;'></div><div class = 'column'><img src = 'category2/CS5.png' width = '70%;'></div></div>","null","pos","CS","CS","2","category2/CS5.png","","","","",""
"","html-keyboard-response","36","265715","0.0-6.0-2.0-0.9","w6tl5wxxfo","one_one","1","direct_first","1","ig09nn27","0","23","1","1","3","1","null","","","<div class = 'row'><div class = 'column'><img src = 'usneg/9290.bmp' width = '100%;'></div><div class = 'column'><img src = 'category3/CS6.png' width = '70%;'></div></div>","null","neg","CS","CS","3","category3/CS6.png","","","","",""
"","html-keyboard-response","37","268244","0.0-6.0-2.0-0.10","w6tl5wxxfo","one_one","1","direct_first","1","ig09nn27","0","23","1","1","3","1","null","","","<div class = 'row'><div class = 'column'><img src = 'category4/CS6.png' width = '70%;'></div><div class = 'column'><img src = 'usneg/9340.bmp' width = '100%;'></div></div>","null","neg","CS","CS","4","category4/CS6.png","","","","",""
"","html-keyboard-response","38","270776","0.0-6.0-2.0-0.11","w6tl5wxxfo","one_one","1","direct_first","1","ig09nn27","0","23","1","1","3","1","null","","","<div class = 'row'><div class = 'column'><img src = 'uspos/2900.2.bmp' width = '100%;'></div><div class = 'column'><img src = 'category1/CS10.png' width = '70%;'></div></div>","null","pos","CS","CS","1","category1/CS10.png","","","","",""
"","html-keyboard-response","39","273306","0.0-6.0-2.0-0.12","w6tl5wxxfo","one_one","1","direct_first","1","ig09nn27","0","23","1","1","3","1","null","","","<div class = 'row'><div class = 'column'><img src = 'category4/CS6.png' width = '70%;'></div><div class = 'column'><img src = 'usneg/9340.bmp' width = '100%;'></div></div>","null","neg","CS","CS","4","category4/CS6.png","","","","",""
"","html-keyboard-response","40","275838","0.0-6.0-2.0-0.13","w6tl5wxxfo","one_one","1","direct_first","1","ig09nn27","0","23","1","1","3","1","null","","","<div class = 'row'><div class = 'column'><img src = 'uspos/5621.bmp' width = '100%;'></div><div class = 'column'><img src = 'category2/CS5.png' width = '70%;'></div></div>","null","pos","CS","CS","2","category2/CS5.png","","","","",""
"","html-keyboard-response","41","278368","0.0-6.0-2.0-0.14","w6tl5wxxfo","one_one","1","direct_first","1","ig09nn27","0","23","1","1","3","1","null","","","<div class = 'row'><div class = 'column'><img src = 'usneg/9340.bmp' width = '100%;'></div><div class = 'column'><img src = 'category4/CS6.png' width = '70%;'></div></div>","null","neg","CS","CS","4","category4/CS6.png","","","","",""
"","html-keyboard-response","42","278053","0.0-6.0-2.0-0.15","w6tl5wxxfo","one_one","1","direct_first","1","ig09nn27","0","23","1","1","3","1","null","","","<div class = 'row'><div class = 'column'><img src = 'category1/CS10.png' width = '70%;'></div><div class = 'column'><img src = 'uspos/2900.2.bmp' width = '100%;'></div></div>","null","pos","CS","CS","1","category1/CS10.png","","","","",""
"","html-keyboard-response","43","280584","0.0-6.0-2.0-0.16","w6tl5wxxfo","one_one","1","direct_first","1","ig09nn27","0","23","1","1","3","1","null","","","<div class = 'row'><div class = 'column'><img src = 'category3/CS6.png' width = '70%;'></div><div class = 'column'><img src = 'usneg/9290.bmp' width = '100%;'></div></div>","null","neg","CS","CS","3","category3/CS6.png","","","","",""
"","html-keyboard-response","44","283114","0.0-6.0-2.0-0.17","w6tl5wxxfo","one_one","1","direct_first","1","ig09nn27","0","23","1","1","3","1","null","","","<div class = 'row'><div class = 'column'><img src = 'uspos/5621.bmp' width = '100%;'></div><div class = 'column'><img src = 'category2/CS5.png' width = '70%;'></div></div>","null","pos","CS","CS","2","category2/CS5.png","","","","",""
"","html-keyboard-response","45","285645","0.0-6.0-2.0-0.18","w6tl5wxxfo","one_one","1","direct_first","1","ig09nn27","0","23","1","1","3","1","null","","","<div class = 'row'><div class = 'column'><img src = 'uspos/2900.2.bmp' width = '100%;'></div><div class = 'column'><img src = 'category1/CS10.png' width = '70%;'></div></div>","null","pos","CS","CS","1","category1/CS10.png","","","","",""
"","html-keyboard-response","46","288175","0.0-6.0-2.0-0.19","w6tl5wxxfo","one_one","1","direct_first","1","ig09nn27","0","23","1","1","3","1","null","","","<div class = 'row'><div class = 'column'><img src = 'uspos/5621.bmp' width = '100%;'></div><div class = 'column'><img src = 'category2/CS5.png' width = '70%;'></div></div>","null","pos","CS","CS","2","category2/CS5.png","","","","",""
"","survey-html-form","47","291478","0.0-6.0-3.0","w6tl5wxxfo","one_one","1","direct_first","1","ig09nn27","0","23","1","1","3","1","2786.4249999999884","","{}","","","","","","","","","","","",""
"","html-keyboard-response","48","295502","0.0-6.0-4.0-0.0","w6tl5wxxfo","one_one","1","direct_first","1","ig09nn27","0","23","1","1","3","1","null","","","<div class = 'row'><div class = 'column'><img src = 'category3/CS6.png' width = '70%;'></div><div class = 'column'><img src = 'usneg/9290.bmp' width = '100%;'></div></div>","null","neg","CS","CS","3","category3/CS6.png","","","","",""
"","html-keyboard-response","49","298033","0.0-6.0-4.0-0.1","w6tl5wxxfo","one_one","1","direct_first","1","ig09nn27","0","23","1","1","3","1","null","","","<div class = 'row'><div class = 'column'><img src = 'uspos/2900.2.bmp' width = '100%;'></div><div class = 'column'><img src = 'category1/CS10.png' width = '70%;'></div></div>","null","pos","CS","CS","1","category1/CS10.png","","","","",""
"","html-keyboard-response","50","300564","0.0-6.0-4.0-0.2","w6tl5wxxfo","one_one","1","direct_first","1","ig09nn27","0","23","1","1","3","1","null","","","<div class = 'row'><div class = 'column'><img src = 'category2/CS5.png' width = '70%;'></div><div class = 'column'><img src = 'uspos/5621.bmp' width = '100%;'></div></div>","null","pos","CS","CS","2","category2/CS5.png","","","","",""
"","html-keyboard-response","51","303094","0.0-6.0-4.0-0.3","w6tl5wxxfo","one_one","1","direct_first","1","ig09nn27","0","23","1","1","3","1","null","","","<div class = 'row'><div class = 'column'><img src = 'category1/CS10.png' width = '70%;'></div><div class = 'column'><img src = 'uspos/2900.2.bmp' width = '100%;'></div></div>","null","pos","CS","CS","1","category1/CS10.png","","","","",""
"","html-keyboard-response","52","305625","0.0-6.0-4.0-0.4","w6tl5wxxfo","one_one","1","direct_first","1","ig09nn27","0","23","1","1","3","1","null","","","<div class = 'row'><div class = 'column'><img src = 'category2/CS5.png' width = '70%;'></div><div class = 'column'><img src = 'uspos/5621.bmp' width = '100%;'></div></div>","null","pos","CS","CS","2","category2/CS5.png","","","","",""
"","html-keyboard-response","53","308156","0.0-6.0-4.0-0.5","w6tl5wxxfo","one_one","1","direct_first","1","ig09nn27","0","23","1","1","3","1","null","","","<div class = 'row'><div class = 'column'><img src = 'category3/CS6.png' width = '70%;'></div><div class = 'column'><img src = 'usneg/9290.bmp' width = '100%;'></div></div>","null","neg","CS","CS","3","category3/CS6.png","","","","",""
"","html-keyboard-response","54","310687","0.0-6.0-4.0-0.6","w6tl5wxxfo","one_one","1","direct_first","1","ig09nn27","0","23","1","1","3","1","null","","","<div class = 'row'><div class = 'column'><img src = 'usneg/9340.bmp' width = '100%;'></div><div class = 'column'><img src = 'category4/CS6.png' width = '70%;'></div></div>","null","neg","CS","CS","4","category4/CS6.png","","","","",""
"","html-keyboard-response","55","313218","0.0-6.0-4.0-0.7","w6tl5wxxfo","one_one","1","direct_first","1","ig09nn27","0","23","1","1","3","1","null","","","<div class = 'row'><div class = 'column'><img src = 'uspos/2900.2.bmp' width = '100%;'></div><div class = 'column'><img src = 'category1/CS10.png' width = '70%;'></div></div>","null","pos","CS","CS","1","category1/CS10.png","","","","",""
"","html-keyboard-response","56","315750","0.0-6.0-4.0-0.8","w6tl5wxxfo","one_one","1","direct_first","1","ig09nn27","0","23","1","1","3","1","null","","","<div class = 'row'><div class = 'column'><img src = 'category4/CS6.png' width = '70%;'></div><div class = 'column'><img src = 'usneg/9340.bmp' width = '100%;'></div></div>","null","neg","CS","CS","4","category4/CS6.png","","","","",""
"","html-keyboard-response","57","318281","0.0-6.0-4.0-0.9","w6tl5wxxfo","one_one","1","direct_first","1","ig09nn27","0","23","1","1","3","1","null","","","<div class = 'row'><div class = 'column'><img src = 'uspos/2900.2.bmp' width = '100%;'></div><div class = 'column'><img src = 'category1/CS10.png' width = '70%;'></div></div>","null","pos","CS","CS","1","category1/CS10.png","","","","",""
"","html-keyboard-response","58","320812","0.0-6.0-4.0-0.10","w6tl5wxxfo","one_one","1","direct_first","1","ig09nn27","0","23","1","1","3","1","null","","","<div class = 'row'><div class = 'column'><img src = 'category3/CS6.png' width = '70%;'></div><div class = 'column'><img src = 'usneg/9290.bmp' width = '100%;'></div></div>","null","neg","CS","CS","3","category3/CS6.png","","","","",""
"","html-keyboard-response","59","323327","0.0-6.0-4.0-0.11","w6tl5wxxfo","one_one","1","direct_first","1","ig09nn27","0","23","1","1","3","1","null","","","<div class = 'row'><div class = 'column'><img src = 'uspos/2900.2.bmp' width = '100%;'></div><div class = 'column'><img src = 'category1/CS10.png' width = '70%;'></div></div>","null","pos","CS","CS","1","category1/CS10.png","","","","",""
"","html-keyboard-response","60","325855","0.0-6.0-4.0-0.12","w6tl5wxxfo","one_one","1","direct_first","1","ig09nn27","0","23","1","1","3","1","null","","","<div class = 'row'><div class = 'column'><img src = 'category3/CS6.png' width = '70%;'></div><div class = 'column'><img src = 'usneg/9290.bmp' width = '100%;'></div></div>","null","neg","CS","CS","3","category3/CS6.png","","","","",""
"","html-keyboard-response","61","328387","0.0-6.0-4.0-0.13","w6tl5wxxfo","one_one","1","direct_first","1","ig09nn27","0","23","1","1","3","1","null","","","<div class = 'row'><div class = 'column'><img src = 'usneg/9340.bmp' width = '100%;'></div><div class = 'column'><img src = 'category4/CS6.png' width = '70%;'></div></div>","null","neg","CS","CS","4","category4/CS6.png","","","","",""
"","html-keyboard-response","62","330918","0.0-6.0-4.0-0.14","w6tl5wxxfo","one_one","1","direct_first","1","ig09nn27","0","23","1","1","3","1","null","","","<div class = 'row'><div class = 'column'><img src = 'uspos/5621.bmp' width = '100%;'></div><div class = 'column'><img src = 'category2/CS5.png' width = '70%;'></div></div>","null","pos","CS","CS","2","category2/CS5.png","","","","",""
"","html-keyboard-response","63","333448","0.0-6.0-4.0-0.15","w6tl5wxxfo","one_one","1","direct_first","1","ig09nn27","0","23","1","1","3","1","null","","","<div class = 'row'><div class = 'column'><img src = 'category3/CS6.png' width = '70%;'></div><div class = 'column'><img src = 'usneg/9290.bmp' width = '100%;'></div></div>","null","neg","CS","CS","3","category3/CS6.png","","","","",""
"","html-keyboard-response","64","335979","0.0-6.0-4.0-0.16","w6tl5wxxfo","one_one","1","direct_first","1","ig09nn27","0","23","1","1","3","1","null","","","<div class = 'row'><div class = 'column'><img src = 'uspos/5621.bmp' width = '100%;'></div><div class = 'column'><img src = 'category2/CS5.png' width = '70%;'></div></div>","null","pos","CS","CS","2","category2/CS5.png","","","","",""
"","html-keyboard-response","65","335701","0.0-6.0-4.0-0.17","w6tl5wxxfo","one_one","1","direct_first","1","ig09nn27","0","23","1","1","3","1","null","","","<div class = 'row'><div class = 'column'><img src = 'usneg/9340.bmp' width = '100%;'></div><div class = 'column'><img src = 'category4/CS6.png' width = '70%;'></div></div>","null","neg","CS","CS","4","category4/CS6.png","","","","",""
"","html-keyboard-response","66","338222","0.0-6.0-4.0-0.18","w6tl5wxxfo","one_one","1","direct_first","1","ig09nn27","0","23","1","1","3","1","null","","","<div class = 'row'><div class = 'column'><img src = 'category2/CS5.png' width = '70%;'></div><div class = 'column'><img src = 'uspos/5621.bmp' width = '100%;'></div></div>","null","pos","CS","CS","2","category2/CS5.png","","","","",""
"","html-keyboard-response","67","340752","0.0-6.0-4.0-0.19","w6tl5wxxfo","one_one","1","direct_first","1","ig09nn27","0","23","1","1","3","1","null","","","<div class = 'row'><div class = 'column'><img src = 'usneg/9340.bmp' width = '100%;'></div><div class = 'column'><img src = 'category4/CS6.png' width = '70%;'></div></div>","null","neg","CS","CS","4","category4/CS6.png","","","","",""
"","survey-html-form","68","344392","0.0-6.0-5.0","w6tl5wxxfo","one_one","1","direct_first","1","ig09nn27","0","23","1","1","3","1","3124.840000000084","","{}","","","","","","","","","","","",""
"","html-keyboard-response","69","348411","0.0-6.0-6.0-0.0","w6tl5wxxfo","one_one","1","direct_first","1","ig09nn27","0","23","1","1","3","1","null","","","<div class = 'row'><div class = 'column'><img src = 'uspos/2900.2.bmp' width = '100%;'></div><div class = 'column'><img src = 'category1/CS10.png' width = '70%;'></div></div>","null","pos","CS","CS","1","category1/CS10.png","","","","",""
"","html-keyboard-response","70","350942","0.0-6.0-6.0-0.1","w6tl5wxxfo","one_one","1","direct_first","1","ig09nn27","0","23","1","1","3","1","null","","","<div class = 'row'><div class = 'column'><img src = 'usneg/9290.bmp' width = '100%;'></div><div class = 'column'><img src = 'category3/CS6.png' width = '70%;'></div></div>","null","neg","CS","CS","3","category3/CS6.png","","","","",""
"","html-keyboard-response","71","353473","0.0-6.0-6.0-0.2","w6tl5wxxfo","one_one","1","direct_first","1","ig09nn27","0","23","1","1","3","1","null","","","<div class = 'row'><div class = 'column'><img src = 'uspos/2900.2.bmp' width = '100%;'></div><div class = 'column'><img src = 'category1/CS10.png' width = '70%;'></div></div>","null","pos","CS","CS","1","category1/CS10.png","","","","",""
"","html-keyboard-response","72","356004","0.0-6.0-6.0-0.3","w6tl5wxxfo","one_one","1","direct_first","1","ig09nn27","0","23","1","1","3","1","null","","","<div class = 'row'><div class = 'column'><img src = 'category2/CS5.png' width = '70%;'></div><div class = 'column'><img src = 'uspos/5621.bmp' width = '100%;'></div></div>","null","pos","CS","CS","2","category2/CS5.png","","","","",""
"","html-keyboard-response","73","358535","0.0-6.0-6.0-0.4","w6tl5wxxfo","one_one","1","direct_first","1","ig09nn27","0","23","1","1","3","1","null","","","<div class = 'row'><div class = 'column'><img src = 'category4/CS6.png' width = '70%;'></div><div class = 'column'><img src = 'usneg/9340.bmp' width = '100%;'></div></div>","null","neg","CS","CS","4","category4/CS6.png","","","","",""
"","html-keyboard-response","74","361066","0.0-6.0-6.0-0.5","w6tl5wxxfo","one_one","1","direct_first","1","ig09nn27","0","23","1","1","3","1","null","","","<div class = 'row'><div class = 'column'><img src = 'uspos/5621.bmp' width = '100%;'></div><div class = 'column'><img src = 'category2/CS5.png' width = '70%;'></div></div>","null","pos","CS","CS","2","category2/CS5.png","","","","",""
"","html-keyboard-response","75","363597","0.0-6.0-6.0-0.6","w6tl5wxxfo","one_one","1","direct_first","1","ig09nn27","0","23","1","1","3","1","null","","","<div class = 'row'><div class = 'column'><img src = 'category3/CS6.png' width = '70%;'></div><div class = 'column'><img src = 'usneg/9290.bmp' width = '100%;'></div></div>","null","neg","CS","CS","3","category3/CS6.png","","","","",""
"","html-keyboard-response","76","366127","0.0-6.0-6.0-0.7","w6tl5wxxfo","one_one","1","direct_first","1","ig09nn27","0","23","1","1","3","1","null","","","<div class = 'row'><div class = 'column'><img src = 'category1/CS10.png' width = '70%;'></div><div class = 'column'><img src = 'uspos/2900.2.bmp' width = '100%;'></div></div>","null","pos","CS","CS","1","category1/CS10.png","","","","",""
"","html-keyboard-response","77","368658","0.0-6.0-6.0-0.8","w6tl5wxxfo","one_one","1","direct_first","1","ig09nn27","0","23","1","1","3","1","null","","","<div class = 'row'><div class = 'column'><img src = 'category3/CS6.png' width = '70%;'></div><div class = 'column'><img src = 'usneg/9290.bmp' width = '100%;'></div></div>","null","neg","CS","CS","3","category3/CS6.png","","","","",""
"","html-keyboard-response","78","371190","0.0-6.0-6.0-0.9","w6tl5wxxfo","one_one","1","direct_first","1","ig09nn27","0","23","1","1","3","1","null","","","<div class = 'row'><div class = 'column'><img src = 'usneg/9340.bmp' width = '100%;'></div><div class = 'column'><img src = 'category4/CS6.png' width = '70%;'></div></div>","null","neg","CS","CS","4","category4/CS6.png","","","","",""
"","html-keyboard-response","79","373719","0.0-6.0-6.0-0.10","w6tl5wxxfo","one_one","1","direct_first","1","ig09nn27","0","23","1","1","3","1","null","","","<div class = 'row'><div class = 'column'><img src = 'uspos/2900.2.bmp' width = '100%;'></div><div class = 'column'><img src = 'category1/CS10.png' width = '70%;'></div></div>","null","pos","CS","CS","1","category1/CS10.png","","","","",""
"","html-keyboard-response","80","376251","0.0-6.0-6.0-0.11","w6tl5wxxfo","one_one","1","direct_first","1","ig09nn27","0","23","1","1","3","1","null","","","<div class = 'row'><div class = 'column'><img src = 'category4/CS6.png' width = '70%;'></div><div class = 'column'><img src = 'usneg/9340.bmp' width = '100%;'></div></div>","null","neg","CS","CS","4","category4/CS6.png","","","","",""
"","html-keyboard-response","81","378782","0.0-6.0-6.0-0.12","w6tl5wxxfo","one_one","1","direct_first","1","ig09nn27","0","23","1","1","3","1","null","","","<div class = 'row'><div class = 'column'><img src = 'uspos/5621.bmp' width = '100%;'></div><div class = 'column'><img src = 'category2/CS5.png' width = '70%;'></div></div>","null","pos","CS","CS","2","category2/CS5.png","","","","",""
"","html-keyboard-response","82","381312","0.0-6.0-6.0-0.13","w6tl5wxxfo","one_one","1","direct_first","1","ig09nn27","0","23","1","1","3","1","null","","","<div class = 'row'><div class = 'column'><img src = 'category4/CS6.png' width = '70%;'></div><div class = 'column'><img src = 'usneg/9340.bmp' width = '100%;'></div></div>","null","neg","CS","CS","4","category4/CS6.png","","","","",""
"","html-keyboard-response","83","383844","0.0-6.0-6.0-0.14","w6tl5wxxfo","one_one","1","direct_first","1","ig09nn27","0","23","1","1","3","1","null","","","<div class = 'row'><div class = 'column'><img src = 'category3/CS6.png' width = '70%;'></div><div class = 'column'><img src = 'usneg/9290.bmp' width = '100%;'></div></div>","null","neg","CS","CS","3","category3/CS6.png","","","","",""
"","html-keyboard-response","84","386374","0.0-6.0-6.0-0.15","w6tl5wxxfo","one_one","1","direct_first","1","ig09nn27","0","23","1","1","3","1","null","","","<div class = 'row'><div class = 'column'><img src = 'uspos/5621.bmp' width = '100%;'></div><div class = 'column'><img src = 'category2/CS5.png' width = '70%;'></div></div>","null","pos","CS","CS","2","category2/CS5.png","","","","",""
"","html-keyboard-response","85","388906","0.0-6.0-6.0-0.16","w6tl5wxxfo","one_one","1","direct_first","1","ig09nn27","0","23","1","1","3","1","null","","","<div class = 'row'><div class = 'column'><img src = 'usneg/9340.bmp' width = '100%;'></div><div class = 'column'><img src = 'category4/CS6.png' width = '70%;'></div></div>","null","neg","CS","CS","4","category4/CS6.png","","","","",""
"","html-keyboard-response","86","391436","0.0-6.0-6.0-0.17","w6tl5wxxfo","one_one","1","direct_first","1","ig09nn27","0","23","1","1","3","1","null","","","<div class = 'row'><div class = 'column'><img src = 'category3/CS6.png' width = '70%;'></div><div class = 'column'><img src = 'usneg/9290.bmp' width = '100%;'></div></div>","null","neg","CS","CS","3","category3/CS6.png","","","","",""
"","html-keyboard-response","87","393967","0.0-6.0-6.0-0.18","w6tl5wxxfo","one_one","1","direct_first","1","ig09nn27","0","23","1","1","3","1","null","","","<div class = 'row'><div class = 'column'><img src = 'category2/CS5.png' width = '70%;'></div><div class = 'column'><img src = 'uspos/5621.bmp' width = '100%;'></div></div>","null","pos","CS","CS","2","category2/CS5.png","","","","",""
"","html-keyboard-response","88","393679","0.0-6.0-6.0-0.19","w6tl5wxxfo","one_one","1","direct_first","1","ig09nn27","0","23","1","1","3","1","null","","","<div class = 'row'><div class = 'column'><img src = 'category1/CS10.png' width = '70%;'></div><div class = 'column'><img src = 'uspos/2900.2.bmp' width = '100%;'></div></div>","null","pos","CS","CS","1","category1/CS10.png","","","","",""
"","survey-html-form","89","403050","0.0-7.0","w6tl5wxxfo","one_one","1","direct_first","1","ig09nn27","0","23","1","1","3","1","8855.520000000077","","{}","","","","","","","","","","","",""
"","image-slider-response","90","412912","0.0-8.0-0.0","w6tl5wxxfo","one_one","1","direct_first","1","ig09nn27","0","23","1","1","3","1","7857.59500000003","","","","","neg","GS","GSold","4","category4/CS5.png","-44","targets/44.png","direct","",""
"","image-slider-response","91","416317","0.0-8.0-0.1","w6tl5wxxfo","one_one","1","direct_first","1","ig09nn27","0","23","1","1","3","1","3402.3300000000163","","","","","pos","GS","GSold","1","category1/CS8.png","33","targets/7.png","direct","",""
"","image-slider-response","92","419854","0.0-8.0-0.2","w6tl5wxxfo","one_one","1","direct_first","1","ig09nn27","0","23","1","1","3","1","3534.319999999949","","","","","pos","GS","GSold","1","category1/CS1.png","-30","targets/14.png","direct","",""
"","image-slider-response","93","422822","0.0-8.0-0.3","w6tl5wxxfo","one_one","1","direct_first","1","ig09nn27","0","23","1","1","3","1","2966.570000000007","","","","","neg","GS","GSnew","4","category4/GS3.png","88","targets/10.png","direct","",""
"","image-slider-response","94","425709","0.0-8.0-0.4","w6tl5wxxfo","one_one","1","direct_first","1","ig09nn27","0","23","1","1","3","1","2884.8799999999464","","","","","neg","GS","GSold","4","category4/CS4.png","55","targets/6.png","direct","",""
"","image-slider-response","95","428483","0.0-8.0-0.5","w6tl5wxxfo","one_one","1","direct_first","1","ig09nn27","0","23","1","1","3","1","2772.499999999942","","","","","pos","GS","GSold","2","category2/CS3.png","100","targets/43.png","direct","",""
"","image-slider-response","96","431044","0.0-8.0-0.6","w6tl5wxxfo","one_one","1","direct_first","1","ig09nn27","0","23","1","1","3","1","2559.390000000014","","","","","pos","GS","abstract","2","category2/men.png","78","targets/30.png","direct","",""
"","image-slider-response","97","433687","0.0-8.0-0.7","w6tl5wxxfo","one_one","1","direct_first","1","ig09nn27","0","23","1","1","3","1","2641.5650000000023","","","","","pos","CS","CS","2","category2/CS5.png","100","targets/41.png","direct","",""
"","image-slider-response","98","436045","0.0-8.0-0.8","w6tl5wxxfo","one_one","1","direct_first","1","ig09nn27","0","23","1","1","3","1","2354.365000000049","","","","","pos","GS","GSold","1","category1/CS9.png","24","targets/25.png","direct","",""
"","image-slider-response","99","438809","0.0-8.0-0.9","w6tl5wxxfo","one_one","1","direct_first","1","ig09nn27","0","23","1","1","3","1","2762.380000000063","","","","","pos","GS","GSnew","1","category1/GS3.png","-58","targets/17.png","direct","",""
"","image-slider-response","100","441380","0.0-8.0-0.10","w6tl5wxxfo","one_one","1","direct_first","1","ig09nn27","0","23","1","1","3","1","2569.630000000063","","","","","pos","GS","GSold","2","category2/CS4.png","89","targets/28.png","direct","",""
"","image-slider-response","101","445333","0.0-8.0-0.11","w6tl5wxxfo","one_one","1","direct_first","1","ig09nn27","0","23","1","1","3","1","3950.4349999999395","","","","","neg","GS","GSnew","4","category4/GS1.png","-26","targets/40.png","direct","",""
"","image-slider-response","102","447457","0.0-8.0-0.12","w6tl5wxxfo","one_one","1","direct_first","1","ig09nn27","0","23","1","1","3","1","2120.555000000051","","","","","pos","GS","GSold","2","category2/CS2.png","76","targets/9.png","direct","",""
"","image-slider-response","103","451176","0.0-8.0-0.13","w6tl5wxxfo","one_one","1","direct_first","1","ig09nn27","0","23","1","1","3","1","3717.2299999999814","","","","","pos","GS","GSnew","2","category2/GS2.png","30","targets/48.png","direct","",""
"","image-slider-response","104","451897","0.0-8.0-0.14","w6tl5wxxfo","one_one","1","direct_first","1","ig09nn27","0","23","1","1","3","1","3504.2200000000303","","","","","neg","CS","CS","4","category4/CS6.png","-70","targets/35.png","direct","",""
"","image-slider-response","105","454173","0.0-8.0-0.15","w6tl5wxxfo","one_one","1","direct_first","1","ig09nn27","0","23","1","1","3","1","2273.7150000000256","","","","","neg","GS","GSnew","3","category3/GS2.png","8","targets/45.png","direct","",""
"","image-slider-response","106","458451","0.0-8.0-0.16","w6tl5wxxfo","one_one","1","direct_first","1","ig09nn27","0","23","1","1","3","1","4276.9000000000815","","","","","neg","GS","abstract","3","category3/wang.png","43","targets/27.png","direct","",""
"","image-slider-response","107","460931","0.0-8.0-0.17","w6tl5wxxfo","one_one","1","direct_first","1","ig09nn27","0","23","1","1","3","1","2478.015000000014","","","","","pos","GS","GSnew","1","category1/GS1.png","-63","targets/46.png","direct","",""
"","image-slider-response","108","465790","0.0-8.0-0.18","w6tl5wxxfo","one_one","1","direct_first","1","ig09nn27","0","23","1","1","3","1","4856.179999999993","","","","","neg","GS","GSold","3","category3/CS7.png","-19","targets/1.png","direct","",""
"","image-slider-response","109","471390","0.0-8.0-0.19","w6tl5wxxfo","one_one","1","direct_first","1","ig09nn27","0","23","1","1","3","1","5598.305000000109","","","","","neg","CS","CS","3","category3/CS6.png","-100","targets/34.png","direct","",""
"","image-slider-response","110","473911","0.0-8.0-0.20","w6tl5wxxfo","one_one","1","direct_first","1","ig09nn27","0","23","1","1","3","1","2518.624999999942","","","","","pos","GS","abstract","1","category1/ma.png","-25","targets/2.png","direct","",""
"","image-slider-response","111","476493","0.0-8.0-0.21","w6tl5wxxfo","one_one","1","direct_first","1","ig09nn27","0","23","1","1","3","1","2580.570000000065","","","","","pos","CS","CS","1","category1/CS10.png","100","targets/36.png","direct","",""
"","image-slider-response","112","479431","0.0-8.0-0.22","w6tl5wxxfo","one_one","1","direct_first","1","ig09nn27","0","23","1","1","3","1","2936.179999999935","","","","","neg","GS","GSold","3","category3/CS8.png","-90","targets/11.png","direct","",""
"","image-slider-response","113","482735","0.0-8.0-0.23","w6tl5wxxfo","one_one","1","direct_first","1","ig09nn27","0","23","1","1","3","1","3301.7200000000303","","","","","pos","GS","GSnew","2","category2/GS1.png","16","targets/47.png","direct","",""
"","image-slider-response","114","485256","0.0-8.0-0.24","w6tl5wxxfo","one_one","1","direct_first","1","ig09nn27","0","23","1","1","3","1","2519.2549999999464","","","","","pos","GS","GSnew","1","category1/GS2.png","-23","targets/4.png","direct","",""
"","image-slider-response","115","487748","0.0-8.0-0.25","w6tl5wxxfo","one_one","1","direct_first","1","ig09nn27","0","23","1","1","3","1","2489.2300000000396","","","","","neg","GS","GSnew","3","category3/GS1.png","-77","targets/12.png","direct","",""
"","image-slider-response","116","489974","0.0-8.0-0.26","w6tl5wxxfo","one_one","1","direct_first","1","ig09nn27","0","23","1","1","3","1","2224.810000000056","","","","","neg","GS","GSold","3","category3/CS10.png","-85","targets/37.png","direct","",""
"","image-slider-response","117","492261","0.0-8.0-0.27","w6tl5wxxfo","one_one","1","direct_first","1","ig09nn27","0","23","1","1","3","1","2285.8800000000047","","","","","neg","GS","abstract","4","category4/lin.png","66","targets/38.png","direct","",""
"","image-slider-response","118","494844","0.0-8.0-0.28","w6tl5wxxfo","one_one","1","direct_first","1","ig09nn27","0","23","1","1","3","1","2580.545000000042","","","","","pos","GS","GSnew","2","category2/GS3.png","61","targets/8.png","direct","",""
"","image-slider-response","119","497131","0.0-8.0-0.29","w6tl5wxxfo","one_one","1","direct_first","1","ig09nn27","0","23","1","1","3","1","2285.4249999999884","","","","","neg","GS","GSnew","4","category4/GS2.png","-38","targets/22.png","direct","",""
"","image-slider-response","120","499531","0.0-8.0-0.30","w6tl5wxxfo","one_one","1","direct_first","1","ig09nn27","0","23","1","1","3","1","2397.5299999999115","","","","","neg","GS","GSold","4","category4/CS8.png","27","targets/18.png","direct","",""
"","image-slider-response","121","502001","0.0-8.0-0.31","w6tl5wxxfo","one_one","1","direct_first","1","ig09nn27","0","23","1","1","3","1","2468.4550000000745","","","","","neg","GS","GSnew","3","category3/GS3.png","-74","targets/13.png","direct","",""
"","html-keyboard-response","122","530430","0.0-9.0","w6tl5wxxfo","one_one","1","direct_first","1","ig09nn27","0","23","1","1","3","1","28894.100000000035","","","<p>Sie sehen nun die chinesischen Zeichen nur ganz kurz. Danach sehen Sie die jeweilige Aussprache der Zeichen als Silbe auf dem Bildschrim. Ihre Aufgabe ist es, für jede Silbe anzugeben, ob diese etwas angenehmes, oder unangenehmes bedeuten könnte. Verlassen Sie sich hier vor allem auf Ihre Intuition.<br><br>Die Zeichen werden nur zur Orientierung dargestellt, beachten Sie sie deshalb nicht. Konzentrieren Sie sich vor allem auf die Silben. <br>Reagieren Sie mit folgenden zwei Tasten: <br><br><b>'D' </b> wenn die Silbe etwas <b>unangenehmes</b> bedeuten könnte. <br><b>'K'</b> wenn die Silbe etwas <b>angenehmes</b> bedeuten könnte. <br><br>Bitte legen Sie nun den Zeigefinger der linken Hand auf die Taste 'D' und den Zeigefinger der rechten Hand auf die Taste 'K'. <br>Reagieren Sie auf jede Silbe so schnell wie möglich. Uns interessiert Ihre spontane Reaktion. <br> <br> <br>Drücken Sie 'D' oder 'K', um die nächste Aufgabe zu starten. </p>","75","","","","","","","","","",""
"","html-keyboard-response","123","533454","0.0-10.0-0.0","w6tl5wxxfo","one_one","1","direct_first","1","ig09nn27","0","23","1","1","3","1","null","","","<div style=""font-size:60px;"">+</div>","null","","","","","","","","","",""
"","html-keyboard-response","124","533547","0.0-10.0-1.0","w6tl5wxxfo","one_one","1","direct_first","1","ig09nn27","0","23","1","1","3","1","null","","","<img src = 'category4/CS5.png' width = '100%;'>","null","","","","","","","","","",""
"","html-keyboard-response","125","533809","0.0-10.0-2.0","w6tl5wxxfo","one_one","1","direct_first","1","ig09nn27","0","23","1","1","3","1","null","","","<img src = 'targets/44.png' width = '100%;'>","null","","","","","","","","","",""
"","html-keyboard-response","126","535434","0.0-10.0-3.0","w6tl5wxxfo","one_one","1","direct_first","1","ig09nn27","0","23","1","1","3","1","1623.8150000000605","","","<img src = 'targets/mask.png' width = '100%;'>","75","neg","GS","GSold","4","category4/CS5.png","","targets/44.png","indirect","1","0"
"","html-keyboard-response","127","536967","0.0-10.0-0.1","w6tl5wxxfo","one_one","1","direct_first","1","ig09nn27","0","23","1","1","3","1","null","","","<div style=""font-size:60px;"">+</div>","null","","","","","","","","","",""
"","html-keyboard-response","128","537060","0.0-10.0-1.1","w6tl5wxxfo","one_one","1","direct_first","1","ig09nn27","0","23","1","1","3","1","null","","","<img src = 'category1/CS9.png' width = '100%;'>","null","","","","","","","","","",""
"","html-keyboard-response","129","537322","0.0-10.0-2.1","w6tl5wxxfo","one_one","1","direct_first","1","ig09nn27","0","23","1","1","3","1","null","","","<img src = 'targets/25.png' width = '100%;'>","null","","","","","","","","","",""
"","html-keyboard-response","130","537883","0.0-10.0-3.1","w6tl5wxxfo","one_one","1","direct_first","1","ig09nn27","0","23","1","1","3","1","559.2049999999581","","","<img src = 'targets/mask.png' width = '100%;'>","68","pos","GS","GSold","1","category1/CS9.png","","targets/25.png","indirect","0","1"
"","html-keyboard-response","131","539415","0.0-10.0-0.2","w6tl5wxxfo","one_one","1","direct_first","1","ig09nn27","0","23","1","1","3","1","null","","","<div style=""font-size:60px;"">+</div>","null","","","","","","","","","",""
"","html-keyboard-response","132","539508","0.0-10.0-1.2","w6tl5wxxfo","one_one","1","direct_first","1","ig09nn27","0","23","1","1","3","1","null","","","<img src = 'category2/CS5.png' width = '100%;'>","null","","","","","","","","","",""
"","html-keyboard-response","133","539771","0.0-10.0-2.2","w6tl5wxxfo","one_one","1","direct_first","1","ig09nn27","0","23","1","1","3","1","null","","","<img src = 'targets/41.png' width = '100%;'>","null","","","","","","","","","",""
"","html-keyboard-response","134","539949","0.0-10.0-3.2","w6tl5wxxfo","one_one","1","direct_first","1","ig09nn27","0","23","1","1","3","1","177.15000000002328","","","<img src = 'targets/mask.png' width = '100%;'>","75","pos","CS","CS","2","category2/CS5.png","","targets/41.png","indirect","1","2"
"","html-keyboard-response","135","541478","0.0-10.0-0.3","w6tl5wxxfo","one_one","1","direct_first","1","ig09nn27","0","23","1","1","3","1","null","","","<div style=""font-size:60px;"">+</div>","null","","","","","","","","","",""
"","html-keyboard-response","136","541572","0.0-10.0-1.3","w6tl5wxxfo","one_one","1","direct_first","1","ig09nn27","0","23","1","1","3","1","null","","","<img src = 'category3/CS6.png' width = '100%;'>","null","","","","","","","","","",""
"","html-keyboard-response","137","541834","0.0-10.0-2.3","w6tl5wxxfo","one_one","1","direct_first","1","ig09nn27","0","23","1","1","3","1","null","","","<img src = 'targets/34.png' width = '100%;'>","null","","","","","","","","","",""
"","html-keyboard-response","138","542149","0.0-10.0-3.3","w6tl5wxxfo","one_one","1","direct_first","1","ig09nn27","0","23","1","1","3","1","313.60499999986496","","","<img src = 'targets/mask.png' width = '100%;'>","68","neg","CS","CS","3","category3/CS6.png","","targets/34.png","indirect","0","3"
"","html-keyboard-response","139","543676","0.0-10.0-0.4","w6tl5wxxfo","one_one","1","direct_first","1","ig09nn27","0","23","1","1","3","1","null","","","<div style=""font-size:60px;"">+</div>","null","","","","","","","","","",""
"","html-keyboard-response","140","543770","0.0-10.0-1.4","w6tl5wxxfo","one_one","1","direct_first","1","ig09nn27","0","23","1","1","3","1","null","","","<img src = 'category4/CS8.png' width = '100%;'>","null","","","","","","","","","",""
"","html-keyboard-response","141","544033","0.0-10.0-2.4","w6tl5wxxfo","one_one","1","direct_first","1","ig09nn27","0","23","1","1","3","1","null","","","<img src = 'targets/18.png' width = '100%;'>","null","","","","","","","","","",""
"","html-keyboard-response","142","544159","0.0-10.0-3.4","w6tl5wxxfo","one_one","1","direct_first","1","ig09nn27","0","23","1","1","3","1","125.82499999995343","","","<img src = 'targets/mask.png' width = '100%;'>","75","neg","GS","GSold","4","category4/CS8.png","","targets/18.png","indirect","1","4"
"","html-keyboard-response","143","545675","0.0-10.0-0.5","w6tl5wxxfo","one_one","1","direct_first","1","ig09nn27","0","23","1","1","3","1","null","","","<div style=""font-size:60px;"">+</div>","null","","","","","","","","","",""
"","html-keyboard-response","144","545769","0.0-10.0-1.5","w6tl5wxxfo","one_one","1","direct_first","1","ig09nn27","0","23","1","1","3","1","null","","","<img src = 'category3/CS10.png' width = '100%;'>","null","","","","","","","","","",""
"","html-keyboard-response","145","546032","0.0-10.0-2.5","w6tl5wxxfo","one_one","1","direct_first","1","ig09nn27","0","23","1","1","3","1","null","","","<img src = 'targets/37.png' width = '100%;'>","null","","","","","","","","","",""
"","html-keyboard-response","146","546271","0.0-10.0-3.5","w6tl5wxxfo","one_one","1","direct_first","1","ig09nn27","0","23","1","1","3","1","237.77000000013504","","","<img src = 'targets/mask.png' width = '100%;'>","68","neg","GS","GSold","3","category3/CS10.png","","targets/37.png","indirect","0","5"
"","html-keyboard-response","147","547789","0.0-10.0-0.6","w6tl5wxxfo","one_one","1","direct_first","1","ig09nn27","0","23","1","1","3","1","null","","","<div style=""font-size:60px;"">+</div>","null","","","","","","","","","",""
"","html-keyboard-response","148","547883","0.0-10.0-1.6","w6tl5wxxfo","one_one","1","direct_first","1","ig09nn27","0","23","1","1","3","1","null","","","<img src = 'category3/CS8.png' width = '100%;'>","null","","","","","","","","","",""
"","html-keyboard-response","149","548145","0.0-10.0-2.6","w6tl5wxxfo","one_one","1","direct_first","1","ig09nn27","0","23","1","1","3","1","null","","","<img src = 'targets/11.png' width = '100%;'>","null","","","","","","","","","",""
"","html-keyboard-response","150","548432","0.0-10.0-3.6","w6tl5wxxfo","one_one","1","direct_first","1","ig09nn27","0","23","1","1","3","1","285.86999999999534","","","<img src = 'targets/mask.png' width = '100%;'>","68","neg","GS","GSold","3","category3/CS8.png","","targets/11.png","indirect","0","6"
"","html-keyboard-response","151","549938","0.0-10.0-0.7","w6tl5wxxfo","one_one","1","direct_first","1","ig09nn27","0","23","1","1","3","1","null","","","<div style=""font-size:60px;"">+</div>","null","","","","","","","","","",""
"","html-keyboard-response","152","550030","0.0-10.0-1.7","w6tl5wxxfo","one_one","1","direct_first","1","ig09nn27","0","23","1","1","3","1","null","","","<img src = 'category4/CS4.png' width = '100%;'>","null","","","","","","","","","",""
"","html-keyboard-response","153","550293","0.0-10.0-2.7","w6tl5wxxfo","one_one","1","direct_first","1","ig09nn27","0","23","1","1","3","1","null","","","<img src = 'targets/6.png' width = '100%;'>","null","","","","","","","","","",""
"","html-keyboard-response","154","550723","0.0-10.0-3.7","w6tl5wxxfo","one_one","1","direct_first","1","ig09nn27","0","23","1","1","3","1","429.1949999999488","","","<img src = 'targets/mask.png' width = '100%;'>","75","neg","GS","GSold","4","category4/CS4.png","","targets/6.png","indirect","1","7"
"","html-keyboard-response","155","552251","0.0-10.0-0.8","w6tl5wxxfo","one_one","1","direct_first","1","ig09nn27","0","23","1","1","3","1","null","","","<div style=""font-size:60px;"">+</div>","null","","","","","","","","","",""
"","html-keyboard-response","156","552345","0.0-10.0-1.8","w6tl5wxxfo","one_one","1","direct_first","1","ig09nn27","0","23","1","1","3","1","null","","","<img src = 'category2/CS2.png' width = '100%;'>","null","","","","","","","","","",""
"","html-keyboard-response","157","552607","0.0-10.0-2.8","w6tl5wxxfo","one_one","1","direct_first","1","ig09nn27","0","23","1","1","3","1","null","","","<img src = 'targets/9.png' width = '100%;'>","null","","","","","","","","","",""
"","html-keyboard-response","158","553084","0.0-10.0-3.8","w6tl5wxxfo","one_one","1","direct_first","1","ig09nn27","0","23","1","1","3","1","475.7299999999814","","","<img src = 'targets/mask.png' width = '100%;'>","75","pos","GS","GSold","2","category2/CS2.png","","targets/9.png","indirect","1","8"
"","html-keyboard-response","159","554600","0.0-10.0-0.9","w6tl5wxxfo","one_one","1","direct_first","1","ig09nn27","0","23","1","1","3","1","null","","","<div style=""font-size:60px;"">+</div>","null","","","","","","","","","",""
"","html-keyboard-response","160","554693","0.0-10.0-1.9","w6tl5wxxfo","one_one","1","direct_first","1","ig09nn27","0","23","1","1","3","1","null","","","<img src = 'category2/CS3.png' width = '100%;'>","null","","","","","","","","","",""
"","html-keyboard-response","161","554956","0.0-10.0-2.9","w6tl5wxxfo","one_one","1","direct_first","1","ig09nn27","0","23","1","1","3","1","null","","","<img src = 'targets/43.png' width = '100%;'>","null","","","","","","","","","",""
"","html-keyboard-response","162","555590","0.0-10.0-3.9","w6tl5wxxfo","one_one","1","direct_first","1","ig09nn27","0","23","1","1","3","1","632.25","","","<img src = 'targets/mask.png' width = '100%;'>","75","pos","GS","GSold","2","category2/CS3.png","","targets/43.png","indirect","1","9"
"","html-keyboard-response","163","557113","0.0-10.0-0.10","w6tl5wxxfo","one_one","1","direct_first","1","ig09nn27","0","23","1","1","3","1","null","","","<div style=""font-size:60px;"">+</div>","null","","","","","","","","","",""
"","html-keyboard-response","164","557208","0.0-10.0-1.10","w6tl5wxxfo","one_one","1","direct_first","1","ig09nn27","0","23","1","1","3","1","null","","","<img src = 'category1/CS10.png' width = '100%;'>","null","","","","","","","","","",""
"","html-keyboard-response","165","557469","0.0-10.0-2.10","w6tl5wxxfo","one_one","1","direct_first","1","ig09nn27","0","23","1","1","3","1","null","","","<img src = 'targets/36.png' width = '100%;'>","null","","","","","","","","","",""
"","html-keyboard-response","166","557871","0.0-10.0-3.10","w6tl5wxxfo","one_one","1","direct_first","1","ig09nn27","0","23","1","1","3","1","400.61999999999534","","","<img src = 'targets/mask.png' width = '100%;'>","75","pos","CS","CS","1","category1/CS10.png","","targets/36.png","indirect","1","10"
"","html-keyboard-response","167","559380","0.0-10.0-0.11","w6tl5wxxfo","one_one","1","direct_first","1","ig09nn27","0","23","1","1","3","1","null","","","<div style=""font-size:60px;"">+</div>","null","","","","","","","","","",""
"","html-keyboard-response","168","559471","0.0-10.0-1.11","w6tl5wxxfo","one_one","1","direct_first","1","ig09nn27","0","23","1","1","3","1","null","","","<img src = 'category1/CS1.png' width = '100%;'>","null","","","","","","","","","",""
"","html-keyboard-response","169","559734","0.0-10.0-2.11","w6tl5wxxfo","one_one","1","direct_first","1","ig09nn27","0","23","1","1","3","1","null","","","<img src = 'targets/14.png' width = '100%;'>","null","","","","","","","","","",""
"","html-keyboard-response","170","560367","0.0-10.0-3.11","w6tl5wxxfo","one_one","1","direct_first","1","ig09nn27","0","23","1","1","3","1","632.0100000001257","","","<img src = 'targets/mask.png' width = '100%;'>","68","pos","GS","GSold","1","category1/CS1.png","","targets/14.png","indirect","0","11"
"","html-keyboard-response","171","561876","0.0-10.0-0.12","w6tl5wxxfo","one_one","1","direct_first","1","ig09nn27","0","23","1","1","3","1","null","","","<div style=""font-size:60px;"">+</div>","null","","","","","","","","","",""
"","html-keyboard-response","172","561969","0.0-10.0-1.12","w6tl5wxxfo","one_one","1","direct_first","1","ig09nn27","0","23","1","1","3","1","null","","","<img src = 'category2/CS4.png' width = '100%;'>","null","","","","","","","","","",""
"","html-keyboard-response","173","562233","0.0-10.0-2.12","w6tl5wxxfo","one_one","1","direct_first","1","ig09nn27","0","23","1","1","3","1","null","","","<img src = 'targets/28.png' width = '100%;'>","null","","","","","","","","","",""
"","html-keyboard-response","174","562698","0.0-10.0-3.12","w6tl5wxxfo","one_one","1","direct_first","1","ig09nn27","0","23","1","1","3","1","464.29000000003725","","","<img src = 'targets/mask.png' width = '100%;'>","75","pos","GS","GSold","2","category2/CS4.png","","targets/28.png","indirect","1","12"
"","html-keyboard-response","175","564223","0.0-10.0-0.13","w6tl5wxxfo","one_one","1","direct_first","1","ig09nn27","0","23","1","1","3","1","null","","","<div style=""font-size:60px;"">+</div>","null","","","","","","","","","",""
"","html-keyboard-response","176","564317","0.0-10.0-1.13","w6tl5wxxfo","one_one","1","direct_first","1","ig09nn27","0","23","1","1","3","1","null","","","<img src = 'category4/CS6.png' width = '100%;'>","null","","","","","","","","","",""
"","html-keyboard-response","177","564579","0.0-10.0-2.13","w6tl5wxxfo","one_one","1","direct_first","1","ig09nn27","0","23","1","1","3","1","null","","","<img src = 'targets/35.png' width = '100%;'>","null","","","","","","","","","",""
"","html-keyboard-response","178","564947","0.0-10.0-3.13","w6tl5wxxfo","one_one","1","direct_first","1","ig09nn27","0","23","1","1","3","1","366.71000000007916","","","<img src = 'targets/mask.png' width = '100%;'>","68","neg","CS","CS","4","category4/CS6.png","","targets/35.png","indirect","0","13"
"","html-keyboard-response","179","566471","0.0-10.0-0.14","w6tl5wxxfo","one_one","1","direct_first","1","ig09nn27","0","23","1","1","3","1","null","","","<div style=""font-size:60px;"">+</div>","null","","","","","","","","","",""
"","html-keyboard-response","180","566564","0.0-10.0-1.14","w6tl5wxxfo","one_one","1","direct_first","1","ig09nn27","0","23","1","1","3","1","null","","","<img src = 'category3/CS7.png' width = '100%;'>","null","","","","","","","","","",""
"","html-keyboard-response","181","566827","0.0-10.0-2.14","w6tl5wxxfo","one_one","1","direct_first","1","ig09nn27","0","23","1","1","3","1","null","","","<img src = 'targets/1.png' width = '100%;'>","null","","","","","","","","","",""
"","html-keyboard-response","182","567021","0.0-10.0-3.14","w6tl5wxxfo","one_one","1","direct_first","1","ig09nn27","0","23","1","1","3","1","191.75500000000466","","","<img src = 'targets/mask.png' width = '100%;'>","75","neg","GS","GSold","3","category3/CS7.png","","targets/1.png","indirect","1","14"
"","html-keyboard-response","183","568552","0.0-10.0-0.15","w6tl5wxxfo","one_one","1","direct_first","1","ig09nn27","0","23","1","1","3","1","null","","","<div style=""font-size:60px;"">+</div>","null","","","","","","","","","",""
"","html-keyboard-response","184","568646","0.0-10.0-1.15","w6tl5wxxfo","one_one","1","direct_first","1","ig09nn27","0","23","1","1","3","1","null","","","<img src = 'category1/CS8.png' width = '100%;'>","null","","","","","","","","","",""
"","html-keyboard-response","185","568908","0.0-10.0-2.15","w6tl5wxxfo","one_one","1","direct_first","1","ig09nn27","0","23","1","1","3","1","null","","","<img src = 'targets/7.png' width = '100%;'>","null","","","","","","","","","",""
"","html-keyboard-response","186","569317","0.0-10.0-3.15","w6tl5wxxfo","one_one","1","direct_first","1","ig09nn27","0","23","1","1","3","1","408.11999999999534","","","<img src = 'targets/mask.png' width = '100%;'>","68","pos","GS","GSold","1","category1/CS8.png","","targets/7.png","indirect","0","15"
"","survey-html-form","187","571812","0.0-11.0","w6tl5wxxfo","one_one","1","direct_first","1","ig09nn27","0","23","1","1","3","1","1978.390000000014","","{}","","","","","","","","","","","",""
"","html-keyboard-response","188","574830","0.0-12.0-0.0","w6tl5wxxfo","one_one","1","direct_first","1","ig09nn27","0","23","1","1","3","1","null","","","<div style=""font-size:60px;"">+</div>","null","","","","","","","","","",""
"","html-keyboard-response","189","574923","0.0-12.0-1.0","w6tl5wxxfo","one_one","1","direct_first","1","ig09nn27","0","23","1","1","3","1","null","","","<img src = 'category3/GS1.png' width = '100%;'>","null","","","","","","","","","",""
"","html-keyboard-response","190","575186","0.0-12.0-2.0","w6tl5wxxfo","one_one","1","direct_first","1","ig09nn27","0","23","1","1","3","1","null","","","<img src = 'targets/12.png' width = '100%;'>","null","","","","","","","","","",""
"","html-keyboard-response","191","575476","0.0-12.0-3.0","w6tl5wxxfo","one_one","1","direct_first","1","ig09nn27","0","23","1","1","3","1","288.0549999999348","","","<img src = 'targets/mask.png' width = '100%;'>","68","neg","GS","GSnew","3","category3/GS1.png","","targets/12.png","indirect","0","16"
"","html-keyboard-response","192","576994","0.0-12.0-0.1","w6tl5wxxfo","one_one","1","direct_first","1","ig09nn27","0","23","1","1","3","1","null","","","<div style=""font-size:60px;"">+</div>","null","","","","","","","","","",""
"","html-keyboard-response","193","577087","0.0-12.0-1.1","w6tl5wxxfo","one_one","1","direct_first","1","ig09nn27","0","23","1","1","3","1","null","","","<img src = 'category2/GS1.png' width = '100%;'>","null","","","","","","","","","",""
"","html-keyboard-response","194","577350","0.0-12.0-2.1","w6tl5wxxfo","one_one","1","direct_first","1","ig09nn27","0","23","1","1","3","1","null","","","<img src = 'targets/47.png' width = '100%;'>","null","","","","","","","","","",""
"","html-keyboard-response","195","577606","0.0-12.0-3.1","w6tl5wxxfo","one_one","1","direct_first","1","ig09nn27","0","23","1","1","3","1","255.35999999998603","","","<img src = 'targets/mask.png' width = '100%;'>","75","pos","GS","GSnew","2","category2/GS1.png","","targets/47.png","indirect","1","17"
"","html-keyboard-response","196","579125","0.0-12.0-0.2","w6tl5wxxfo","one_one","1","direct_first","1","ig09nn27","0","23","1","1","3","1","null","","","<div style=""font-size:60px;"">+</div>","null","","","","","","","","","",""
"","html-keyboard-response","197","579224","0.0-12.0-1.2","w6tl5wxxfo","one_one","1","direct_first","1","ig09nn27","0","23","1","1","3","1","null","","","<img src = 'category3/GS2.png' width = '100%;'>","null","","","","","","","","","",""
"","html-keyboard-response","198","579515","0.0-12.0-2.2","w6tl5wxxfo","one_one","1","direct_first","1","ig09nn27","0","23","1","1","3","1","null","","","<img src = 'targets/45.png' width = '100%;'>","null","","","","","","","","","",""
"","html-keyboard-response","199","579669","0.0-12.0-3.2","w6tl5wxxfo","one_one","1","direct_first","1","ig09nn27","0","23","1","1","3","1","153.42500000004657","","","<img src = 'targets/mask.png' width = '100%;'>","68","neg","GS","GSnew","3","category3/GS2.png","","targets/45.png","indirect","0","18"
"","html-keyboard-response","200","581189","0.0-12.0-0.3","w6tl5wxxfo","one_one","1","direct_first","1","ig09nn27","0","23","1","1","3","1","null","","","<div style=""font-size:60px;"">+</div>","null","","","","","","","","","",""
"","html-keyboard-response","201","581284","0.0-12.0-1.3","w6tl5wxxfo","one_one","1","direct_first","1","ig09nn27","0","23","1","1","3","1","null","","","<img src = 'category1/ma.png' width = '100%;'>","null","","","","","","","","","",""
"","html-keyboard-response","202","581546","0.0-12.0-2.3","w6tl5wxxfo","one_one","1","direct_first","1","ig09nn27","0","23","1","1","3","1","null","","","<img src = 'targets/2.png' width = '100%;'>","null","","","","","","","","","",""
"","html-keyboard-response","203","581943","0.0-12.0-3.3","w6tl5wxxfo","one_one","1","direct_first","1","ig09nn27","0","23","1","1","3","1","396.1049999999814","","","<img src = 'targets/mask.png' width = '100%;'>","68","pos","GS","abstract","1","category1/ma.png","","targets/2.png","indirect","0","19"
"","html-keyboard-response","204","583455","0.0-12.0-0.4","w6tl5wxxfo","one_one","1","direct_first","1","ig09nn27","0","23","1","1","3","1","null","","","<div style=""font-size:60px;"">+</div>","null","","","","","","","","","",""
"","html-keyboard-response","205","583548","0.0-12.0-1.4","w6tl5wxxfo","one_one","1","direct_first","1","ig09nn27","0","23","1","1","3","1","null","","","<img src = 'category2/GS3.png' width = '100%;'>","null","","","","","","","","","",""
"","html-keyboard-response","206","583811","0.0-12.0-2.4","w6tl5wxxfo","one_one","1","direct_first","1","ig09nn27","0","23","1","1","3","1","null","","","<img src = 'targets/8.png' width = '100%;'>","null","","","","","","","","","",""
"","html-keyboard-response","207","584001","0.0-12.0-3.4","w6tl5wxxfo","one_one","1","direct_first","1","ig09nn27","0","23","1","1","3","1","189.7599999998929","","","<img src = 'targets/mask.png' width = '100%;'>","75","pos","GS","GSnew","2","category2/GS3.png","","targets/8.png","indirect","1","20"
"","html-keyboard-response","208","585518","0.0-12.0-0.5","w6tl5wxxfo","one_one","1","direct_first","1","ig09nn27","0","23","1","1","3","1","null","","","<div style=""font-size:60px;"">+</div>","null","","","","","","","","","",""
"","html-keyboard-response","209","585613","0.0-12.0-1.5","w6tl5wxxfo","one_one","1","direct_first","1","ig09nn27","0","23","1","1","3","1","null","","","<img src = 'category4/GS2.png' width = '100%;'>","null","","","","","","","","","",""
"","html-keyboard-response","210","585875","0.0-12.0-2.5","w6tl5wxxfo","one_one","1","direct_first","1","ig09nn27","0","23","1","1","3","1","null","","","<img src = 'targets/22.png' width = '100%;'>","null","","","","","","","","","",""
"","html-keyboard-response","211","586114","0.0-12.0-3.5","w6tl5wxxfo","one_one","1","direct_first","1","ig09nn27","0","23","1","1","3","1","237.74499999999534","","","<img src = 'targets/mask.png' width = '100%;'>","68","neg","GS","GSnew","4","category4/GS2.png","","targets/22.png","indirect","0","21"
"","html-keyboard-response","212","587633","0.0-12.0-0.6","w6tl5wxxfo","one_one","1","direct_first","1","ig09nn27","0","23","1","1","3","1","null","","","<div style=""font-size:60px;"">+</div>","null","","","","","","","","","",""
"","html-keyboard-response","213","587728","0.0-12.0-1.6","w6tl5wxxfo","one_one","1","direct_first","1","ig09nn27","0","23","1","1","3","1","null","","","<img src = 'category3/wang.png' width = '100%;'>","null","","","","","","","","","",""
"","html-keyboard-response","214","587989","0.0-12.0-2.6","w6tl5wxxfo","one_one","1","direct_first","1","ig09nn27","0","23","1","1","3","1","null","","","<img src = 'targets/27.png' width = '100%;'>","null","","","","","","","","","",""
"","html-keyboard-response","215","588226","0.0-12.0-3.6","w6tl5wxxfo","one_one","1","direct_first","1","ig09nn27","0","23","1","1","3","1","236.01500000001397","","","<img src = 'targets/mask.png' width = '100%;'>","68","neg","GS","abstract","3","category3/wang.png","","targets/27.png","indirect","0","22"
"","html-keyboard-response","216","589732","0.0-12.0-0.7","w6tl5wxxfo","one_one","1","direct_first","1","ig09nn27","0","23","1","1","3","1","null","","","<div style=""font-size:60px;"">+</div>","null","","","","","","","","","",""
"","html-keyboard-response","217","589826","0.0-12.0-1.7","w6tl5wxxfo","one_one","1","direct_first","1","ig09nn27","0","23","1","1","3","1","null","","","<img src = 'category2/GS2.png' width = '100%;'>","null","","","","","","","","","",""
"","html-keyboard-response","218","590089","0.0-12.0-2.7","w6tl5wxxfo","one_one","1","direct_first","1","ig09nn27","0","23","1","1","3","1","null","","","<img src = 'targets/48.png' width = '100%;'>","null","","","","","","","","","",""
"","html-keyboard-response","219","590261","0.0-12.0-3.7","w6tl5wxxfo","one_one","1","direct_first","1","ig09nn27","0","23","1","1","3","1","171.11999999999534","","","<img src = 'targets/mask.png' width = '100%;'>","75","pos","GS","GSnew","2","category2/GS2.png","","targets/48.png","indirect","1","23"
"","html-keyboard-response","220","591779","0.0-12.0-0.8","w6tl5wxxfo","one_one","1","direct_first","1","ig09nn27","0","23","1","1","3","1","null","","","<div style=""font-size:60px;"">+</div>","null","","","","","","","","","",""
"","html-keyboard-response","221","591874","0.0-12.0-1.8","w6tl5wxxfo","one_one","1","direct_first","1","ig09nn27","0","23","1","1","3","1","null","","","<img src = 'category1/GS3.png' width = '100%;'>","null","","","","","","","","","",""
"","html-keyboard-response","222","592135","0.0-12.0-2.8","w6tl5wxxfo","one_one","1","direct_first","1","ig09nn27","0","23","1","1","3","1","null","","","<img src = 'targets/17.png' width = '100%;'>","null","","","","","","","","","",""
"","html-keyboard-response","223","592341","0.0-12.0-3.8","w6tl5wxxfo","one_one","1","direct_first","1","ig09nn27","0","23","1","1","3","1","204.43999999994412","","","<img src = 'targets/mask.png' width = '100%;'>","68","pos","GS","GSnew","1","category1/GS3.png","","targets/17.png","indirect","0","24"
"","html-keyboard-response","224","593860","0.0-12.0-0.9","w6tl5wxxfo","one_one","1","direct_first","1","ig09nn27","0","23","1","1","3","1","null","","","<div style=""font-size:60px;"">+</div>","null","","","","","","","","","",""
"","html-keyboard-response","225","593955","0.0-12.0-1.9","w6tl5wxxfo","one_one","1","direct_first","1","ig09nn27","0","23","1","1","3","1","null","","","<img src = 'category2/men.png' width = '100%;'>","null","","","","","","","","","",""
"","html-keyboard-response","226","594217","0.0-12.0-2.9","w6tl5wxxfo","one_one","1","direct_first","1","ig09nn27","0","23","1","1","3","1","null","","","<img src = 'targets/30.png' width = '100%;'>","null","","","","","","","","","",""
"","html-keyboard-response","227","594511","0.0-12.0-3.9","w6tl5wxxfo","one_one","1","direct_first","1","ig09nn27","0","23","1","1","3","1","293.875","","","<img src = 'targets/mask.png' width = '100%;'>","75","pos","GS","abstract","2","category2/men.png","","targets/30.png","indirect","1","25"
"","html-keyboard-response","228","596042","0.0-12.0-0.10","w6tl5wxxfo","one_one","1","direct_first","1","ig09nn27","0","23","1","1","3","1","null","","","<div style=""font-size:60px;"">+</div>","null","","","","","","","","","",""
"","html-keyboard-response","229","596135","0.0-12.0-1.10","w6tl5wxxfo","one_one","1","direct_first","1","ig09nn27","0","23","1","1","3","1","null","","","<img src = 'category1/GS1.png' width = '100%;'>","null","","","","","","","","","",""
"","html-keyboard-response","230","596398","0.0-12.0-2.10","w6tl5wxxfo","one_one","1","direct_first","1","ig09nn27","0","23","1","1","3","1","null","","","<img src = 'targets/46.png' width = '100%;'>","null","","","","","","","","","",""
"","html-keyboard-response","231","596751","0.0-12.0-3.10","w6tl5wxxfo","one_one","1","direct_first","1","ig09nn27","0","23","1","1","3","1","352.5299999999115","","","<img src = 'targets/mask.png' width = '100%;'>","68","pos","GS","GSnew","1","category1/GS1.png","","targets/46.png","indirect","0","26"
"","html-keyboard-response","232","598257","0.0-12.0-0.11","w6tl5wxxfo","one_one","1","direct_first","1","ig09nn27","0","23","1","1","3","1","null","","","<div style=""font-size:60px;"">+</div>","null","","","","","","","","","",""
"","html-keyboard-response","233","598350","0.0-12.0-1.11","w6tl5wxxfo","one_one","1","direct_first","1","ig09nn27","0","23","1","1","3","1","null","","","<img src = 'category4/lin.png' width = '100%;'>","null","","","","","","","","","",""
"","html-keyboard-response","234","598612","0.0-12.0-2.11","w6tl5wxxfo","one_one","1","direct_first","1","ig09nn27","0","23","1","1","3","1","null","","","<img src = 'targets/38.png' width = '100%;'>","null","","","","","","","","","",""
"","html-keyboard-response","235","598874","0.0-12.0-3.11","w6tl5wxxfo","one_one","1","direct_first","1","ig09nn27","0","23","1","1","3","1","260.53999999992084","","","<img src = 'targets/mask.png' width = '100%;'>","75","neg","GS","abstract","4","category4/lin.png","","targets/38.png","indirect","1","27"
"","html-keyboard-response","236","600405","0.0-12.0-0.12","w6tl5wxxfo","one_one","1","direct_first","1","ig09nn27","0","23","1","1","3","1","null","","","<div style=""font-size:60px;"">+</div>","null","","","","","","","","","",""
"","html-keyboard-response","237","600498","0.0-12.0-1.12","w6tl5wxxfo","one_one","1","direct_first","1","ig09nn27","0","23","1","1","3","1","null","","","<img src = 'category1/GS2.png' width = '100%;'>","null","","","","","","","","","",""
"","html-keyboard-response","238","600760","0.0-12.0-2.12","w6tl5wxxfo","one_one","1","direct_first","1","ig09nn27","0","23","1","1","3","1","null","","","<img src = 'targets/4.png' width = '100%;'>","null","","","","","","","","","",""
"","html-keyboard-response","239","600961","0.0-12.0-3.12","w6tl5wxxfo","one_one","1","direct_first","1","ig09nn27","0","23","1","1","3","1","199.56500000006054","","","<img src = 'targets/mask.png' width = '100%;'>","68","pos","GS","GSnew","1","category1/GS2.png","","targets/4.png","indirect","0","28"
"","html-keyboard-response","240","602472","0.0-12.0-0.13","w6tl5wxxfo","one_one","1","direct_first","1","ig09nn27","0","23","1","1","3","1","null","","","<div style=""font-size:60px;"">+</div>","null","","","","","","","","","",""
"","html-keyboard-response","241","602563","0.0-12.0-1.13","w6tl5wxxfo","one_one","1","direct_first","1","ig09nn27","0","23","1","1","3","1","null","","","<img src = 'category4/GS1.png' width = '100%;'>","null","","","","","","","","","",""
"","html-keyboard-response","242","602826","0.0-12.0-2.13","w6tl5wxxfo","one_one","1","direct_first","1","ig09nn27","0","23","1","1","3","1","null","","","<img src = 'targets/40.png' width = '100%;'>","null","","","","","","","","","",""
"","html-keyboard-response","243","603186","0.0-12.0-3.13","w6tl5wxxfo","one_one","1","direct_first","1","ig09nn27","0","23","1","1","3","1","359.27000000013504","","","<img src = 'targets/mask.png' width = '100%;'>","68","neg","GS","GSnew","4","category4/GS1.png","","targets/40.png","indirect","0","29"
"","html-keyboard-response","244","604701","0.0-12.0-0.14","w6tl5wxxfo","one_one","1","direct_first","1","ig09nn27","0","23","1","1","3","1","null","","","<div style=""font-size:60px;"">+</div>","null","","","","","","","","","",""
"","html-keyboard-response","245","604793","0.0-12.0-1.14","w6tl5wxxfo","one_one","1","direct_first","1","ig09nn27","0","23","1","1","3","1","null","","","<img src = 'category4/GS3.png' width = '100%;'>","null","","","","","","","","","",""
"","html-keyboard-response","246","605057","0.0-12.0-2.14","w6tl5wxxfo","one_one","1","direct_first","1","ig09nn27","0","23","1","1","3","1","null","","","<img src = 'targets/10.png' width = '100%;'>","null","","","","","","","","","",""
"","html-keyboard-response","247","605269","0.0-12.0-3.14","w6tl5wxxfo","one_one","1","direct_first","1","ig09nn27","0","23","1","1","3","1","211.27999999991152","","","<img src = 'targets/mask.png' width = '100%;'>","75","neg","GS","GSnew","4","category4/GS3.png","","targets/10.png","indirect","1","30"
"","html-keyboard-response","248","606783","0.0-12.0-0.15","w6tl5wxxfo","one_one","1","direct_first","1","ig09nn27","0","23","1","1","3","1","null","","","<div style=""font-size:60px;"">+</div>","null","","","","","","","","","",""
"","html-keyboard-response","249","606875","0.0-12.0-1.15","w6tl5wxxfo","one_one","1","direct_first","1","ig09nn27","0","23","1","1","3","1","null","","","<img src = 'category3/GS3.png' width = '100%;'>","null","","","","","","","","","",""
"","html-keyboard-response","250","607138","0.0-12.0-2.15","w6tl5wxxfo","one_one","1","direct_first","1","ig09nn27","0","23","1","1","3","1","null","","","<img src = 'targets/13.png' width = '100%;'>","null","","","","","","","","","",""
"","html-keyboard-response","251","607285","0.0-12.0-3.15","w6tl5wxxfo","one_one","1","direct_first","1","ig09nn27","0","23","1","1","3","1","145.93499999993946","","","<img src = 'targets/mask.png' width = '100%;'>","68","neg","GS","GSnew","3","category3/GS3.png","","targets/13.png","indirect","0","31"
"","survey-html-form","252","613484","0.0-13.0","w6tl5wxxfo","one_one","1","direct_first","1","ig09nn27","0","23","1","1","3","1","5687.014999999898","","{}","","","","","","","","","","","",""
"","image-slider-response","253","618100","0.0-14.0-0.0","w6tl5wxxfo","one_one","1","direct_first","1","ig09nn27","0","23","1","1","3","1","3608.5049999998882","","","","","pos","All","all","1","category1/ma_all.png","96","","all","",""
"","image-slider-response","254","621353","0.0-14.0-0.1","w6tl5wxxfo","one_one","1","direct_first","1","ig09nn27","0","23","1","1","3","1","3251.289999999921","","","","","neg","All","all","4","category4/lin_all.png","14","","all","",""
"","image-slider-response","255","624118","0.0-14.0-0.2","w6tl5wxxfo","one_one","1","direct_first","1","ig09nn27","0","23","1","1","3","1","2763.694999999949","","","","","neg","All","all","3","category3/wang_all.png","-66","","all","",""
"","image-slider-response","256","626864","0.0-14.0-0.3","w6tl5wxxfo","one_one","1","direct_first","1","ig09nn27","0","23","1","1","3","1","2743.805000000051","","","","","pos","All","all","2","category2/men_all.png","100","","all","",""
"","survey-text","257","632100","0.0-15.0","w6tl5wxxfo","one_one","1","direct_first","1","ig09nn27","0","23","1","1","3","1","5218.625","","{""Q0"":""""}","","","","","","","","","","","",""
