"success","trial_type","trial_index","time_elapsed","internal_node_id","subject","condition","condition_code","measure","measure_code","codeword","gender","age","education","chinese","fach","handedness","comment","hinschauen","ablenkung","gewissenhaft","rt","url","responses","stimulus","key_press","val","type","type_specific","category","cs_selected","response","target","task","indirect","nr_pres"
"true","fullscreen","0","3673","0.0-0.0","osq0w7gol0","many_one","0","direct_first","1","ER06ST23","0","25","1","1","3","1","Ich fand es sehr schwierig, eine Antwort auf diese Fragen zu geben. Ich habe zwar immer aus dem ersten Gefühl heraus entschieden, habe mir aber auch immer kurz danach gedacht, dass ich auch genauso die andere Antwort hätte wählen können...","0","1","0","","","","","","","","","","","","","","",""
"","external-html","1","8983","0.0-1.0","osq0w7gol0","many_one","0","direct_first","1","ER06ST23","0","25","1","1","3","1","Ich fand es sehr schwierig, eine Antwort auf diese Fragen zu geben. Ich habe zwar immer aus dem ersten Gefühl heraus entschieden, habe mir aber auch immer kurz danach gedacht, dass ich auch genauso die andere Antwort hätte wählen können...","0","1","0","5248","text/information.html","","","","","","","","","","","","",""
"","external-html","2","19715","0.0-2.0","osq0w7gol0","many_one","0","direct_first","1","ER06ST23","0","25","1","1","3","1","Ich fand es sehr schwierig, eine Antwort auf diese Fragen zu geben. Ich habe zwar immer aus dem ersten Gefühl heraus entschieden, habe mir aber auch immer kurz danach gedacht, dass ich auch genauso die andere Antwort hätte wählen können...","0","1","0","10672","text/consent.html","","","","","","","","","","","","",""
"","survey-html-form","3","32032","0.0-3.0","osq0w7gol0","many_one","0","direct_first","1","ER06ST23","0","25","1","1","3","1","Ich fand es sehr schwierig, eine Antwort auf diese Fragen zu geben. Ich habe zwar immer aus dem ersten Gefühl heraus entschieden, habe mir aber auch immer kurz danach gedacht, dass ich auch genauso die andere Antwort hätte wählen können...","0","1","0","12314","","{""codeword_enter"":""ER06ST23""}","","","","","","","","","","","",""
"","survey-html-form","4","48606","0.0-4.0","osq0w7gol0","many_one","0","direct_first","1","ER06ST23","0","25","1","1","3","1","Ich fand es sehr schwierig, eine Antwort auf diese Fragen zu geben. Ich habe zwar immer aus dem ersten Gefühl heraus entschieden, habe mir aber auch immer kurz danach gedacht, dass ich auch genauso die andere Antwort hätte wählen können...","0","1","0","16566","","{""age"":""25"",""education"":""1"",""subject"":""3"",""gender"":""0"",""handedness"":""1"",""chinese"":""1""}","","","","","","","","","","","",""
"","survey-html-form","5","50312","0.0-5.0","osq0w7gol0","many_one","0","direct_first","1","ER06ST23","0","25","1","1","3","1","Ich fand es sehr schwierig, eine Antwort auf diese Fragen zu geben. Ich habe zwar immer aus dem ersten Gefühl heraus entschieden, habe mir aber auch immer kurz danach gedacht, dass ich auch genauso die andere Antwort hätte wählen können...","0","1","0","1700","","{}","","","","","","","","","","","",""
"","html-keyboard-response","6","54327","0.0-6.0-0.0-0.0","osq0w7gol0","many_one","0","direct_first","1","ER06ST23","0","25","1","1","3","1","Ich fand es sehr schwierig, eine Antwort auf diese Fragen zu geben. Ich habe zwar immer aus dem ersten Gefühl heraus entschieden, habe mir aber auch immer kurz danach gedacht, dass ich auch genauso die andere Antwort hätte wählen können...","0","1","0","null","","","<div class = 'row'><div class = 'column'><img src = 'usneg/9280.bmp' width = '100%;'></div><div class = 'column'><img src = 'category2/CS1.png' width = '70%;'></div></div>","null","neg","CS","CS","2","category2/CS1.png","","","","",""
"","html-keyboard-response","7","56854","0.0-6.0-0.0-0.1","osq0w7gol0","many_one","0","direct_first","1","ER06ST23","0","25","1","1","3","1","Ich fand es sehr schwierig, eine Antwort auf diese Fragen zu geben. Ich habe zwar immer aus dem ersten Gefühl heraus entschieden, habe mir aber auch immer kurz danach gedacht, dass ich auch genauso die andere Antwort hätte wählen können...","0","1","0","null","","","<div class = 'row'><div class = 'column'><img src = 'usneg/9330.bmp' width = '100%;'></div><div class = 'column'><img src = 'category3/CS1.png' width = '70%;'></div></div>","null","neg","CS","CS","3","category3/CS1.png","","","","",""
"","html-keyboard-response","8","59384","0.0-6.0-0.0-0.2","osq0w7gol0","many_one","0","direct_first","1","ER06ST23","0","25","1","1","3","1","Ich fand es sehr schwierig, eine Antwort auf diese Fragen zu geben. Ich habe zwar immer aus dem ersten Gefühl heraus entschieden, habe mir aber auch immer kurz danach gedacht, dass ich auch genauso die andere Antwort hätte wählen können...","0","1","0","null","","","<div class = 'row'><div class = 'column'><img src = 'category1/CS10.png' width = '70%;'></div><div class = 'column'><img src = 'uspos/2040.bmp' width = '100%;'></div></div>","null","pos","CS","CS","1","category1/CS10.png","","","","",""
"","html-keyboard-response","9","61914","0.0-6.0-0.0-0.3","osq0w7gol0","many_one","0","direct_first","1","ER06ST23","0","25","1","1","3","1","Ich fand es sehr schwierig, eine Antwort auf diese Fragen zu geben. Ich habe zwar immer aus dem ersten Gefühl heraus entschieden, habe mir aber auch immer kurz danach gedacht, dass ich auch genauso die andere Antwort hätte wählen können...","0","1","0","null","","","<div class = 'row'><div class = 'column'><img src = 'uspos/5621.bmp' width = '100%;'></div><div class = 'column'><img src = 'category1/CS1.png' width = '70%;'></div></div>","null","pos","CS","CS","1","category1/CS1.png","","","","",""
"","html-keyboard-response","10","64440","0.0-6.0-0.0-0.4","osq0w7gol0","many_one","0","direct_first","1","ER06ST23","0","25","1","1","3","1","Ich fand es sehr schwierig, eine Antwort auf diese Fragen zu geben. Ich habe zwar immer aus dem ersten Gefühl heraus entschieden, habe mir aber auch immer kurz danach gedacht, dass ich auch genauso die andere Antwort hätte wählen können...","0","1","0","null","","","<div class = 'row'><div class = 'column'><img src = 'category3/CS3.png' width = '70%;'></div><div class = 'column'><img src = 'usneg/9342.bmp' width = '100%;'></div></div>","null","neg","CS","CS","3","category3/CS3.png","","","","",""
"","html-keyboard-response","11","66973","0.0-6.0-0.0-0.5","osq0w7gol0","many_one","0","direct_first","1","ER06ST23","0","25","1","1","3","1","Ich fand es sehr schwierig, eine Antwort auf diese Fragen zu geben. Ich habe zwar immer aus dem ersten Gefühl heraus entschieden, habe mir aber auch immer kurz danach gedacht, dass ich auch genauso die andere Antwort hätte wählen können...","0","1","0","null","","","<div class = 'row'><div class = 'column'><img src = 'usneg/6570.1.bmp' width = '100%;'></div><div class = 'column'><img src = 'category3/CS8.png' width = '70%;'></div></div>","null","neg","CS","CS","3","category3/CS8.png","","","","",""
"","html-keyboard-response","12","69515","0.0-6.0-0.0-0.6","osq0w7gol0","many_one","0","direct_first","1","ER06ST23","0","25","1","1","3","1","Ich fand es sehr schwierig, eine Antwort auf diese Fragen zu geben. Ich habe zwar immer aus dem ersten Gefühl heraus entschieden, habe mir aber auch immer kurz danach gedacht, dass ich auch genauso die andere Antwort hätte wählen können...","0","1","0","null","","","<div class = 'row'><div class = 'column'><img src = 'usneg/9041.bmp' width = '100%;'></div><div class = 'column'><img src = 'category3/CS4.png' width = '70%;'></div></div>","null","neg","CS","CS","3","category3/CS4.png","","","","",""
"","html-keyboard-response","13","72054","0.0-6.0-0.0-0.7","osq0w7gol0","many_one","0","direct_first","1","ER06ST23","0","25","1","1","3","1","Ich fand es sehr schwierig, eine Antwort auf diese Fragen zu geben. Ich habe zwar immer aus dem ersten Gefühl heraus entschieden, habe mir aber auch immer kurz danach gedacht, dass ich auch genauso die andere Antwort hätte wählen können...","0","1","0","null","","","<div class = 'row'><div class = 'column'><img src = 'category3/CS9.png' width = '70%;'></div><div class = 'column'><img src = 'usneg/2205.bmp' width = '100%;'></div></div>","null","neg","CS","CS","3","category3/CS9.png","","","","",""
"","html-keyboard-response","14","74584","0.0-6.0-0.0-0.8","osq0w7gol0","many_one","0","direct_first","1","ER06ST23","0","25","1","1","3","1","Ich fand es sehr schwierig, eine Antwort auf diese Fragen zu geben. Ich habe zwar immer aus dem ersten Gefühl heraus entschieden, habe mir aber auch immer kurz danach gedacht, dass ich auch genauso die andere Antwort hätte wählen können...","0","1","0","null","","","<div class = 'row'><div class = 'column'><img src = 'uspos/2340.bmp' width = '100%;'></div><div class = 'column'><img src = 'category4/CS9.png' width = '70%;'></div></div>","null","pos","CS","CS","4","category4/CS9.png","","","","",""
"","html-keyboard-response","15","77114","0.0-6.0-0.0-0.9","osq0w7gol0","many_one","0","direct_first","1","ER06ST23","0","25","1","1","3","1","Ich fand es sehr schwierig, eine Antwort auf diese Fragen zu geben. Ich habe zwar immer aus dem ersten Gefühl heraus entschieden, habe mir aber auch immer kurz danach gedacht, dass ich auch genauso die andere Antwort hätte wählen können...","0","1","0","null","","","<div class = 'row'><div class = 'column'><img src = 'uspos/8490.bmp' width = '100%;'></div><div class = 'column'><img src = 'category1/CS3.png' width = '70%;'></div></div>","null","pos","CS","CS","1","category1/CS3.png","","","","",""
"","html-keyboard-response","16","79634","0.0-6.0-0.0-0.10","osq0w7gol0","many_one","0","direct_first","1","ER06ST23","0","25","1","1","3","1","Ich fand es sehr schwierig, eine Antwort auf diese Fragen zu geben. Ich habe zwar immer aus dem ersten Gefühl heraus entschieden, habe mir aber auch immer kurz danach gedacht, dass ich auch genauso die andere Antwort hätte wählen können...","0","1","0","null","","","<div class = 'row'><div class = 'column'><img src = 'usneg/3160.bmp' width = '100%;'></div><div class = 'column'><img src = 'category2/CS8.png' width = '70%;'></div></div>","null","neg","CS","CS","2","category2/CS8.png","","","","",""
"","html-keyboard-response","17","82174","0.0-6.0-0.0-0.11","osq0w7gol0","many_one","0","direct_first","1","ER06ST23","0","25","1","1","3","1","Ich fand es sehr schwierig, eine Antwort auf diese Fragen zu geben. Ich habe zwar immer aus dem ersten Gefühl heraus entschieden, habe mir aber auch immer kurz danach gedacht, dass ich auch genauso die andere Antwort hätte wählen können...","0","1","0","null","","","<div class = 'row'><div class = 'column'><img src = 'uspos/2550.bmp' width = '100%;'></div><div class = 'column'><img src = 'category1/CS2.png' width = '70%;'></div></div>","null","pos","CS","CS","1","category1/CS2.png","","","","",""
"","html-keyboard-response","18","84703","0.0-6.0-0.0-0.12","osq0w7gol0","many_one","0","direct_first","1","ER06ST23","0","25","1","1","3","1","Ich fand es sehr schwierig, eine Antwort auf diese Fragen zu geben. Ich habe zwar immer aus dem ersten Gefühl heraus entschieden, habe mir aber auch immer kurz danach gedacht, dass ich auch genauso die andere Antwort hätte wählen können...","0","1","0","null","","","<div class = 'row'><div class = 'column'><img src = 'category2/CS3.png' width = '70%;'></div><div class = 'column'><img src = 'usneg/6020.bmp' width = '100%;'></div></div>","null","neg","CS","CS","2","category2/CS3.png","","","","",""
"","html-keyboard-response","19","87235","0.0-6.0-0.0-0.13","osq0w7gol0","many_one","0","direct_first","1","ER06ST23","0","25","1","1","3","1","Ich fand es sehr schwierig, eine Antwort auf diese Fragen zu geben. Ich habe zwar immer aus dem ersten Gefühl heraus entschieden, habe mir aber auch immer kurz danach gedacht, dass ich auch genauso die andere Antwort hätte wählen können...","0","1","0","null","","","<div class = 'row'><div class = 'column'><img src = 'category1/CS4.png' width = '70%;'></div><div class = 'column'><img src = 'uspos/5831.bmp' width = '100%;'></div></div>","null","pos","CS","CS","1","category1/CS4.png","","","","",""
"","html-keyboard-response","20","89763","0.0-6.0-0.0-0.14","osq0w7gol0","many_one","0","direct_first","1","ER06ST23","0","25","1","1","3","1","Ich fand es sehr schwierig, eine Antwort auf diese Fragen zu geben. Ich habe zwar immer aus dem ersten Gefühl heraus entschieden, habe mir aber auch immer kurz danach gedacht, dass ich auch genauso die andere Antwort hätte wählen können...","0","1","0","null","","","<div class = 'row'><div class = 'column'><img src = 'category2/CS2.png' width = '70%;'></div><div class = 'column'><img src = 'usneg/1280.bmp' width = '100%;'></div></div>","null","neg","CS","CS","2","category2/CS2.png","","","","",""
"","html-keyboard-response","21","92303","0.0-6.0-0.0-0.15","osq0w7gol0","many_one","0","direct_first","1","ER06ST23","0","25","1","1","3","1","Ich fand es sehr schwierig, eine Antwort auf diese Fragen zu geben. Ich habe zwar immer aus dem ersten Gefühl heraus entschieden, habe mir aber auch immer kurz danach gedacht, dass ich auch genauso die andere Antwort hätte wählen können...","0","1","0","null","","","<div class = 'row'><div class = 'column'><img src = 'usneg/9180.bmp' width = '100%;'></div><div class = 'column'><img src = 'category2/CS6.png' width = '70%;'></div></div>","null","neg","CS","CS","2","category2/CS6.png","","","","",""
"","html-keyboard-response","22","94834","0.0-6.0-0.0-0.16","osq0w7gol0","many_one","0","direct_first","1","ER06ST23","0","25","1","1","3","1","Ich fand es sehr schwierig, eine Antwort auf diese Fragen zu geben. Ich habe zwar immer aus dem ersten Gefühl heraus entschieden, habe mir aber auch immer kurz danach gedacht, dass ich auch genauso die andere Antwort hätte wählen können...","0","1","0","null","","","<div class = 'row'><div class = 'column'><img src = 'category4/CS5.png' width = '70%;'></div><div class = 'column'><img src = 'uspos/4625.bmp' width = '100%;'></div></div>","null","pos","CS","CS","4","category4/CS5.png","","","","",""
"","html-keyboard-response","23","97364","0.0-6.0-0.0-0.17","osq0w7gol0","many_one","0","direct_first","1","ER06ST23","0","25","1","1","3","1","Ich fand es sehr schwierig, eine Antwort auf diese Fragen zu geben. Ich habe zwar immer aus dem ersten Gefühl heraus entschieden, habe mir aber auch immer kurz danach gedacht, dass ich auch genauso die andere Antwort hätte wählen können...","0","1","0","null","","","<div class = 'row'><div class = 'column'><img src = 'uspos/2165.bmp' width = '100%;'></div><div class = 'column'><img src = 'category4/CS10.png' width = '70%;'></div></div>","null","pos","CS","CS","4","category4/CS10.png","","","","",""
"","html-keyboard-response","24","99884","0.0-6.0-0.0-0.18","osq0w7gol0","many_one","0","direct_first","1","ER06ST23","0","25","1","1","3","1","Ich fand es sehr schwierig, eine Antwort auf diese Fragen zu geben. Ich habe zwar immer aus dem ersten Gefühl heraus entschieden, habe mir aber auch immer kurz danach gedacht, dass ich auch genauso die andere Antwort hätte wählen können...","0","1","0","null","","","<div class = 'row'><div class = 'column'><img src = 'uspos/2360.bmp' width = '100%;'></div><div class = 'column'><img src = 'category4/CS7.png' width = '70%;'></div></div>","null","pos","CS","CS","4","category4/CS7.png","","","","",""
"","html-keyboard-response","25","102424","0.0-6.0-0.0-0.19","osq0w7gol0","many_one","0","direct_first","1","ER06ST23","0","25","1","1","3","1","Ich fand es sehr schwierig, eine Antwort auf diese Fragen zu geben. Ich habe zwar immer aus dem ersten Gefühl heraus entschieden, habe mir aber auch immer kurz danach gedacht, dass ich auch genauso die andere Antwort hätte wählen können...","0","1","0","null","","","<div class = 'row'><div class = 'column'><img src = 'uspos/8540.bmp' width = '100%;'></div><div class = 'column'><img src = 'category4/CS2.png' width = '70%;'></div></div>","null","pos","CS","CS","4","category4/CS2.png","","","","",""
"","survey-html-form","26","104699","0.0-6.0-1.0","osq0w7gol0","many_one","0","direct_first","1","ER06ST23","0","25","1","1","3","1","Ich fand es sehr schwierig, eine Antwort auf diese Fragen zu geben. Ich habe zwar immer aus dem ersten Gefühl heraus entschieden, habe mir aber auch immer kurz danach gedacht, dass ich auch genauso die andere Antwort hätte wählen können...","0","1","0","1754","","{}","","","","","","","","","","","",""
"","html-keyboard-response","27","108725","0.0-6.0-2.0-0.0","osq0w7gol0","many_one","0","direct_first","1","ER06ST23","0","25","1","1","3","1","Ich fand es sehr schwierig, eine Antwort auf diese Fragen zu geben. Ich habe zwar immer aus dem ersten Gefühl heraus entschieden, habe mir aber auch immer kurz danach gedacht, dass ich auch genauso die andere Antwort hätte wählen können...","0","1","0","null","","","<div class = 'row'><div class = 'column'><img src = 'category1/CS4.png' width = '70%;'></div><div class = 'column'><img src = 'uspos/5831.bmp' width = '100%;'></div></div>","null","pos","CS","CS","1","category1/CS4.png","","","","",""
"","html-keyboard-response","28","111254","0.0-6.0-2.0-0.1","osq0w7gol0","many_one","0","direct_first","1","ER06ST23","0","25","1","1","3","1","Ich fand es sehr schwierig, eine Antwort auf diese Fragen zu geben. Ich habe zwar immer aus dem ersten Gefühl heraus entschieden, habe mir aber auch immer kurz danach gedacht, dass ich auch genauso die andere Antwort hätte wählen können...","0","1","0","null","","","<div class = 'row'><div class = 'column'><img src = 'usneg/2205.bmp' width = '100%;'></div><div class = 'column'><img src = 'category3/CS9.png' width = '70%;'></div></div>","null","neg","CS","CS","3","category3/CS9.png","","","","",""
"","html-keyboard-response","29","113794","0.0-6.0-2.0-0.2","osq0w7gol0","many_one","0","direct_first","1","ER06ST23","0","25","1","1","3","1","Ich fand es sehr schwierig, eine Antwort auf diese Fragen zu geben. Ich habe zwar immer aus dem ersten Gefühl heraus entschieden, habe mir aber auch immer kurz danach gedacht, dass ich auch genauso die andere Antwort hätte wählen können...","0","1","0","null","","","<div class = 'row'><div class = 'column'><img src = 'category2/CS6.png' width = '70%;'></div><div class = 'column'><img src = 'usneg/9180.bmp' width = '100%;'></div></div>","null","neg","CS","CS","2","category2/CS6.png","","","","",""
"","html-keyboard-response","30","116314","0.0-6.0-2.0-0.3","osq0w7gol0","many_one","0","direct_first","1","ER06ST23","0","25","1","1","3","1","Ich fand es sehr schwierig, eine Antwort auf diese Fragen zu geben. Ich habe zwar immer aus dem ersten Gefühl heraus entschieden, habe mir aber auch immer kurz danach gedacht, dass ich auch genauso die andere Antwort hätte wählen können...","0","1","0","null","","","<div class = 'row'><div class = 'column'><img src = 'usneg/6020.bmp' width = '100%;'></div><div class = 'column'><img src = 'category2/CS3.png' width = '70%;'></div></div>","null","neg","CS","CS","2","category2/CS3.png","","","","",""
"","html-keyboard-response","31","118854","0.0-6.0-2.0-0.4","osq0w7gol0","many_one","0","direct_first","1","ER06ST23","0","25","1","1","3","1","Ich fand es sehr schwierig, eine Antwort auf diese Fragen zu geben. Ich habe zwar immer aus dem ersten Gefühl heraus entschieden, habe mir aber auch immer kurz danach gedacht, dass ich auch genauso die andere Antwort hätte wählen können...","0","1","0","null","","","<div class = 'row'><div class = 'column'><img src = 'category4/CS9.png' width = '70%;'></div><div class = 'column'><img src = 'uspos/2340.bmp' width = '100%;'></div></div>","null","pos","CS","CS","4","category4/CS9.png","","","","",""
"","html-keyboard-response","32","121383","0.0-6.0-2.0-0.5","osq0w7gol0","many_one","0","direct_first","1","ER06ST23","0","25","1","1","3","1","Ich fand es sehr schwierig, eine Antwort auf diese Fragen zu geben. Ich habe zwar immer aus dem ersten Gefühl heraus entschieden, habe mir aber auch immer kurz danach gedacht, dass ich auch genauso die andere Antwort hätte wählen können...","0","1","0","null","","","<div class = 'row'><div class = 'column'><img src = 'usneg/1280.bmp' width = '100%;'></div><div class = 'column'><img src = 'category2/CS2.png' width = '70%;'></div></div>","null","neg","CS","CS","2","category2/CS2.png","","","","",""
"","html-keyboard-response","33","123894","0.0-6.0-2.0-0.6","osq0w7gol0","many_one","0","direct_first","1","ER06ST23","0","25","1","1","3","1","Ich fand es sehr schwierig, eine Antwort auf diese Fragen zu geben. Ich habe zwar immer aus dem ersten Gefühl heraus entschieden, habe mir aber auch immer kurz danach gedacht, dass ich auch genauso die andere Antwort hätte wählen können...","0","1","0","null","","","<div class = 'row'><div class = 'column'><img src = 'category3/CS4.png' width = '70%;'></div><div class = 'column'><img src = 'usneg/9041.bmp' width = '100%;'></div></div>","null","neg","CS","CS","3","category3/CS4.png","","","","",""
"","html-keyboard-response","34","126414","0.0-6.0-2.0-0.7","osq0w7gol0","many_one","0","direct_first","1","ER06ST23","0","25","1","1","3","1","Ich fand es sehr schwierig, eine Antwort auf diese Fragen zu geben. Ich habe zwar immer aus dem ersten Gefühl heraus entschieden, habe mir aber auch immer kurz danach gedacht, dass ich auch genauso die andere Antwort hätte wählen können...","0","1","0","null","","","<div class = 'row'><div class = 'column'><img src = 'category4/CS5.png' width = '70%;'></div><div class = 'column'><img src = 'uspos/4625.bmp' width = '100%;'></div></div>","null","pos","CS","CS","4","category4/CS5.png","","","","",""
"","html-keyboard-response","35","128934","0.0-6.0-2.0-0.8","osq0w7gol0","many_one","0","direct_first","1","ER06ST23","0","25","1","1","3","1","Ich fand es sehr schwierig, eine Antwort auf diese Fragen zu geben. Ich habe zwar immer aus dem ersten Gefühl heraus entschieden, habe mir aber auch immer kurz danach gedacht, dass ich auch genauso die andere Antwort hätte wählen können...","0","1","0","null","","","<div class = 'row'><div class = 'column'><img src = 'category4/CS10.png' width = '70%;'></div><div class = 'column'><img src = 'uspos/2165.bmp' width = '100%;'></div></div>","null","pos","CS","CS","4","category4/CS10.png","","","","",""
"","html-keyboard-response","36","131453","0.0-6.0-2.0-0.9","osq0w7gol0","many_one","0","direct_first","1","ER06ST23","0","25","1","1","3","1","Ich fand es sehr schwierig, eine Antwort auf diese Fragen zu geben. Ich habe zwar immer aus dem ersten Gefühl heraus entschieden, habe mir aber auch immer kurz danach gedacht, dass ich auch genauso die andere Antwort hätte wählen können...","0","1","0","null","","","<div class = 'row'><div class = 'column'><img src = 'category2/CS8.png' width = '70%;'></div><div class = 'column'><img src = 'usneg/3160.bmp' width = '100%;'></div></div>","null","neg","CS","CS","2","category2/CS8.png","","","","",""
"","html-keyboard-response","37","133993","0.0-6.0-2.0-0.10","osq0w7gol0","many_one","0","direct_first","1","ER06ST23","0","25","1","1","3","1","Ich fand es sehr schwierig, eine Antwort auf diese Fragen zu geben. Ich habe zwar immer aus dem ersten Gefühl heraus entschieden, habe mir aber auch immer kurz danach gedacht, dass ich auch genauso die andere Antwort hätte wählen können...","0","1","0","null","","","<div class = 'row'><div class = 'column'><img src = 'category3/CS8.png' width = '70%;'></div><div class = 'column'><img src = 'usneg/6570.1.bmp' width = '100%;'></div></div>","null","neg","CS","CS","3","category3/CS8.png","","","","",""
"","html-keyboard-response","38","136524","0.0-6.0-2.0-0.11","osq0w7gol0","many_one","0","direct_first","1","ER06ST23","0","25","1","1","3","1","Ich fand es sehr schwierig, eine Antwort auf diese Fragen zu geben. Ich habe zwar immer aus dem ersten Gefühl heraus entschieden, habe mir aber auch immer kurz danach gedacht, dass ich auch genauso die andere Antwort hätte wählen können...","0","1","0","null","","","<div class = 'row'><div class = 'column'><img src = 'uspos/2040.bmp' width = '100%;'></div><div class = 'column'><img src = 'category1/CS10.png' width = '70%;'></div></div>","null","pos","CS","CS","1","category1/CS10.png","","","","",""
"","html-keyboard-response","39","139054","0.0-6.0-2.0-0.12","osq0w7gol0","many_one","0","direct_first","1","ER06ST23","0","25","1","1","3","1","Ich fand es sehr schwierig, eine Antwort auf diese Fragen zu geben. Ich habe zwar immer aus dem ersten Gefühl heraus entschieden, habe mir aber auch immer kurz danach gedacht, dass ich auch genauso die andere Antwort hätte wählen können...","0","1","0","null","","","<div class = 'row'><div class = 'column'><img src = 'usneg/9330.bmp' width = '100%;'></div><div class = 'column'><img src = 'category3/CS1.png' width = '70%;'></div></div>","null","neg","CS","CS","3","category3/CS1.png","","","","",""
"","html-keyboard-response","40","141575","0.0-6.0-2.0-0.13","osq0w7gol0","many_one","0","direct_first","1","ER06ST23","0","25","1","1","3","1","Ich fand es sehr schwierig, eine Antwort auf diese Fragen zu geben. Ich habe zwar immer aus dem ersten Gefühl heraus entschieden, habe mir aber auch immer kurz danach gedacht, dass ich auch genauso die andere Antwort hätte wählen können...","0","1","0","null","","","<div class = 'row'><div class = 'column'><img src = 'category4/CS7.png' width = '70%;'></div><div class = 'column'><img src = 'uspos/2360.bmp' width = '100%;'></div></div>","null","pos","CS","CS","4","category4/CS7.png","","","","",""
"","html-keyboard-response","41","144104","0.0-6.0-2.0-0.14","osq0w7gol0","many_one","0","direct_first","1","ER06ST23","0","25","1","1","3","1","Ich fand es sehr schwierig, eine Antwort auf diese Fragen zu geben. Ich habe zwar immer aus dem ersten Gefühl heraus entschieden, habe mir aber auch immer kurz danach gedacht, dass ich auch genauso die andere Antwort hätte wählen können...","0","1","0","null","","","<div class = 'row'><div class = 'column'><img src = 'uspos/8540.bmp' width = '100%;'></div><div class = 'column'><img src = 'category4/CS2.png' width = '70%;'></div></div>","null","pos","CS","CS","4","category4/CS2.png","","","","",""
"","html-keyboard-response","42","146634","0.0-6.0-2.0-0.15","osq0w7gol0","many_one","0","direct_first","1","ER06ST23","0","25","1","1","3","1","Ich fand es sehr schwierig, eine Antwort auf diese Fragen zu geben. Ich habe zwar immer aus dem ersten Gefühl heraus entschieden, habe mir aber auch immer kurz danach gedacht, dass ich auch genauso die andere Antwort hätte wählen können...","0","1","0","null","","","<div class = 'row'><div class = 'column'><img src = 'category2/CS1.png' width = '70%;'></div><div class = 'column'><img src = 'usneg/9280.bmp' width = '100%;'></div></div>","null","neg","CS","CS","2","category2/CS1.png","","","","",""
"","html-keyboard-response","43","149167","0.0-6.0-2.0-0.16","osq0w7gol0","many_one","0","direct_first","1","ER06ST23","0","25","1","1","3","1","Ich fand es sehr schwierig, eine Antwort auf diese Fragen zu geben. Ich habe zwar immer aus dem ersten Gefühl heraus entschieden, habe mir aber auch immer kurz danach gedacht, dass ich auch genauso die andere Antwort hätte wählen können...","0","1","0","null","","","<div class = 'row'><div class = 'column'><img src = 'uspos/5621.bmp' width = '100%;'></div><div class = 'column'><img src = 'category1/CS1.png' width = '70%;'></div></div>","null","pos","CS","CS","1","category1/CS1.png","","","","",""
"","html-keyboard-response","44","151704","0.0-6.0-2.0-0.17","osq0w7gol0","many_one","0","direct_first","1","ER06ST23","0","25","1","1","3","1","Ich fand es sehr schwierig, eine Antwort auf diese Fragen zu geben. Ich habe zwar immer aus dem ersten Gefühl heraus entschieden, habe mir aber auch immer kurz danach gedacht, dass ich auch genauso die andere Antwort hätte wählen können...","0","1","0","null","","","<div class = 'row'><div class = 'column'><img src = 'uspos/2550.bmp' width = '100%;'></div><div class = 'column'><img src = 'category1/CS2.png' width = '70%;'></div></div>","null","pos","CS","CS","1","category1/CS2.png","","","","",""
"","html-keyboard-response","45","154226","0.0-6.0-2.0-0.18","osq0w7gol0","many_one","0","direct_first","1","ER06ST23","0","25","1","1","3","1","Ich fand es sehr schwierig, eine Antwort auf diese Fragen zu geben. Ich habe zwar immer aus dem ersten Gefühl heraus entschieden, habe mir aber auch immer kurz danach gedacht, dass ich auch genauso die andere Antwort hätte wählen können...","0","1","0","null","","","<div class = 'row'><div class = 'column'><img src = 'usneg/9342.bmp' width = '100%;'></div><div class = 'column'><img src = 'category3/CS3.png' width = '70%;'></div></div>","null","neg","CS","CS","3","category3/CS3.png","","","","",""
"","html-keyboard-response","46","156764","0.0-6.0-2.0-0.19","osq0w7gol0","many_one","0","direct_first","1","ER06ST23","0","25","1","1","3","1","Ich fand es sehr schwierig, eine Antwort auf diese Fragen zu geben. Ich habe zwar immer aus dem ersten Gefühl heraus entschieden, habe mir aber auch immer kurz danach gedacht, dass ich auch genauso die andere Antwort hätte wählen können...","0","1","0","null","","","<div class = 'row'><div class = 'column'><img src = 'category1/CS3.png' width = '70%;'></div><div class = 'column'><img src = 'uspos/8490.bmp' width = '100%;'></div></div>","null","pos","CS","CS","1","category1/CS3.png","","","","",""
"","survey-html-form","47","158369","0.0-6.0-3.0","osq0w7gol0","many_one","0","direct_first","1","ER06ST23","0","25","1","1","3","1","Ich fand es sehr schwierig, eine Antwort auf diese Fragen zu geben. Ich habe zwar immer aus dem ersten Gefühl heraus entschieden, habe mir aber auch immer kurz danach gedacht, dass ich auch genauso die andere Antwort hätte wählen können...","0","1","0","1084","","{}","","","","","","","","","","","",""
"","html-keyboard-response","48","162404","0.0-6.0-4.0-0.0","osq0w7gol0","many_one","0","direct_first","1","ER06ST23","0","25","1","1","3","1","Ich fand es sehr schwierig, eine Antwort auf diese Fragen zu geben. Ich habe zwar immer aus dem ersten Gefühl heraus entschieden, habe mir aber auch immer kurz danach gedacht, dass ich auch genauso die andere Antwort hätte wählen können...","0","1","0","null","","","<div class = 'row'><div class = 'column'><img src = 'category4/CS9.png' width = '70%;'></div><div class = 'column'><img src = 'uspos/2340.bmp' width = '100%;'></div></div>","null","pos","CS","CS","4","category4/CS9.png","","","","",""
"","html-keyboard-response","49","164935","0.0-6.0-4.0-0.1","osq0w7gol0","many_one","0","direct_first","1","ER06ST23","0","25","1","1","3","1","Ich fand es sehr schwierig, eine Antwort auf diese Fragen zu geben. Ich habe zwar immer aus dem ersten Gefühl heraus entschieden, habe mir aber auch immer kurz danach gedacht, dass ich auch genauso die andere Antwort hätte wählen können...","0","1","0","null","","","<div class = 'row'><div class = 'column'><img src = 'usneg/6570.1.bmp' width = '100%;'></div><div class = 'column'><img src = 'category3/CS8.png' width = '70%;'></div></div>","null","neg","CS","CS","3","category3/CS8.png","","","","",""
"","html-keyboard-response","50","167474","0.0-6.0-4.0-0.2","osq0w7gol0","many_one","0","direct_first","1","ER06ST23","0","25","1","1","3","1","Ich fand es sehr schwierig, eine Antwort auf diese Fragen zu geben. Ich habe zwar immer aus dem ersten Gefühl heraus entschieden, habe mir aber auch immer kurz danach gedacht, dass ich auch genauso die andere Antwort hätte wählen können...","0","1","0","null","","","<div class = 'row'><div class = 'column'><img src = 'usneg/9041.bmp' width = '100%;'></div><div class = 'column'><img src = 'category3/CS4.png' width = '70%;'></div></div>","null","neg","CS","CS","3","category3/CS4.png","","","","",""
"","html-keyboard-response","51","170014","0.0-6.0-4.0-0.3","osq0w7gol0","many_one","0","direct_first","1","ER06ST23","0","25","1","1","3","1","Ich fand es sehr schwierig, eine Antwort auf diese Fragen zu geben. Ich habe zwar immer aus dem ersten Gefühl heraus entschieden, habe mir aber auch immer kurz danach gedacht, dass ich auch genauso die andere Antwort hätte wählen können...","0","1","0","null","","","<div class = 'row'><div class = 'column'><img src = 'category4/CS2.png' width = '70%;'></div><div class = 'column'><img src = 'uspos/8540.bmp' width = '100%;'></div></div>","null","pos","CS","CS","4","category4/CS2.png","","","","",""
"","html-keyboard-response","52","172554","0.0-6.0-4.0-0.4","osq0w7gol0","many_one","0","direct_first","1","ER06ST23","0","25","1","1","3","1","Ich fand es sehr schwierig, eine Antwort auf diese Fragen zu geben. Ich habe zwar immer aus dem ersten Gefühl heraus entschieden, habe mir aber auch immer kurz danach gedacht, dass ich auch genauso die andere Antwort hätte wählen können...","0","1","0","null","","","<div class = 'row'><div class = 'column'><img src = 'category3/CS1.png' width = '70%;'></div><div class = 'column'><img src = 'usneg/9330.bmp' width = '100%;'></div></div>","null","neg","CS","CS","3","category3/CS1.png","","","","",""
"","html-keyboard-response","53","175084","0.0-6.0-4.0-0.5","osq0w7gol0","many_one","0","direct_first","1","ER06ST23","0","25","1","1","3","1","Ich fand es sehr schwierig, eine Antwort auf diese Fragen zu geben. Ich habe zwar immer aus dem ersten Gefühl heraus entschieden, habe mir aber auch immer kurz danach gedacht, dass ich auch genauso die andere Antwort hätte wählen können...","0","1","0","null","","","<div class = 'row'><div class = 'column'><img src = 'usneg/2205.bmp' width = '100%;'></div><div class = 'column'><img src = 'category3/CS9.png' width = '70%;'></div></div>","null","neg","CS","CS","3","category3/CS9.png","","","","",""
"","html-keyboard-response","54","177612","0.0-6.0-4.0-0.6","osq0w7gol0","many_one","0","direct_first","1","ER06ST23","0","25","1","1","3","1","Ich fand es sehr schwierig, eine Antwort auf diese Fragen zu geben. Ich habe zwar immer aus dem ersten Gefühl heraus entschieden, habe mir aber auch immer kurz danach gedacht, dass ich auch genauso die andere Antwort hätte wählen können...","0","1","0","null","","","<div class = 'row'><div class = 'column'><img src = 'category4/CS10.png' width = '70%;'></div><div class = 'column'><img src = 'uspos/2165.bmp' width = '100%;'></div></div>","null","pos","CS","CS","4","category4/CS10.png","","","","",""
"","html-keyboard-response","55","180124","0.0-6.0-4.0-0.7","osq0w7gol0","many_one","0","direct_first","1","ER06ST23","0","25","1","1","3","1","Ich fand es sehr schwierig, eine Antwort auf diese Fragen zu geben. Ich habe zwar immer aus dem ersten Gefühl heraus entschieden, habe mir aber auch immer kurz danach gedacht, dass ich auch genauso die andere Antwort hätte wählen können...","0","1","0","null","","","<div class = 'row'><div class = 'column'><img src = 'uspos/2550.bmp' width = '100%;'></div><div class = 'column'><img src = 'category1/CS2.png' width = '70%;'></div></div>","null","pos","CS","CS","1","category1/CS2.png","","","","",""
"","html-keyboard-response","56","182653","0.0-6.0-4.0-0.8","osq0w7gol0","many_one","0","direct_first","1","ER06ST23","0","25","1","1","3","1","Ich fand es sehr schwierig, eine Antwort auf diese Fragen zu geben. Ich habe zwar immer aus dem ersten Gefühl heraus entschieden, habe mir aber auch immer kurz danach gedacht, dass ich auch genauso die andere Antwort hätte wählen können...","0","1","0","null","","","<div class = 'row'><div class = 'column'><img src = 'category2/CS6.png' width = '70%;'></div><div class = 'column'><img src = 'usneg/9180.bmp' width = '100%;'></div></div>","null","neg","CS","CS","2","category2/CS6.png","","","","",""
"","html-keyboard-response","57","185164","0.0-6.0-4.0-0.9","osq0w7gol0","many_one","0","direct_first","1","ER06ST23","0","25","1","1","3","1","Ich fand es sehr schwierig, eine Antwort auf diese Fragen zu geben. Ich habe zwar immer aus dem ersten Gefühl heraus entschieden, habe mir aber auch immer kurz danach gedacht, dass ich auch genauso die andere Antwort hätte wählen können...","0","1","0","null","","","<div class = 'row'><div class = 'column'><img src = 'category1/CS10.png' width = '70%;'></div><div class = 'column'><img src = 'uspos/2040.bmp' width = '100%;'></div></div>","null","pos","CS","CS","1","category1/CS10.png","","","","",""
"","html-keyboard-response","58","187694","0.0-6.0-4.0-0.10","osq0w7gol0","many_one","0","direct_first","1","ER06ST23","0","25","1","1","3","1","Ich fand es sehr schwierig, eine Antwort auf diese Fragen zu geben. Ich habe zwar immer aus dem ersten Gefühl heraus entschieden, habe mir aber auch immer kurz danach gedacht, dass ich auch genauso die andere Antwort hätte wählen können...","0","1","0","null","","","<div class = 'row'><div class = 'column'><img src = 'category1/CS1.png' width = '70%;'></div><div class = 'column'><img src = 'uspos/5621.bmp' width = '100%;'></div></div>","null","pos","CS","CS","1","category1/CS1.png","","","","",""
"","html-keyboard-response","59","190234","0.0-6.0-4.0-0.11","osq0w7gol0","many_one","0","direct_first","1","ER06ST23","0","25","1","1","3","1","Ich fand es sehr schwierig, eine Antwort auf diese Fragen zu geben. Ich habe zwar immer aus dem ersten Gefühl heraus entschieden, habe mir aber auch immer kurz danach gedacht, dass ich auch genauso die andere Antwort hätte wählen können...","0","1","0","null","","","<div class = 'row'><div class = 'column'><img src = 'uspos/2360.bmp' width = '100%;'></div><div class = 'column'><img src = 'category4/CS7.png' width = '70%;'></div></div>","null","pos","CS","CS","4","category4/CS7.png","","","","",""
"","html-keyboard-response","60","192747","0.0-6.0-4.0-0.12","osq0w7gol0","many_one","0","direct_first","1","ER06ST23","0","25","1","1","3","1","Ich fand es sehr schwierig, eine Antwort auf diese Fragen zu geben. Ich habe zwar immer aus dem ersten Gefühl heraus entschieden, habe mir aber auch immer kurz danach gedacht, dass ich auch genauso die andere Antwort hätte wählen können...","0","1","0","null","","","<div class = 'row'><div class = 'column'><img src = 'category1/CS3.png' width = '70%;'></div><div class = 'column'><img src = 'uspos/8490.bmp' width = '100%;'></div></div>","null","pos","CS","CS","1","category1/CS3.png","","","","",""
"","html-keyboard-response","61","195264","0.0-6.0-4.0-0.13","osq0w7gol0","many_one","0","direct_first","1","ER06ST23","0","25","1","1","3","1","Ich fand es sehr schwierig, eine Antwort auf diese Fragen zu geben. Ich habe zwar immer aus dem ersten Gefühl heraus entschieden, habe mir aber auch immer kurz danach gedacht, dass ich auch genauso die andere Antwort hätte wählen können...","0","1","0","null","","","<div class = 'row'><div class = 'column'><img src = 'usneg/9342.bmp' width = '100%;'></div><div class = 'column'><img src = 'category3/CS3.png' width = '70%;'></div></div>","null","neg","CS","CS","3","category3/CS3.png","","","","",""
"","html-keyboard-response","62","197799","0.0-6.0-4.0-0.14","osq0w7gol0","many_one","0","direct_first","1","ER06ST23","0","25","1","1","3","1","Ich fand es sehr schwierig, eine Antwort auf diese Fragen zu geben. Ich habe zwar immer aus dem ersten Gefühl heraus entschieden, habe mir aber auch immer kurz danach gedacht, dass ich auch genauso die andere Antwort hätte wählen können...","0","1","0","null","","","<div class = 'row'><div class = 'column'><img src = 'category4/CS5.png' width = '70%;'></div><div class = 'column'><img src = 'uspos/4625.bmp' width = '100%;'></div></div>","null","pos","CS","CS","4","category4/CS5.png","","","","",""
"","html-keyboard-response","63","200345","0.0-6.0-4.0-0.15","osq0w7gol0","many_one","0","direct_first","1","ER06ST23","0","25","1","1","3","1","Ich fand es sehr schwierig, eine Antwort auf diese Fragen zu geben. Ich habe zwar immer aus dem ersten Gefühl heraus entschieden, habe mir aber auch immer kurz danach gedacht, dass ich auch genauso die andere Antwort hätte wählen können...","0","1","0","null","","","<div class = 'row'><div class = 'column'><img src = 'usneg/6020.bmp' width = '100%;'></div><div class = 'column'><img src = 'category2/CS3.png' width = '70%;'></div></div>","null","neg","CS","CS","2","category2/CS3.png","","","","",""
"","html-keyboard-response","64","202872","0.0-6.0-4.0-0.16","osq0w7gol0","many_one","0","direct_first","1","ER06ST23","0","25","1","1","3","1","Ich fand es sehr schwierig, eine Antwort auf diese Fragen zu geben. Ich habe zwar immer aus dem ersten Gefühl heraus entschieden, habe mir aber auch immer kurz danach gedacht, dass ich auch genauso die andere Antwort hätte wählen können...","0","1","0","null","","","<div class = 'row'><div class = 'column'><img src = 'category1/CS4.png' width = '70%;'></div><div class = 'column'><img src = 'uspos/5831.bmp' width = '100%;'></div></div>","null","pos","CS","CS","1","category1/CS4.png","","","","",""
"","html-keyboard-response","65","205404","0.0-6.0-4.0-0.17","osq0w7gol0","many_one","0","direct_first","1","ER06ST23","0","25","1","1","3","1","Ich fand es sehr schwierig, eine Antwort auf diese Fragen zu geben. Ich habe zwar immer aus dem ersten Gefühl heraus entschieden, habe mir aber auch immer kurz danach gedacht, dass ich auch genauso die andere Antwort hätte wählen können...","0","1","0","null","","","<div class = 'row'><div class = 'column'><img src = 'usneg/3160.bmp' width = '100%;'></div><div class = 'column'><img src = 'category2/CS8.png' width = '70%;'></div></div>","null","neg","CS","CS","2","category2/CS8.png","","","","",""
"","html-keyboard-response","66","207916","0.0-6.0-4.0-0.18","osq0w7gol0","many_one","0","direct_first","1","ER06ST23","0","25","1","1","3","1","Ich fand es sehr schwierig, eine Antwort auf diese Fragen zu geben. Ich habe zwar immer aus dem ersten Gefühl heraus entschieden, habe mir aber auch immer kurz danach gedacht, dass ich auch genauso die andere Antwort hätte wählen können...","0","1","0","null","","","<div class = 'row'><div class = 'column'><img src = 'category2/CS1.png' width = '70%;'></div><div class = 'column'><img src = 'usneg/9280.bmp' width = '100%;'></div></div>","null","neg","CS","CS","2","category2/CS1.png","","","","",""
"","html-keyboard-response","67","210433","0.0-6.0-4.0-0.19","osq0w7gol0","many_one","0","direct_first","1","ER06ST23","0","25","1","1","3","1","Ich fand es sehr schwierig, eine Antwort auf diese Fragen zu geben. Ich habe zwar immer aus dem ersten Gefühl heraus entschieden, habe mir aber auch immer kurz danach gedacht, dass ich auch genauso die andere Antwort hätte wählen können...","0","1","0","null","","","<div class = 'row'><div class = 'column'><img src = 'category2/CS2.png' width = '70%;'></div><div class = 'column'><img src = 'usneg/1280.bmp' width = '100%;'></div></div>","null","neg","CS","CS","2","category2/CS2.png","","","","",""
"","survey-html-form","68","245119","0.0-6.0-5.0","osq0w7gol0","many_one","0","direct_first","1","ER06ST23","0","25","1","1","3","1","Ich fand es sehr schwierig, eine Antwort auf diese Fragen zu geben. Ich habe zwar immer aus dem ersten Gefühl heraus entschieden, habe mir aber auch immer kurz danach gedacht, dass ich auch genauso die andere Antwort hätte wählen können...","0","1","0","34172","","{}","","","","","","","","","","","",""
"","html-keyboard-response","69","249133","0.0-6.0-6.0-0.0","osq0w7gol0","many_one","0","direct_first","1","ER06ST23","0","25","1","1","3","1","Ich fand es sehr schwierig, eine Antwort auf diese Fragen zu geben. Ich habe zwar immer aus dem ersten Gefühl heraus entschieden, habe mir aber auch immer kurz danach gedacht, dass ich auch genauso die andere Antwort hätte wählen können...","0","1","0","null","","","<div class = 'row'><div class = 'column'><img src = 'category1/CS2.png' width = '70%;'></div><div class = 'column'><img src = 'uspos/2550.bmp' width = '100%;'></div></div>","null","pos","CS","CS","1","category1/CS2.png","","","","",""
"","html-keyboard-response","70","251654","0.0-6.0-6.0-0.1","osq0w7gol0","many_one","0","direct_first","1","ER06ST23","0","25","1","1","3","1","Ich fand es sehr schwierig, eine Antwort auf diese Fragen zu geben. Ich habe zwar immer aus dem ersten Gefühl heraus entschieden, habe mir aber auch immer kurz danach gedacht, dass ich auch genauso die andere Antwort hätte wählen können...","0","1","0","null","","","<div class = 'row'><div class = 'column'><img src = 'uspos/8540.bmp' width = '100%;'></div><div class = 'column'><img src = 'category4/CS2.png' width = '70%;'></div></div>","null","pos","CS","CS","4","category4/CS2.png","","","","",""
"","html-keyboard-response","71","254184","0.0-6.0-6.0-0.2","osq0w7gol0","many_one","0","direct_first","1","ER06ST23","0","25","1","1","3","1","Ich fand es sehr schwierig, eine Antwort auf diese Fragen zu geben. Ich habe zwar immer aus dem ersten Gefühl heraus entschieden, habe mir aber auch immer kurz danach gedacht, dass ich auch genauso die andere Antwort hätte wählen können...","0","1","0","null","","","<div class = 'row'><div class = 'column'><img src = 'category1/CS1.png' width = '70%;'></div><div class = 'column'><img src = 'uspos/5621.bmp' width = '100%;'></div></div>","null","pos","CS","CS","1","category1/CS1.png","","","","",""
"","html-keyboard-response","72","256714","0.0-6.0-6.0-0.3","osq0w7gol0","many_one","0","direct_first","1","ER06ST23","0","25","1","1","3","1","Ich fand es sehr schwierig, eine Antwort auf diese Fragen zu geben. Ich habe zwar immer aus dem ersten Gefühl heraus entschieden, habe mir aber auch immer kurz danach gedacht, dass ich auch genauso die andere Antwort hätte wählen können...","0","1","0","null","","","<div class = 'row'><div class = 'column'><img src = 'category1/CS10.png' width = '70%;'></div><div class = 'column'><img src = 'uspos/2040.bmp' width = '100%;'></div></div>","null","pos","CS","CS","1","category1/CS10.png","","","","",""
"","html-keyboard-response","73","259247","0.0-6.0-6.0-0.4","osq0w7gol0","many_one","0","direct_first","1","ER06ST23","0","25","1","1","3","1","Ich fand es sehr schwierig, eine Antwort auf diese Fragen zu geben. Ich habe zwar immer aus dem ersten Gefühl heraus entschieden, habe mir aber auch immer kurz danach gedacht, dass ich auch genauso die andere Antwort hätte wählen können...","0","1","0","null","","","<div class = 'row'><div class = 'column'><img src = 'uspos/2165.bmp' width = '100%;'></div><div class = 'column'><img src = 'category4/CS10.png' width = '70%;'></div></div>","null","pos","CS","CS","4","category4/CS10.png","","","","",""
"","html-keyboard-response","74","261766","0.0-6.0-6.0-0.5","osq0w7gol0","many_one","0","direct_first","1","ER06ST23","0","25","1","1","3","1","Ich fand es sehr schwierig, eine Antwort auf diese Fragen zu geben. Ich habe zwar immer aus dem ersten Gefühl heraus entschieden, habe mir aber auch immer kurz danach gedacht, dass ich auch genauso die andere Antwort hätte wählen können...","0","1","0","null","","","<div class = 'row'><div class = 'column'><img src = 'category3/CS3.png' width = '70%;'></div><div class = 'column'><img src = 'usneg/9342.bmp' width = '100%;'></div></div>","null","neg","CS","CS","3","category3/CS3.png","","","","",""
"","html-keyboard-response","75","264284","0.0-6.0-6.0-0.6","osq0w7gol0","many_one","0","direct_first","1","ER06ST23","0","25","1","1","3","1","Ich fand es sehr schwierig, eine Antwort auf diese Fragen zu geben. Ich habe zwar immer aus dem ersten Gefühl heraus entschieden, habe mir aber auch immer kurz danach gedacht, dass ich auch genauso die andere Antwort hätte wählen können...","0","1","0","null","","","<div class = 'row'><div class = 'column'><img src = 'category2/CS6.png' width = '70%;'></div><div class = 'column'><img src = 'usneg/9180.bmp' width = '100%;'></div></div>","null","neg","CS","CS","2","category2/CS6.png","","","","",""
"","html-keyboard-response","76","266804","0.0-6.0-6.0-0.7","osq0w7gol0","many_one","0","direct_first","1","ER06ST23","0","25","1","1","3","1","Ich fand es sehr schwierig, eine Antwort auf diese Fragen zu geben. Ich habe zwar immer aus dem ersten Gefühl heraus entschieden, habe mir aber auch immer kurz danach gedacht, dass ich auch genauso die andere Antwort hätte wählen können...","0","1","0","null","","","<div class = 'row'><div class = 'column'><img src = 'category3/CS1.png' width = '70%;'></div><div class = 'column'><img src = 'usneg/9330.bmp' width = '100%;'></div></div>","null","neg","CS","CS","3","category3/CS1.png","","","","",""
"","html-keyboard-response","77","269340","0.0-6.0-6.0-0.8","osq0w7gol0","many_one","0","direct_first","1","ER06ST23","0","25","1","1","3","1","Ich fand es sehr schwierig, eine Antwort auf diese Fragen zu geben. Ich habe zwar immer aus dem ersten Gefühl heraus entschieden, habe mir aber auch immer kurz danach gedacht, dass ich auch genauso die andere Antwort hätte wählen können...","0","1","0","null","","","<div class = 'row'><div class = 'column'><img src = 'category2/CS1.png' width = '70%;'></div><div class = 'column'><img src = 'usneg/9280.bmp' width = '100%;'></div></div>","null","neg","CS","CS","2","category2/CS1.png","","","","",""
"","html-keyboard-response","78","271873","0.0-6.0-6.0-0.9","osq0w7gol0","many_one","0","direct_first","1","ER06ST23","0","25","1","1","3","1","Ich fand es sehr schwierig, eine Antwort auf diese Fragen zu geben. Ich habe zwar immer aus dem ersten Gefühl heraus entschieden, habe mir aber auch immer kurz danach gedacht, dass ich auch genauso die andere Antwort hätte wählen können...","0","1","0","null","","","<div class = 'row'><div class = 'column'><img src = 'usneg/6570.1.bmp' width = '100%;'></div><div class = 'column'><img src = 'category3/CS8.png' width = '70%;'></div></div>","null","neg","CS","CS","3","category3/CS8.png","","","","",""
"","html-keyboard-response","79","274403","0.0-6.0-6.0-0.10","osq0w7gol0","many_one","0","direct_first","1","ER06ST23","0","25","1","1","3","1","Ich fand es sehr schwierig, eine Antwort auf diese Fragen zu geben. Ich habe zwar immer aus dem ersten Gefühl heraus entschieden, habe mir aber auch immer kurz danach gedacht, dass ich auch genauso die andere Antwort hätte wählen können...","0","1","0","null","","","<div class = 'row'><div class = 'column'><img src = 'category1/CS4.png' width = '70%;'></div><div class = 'column'><img src = 'uspos/5831.bmp' width = '100%;'></div></div>","null","pos","CS","CS","1","category1/CS4.png","","","","",""
"","html-keyboard-response","80","276934","0.0-6.0-6.0-0.11","osq0w7gol0","many_one","0","direct_first","1","ER06ST23","0","25","1","1","3","1","Ich fand es sehr schwierig, eine Antwort auf diese Fragen zu geben. Ich habe zwar immer aus dem ersten Gefühl heraus entschieden, habe mir aber auch immer kurz danach gedacht, dass ich auch genauso die andere Antwort hätte wählen können...","0","1","0","null","","","<div class = 'row'><div class = 'column'><img src = 'category4/CS9.png' width = '70%;'></div><div class = 'column'><img src = 'uspos/2340.bmp' width = '100%;'></div></div>","null","pos","CS","CS","4","category4/CS9.png","","","","",""
"","html-keyboard-response","81","279469","0.0-6.0-6.0-0.12","osq0w7gol0","many_one","0","direct_first","1","ER06ST23","0","25","1","1","3","1","Ich fand es sehr schwierig, eine Antwort auf diese Fragen zu geben. Ich habe zwar immer aus dem ersten Gefühl heraus entschieden, habe mir aber auch immer kurz danach gedacht, dass ich auch genauso die andere Antwort hätte wählen können...","0","1","0","null","","","<div class = 'row'><div class = 'column'><img src = 'usneg/3160.bmp' width = '100%;'></div><div class = 'column'><img src = 'category2/CS8.png' width = '70%;'></div></div>","null","neg","CS","CS","2","category2/CS8.png","","","","",""
"","html-keyboard-response","82","281982","0.0-6.0-6.0-0.13","osq0w7gol0","many_one","0","direct_first","1","ER06ST23","0","25","1","1","3","1","Ich fand es sehr schwierig, eine Antwort auf diese Fragen zu geben. Ich habe zwar immer aus dem ersten Gefühl heraus entschieden, habe mir aber auch immer kurz danach gedacht, dass ich auch genauso die andere Antwort hätte wählen können...","0","1","0","null","","","<div class = 'row'><div class = 'column'><img src = 'category1/CS3.png' width = '70%;'></div><div class = 'column'><img src = 'uspos/8490.bmp' width = '100%;'></div></div>","null","pos","CS","CS","1","category1/CS3.png","","","","",""
"","html-keyboard-response","83","284491","0.0-6.0-6.0-0.14","osq0w7gol0","many_one","0","direct_first","1","ER06ST23","0","25","1","1","3","1","Ich fand es sehr schwierig, eine Antwort auf diese Fragen zu geben. Ich habe zwar immer aus dem ersten Gefühl heraus entschieden, habe mir aber auch immer kurz danach gedacht, dass ich auch genauso die andere Antwort hätte wählen können...","0","1","0","null","","","<div class = 'row'><div class = 'column'><img src = 'category3/CS4.png' width = '70%;'></div><div class = 'column'><img src = 'usneg/9041.bmp' width = '100%;'></div></div>","null","neg","CS","CS","3","category3/CS4.png","","","","",""
"","html-keyboard-response","84","287002","0.0-6.0-6.0-0.15","osq0w7gol0","many_one","0","direct_first","1","ER06ST23","0","25","1","1","3","1","Ich fand es sehr schwierig, eine Antwort auf diese Fragen zu geben. Ich habe zwar immer aus dem ersten Gefühl heraus entschieden, habe mir aber auch immer kurz danach gedacht, dass ich auch genauso die andere Antwort hätte wählen können...","0","1","0","null","","","<div class = 'row'><div class = 'column'><img src = 'usneg/2205.bmp' width = '100%;'></div><div class = 'column'><img src = 'category3/CS9.png' width = '70%;'></div></div>","null","neg","CS","CS","3","category3/CS9.png","","","","",""
"","html-keyboard-response","85","289523","0.0-6.0-6.0-0.16","osq0w7gol0","many_one","0","direct_first","1","ER06ST23","0","25","1","1","3","1","Ich fand es sehr schwierig, eine Antwort auf diese Fragen zu geben. Ich habe zwar immer aus dem ersten Gefühl heraus entschieden, habe mir aber auch immer kurz danach gedacht, dass ich auch genauso die andere Antwort hätte wählen können...","0","1","0","null","","","<div class = 'row'><div class = 'column'><img src = 'category2/CS2.png' width = '70%;'></div><div class = 'column'><img src = 'usneg/1280.bmp' width = '100%;'></div></div>","null","neg","CS","CS","2","category2/CS2.png","","","","",""
"","html-keyboard-response","86","292035","0.0-6.0-6.0-0.17","osq0w7gol0","many_one","0","direct_first","1","ER06ST23","0","25","1","1","3","1","Ich fand es sehr schwierig, eine Antwort auf diese Fragen zu geben. Ich habe zwar immer aus dem ersten Gefühl heraus entschieden, habe mir aber auch immer kurz danach gedacht, dass ich auch genauso die andere Antwort hätte wählen können...","0","1","0","null","","","<div class = 'row'><div class = 'column'><img src = 'category4/CS7.png' width = '70%;'></div><div class = 'column'><img src = 'uspos/2360.bmp' width = '100%;'></div></div>","null","pos","CS","CS","4","category4/CS7.png","","","","",""
"","html-keyboard-response","87","294547","0.0-6.0-6.0-0.18","osq0w7gol0","many_one","0","direct_first","1","ER06ST23","0","25","1","1","3","1","Ich fand es sehr schwierig, eine Antwort auf diese Fragen zu geben. Ich habe zwar immer aus dem ersten Gefühl heraus entschieden, habe mir aber auch immer kurz danach gedacht, dass ich auch genauso die andere Antwort hätte wählen können...","0","1","0","null","","","<div class = 'row'><div class = 'column'><img src = 'uspos/4625.bmp' width = '100%;'></div><div class = 'column'><img src = 'category4/CS5.png' width = '70%;'></div></div>","null","pos","CS","CS","4","category4/CS5.png","","","","",""
"","html-keyboard-response","88","297083","0.0-6.0-6.0-0.19","osq0w7gol0","many_one","0","direct_first","1","ER06ST23","0","25","1","1","3","1","Ich fand es sehr schwierig, eine Antwort auf diese Fragen zu geben. Ich habe zwar immer aus dem ersten Gefühl heraus entschieden, habe mir aber auch immer kurz danach gedacht, dass ich auch genauso die andere Antwort hätte wählen können...","0","1","0","null","","","<div class = 'row'><div class = 'column'><img src = 'category2/CS3.png' width = '70%;'></div><div class = 'column'><img src = 'usneg/6020.bmp' width = '100%;'></div></div>","null","neg","CS","CS","2","category2/CS3.png","","","","",""
"","survey-html-form","89","353049","0.0-7.0","osq0w7gol0","many_one","0","direct_first","1","ER06ST23","0","25","1","1","3","1","Ich fand es sehr schwierig, eine Antwort auf diese Fragen zu geben. Ich habe zwar immer aus dem ersten Gefühl heraus entschieden, habe mir aber auch immer kurz danach gedacht, dass ich auch genauso die andere Antwort hätte wählen können...","0","1","0","55454","","{}","","","","","","","","","","","",""
"","image-slider-response","90","360577","0.0-8.0-0.0","osq0w7gol0","many_one","0","direct_first","1","ER06ST23","0","25","1","1","3","1","Ich fand es sehr schwierig, eine Antwort auf diese Fragen zu geben. Ich habe zwar immer aus dem ersten Gefühl heraus entschieden, habe mir aber auch immer kurz danach gedacht, dass ich auch genauso die andere Antwort hätte wählen können...","0","1","0","5517","","","","","neg","GS","abstract","3","category3/wang.png","-7","targets/20.png","direct","",""
"","image-slider-response","91","365108","0.0-8.0-0.1","osq0w7gol0","many_one","0","direct_first","1","ER06ST23","0","25","1","1","3","1","Ich fand es sehr schwierig, eine Antwort auf diese Fragen zu geben. Ich habe zwar immer aus dem ersten Gefühl heraus entschieden, habe mir aber auch immer kurz danach gedacht, dass ich auch genauso die andere Antwort hätte wählen können...","0","1","0","4525","","","","","neg","CS","CS","3","category3/CS9.png","-40","targets/13.png","direct","",""
"","image-slider-response","92","367966","0.0-8.0-0.2","osq0w7gol0","many_one","0","direct_first","1","ER06ST23","0","25","1","1","3","1","Ich fand es sehr schwierig, eine Antwort auf diese Fragen zu geben. Ich habe zwar immer aus dem ersten Gefühl heraus entschieden, habe mir aber auch immer kurz danach gedacht, dass ich auch genauso die andere Antwort hätte wählen können...","0","1","0","2854","","","","","pos","CS","CS","1","category1/CS10.png","31","targets/33.png","direct","",""
"","image-slider-response","93","373468","0.0-8.0-0.3","osq0w7gol0","many_one","0","direct_first","1","ER06ST23","0","25","1","1","3","1","Ich fand es sehr schwierig, eine Antwort auf diese Fragen zu geben. Ich habe zwar immer aus dem ersten Gefühl heraus entschieden, habe mir aber auch immer kurz danach gedacht, dass ich auch genauso die andere Antwort hätte wählen können...","0","1","0","5496","","","","","neg","CS","CS","2","category2/CS8.png","-42","targets/23.png","direct","",""
"","image-slider-response","94","376687","0.0-8.0-0.4","osq0w7gol0","many_one","0","direct_first","1","ER06ST23","0","25","1","1","3","1","Ich fand es sehr schwierig, eine Antwort auf diese Fragen zu geben. Ich habe zwar immer aus dem ersten Gefühl heraus entschieden, habe mir aber auch immer kurz danach gedacht, dass ich auch genauso die andere Antwort hätte wählen können...","0","1","0","3216","","","","","pos","CS","CS","1","category1/CS3.png","37","targets/16.png","direct","",""
"","image-slider-response","95","379136","0.0-8.0-0.5","osq0w7gol0","many_one","0","direct_first","1","ER06ST23","0","25","1","1","3","1","Ich fand es sehr schwierig, eine Antwort auf diese Fragen zu geben. Ich habe zwar immer aus dem ersten Gefühl heraus entschieden, habe mir aber auch immer kurz danach gedacht, dass ich auch genauso die andere Antwort hätte wählen können...","0","1","0","2444","","","","","pos","GS","abstract","1","category1/ma.png","29","targets/7.png","direct","",""
"","image-slider-response","96","381847","0.0-8.0-0.6","osq0w7gol0","many_one","0","direct_first","1","ER06ST23","0","25","1","1","3","1","Ich fand es sehr schwierig, eine Antwort auf diese Fragen zu geben. Ich habe zwar immer aus dem ersten Gefühl heraus entschieden, habe mir aber auch immer kurz danach gedacht, dass ich auch genauso die andere Antwort hätte wählen können...","0","1","0","2705","","","","","pos","CS","CS","4","category4/CS5.png","1","targets/30.png","direct","",""
"","image-slider-response","97","384647","0.0-8.0-0.7","osq0w7gol0","many_one","0","direct_first","1","ER06ST23","0","25","1","1","3","1","Ich fand es sehr schwierig, eine Antwort auf diese Fragen zu geben. Ich habe zwar immer aus dem ersten Gefühl heraus entschieden, habe mir aber auch immer kurz danach gedacht, dass ich auch genauso die andere Antwort hätte wählen können...","0","1","0","2793","","","","","pos","CS","CS","4","category4/CS9.png","27","targets/9.png","direct","",""
"","image-slider-response","98","387857","0.0-8.0-0.8","osq0w7gol0","many_one","0","direct_first","1","ER06ST23","0","25","1","1","3","1","Ich fand es sehr schwierig, eine Antwort auf diese Fragen zu geben. Ich habe zwar immer aus dem ersten Gefühl heraus entschieden, habe mir aber auch immer kurz danach gedacht, dass ich auch genauso die andere Antwort hätte wählen können...","0","1","0","3209","","","","","neg","GS","GSnew","3","category3/GS1.png","-38","targets/44.png","direct","",""
"","image-slider-response","99","392337","0.0-8.0-0.9","osq0w7gol0","many_one","0","direct_first","1","ER06ST23","0","25","1","1","3","1","Ich fand es sehr schwierig, eine Antwort auf diese Fragen zu geben. Ich habe zwar immer aus dem ersten Gefühl heraus entschieden, habe mir aber auch immer kurz danach gedacht, dass ich auch genauso die andere Antwort hätte wählen können...","0","1","0","4471","","","","","pos","CS","CS","1","category1/CS4.png","38","targets/29.png","direct","",""
"","image-slider-response","100","395016","0.0-8.0-0.10","osq0w7gol0","many_one","0","direct_first","1","ER06ST23","0","25","1","1","3","1","Ich fand es sehr schwierig, eine Antwort auf diese Fragen zu geben. Ich habe zwar immer aus dem ersten Gefühl heraus entschieden, habe mir aber auch immer kurz danach gedacht, dass ich auch genauso die andere Antwort hätte wählen können...","0","1","0","2675","","","","","neg","CS","CS","2","category2/CS3.png","-28","targets/32.png","direct","",""
"","image-slider-response","101","399742","0.0-8.0-0.11","osq0w7gol0","many_one","0","direct_first","1","ER06ST23","0","25","1","1","3","1","Ich fand es sehr schwierig, eine Antwort auf diese Fragen zu geben. Ich habe zwar immer aus dem ersten Gefühl heraus entschieden, habe mir aber auch immer kurz danach gedacht, dass ich auch genauso die andere Antwort hätte wählen können...","0","1","0","4722","","","","","pos","GS","GSold","1","category1/CS8.png","16","targets/2.png","direct","",""
"","image-slider-response","102","404605","0.0-8.0-0.12","osq0w7gol0","many_one","0","direct_first","1","ER06ST23","0","25","1","1","3","1","Ich fand es sehr schwierig, eine Antwort auf diese Fragen zu geben. Ich habe zwar immer aus dem ersten Gefühl heraus entschieden, habe mir aber auch immer kurz danach gedacht, dass ich auch genauso die andere Antwort hätte wählen können...","0","1","0","4857","","","","","pos","GS","GSnew","4","category4/GS3.png","-24","targets/36.png","direct","",""
"","image-slider-response","103","407587","0.0-8.0-0.13","osq0w7gol0","many_one","0","direct_first","1","ER06ST23","0","25","1","1","3","1","Ich fand es sehr schwierig, eine Antwort auf diese Fragen zu geben. Ich habe zwar immer aus dem ersten Gefühl heraus entschieden, habe mir aber auch immer kurz danach gedacht, dass ich auch genauso die andere Antwort hätte wählen können...","0","1","0","2976","","","","","neg","GS","GSold","2","category2/CS7.png","-17","targets/25.png","direct","",""
"","image-slider-response","104","410367","0.0-8.0-0.14","osq0w7gol0","many_one","0","direct_first","1","ER06ST23","0","25","1","1","3","1","Ich fand es sehr schwierig, eine Antwort auf diese Fragen zu geben. Ich habe zwar immer aus dem ersten Gefühl heraus entschieden, habe mir aber auch immer kurz danach gedacht, dass ich auch genauso die andere Antwort hätte wählen können...","0","1","0","2775","","","","","pos","CS","CS","1","category1/CS1.png","20","targets/35.png","direct","",""
"","image-slider-response","105","412618","0.0-8.0-0.15","osq0w7gol0","many_one","0","direct_first","1","ER06ST23","0","25","1","1","3","1","Ich fand es sehr schwierig, eine Antwort auf diese Fragen zu geben. Ich habe zwar immer aus dem ersten Gefühl heraus entschieden, habe mir aber auch immer kurz danach gedacht, dass ich auch genauso die andere Antwort hätte wählen können...","0","1","0","2246","","","","","neg","GS","GSold","3","category3/CS7.png","-30","targets/24.png","direct","",""
"","image-slider-response","106","418286","0.0-8.0-0.16","osq0w7gol0","many_one","0","direct_first","1","ER06ST23","0","25","1","1","3","1","Ich fand es sehr schwierig, eine Antwort auf diese Fragen zu geben. Ich habe zwar immer aus dem ersten Gefühl heraus entschieden, habe mir aber auch immer kurz danach gedacht, dass ich auch genauso die andere Antwort hätte wählen können...","0","1","0","5664","","","","","pos","GS","GSold","4","category4/CS8.png","-15","targets/8.png","direct","",""
"","image-slider-response","107","421347","0.0-8.0-0.17","osq0w7gol0","many_one","0","direct_first","1","ER06ST23","0","25","1","1","3","1","Ich fand es sehr schwierig, eine Antwort auf diese Fragen zu geben. Ich habe zwar immer aus dem ersten Gefühl heraus entschieden, habe mir aber auch immer kurz danach gedacht, dass ich auch genauso die andere Antwort hätte wählen können...","0","1","0","3056","","","","","neg","GS","GSnew","2","category2/GS3.png","24","targets/48.png","direct","",""
"","image-slider-response","108","424007","0.0-8.0-0.18","osq0w7gol0","many_one","0","direct_first","1","ER06ST23","0","25","1","1","3","1","Ich fand es sehr schwierig, eine Antwort auf diese Fragen zu geben. Ich habe zwar immer aus dem ersten Gefühl heraus entschieden, habe mir aber auch immer kurz danach gedacht, dass ich auch genauso die andere Antwort hätte wählen können...","0","1","0","2654","","","","","pos","GS","GSnew","4","category4/GS1.png","17","targets/42.png","direct","",""
"","image-slider-response","109","428407","0.0-8.0-0.19","osq0w7gol0","many_one","0","direct_first","1","ER06ST23","0","25","1","1","3","1","Ich fand es sehr schwierig, eine Antwort auf diese Fragen zu geben. Ich habe zwar immer aus dem ersten Gefühl heraus entschieden, habe mir aber auch immer kurz danach gedacht, dass ich auch genauso die andere Antwort hätte wählen können...","0","1","0","4396","","","","","neg","GS","GSnew","3","category3/GS3.png","-63","targets/41.png","direct","",""
"","image-slider-response","110","431217","0.0-8.0-0.20","osq0w7gol0","many_one","0","direct_first","1","ER06ST23","0","25","1","1","3","1","Ich fand es sehr schwierig, eine Antwort auf diese Fragen zu geben. Ich habe zwar immer aus dem ersten Gefühl heraus entschieden, habe mir aber auch immer kurz danach gedacht, dass ich auch genauso die andere Antwort hätte wählen können...","0","1","0","2805","","","","","neg","CS","CS","3","category3/CS3.png","-26","targets/18.png","direct","",""
"","image-slider-response","111","433629","0.0-8.0-0.21","osq0w7gol0","many_one","0","direct_first","1","ER06ST23","0","25","1","1","3","1","Ich fand es sehr schwierig, eine Antwort auf diese Fragen zu geben. Ich habe zwar immer aus dem ersten Gefühl heraus entschieden, habe mir aber auch immer kurz danach gedacht, dass ich auch genauso die andere Antwort hätte wählen können...","0","1","0","2407","","","","","neg","CS","CS","2","category2/CS6.png","-13","targets/45.png","direct","",""
"","image-slider-response","112","439566","0.0-8.0-0.22","osq0w7gol0","many_one","0","direct_first","1","ER06ST23","0","25","1","1","3","1","Ich fand es sehr schwierig, eine Antwort auf diese Fragen zu geben. Ich habe zwar immer aus dem ersten Gefühl heraus entschieden, habe mir aber auch immer kurz danach gedacht, dass ich auch genauso die andere Antwort hätte wählen können...","0","1","0","5932","","","","","neg","CS","CS","3","category3/CS8.png","-100","targets/27.png","direct","",""
"","image-slider-response","113","442517","0.0-8.0-0.23","osq0w7gol0","many_one","0","direct_first","1","ER06ST23","0","25","1","1","3","1","Ich fand es sehr schwierig, eine Antwort auf diese Fragen zu geben. Ich habe zwar immer aus dem ersten Gefühl heraus entschieden, habe mir aber auch immer kurz danach gedacht, dass ich auch genauso die andere Antwort hätte wählen können...","0","1","0","2948","","","","","neg","GS","GSold","2","category2/CS4.png","-37","targets/22.png","direct","",""
"","image-slider-response","114","445255","0.0-8.0-0.24","osq0w7gol0","many_one","0","direct_first","1","ER06ST23","0","25","1","1","3","1","Ich fand es sehr schwierig, eine Antwort auf diese Fragen zu geben. Ich habe zwar immer aus dem ersten Gefühl heraus entschieden, habe mir aber auch immer kurz danach gedacht, dass ich auch genauso die andere Antwort hätte wählen können...","0","1","0","2732","","","","","pos","GS","GSnew","4","category4/GS2.png","22","targets/12.png","direct","",""
"","image-slider-response","115","448337","0.0-8.0-0.25","osq0w7gol0","many_one","0","direct_first","1","ER06ST23","0","25","1","1","3","1","Ich fand es sehr schwierig, eine Antwort auf diese Fragen zu geben. Ich habe zwar immer aus dem ersten Gefühl heraus entschieden, habe mir aber auch immer kurz danach gedacht, dass ich auch genauso die andere Antwort hätte wählen können...","0","1","0","3075","","","","","pos","CS","CS","4","category4/CS10.png","22","targets/31.png","direct","",""
"","image-slider-response","116","451364","0.0-8.0-0.26","osq0w7gol0","many_one","0","direct_first","1","ER06ST23","0","25","1","1","3","1","Ich fand es sehr schwierig, eine Antwort auf diese Fragen zu geben. Ich habe zwar immer aus dem ersten Gefühl heraus entschieden, habe mir aber auch immer kurz danach gedacht, dass ich auch genauso die andere Antwort hätte wählen können...","0","1","0","3017","","","","","pos","GS","GSold","4","category4/CS6.png","32","targets/46.png","direct","",""
"","image-slider-response","117","453694","0.0-8.0-0.27","osq0w7gol0","many_one","0","direct_first","1","ER06ST23","0","25","1","1","3","1","Ich fand es sehr schwierig, eine Antwort auf diese Fragen zu geben. Ich habe zwar immer aus dem ersten Gefühl heraus entschieden, habe mir aber auch immer kurz danach gedacht, dass ich auch genauso die andere Antwort hätte wählen können...","0","1","0","2327","","","","","neg","GS","GSnew","2","category2/GS1.png","8","targets/6.png","direct","",""
"","image-slider-response","118","456107","0.0-8.0-0.28","osq0w7gol0","many_one","0","direct_first","1","ER06ST23","0","25","1","1","3","1","Ich fand es sehr schwierig, eine Antwort auf diese Fragen zu geben. Ich habe zwar immer aus dem ersten Gefühl heraus entschieden, habe mir aber auch immer kurz danach gedacht, dass ich auch genauso die andere Antwort hätte wählen können...","0","1","0","2409","","","","","neg","GS","GSnew","2","category2/GS2.png","14","targets/34.png","direct","",""
"","image-slider-response","119","458357","0.0-8.0-0.29","osq0w7gol0","many_one","0","direct_first","1","ER06ST23","0","25","1","1","3","1","Ich fand es sehr schwierig, eine Antwort auf diese Fragen zu geben. Ich habe zwar immer aus dem ersten Gefühl heraus entschieden, habe mir aber auch immer kurz danach gedacht, dass ich auch genauso die andere Antwort hätte wählen können...","0","1","0","2247","","","","","neg","GS","GSold","3","category3/CS5.png","-21","targets/15.png","direct","",""
"","image-slider-response","120","460678","0.0-8.0-0.30","osq0w7gol0","many_one","0","direct_first","1","ER06ST23","0","25","1","1","3","1","Ich fand es sehr schwierig, eine Antwort auf diese Fragen zu geben. Ich habe zwar immer aus dem ersten Gefühl heraus entschieden, habe mir aber auch immer kurz danach gedacht, dass ich auch genauso die andere Antwort hätte wählen können...","0","1","0","2315","","","","","neg","CS","CS","2","category2/CS1.png","-23","targets/19.png","direct","",""
"","image-slider-response","121","462897","0.0-8.0-0.31","osq0w7gol0","many_one","0","direct_first","1","ER06ST23","0","25","1","1","3","1","Ich fand es sehr schwierig, eine Antwort auf diese Fragen zu geben. Ich habe zwar immer aus dem ersten Gefühl heraus entschieden, habe mir aber auch immer kurz danach gedacht, dass ich auch genauso die andere Antwort hätte wählen können...","0","1","0","2213","","","","","neg","CS","CS","3","category3/CS4.png","-24","targets/39.png","direct","",""
"","image-slider-response","122","465146","0.0-8.0-0.32","osq0w7gol0","many_one","0","direct_first","1","ER06ST23","0","25","1","1","3","1","Ich fand es sehr schwierig, eine Antwort auf diese Fragen zu geben. Ich habe zwar immer aus dem ersten Gefühl heraus entschieden, habe mir aber auch immer kurz danach gedacht, dass ich auch genauso die andere Antwort hätte wählen können...","0","1","0","2245","","","","","neg","GS","GSold","3","category3/CS2.png","-20","targets/11.png","direct","",""
"","image-slider-response","123","467876","0.0-8.0-0.33","osq0w7gol0","many_one","0","direct_first","1","ER06ST23","0","25","1","1","3","1","Ich fand es sehr schwierig, eine Antwort auf diese Fragen zu geben. Ich habe zwar immer aus dem ersten Gefühl heraus entschieden, habe mir aber auch immer kurz danach gedacht, dass ich auch genauso die andere Antwort hätte wählen können...","0","1","0","2724","","","","","neg","GS","GSnew","3","category3/GS2.png","-21","targets/43.png","direct","",""
"","image-slider-response","124","470176","0.0-8.0-0.34","osq0w7gol0","many_one","0","direct_first","1","ER06ST23","0","25","1","1","3","1","Ich fand es sehr schwierig, eine Antwort auf diese Fragen zu geben. Ich habe zwar immer aus dem ersten Gefühl heraus entschieden, habe mir aber auch immer kurz danach gedacht, dass ich auch genauso die andere Antwort hätte wählen können...","0","1","0","2296","","","","","pos","GS","abstract","4","category4/lin.png","16","targets/26.png","direct","",""
"","image-slider-response","125","472497","0.0-8.0-0.35","osq0w7gol0","many_one","0","direct_first","1","ER06ST23","0","25","1","1","3","1","Ich fand es sehr schwierig, eine Antwort auf diese Fragen zu geben. Ich habe zwar immer aus dem ersten Gefühl heraus entschieden, habe mir aber auch immer kurz danach gedacht, dass ich auch genauso die andere Antwort hätte wählen können...","0","1","0","2316","","","","","pos","GS","GSnew","1","category1/GS3.png","6","targets/10.png","direct","",""
"","image-slider-response","126","475276","0.0-8.0-0.36","osq0w7gol0","many_one","0","direct_first","1","ER06ST23","0","25","1","1","3","1","Ich fand es sehr schwierig, eine Antwort auf diese Fragen zu geben. Ich habe zwar immer aus dem ersten Gefühl heraus entschieden, habe mir aber auch immer kurz danach gedacht, dass ich auch genauso die andere Antwort hätte wählen können...","0","1","0","2775","","","","","neg","CS","CS","3","category3/CS1.png","-16","targets/4.png","direct","",""
"","image-slider-response","127","477636","0.0-8.0-0.37","osq0w7gol0","many_one","0","direct_first","1","ER06ST23","0","25","1","1","3","1","Ich fand es sehr schwierig, eine Antwort auf diese Fragen zu geben. Ich habe zwar immer aus dem ersten Gefühl heraus entschieden, habe mir aber auch immer kurz danach gedacht, dass ich auch genauso die andere Antwort hätte wählen können...","0","1","0","2355","","","","","neg","CS","CS","2","category2/CS2.png","-16","targets/28.png","direct","",""
"","image-slider-response","128","480586","0.0-8.0-0.38","osq0w7gol0","many_one","0","direct_first","1","ER06ST23","0","25","1","1","3","1","Ich fand es sehr schwierig, eine Antwort auf diese Fragen zu geben. Ich habe zwar immer aus dem ersten Gefühl heraus entschieden, habe mir aber auch immer kurz danach gedacht, dass ich auch genauso die andere Antwort hätte wählen können...","0","1","0","2945","","","","","pos","CS","CS","4","category4/CS2.png","37","targets/1.png","direct","",""
"","image-slider-response","129","482856","0.0-8.0-0.39","osq0w7gol0","many_one","0","direct_first","1","ER06ST23","0","25","1","1","3","1","Ich fand es sehr schwierig, eine Antwort auf diese Fragen zu geben. Ich habe zwar immer aus dem ersten Gefühl heraus entschieden, habe mir aber auch immer kurz danach gedacht, dass ich auch genauso die andere Antwort hätte wählen können...","0","1","0","2266","","","","","neg","GS","abstract","2","category2/men.png","1","targets/37.png","direct","",""
"","image-slider-response","130","486497","0.0-8.0-0.40","osq0w7gol0","many_one","0","direct_first","1","ER06ST23","0","25","1","1","3","1","Ich fand es sehr schwierig, eine Antwort auf diese Fragen zu geben. Ich habe zwar immer aus dem ersten Gefühl heraus entschieden, habe mir aber auch immer kurz danach gedacht, dass ich auch genauso die andere Antwort hätte wählen können...","0","1","0","3635","","","","","pos","GS","GSold","1","category1/CS9.png","-14","targets/21.png","direct","",""
"","image-slider-response","131","489206","0.0-8.0-0.41","osq0w7gol0","many_one","0","direct_first","1","ER06ST23","0","25","1","1","3","1","Ich fand es sehr schwierig, eine Antwort auf diese Fragen zu geben. Ich habe zwar immer aus dem ersten Gefühl heraus entschieden, habe mir aber auch immer kurz danach gedacht, dass ich auch genauso die andere Antwort hätte wählen können...","0","1","0","2704","","","","","pos","CS","CS","4","category4/CS7.png","16","targets/14.png","direct","",""
"","image-slider-response","132","493156","0.0-8.0-0.42","osq0w7gol0","many_one","0","direct_first","1","ER06ST23","0","25","1","1","3","1","Ich fand es sehr schwierig, eine Antwort auf diese Fragen zu geben. Ich habe zwar immer aus dem ersten Gefühl heraus entschieden, habe mir aber auch immer kurz danach gedacht, dass ich auch genauso die andere Antwort hätte wählen können...","0","1","0","3944","","","","","pos","GS","GSnew","1","category1/GS2.png","23","targets/3.png","direct","",""
"","image-slider-response","133","496307","0.0-8.0-0.43","osq0w7gol0","many_one","0","direct_first","1","ER06ST23","0","25","1","1","3","1","Ich fand es sehr schwierig, eine Antwort auf diese Fragen zu geben. Ich habe zwar immer aus dem ersten Gefühl heraus entschieden, habe mir aber auch immer kurz danach gedacht, dass ich auch genauso die andere Antwort hätte wählen können...","0","1","0","3145","","","","","pos","GS","GSnew","1","category1/GS1.png","-14","targets/47.png","direct","",""
"","image-slider-response","134","498626","0.0-8.0-0.44","osq0w7gol0","many_one","0","direct_first","1","ER06ST23","0","25","1","1","3","1","Ich fand es sehr schwierig, eine Antwort auf diese Fragen zu geben. Ich habe zwar immer aus dem ersten Gefühl heraus entschieden, habe mir aber auch immer kurz danach gedacht, dass ich auch genauso die andere Antwort hätte wählen können...","0","1","0","2313","","","","","pos","GS","GSold","1","category1/CS7.png","-6","targets/17.png","direct","",""
"","image-slider-response","135","501746","0.0-8.0-0.45","osq0w7gol0","many_one","0","direct_first","1","ER06ST23","0","25","1","1","3","1","Ich fand es sehr schwierig, eine Antwort auf diese Fragen zu geben. Ich habe zwar immer aus dem ersten Gefühl heraus entschieden, habe mir aber auch immer kurz danach gedacht, dass ich auch genauso die andere Antwort hätte wählen können...","0","1","0","3114","","","","","pos","GS","GSold","4","category4/CS3.png","12","targets/5.png","direct","",""
"","image-slider-response","136","504517","0.0-8.0-0.46","osq0w7gol0","many_one","0","direct_first","1","ER06ST23","0","25","1","1","3","1","Ich fand es sehr schwierig, eine Antwort auf diese Fragen zu geben. Ich habe zwar immer aus dem ersten Gefühl heraus entschieden, habe mir aber auch immer kurz danach gedacht, dass ich auch genauso die andere Antwort hätte wählen können...","0","1","0","2767","","","","","neg","GS","GSold","2","category2/CS9.png","-31","targets/40.png","direct","",""
"","image-slider-response","137","511048","0.0-8.0-0.47","osq0w7gol0","many_one","0","direct_first","1","ER06ST23","0","25","1","1","3","1","Ich fand es sehr schwierig, eine Antwort auf diese Fragen zu geben. Ich habe zwar immer aus dem ersten Gefühl heraus entschieden, habe mir aber auch immer kurz danach gedacht, dass ich auch genauso die andere Antwort hätte wählen können...","0","1","0","6523","","","","","pos","CS","CS","1","category1/CS2.png","-41","targets/38.png","direct","",""
"","html-keyboard-response","138","520062","0.0-9.0","osq0w7gol0","many_one","0","direct_first","1","ER06ST23","0","25","1","1","3","1","Ich fand es sehr schwierig, eine Antwort auf diese Fragen zu geben. Ich habe zwar immer aus dem ersten Gefühl heraus entschieden, habe mir aber auch immer kurz danach gedacht, dass ich auch genauso die andere Antwort hätte wählen können...","0","1","0","9008","","","<p>Sie sehen nun die chinesischen Zeichen nur ganz kurz. Danach sehen Sie die jeweilige Aussprache der Zeichen als Silbe auf dem Bildschrim. Ihre Aufgabe ist es, für jede Silbe anzugeben, ob diese etwas angenehmes, oder unangenehmes bedeuten könnte. Verlassen Sie sich hier vor allem auf Ihre Intuition.<br><br>Die Zeichen werden nur zur Orientierung dargestellt, beachten Sie sie deshalb nicht. Konzentrieren Sie sich vor allem auf die Silben. <br>Reagieren Sie mit folgenden zwei Tasten: <br><br><b>'D' </b> wenn die Silbe etwas <b>unangenehmes</b> bedeuten könnte. <br><b>'K'</b> wenn die Silbe etwas <b>angenehmes</b> bedeuten könnte. <br><br>Bitte legen Sie nun den Zeigefinger der linken Hand auf die Taste 'D' und den Zeigefinger der rechten Hand auf die Taste 'K'. <br>Reagieren Sie auf jede Silbe so schnell wie möglich. Uns interessiert Ihre spontane Reaktion. <br> <br> <br>Drücken Sie 'D' oder 'K', um die nächste Aufgabe zu starten. </p>","75","","","","","","","","","",""
"","html-keyboard-response","139","523094","0.0-10.0-0.0","osq0w7gol0","many_one","0","direct_first","1","ER06ST23","0","25","1","1","3","1","Ich fand es sehr schwierig, eine Antwort auf diese Fragen zu geben. Ich habe zwar immer aus dem ersten Gefühl heraus entschieden, habe mir aber auch immer kurz danach gedacht, dass ich auch genauso die andere Antwort hätte wählen können...","0","1","0","null","","","<div style=""font-size:60px;"">+</div>","null","","","","","","","","","",""
"","html-keyboard-response","140","523193","0.0-10.0-1.0","osq0w7gol0","many_one","0","direct_first","1","ER06ST23","0","25","1","1","3","1","Ich fand es sehr schwierig, eine Antwort auf diese Fragen zu geben. Ich habe zwar immer aus dem ersten Gefühl heraus entschieden, habe mir aber auch immer kurz danach gedacht, dass ich auch genauso die andere Antwort hätte wählen können...","0","1","0","null","","","<img src = 'category3/CS3.png' width = '100%;'>","null","","","","","","","","","",""
"","html-keyboard-response","141","523474","0.0-10.0-2.0","osq0w7gol0","many_one","0","direct_first","1","ER06ST23","0","25","1","1","3","1","Ich fand es sehr schwierig, eine Antwort auf diese Fragen zu geben. Ich habe zwar immer aus dem ersten Gefühl heraus entschieden, habe mir aber auch immer kurz danach gedacht, dass ich auch genauso die andere Antwort hätte wählen können...","0","1","0","null","","","<img src = 'targets/18.png' width = '100%;'>","null","","","","","","","","","",""
"","html-keyboard-response","142","527119","0.0-10.0-3.0","osq0w7gol0","many_one","0","direct_first","1","ER06ST23","0","25","1","1","3","1","Ich fand es sehr schwierig, eine Antwort auf diese Fragen zu geben. Ich habe zwar immer aus dem ersten Gefühl heraus entschieden, habe mir aber auch immer kurz danach gedacht, dass ich auch genauso die andere Antwort hätte wählen können...","0","1","0","3643","","","<img src = 'targets/mask.png' width = '100%;'>","75","neg","CS","CS","3","category3/CS3.png","","targets/18.png","indirect","1","0"
"","html-keyboard-response","143","528653","0.0-10.0-0.1","osq0w7gol0","many_one","0","direct_first","1","ER06ST23","0","25","1","1","3","1","Ich fand es sehr schwierig, eine Antwort auf diese Fragen zu geben. Ich habe zwar immer aus dem ersten Gefühl heraus entschieden, habe mir aber auch immer kurz danach gedacht, dass ich auch genauso die andere Antwort hätte wählen können...","0","1","0","null","","","<div style=""font-size:60px;"">+</div>","null","","","","","","","","","",""
"","html-keyboard-response","144","528754","0.0-10.0-1.1","osq0w7gol0","many_one","0","direct_first","1","ER06ST23","0","25","1","1","3","1","Ich fand es sehr schwierig, eine Antwort auf diese Fragen zu geben. Ich habe zwar immer aus dem ersten Gefühl heraus entschieden, habe mir aber auch immer kurz danach gedacht, dass ich auch genauso die andere Antwort hätte wählen können...","0","1","0","null","","","<img src = 'category1/CS4.png' width = '100%;'>","null","","","","","","","","","",""
"","html-keyboard-response","145","529033","0.0-10.0-2.1","osq0w7gol0","many_one","0","direct_first","1","ER06ST23","0","25","1","1","3","1","Ich fand es sehr schwierig, eine Antwort auf diese Fragen zu geben. Ich habe zwar immer aus dem ersten Gefühl heraus entschieden, habe mir aber auch immer kurz danach gedacht, dass ich auch genauso die andere Antwort hätte wählen können...","0","1","0","null","","","<img src = 'targets/29.png' width = '100%;'>","null","","","","","","","","","",""
"","html-keyboard-response","146","533071","0.0-10.0-3.1","osq0w7gol0","many_one","0","direct_first","1","ER06ST23","0","25","1","1","3","1","Ich fand es sehr schwierig, eine Antwort auf diese Fragen zu geben. Ich habe zwar immer aus dem ersten Gefühl heraus entschieden, habe mir aber auch immer kurz danach gedacht, dass ich auch genauso die andere Antwort hätte wählen können...","0","1","0","4036","","","<img src = 'targets/mask.png' width = '100%;'>","75","pos","CS","CS","1","category1/CS4.png","","targets/29.png","indirect","1","1"
"","html-keyboard-response","147","534594","0.0-10.0-0.2","osq0w7gol0","many_one","0","direct_first","1","ER06ST23","0","25","1","1","3","1","Ich fand es sehr schwierig, eine Antwort auf diese Fragen zu geben. Ich habe zwar immer aus dem ersten Gefühl heraus entschieden, habe mir aber auch immer kurz danach gedacht, dass ich auch genauso die andere Antwort hätte wählen können...","0","1","0","null","","","<div style=""font-size:60px;"">+</div>","null","","","","","","","","","",""
"","html-keyboard-response","148","534693","0.0-10.0-1.2","osq0w7gol0","many_one","0","direct_first","1","ER06ST23","0","25","1","1","3","1","Ich fand es sehr schwierig, eine Antwort auf diese Fragen zu geben. Ich habe zwar immer aus dem ersten Gefühl heraus entschieden, habe mir aber auch immer kurz danach gedacht, dass ich auch genauso die andere Antwort hätte wählen können...","0","1","0","null","","","<img src = 'category4/CS5.png' width = '100%;'>","null","","","","","","","","","",""
"","html-keyboard-response","149","534951","0.0-10.0-2.2","osq0w7gol0","many_one","0","direct_first","1","ER06ST23","0","25","1","1","3","1","Ich fand es sehr schwierig, eine Antwort auf diese Fragen zu geben. Ich habe zwar immer aus dem ersten Gefühl heraus entschieden, habe mir aber auch immer kurz danach gedacht, dass ich auch genauso die andere Antwort hätte wählen können...","0","1","0","null","","","<img src = 'targets/30.png' width = '100%;'>","null","","","","","","","","","",""
"","html-keyboard-response","150","536260","0.0-10.0-3.2","osq0w7gol0","many_one","0","direct_first","1","ER06ST23","0","25","1","1","3","1","Ich fand es sehr schwierig, eine Antwort auf diese Fragen zu geben. Ich habe zwar immer aus dem ersten Gefühl heraus entschieden, habe mir aber auch immer kurz danach gedacht, dass ich auch genauso die andere Antwort hätte wählen können...","0","1","0","1308","","","<img src = 'targets/mask.png' width = '100%;'>","75","pos","CS","CS","4","category4/CS5.png","","targets/30.png","indirect","1","2"
"","html-keyboard-response","151","537773","0.0-10.0-0.3","osq0w7gol0","many_one","0","direct_first","1","ER06ST23","0","25","1","1","3","1","Ich fand es sehr schwierig, eine Antwort auf diese Fragen zu geben. Ich habe zwar immer aus dem ersten Gefühl heraus entschieden, habe mir aber auch immer kurz danach gedacht, dass ich auch genauso die andere Antwort hätte wählen können...","0","1","0","null","","","<div style=""font-size:60px;"">+</div>","null","","","","","","","","","",""
"","html-keyboard-response","152","537872","0.0-10.0-1.3","osq0w7gol0","many_one","0","direct_first","1","ER06ST23","0","25","1","1","3","1","Ich fand es sehr schwierig, eine Antwort auf diese Fragen zu geben. Ich habe zwar immer aus dem ersten Gefühl heraus entschieden, habe mir aber auch immer kurz danach gedacht, dass ich auch genauso die andere Antwort hätte wählen können...","0","1","0","null","","","<img src = 'category4/CS7.png' width = '100%;'>","null","","","","","","","","","",""
"","html-keyboard-response","153","538154","0.0-10.0-2.3","osq0w7gol0","many_one","0","direct_first","1","ER06ST23","0","25","1","1","3","1","Ich fand es sehr schwierig, eine Antwort auf diese Fragen zu geben. Ich habe zwar immer aus dem ersten Gefühl heraus entschieden, habe mir aber auch immer kurz danach gedacht, dass ich auch genauso die andere Antwort hätte wählen können...","0","1","0","null","","","<img src = 'targets/14.png' width = '100%;'>","null","","","","","","","","","",""
"","html-keyboard-response","154","541499","0.0-10.0-3.3","osq0w7gol0","many_one","0","direct_first","1","ER06ST23","0","25","1","1","3","1","Ich fand es sehr schwierig, eine Antwort auf diese Fragen zu geben. Ich habe zwar immer aus dem ersten Gefühl heraus entschieden, habe mir aber auch immer kurz danach gedacht, dass ich auch genauso die andere Antwort hätte wählen können...","0","1","0","3343","","","<img src = 'targets/mask.png' width = '100%;'>","75","pos","CS","CS","4","category4/CS7.png","","targets/14.png","indirect","1","3"
"","html-keyboard-response","155","543033","0.0-10.0-0.4","osq0w7gol0","many_one","0","direct_first","1","ER06ST23","0","25","1","1","3","1","Ich fand es sehr schwierig, eine Antwort auf diese Fragen zu geben. Ich habe zwar immer aus dem ersten Gefühl heraus entschieden, habe mir aber auch immer kurz danach gedacht, dass ich auch genauso die andere Antwort hätte wählen können...","0","1","0","null","","","<div style=""font-size:60px;"">+</div>","null","","","","","","","","","",""
"","html-keyboard-response","156","543133","0.0-10.0-1.4","osq0w7gol0","many_one","0","direct_first","1","ER06ST23","0","25","1","1","3","1","Ich fand es sehr schwierig, eine Antwort auf diese Fragen zu geben. Ich habe zwar immer aus dem ersten Gefühl heraus entschieden, habe mir aber auch immer kurz danach gedacht, dass ich auch genauso die andere Antwort hätte wählen können...","0","1","0","null","","","<img src = 'category3/CS8.png' width = '100%;'>","null","","","","","","","","","",""
"","html-keyboard-response","157","543413","0.0-10.0-2.4","osq0w7gol0","many_one","0","direct_first","1","ER06ST23","0","25","1","1","3","1","Ich fand es sehr schwierig, eine Antwort auf diese Fragen zu geben. Ich habe zwar immer aus dem ersten Gefühl heraus entschieden, habe mir aber auch immer kurz danach gedacht, dass ich auch genauso die andere Antwort hätte wählen können...","0","1","0","null","","","<img src = 'targets/27.png' width = '100%;'>","null","","","","","","","","","",""
"","html-keyboard-response","158","544799","0.0-10.0-3.4","osq0w7gol0","many_one","0","direct_first","1","ER06ST23","0","25","1","1","3","1","Ich fand es sehr schwierig, eine Antwort auf diese Fragen zu geben. Ich habe zwar immer aus dem ersten Gefühl heraus entschieden, habe mir aber auch immer kurz danach gedacht, dass ich auch genauso die andere Antwort hätte wählen können...","0","1","0","1384","","","<img src = 'targets/mask.png' width = '100%;'>","68","neg","CS","CS","3","category3/CS8.png","","targets/27.png","indirect","0","4"
"","html-keyboard-response","159","546323","0.0-10.0-0.5","osq0w7gol0","many_one","0","direct_first","1","ER06ST23","0","25","1","1","3","1","Ich fand es sehr schwierig, eine Antwort auf diese Fragen zu geben. Ich habe zwar immer aus dem ersten Gefühl heraus entschieden, habe mir aber auch immer kurz danach gedacht, dass ich auch genauso die andere Antwort hätte wählen können...","0","1","0","null","","","<div style=""font-size:60px;"">+</div>","null","","","","","","","","","",""
"","html-keyboard-response","160","546423","0.0-10.0-1.5","osq0w7gol0","many_one","0","direct_first","1","ER06ST23","0","25","1","1","3","1","Ich fand es sehr schwierig, eine Antwort auf diese Fragen zu geben. Ich habe zwar immer aus dem ersten Gefühl heraus entschieden, habe mir aber auch immer kurz danach gedacht, dass ich auch genauso die andere Antwort hätte wählen können...","0","1","0","null","","","<img src = 'category2/CS1.png' width = '100%;'>","null","","","","","","","","","",""
"","html-keyboard-response","161","546703","0.0-10.0-2.5","osq0w7gol0","many_one","0","direct_first","1","ER06ST23","0","25","1","1","3","1","Ich fand es sehr schwierig, eine Antwort auf diese Fragen zu geben. Ich habe zwar immer aus dem ersten Gefühl heraus entschieden, habe mir aber auch immer kurz danach gedacht, dass ich auch genauso die andere Antwort hätte wählen können...","0","1","0","null","","","<img src = 'targets/19.png' width = '100%;'>","null","","","","","","","","","",""
"","html-keyboard-response","162","547973","0.0-10.0-3.5","osq0w7gol0","many_one","0","direct_first","1","ER06ST23","0","25","1","1","3","1","Ich fand es sehr schwierig, eine Antwort auf diese Fragen zu geben. Ich habe zwar immer aus dem ersten Gefühl heraus entschieden, habe mir aber auch immer kurz danach gedacht, dass ich auch genauso die andere Antwort hätte wählen können...","0","1","0","1269","","","<img src = 'targets/mask.png' width = '100%;'>","68","neg","CS","CS","2","category2/CS1.png","","targets/19.png","indirect","0","5"
"","html-keyboard-response","163","549513","0.0-10.0-0.6","osq0w7gol0","many_one","0","direct_first","1","ER06ST23","0","25","1","1","3","1","Ich fand es sehr schwierig, eine Antwort auf diese Fragen zu geben. Ich habe zwar immer aus dem ersten Gefühl heraus entschieden, habe mir aber auch immer kurz danach gedacht, dass ich auch genauso die andere Antwort hätte wählen können...","0","1","0","null","","","<div style=""font-size:60px;"">+</div>","null","","","","","","","","","",""
"","html-keyboard-response","164","549613","0.0-10.0-1.6","osq0w7gol0","many_one","0","direct_first","1","ER06ST23","0","25","1","1","3","1","Ich fand es sehr schwierig, eine Antwort auf diese Fragen zu geben. Ich habe zwar immer aus dem ersten Gefühl heraus entschieden, habe mir aber auch immer kurz danach gedacht, dass ich auch genauso die andere Antwort hätte wählen können...","0","1","0","null","","","<img src = 'category3/CS9.png' width = '100%;'>","null","","","","","","","","","",""
"","html-keyboard-response","165","549890","0.0-10.0-2.6","osq0w7gol0","many_one","0","direct_first","1","ER06ST23","0","25","1","1","3","1","Ich fand es sehr schwierig, eine Antwort auf diese Fragen zu geben. Ich habe zwar immer aus dem ersten Gefühl heraus entschieden, habe mir aber auch immer kurz danach gedacht, dass ich auch genauso die andere Antwort hätte wählen können...","0","1","0","null","","","<img src = 'targets/13.png' width = '100%;'>","null","","","","","","","","","",""
"","html-keyboard-response","166","551277","0.0-10.0-3.6","osq0w7gol0","many_one","0","direct_first","1","ER06ST23","0","25","1","1","3","1","Ich fand es sehr schwierig, eine Antwort auf diese Fragen zu geben. Ich habe zwar immer aus dem ersten Gefühl heraus entschieden, habe mir aber auch immer kurz danach gedacht, dass ich auch genauso die andere Antwort hätte wählen können...","0","1","0","1386","","","<img src = 'targets/mask.png' width = '100%;'>","68","neg","CS","CS","3","category3/CS9.png","","targets/13.png","indirect","0","6"
"","html-keyboard-response","167","552804","0.0-10.0-0.7","osq0w7gol0","many_one","0","direct_first","1","ER06ST23","0","25","1","1","3","1","Ich fand es sehr schwierig, eine Antwort auf diese Fragen zu geben. Ich habe zwar immer aus dem ersten Gefühl heraus entschieden, habe mir aber auch immer kurz danach gedacht, dass ich auch genauso die andere Antwort hätte wählen können...","0","1","0","null","","","<div style=""font-size:60px;"">+</div>","null","","","","","","","","","",""
"","html-keyboard-response","168","552903","0.0-10.0-1.7","osq0w7gol0","many_one","0","direct_first","1","ER06ST23","0","25","1","1","3","1","Ich fand es sehr schwierig, eine Antwort auf diese Fragen zu geben. Ich habe zwar immer aus dem ersten Gefühl heraus entschieden, habe mir aber auch immer kurz danach gedacht, dass ich auch genauso die andere Antwort hätte wählen können...","0","1","0","null","","","<img src = 'category3/CS1.png' width = '100%;'>","null","","","","","","","","","",""
"","html-keyboard-response","169","553183","0.0-10.0-2.7","osq0w7gol0","many_one","0","direct_first","1","ER06ST23","0","25","1","1","3","1","Ich fand es sehr schwierig, eine Antwort auf diese Fragen zu geben. Ich habe zwar immer aus dem ersten Gefühl heraus entschieden, habe mir aber auch immer kurz danach gedacht, dass ich auch genauso die andere Antwort hätte wählen können...","0","1","0","null","","","<img src = 'targets/4.png' width = '100%;'>","null","","","","","","","","","",""
"","html-keyboard-response","170","554947","0.0-10.0-3.7","osq0w7gol0","many_one","0","direct_first","1","ER06ST23","0","25","1","1","3","1","Ich fand es sehr schwierig, eine Antwort auf diese Fragen zu geben. Ich habe zwar immer aus dem ersten Gefühl heraus entschieden, habe mir aber auch immer kurz danach gedacht, dass ich auch genauso die andere Antwort hätte wählen können...","0","1","0","1762","","","<img src = 'targets/mask.png' width = '100%;'>","68","neg","CS","CS","3","category3/CS1.png","","targets/4.png","indirect","0","7"
"","html-keyboard-response","171","556483","0.0-10.0-0.8","osq0w7gol0","many_one","0","direct_first","1","ER06ST23","0","25","1","1","3","1","Ich fand es sehr schwierig, eine Antwort auf diese Fragen zu geben. Ich habe zwar immer aus dem ersten Gefühl heraus entschieden, habe mir aber auch immer kurz danach gedacht, dass ich auch genauso die andere Antwort hätte wählen können...","0","1","0","null","","","<div style=""font-size:60px;"">+</div>","null","","","","","","","","","",""
"","html-keyboard-response","172","556584","0.0-10.0-1.8","osq0w7gol0","many_one","0","direct_first","1","ER06ST23","0","25","1","1","3","1","Ich fand es sehr schwierig, eine Antwort auf diese Fragen zu geben. Ich habe zwar immer aus dem ersten Gefühl heraus entschieden, habe mir aber auch immer kurz danach gedacht, dass ich auch genauso die andere Antwort hätte wählen können...","0","1","0","null","","","<img src = 'category2/CS6.png' width = '100%;'>","null","","","","","","","","","",""
"","html-keyboard-response","173","556863","0.0-10.0-2.8","osq0w7gol0","many_one","0","direct_first","1","ER06ST23","0","25","1","1","3","1","Ich fand es sehr schwierig, eine Antwort auf diese Fragen zu geben. Ich habe zwar immer aus dem ersten Gefühl heraus entschieden, habe mir aber auch immer kurz danach gedacht, dass ich auch genauso die andere Antwort hätte wählen können...","0","1","0","null","","","<img src = 'targets/45.png' width = '100%;'>","null","","","","","","","","","",""
"","html-keyboard-response","174","557978","0.0-10.0-3.8","osq0w7gol0","many_one","0","direct_first","1","ER06ST23","0","25","1","1","3","1","Ich fand es sehr schwierig, eine Antwort auf diese Fragen zu geben. Ich habe zwar immer aus dem ersten Gefühl heraus entschieden, habe mir aber auch immer kurz danach gedacht, dass ich auch genauso die andere Antwort hätte wählen können...","0","1","0","1113","","","<img src = 'targets/mask.png' width = '100%;'>","68","neg","CS","CS","2","category2/CS6.png","","targets/45.png","indirect","0","8"
