"success","trial_type","trial_index","time_elapsed","internal_node_id","subject","condition","condition_code","measure","measure_code","codeword","gender","age","education","chinese","fach","handedness","comment","hinschauen","ablenkung","gewissenhaft","rt","url","responses","stimulus","key_press","val","type","type_specific","category","cs_selected","response","target","task","indirect","nr_pres"
"true","fullscreen","0","951397","0.0-0.0","z79mzj78u9","one_one","1","direct_first","1","hr05nz15","0","33","2","1","3","1","","0","1","0","","","","","","","","","","","","","","",""
"","external-html","1","964057","0.0-1.0","z79mzj78u9","one_one","1","direct_first","1","hr05nz15","0","33","2","1","3","1","","0","1","0","12468","text/information.html","","","","","","","","","","","","",""
"","external-html","2","973226","0.0-2.0","z79mzj78u9","one_one","1","direct_first","1","hr05nz15","0","33","2","1","3","1","","0","1","0","9036","text/consent.html","","","","","","","","","","","","",""
"","survey-html-form","3","1024824","0.0-3.0","z79mzj78u9","one_one","1","direct_first","1","hr05nz15","0","33","2","1","3","1","","0","1","0","51585","","{""codeword_enter"":""hr05nz15""}","","","","","","","","","","","",""
"","survey-html-form","4","1046837","0.0-4.0","z79mzj78u9","one_one","1","direct_first","1","hr05nz15","0","33","2","1","3","1","","0","1","0","21995","","{""age"":""33"",""education"":""2"",""subject"":""3"",""gender"":""0"",""handedness"":""1"",""chinese"":""1""}","","","","","","","","","","","",""
"","survey-html-form","5","1058553","0.0-5.0","z79mzj78u9","one_one","1","direct_first","1","hr05nz15","0","33","2","1","3","1","","0","1","0","11706","","{}","","","","","","","","","","","",""
"","html-keyboard-response","6","1062573","0.0-6.0-0.0-0.0","z79mzj78u9","one_one","1","direct_first","1","hr05nz15","0","33","2","1","3","1","","0","1","0","null","","","<div class = 'row'><div class = 'column'><img src = 'uspos/1340.bmp' width = '100%;'></div><div class = 'column'><img src = 'category1/CS3.png' width = '70%;'></div></div>","null","pos","CS","CS","1","category1/CS3.png","","","","",""
"","html-keyboard-response","7","1065091","0.0-6.0-0.0-0.1","z79mzj78u9","one_one","1","direct_first","1","hr05nz15","0","33","2","1","3","1","","0","1","0","null","","","<div class = 'row'><div class = 'column'><img src = 'usneg/9280.bmp' width = '100%;'></div><div class = 'column'><img src = 'category3/CS5.png' width = '70%;'></div></div>","null","neg","CS","CS","3","category3/CS5.png","","","","",""
"","html-keyboard-response","8","1067611","0.0-6.0-0.0-0.2","z79mzj78u9","one_one","1","direct_first","1","hr05nz15","0","33","2","1","3","1","","0","1","0","null","","","<div class = 'row'><div class = 'column'><img src = 'category4/CS1.png' width = '70%;'></div><div class = 'column'><img src = 'uspos/2208.bmp' width = '100%;'></div></div>","null","pos","CS","CS","4","category4/CS1.png","","","","",""
"","html-keyboard-response","9","1070141","0.0-6.0-0.0-0.3","z79mzj78u9","one_one","1","direct_first","1","hr05nz15","0","33","2","1","3","1","","0","1","0","null","","","<div class = 'row'><div class = 'column'><img src = 'category3/CS5.png' width = '70%;'></div><div class = 'column'><img src = 'usneg/9280.bmp' width = '100%;'></div></div>","null","neg","CS","CS","3","category3/CS5.png","","","","",""
"","html-keyboard-response","10","1072662","0.0-6.0-0.0-0.4","z79mzj78u9","one_one","1","direct_first","1","hr05nz15","0","33","2","1","3","1","","0","1","0","null","","","<div class = 'row'><div class = 'column'><img src = 'uspos/2208.bmp' width = '100%;'></div><div class = 'column'><img src = 'category4/CS1.png' width = '70%;'></div></div>","null","pos","CS","CS","4","category4/CS1.png","","","","",""
"","html-keyboard-response","11","1075202","0.0-6.0-0.0-0.5","z79mzj78u9","one_one","1","direct_first","1","hr05nz15","0","33","2","1","3","1","","0","1","0","null","","","<div class = 'row'><div class = 'column'><img src = 'category3/CS5.png' width = '70%;'></div><div class = 'column'><img src = 'usneg/9280.bmp' width = '100%;'></div></div>","null","neg","CS","CS","3","category3/CS5.png","","","","",""
"","html-keyboard-response","12","1077731","0.0-6.0-0.0-0.6","z79mzj78u9","one_one","1","direct_first","1","hr05nz15","0","33","2","1","3","1","","0","1","0","null","","","<div class = 'row'><div class = 'column'><img src = 'uspos/1340.bmp' width = '100%;'></div><div class = 'column'><img src = 'category1/CS3.png' width = '70%;'></div></div>","null","pos","CS","CS","1","category1/CS3.png","","","","",""
"","html-keyboard-response","13","1080259","0.0-6.0-0.0-0.7","z79mzj78u9","one_one","1","direct_first","1","hr05nz15","0","33","2","1","3","1","","0","1","0","null","","","<div class = 'row'><div class = 'column'><img src = 'category2/CS2.png' width = '70%;'></div><div class = 'column'><img src = 'usneg/1280.bmp' width = '100%;'></div></div>","null","neg","CS","CS","2","category2/CS2.png","","","","",""
"","html-keyboard-response","14","1082782","0.0-6.0-0.0-0.8","z79mzj78u9","one_one","1","direct_first","1","hr05nz15","0","33","2","1","3","1","","0","1","0","null","","","<div class = 'row'><div class = 'column'><img src = 'category4/CS1.png' width = '70%;'></div><div class = 'column'><img src = 'uspos/2208.bmp' width = '100%;'></div></div>","null","pos","CS","CS","4","category4/CS1.png","","","","",""
"","html-keyboard-response","15","1085321","0.0-6.0-0.0-0.9","z79mzj78u9","one_one","1","direct_first","1","hr05nz15","0","33","2","1","3","1","","0","1","0","null","","","<div class = 'row'><div class = 'column'><img src = 'uspos/1340.bmp' width = '100%;'></div><div class = 'column'><img src = 'category1/CS3.png' width = '70%;'></div></div>","null","pos","CS","CS","1","category1/CS3.png","","","","",""
"","html-keyboard-response","16","1087843","0.0-6.0-0.0-0.10","z79mzj78u9","one_one","1","direct_first","1","hr05nz15","0","33","2","1","3","1","","0","1","0","null","","","<div class = 'row'><div class = 'column'><img src = 'usneg/1280.bmp' width = '100%;'></div><div class = 'column'><img src = 'category2/CS2.png' width = '70%;'></div></div>","null","neg","CS","CS","2","category2/CS2.png","","","","",""
"","html-keyboard-response","17","1090360","0.0-6.0-0.0-0.11","z79mzj78u9","one_one","1","direct_first","1","hr05nz15","0","33","2","1","3","1","","0","1","0","null","","","<div class = 'row'><div class = 'column'><img src = 'category3/CS5.png' width = '70%;'></div><div class = 'column'><img src = 'usneg/9280.bmp' width = '100%;'></div></div>","null","neg","CS","CS","3","category3/CS5.png","","","","",""
"","html-keyboard-response","18","1092881","0.0-6.0-0.0-0.12","z79mzj78u9","one_one","1","direct_first","1","hr05nz15","0","33","2","1","3","1","","0","1","0","null","","","<div class = 'row'><div class = 'column'><img src = 'category2/CS2.png' width = '70%;'></div><div class = 'column'><img src = 'usneg/1280.bmp' width = '100%;'></div></div>","null","neg","CS","CS","2","category2/CS2.png","","","","",""
"","html-keyboard-response","19","1095401","0.0-6.0-0.0-0.13","z79mzj78u9","one_one","1","direct_first","1","hr05nz15","0","33","2","1","3","1","","0","1","0","null","","","<div class = 'row'><div class = 'column'><img src = 'uspos/2208.bmp' width = '100%;'></div><div class = 'column'><img src = 'category4/CS1.png' width = '70%;'></div></div>","null","pos","CS","CS","4","category4/CS1.png","","","","",""
"","html-keyboard-response","20","1097927","0.0-6.0-0.0-0.14","z79mzj78u9","one_one","1","direct_first","1","hr05nz15","0","33","2","1","3","1","","0","1","0","null","","","<div class = 'row'><div class = 'column'><img src = 'category3/CS5.png' width = '70%;'></div><div class = 'column'><img src = 'usneg/9280.bmp' width = '100%;'></div></div>","null","neg","CS","CS","3","category3/CS5.png","","","","",""
"","html-keyboard-response","21","1100451","0.0-6.0-0.0-0.15","z79mzj78u9","one_one","1","direct_first","1","hr05nz15","0","33","2","1","3","1","","0","1","0","null","","","<div class = 'row'><div class = 'column'><img src = 'category4/CS1.png' width = '70%;'></div><div class = 'column'><img src = 'uspos/2208.bmp' width = '100%;'></div></div>","null","pos","CS","CS","4","category4/CS1.png","","","","",""
"","html-keyboard-response","22","1102991","0.0-6.0-0.0-0.16","z79mzj78u9","one_one","1","direct_first","1","hr05nz15","0","33","2","1","3","1","","0","1","0","null","","","<div class = 'row'><div class = 'column'><img src = 'category1/CS3.png' width = '70%;'></div><div class = 'column'><img src = 'uspos/1340.bmp' width = '100%;'></div></div>","null","pos","CS","CS","1","category1/CS3.png","","","","",""
"","html-keyboard-response","23","1105522","0.0-6.0-0.0-0.17","z79mzj78u9","one_one","1","direct_first","1","hr05nz15","0","33","2","1","3","1","","0","1","0","null","","","<div class = 'row'><div class = 'column'><img src = 'usneg/1280.bmp' width = '100%;'></div><div class = 'column'><img src = 'category2/CS2.png' width = '70%;'></div></div>","null","neg","CS","CS","2","category2/CS2.png","","","","",""
"","html-keyboard-response","24","1108052","0.0-6.0-0.0-0.18","z79mzj78u9","one_one","1","direct_first","1","hr05nz15","0","33","2","1","3","1","","0","1","0","null","","","<div class = 'row'><div class = 'column'><img src = 'category1/CS3.png' width = '70%;'></div><div class = 'column'><img src = 'uspos/1340.bmp' width = '100%;'></div></div>","null","pos","CS","CS","1","category1/CS3.png","","","","",""
"","html-keyboard-response","25","1110591","0.0-6.0-0.0-0.19","z79mzj78u9","one_one","1","direct_first","1","hr05nz15","0","33","2","1","3","1","","0","1","0","null","","","<div class = 'row'><div class = 'column'><img src = 'category2/CS2.png' width = '70%;'></div><div class = 'column'><img src = 'usneg/1280.bmp' width = '100%;'></div></div>","null","neg","CS","CS","2","category2/CS2.png","","","","",""
"","survey-html-form","26","1448256","0.0-6.0-1.0","z79mzj78u9","one_one","1","direct_first","1","hr05nz15","0","33","2","1","3","1","","0","1","0","337140","","{}","","","","","","","","","","","",""
"","html-keyboard-response","27","1452293","0.0-6.0-2.0-0.0","z79mzj78u9","one_one","1","direct_first","1","hr05nz15","0","33","2","1","3","1","","0","1","0","null","","","<div class = 'row'><div class = 'column'><img src = 'category3/CS5.png' width = '70%;'></div><div class = 'column'><img src = 'usneg/9280.bmp' width = '100%;'></div></div>","null","neg","CS","CS","3","category3/CS5.png","","","","",""
"","html-keyboard-response","28","1454811","0.0-6.0-2.0-0.1","z79mzj78u9","one_one","1","direct_first","1","hr05nz15","0","33","2","1","3","1","","0","1","0","null","","","<div class = 'row'><div class = 'column'><img src = 'category4/CS1.png' width = '70%;'></div><div class = 'column'><img src = 'uspos/2208.bmp' width = '100%;'></div></div>","null","pos","CS","CS","4","category4/CS1.png","","","","",""
"","html-keyboard-response","29","1457332","0.0-6.0-2.0-0.2","z79mzj78u9","one_one","1","direct_first","1","hr05nz15","0","33","2","1","3","1","","0","1","0","null","","","<div class = 'row'><div class = 'column'><img src = 'usneg/1280.bmp' width = '100%;'></div><div class = 'column'><img src = 'category2/CS2.png' width = '70%;'></div></div>","null","neg","CS","CS","2","category2/CS2.png","","","","",""
"","html-keyboard-response","30","1459862","0.0-6.0-2.0-0.3","z79mzj78u9","one_one","1","direct_first","1","hr05nz15","0","33","2","1","3","1","","0","1","0","null","","","<div class = 'row'><div class = 'column'><img src = 'uspos/1340.bmp' width = '100%;'></div><div class = 'column'><img src = 'category1/CS3.png' width = '70%;'></div></div>","null","pos","CS","CS","1","category1/CS3.png","","","","",""
"","html-keyboard-response","31","1462401","0.0-6.0-2.0-0.4","z79mzj78u9","one_one","1","direct_first","1","hr05nz15","0","33","2","1","3","1","","0","1","0","null","","","<div class = 'row'><div class = 'column'><img src = 'usneg/9280.bmp' width = '100%;'></div><div class = 'column'><img src = 'category3/CS5.png' width = '70%;'></div></div>","null","neg","CS","CS","3","category3/CS5.png","","","","",""
"","html-keyboard-response","32","1464931","0.0-6.0-2.0-0.5","z79mzj78u9","one_one","1","direct_first","1","hr05nz15","0","33","2","1","3","1","","0","1","0","null","","","<div class = 'row'><div class = 'column'><img src = 'usneg/1280.bmp' width = '100%;'></div><div class = 'column'><img src = 'category2/CS2.png' width = '70%;'></div></div>","null","neg","CS","CS","2","category2/CS2.png","","","","",""
"","html-keyboard-response","33","1467472","0.0-6.0-2.0-0.6","z79mzj78u9","one_one","1","direct_first","1","hr05nz15","0","33","2","1","3","1","","0","1","0","null","","","<div class = 'row'><div class = 'column'><img src = 'category4/CS1.png' width = '70%;'></div><div class = 'column'><img src = 'uspos/2208.bmp' width = '100%;'></div></div>","null","pos","CS","CS","4","category4/CS1.png","","","","",""
"","html-keyboard-response","34","1470002","0.0-6.0-2.0-0.7","z79mzj78u9","one_one","1","direct_first","1","hr05nz15","0","33","2","1","3","1","","0","1","0","null","","","<div class = 'row'><div class = 'column'><img src = 'uspos/1340.bmp' width = '100%;'></div><div class = 'column'><img src = 'category1/CS3.png' width = '70%;'></div></div>","null","pos","CS","CS","1","category1/CS3.png","","","","",""
"","html-keyboard-response","35","1472540","0.0-6.0-2.0-0.8","z79mzj78u9","one_one","1","direct_first","1","hr05nz15","0","33","2","1","3","1","","0","1","0","null","","","<div class = 'row'><div class = 'column'><img src = 'category4/CS1.png' width = '70%;'></div><div class = 'column'><img src = 'uspos/2208.bmp' width = '100%;'></div></div>","null","pos","CS","CS","4","category4/CS1.png","","","","",""
"","html-keyboard-response","36","1475061","0.0-6.0-2.0-0.9","z79mzj78u9","one_one","1","direct_first","1","hr05nz15","0","33","2","1","3","1","","0","1","0","null","","","<div class = 'row'><div class = 'column'><img src = 'category2/CS2.png' width = '70%;'></div><div class = 'column'><img src = 'usneg/1280.bmp' width = '100%;'></div></div>","null","neg","CS","CS","2","category2/CS2.png","","","","",""
"","html-keyboard-response","37","1477581","0.0-6.0-2.0-0.10","z79mzj78u9","one_one","1","direct_first","1","hr05nz15","0","33","2","1","3","1","","0","1","0","null","","","<div class = 'row'><div class = 'column'><img src = 'usneg/9280.bmp' width = '100%;'></div><div class = 'column'><img src = 'category3/CS5.png' width = '70%;'></div></div>","null","neg","CS","CS","3","category3/CS5.png","","","","",""
"","html-keyboard-response","38","1480112","0.0-6.0-2.0-0.11","z79mzj78u9","one_one","1","direct_first","1","hr05nz15","0","33","2","1","3","1","","0","1","0","null","","","<div class = 'row'><div class = 'column'><img src = 'category1/CS3.png' width = '70%;'></div><div class = 'column'><img src = 'uspos/1340.bmp' width = '100%;'></div></div>","null","pos","CS","CS","1","category1/CS3.png","","","","",""
"","html-keyboard-response","39","1482630","0.0-6.0-2.0-0.12","z79mzj78u9","one_one","1","direct_first","1","hr05nz15","0","33","2","1","3","1","","0","1","0","null","","","<div class = 'row'><div class = 'column'><img src = 'category2/CS2.png' width = '70%;'></div><div class = 'column'><img src = 'usneg/1280.bmp' width = '100%;'></div></div>","null","neg","CS","CS","2","category2/CS2.png","","","","",""
"","html-keyboard-response","40","1485149","0.0-6.0-2.0-0.13","z79mzj78u9","one_one","1","direct_first","1","hr05nz15","0","33","2","1","3","1","","0","1","0","null","","","<div class = 'row'><div class = 'column'><img src = 'category1/CS3.png' width = '70%;'></div><div class = 'column'><img src = 'uspos/1340.bmp' width = '100%;'></div></div>","null","pos","CS","CS","1","category1/CS3.png","","","","",""
"","html-keyboard-response","41","1487680","0.0-6.0-2.0-0.14","z79mzj78u9","one_one","1","direct_first","1","hr05nz15","0","33","2","1","3","1","","0","1","0","null","","","<div class = 'row'><div class = 'column'><img src = 'category3/CS5.png' width = '70%;'></div><div class = 'column'><img src = 'usneg/9280.bmp' width = '100%;'></div></div>","null","neg","CS","CS","3","category3/CS5.png","","","","",""
"","html-keyboard-response","42","1490210","0.0-6.0-2.0-0.15","z79mzj78u9","one_one","1","direct_first","1","hr05nz15","0","33","2","1","3","1","","0","1","0","null","","","<div class = 'row'><div class = 'column'><img src = 'uspos/1340.bmp' width = '100%;'></div><div class = 'column'><img src = 'category1/CS3.png' width = '70%;'></div></div>","null","pos","CS","CS","1","category1/CS3.png","","","","",""
"","html-keyboard-response","43","1492750","0.0-6.0-2.0-0.16","z79mzj78u9","one_one","1","direct_first","1","hr05nz15","0","33","2","1","3","1","","0","1","0","null","","","<div class = 'row'><div class = 'column'><img src = 'uspos/2208.bmp' width = '100%;'></div><div class = 'column'><img src = 'category4/CS1.png' width = '70%;'></div></div>","null","pos","CS","CS","4","category4/CS1.png","","","","",""
"","html-keyboard-response","44","1495269","0.0-6.0-2.0-0.17","z79mzj78u9","one_one","1","direct_first","1","hr05nz15","0","33","2","1","3","1","","0","1","0","null","","","<div class = 'row'><div class = 'column'><img src = 'category2/CS2.png' width = '70%;'></div><div class = 'column'><img src = 'usneg/1280.bmp' width = '100%;'></div></div>","null","neg","CS","CS","2","category2/CS2.png","","","","",""
"","html-keyboard-response","45","1497790","0.0-6.0-2.0-0.18","z79mzj78u9","one_one","1","direct_first","1","hr05nz15","0","33","2","1","3","1","","0","1","0","null","","","<div class = 'row'><div class = 'column'><img src = 'usneg/9280.bmp' width = '100%;'></div><div class = 'column'><img src = 'category3/CS5.png' width = '70%;'></div></div>","null","neg","CS","CS","3","category3/CS5.png","","","","",""
"","html-keyboard-response","46","1500310","0.0-6.0-2.0-0.19","z79mzj78u9","one_one","1","direct_first","1","hr05nz15","0","33","2","1","3","1","","0","1","0","null","","","<div class = 'row'><div class = 'column'><img src = 'uspos/2208.bmp' width = '100%;'></div><div class = 'column'><img src = 'category4/CS1.png' width = '70%;'></div></div>","null","pos","CS","CS","4","category4/CS1.png","","","","",""
"","survey-html-form","47","1502329","0.0-6.0-3.0","z79mzj78u9","one_one","1","direct_first","1","hr05nz15","0","33","2","1","3","1","","0","1","0","1511","","{}","","","","","","","","","","","",""
"","html-keyboard-response","48","1506342","0.0-6.0-4.0-0.0","z79mzj78u9","one_one","1","direct_first","1","hr05nz15","0","33","2","1","3","1","","0","1","0","null","","","<div class = 'row'><div class = 'column'><img src = 'usneg/9280.bmp' width = '100%;'></div><div class = 'column'><img src = 'category3/CS5.png' width = '70%;'></div></div>","null","neg","CS","CS","3","category3/CS5.png","","","","",""
"","html-keyboard-response","49","1508882","0.0-6.0-4.0-0.1","z79mzj78u9","one_one","1","direct_first","1","hr05nz15","0","33","2","1","3","1","","0","1","0","null","","","<div class = 'row'><div class = 'column'><img src = 'usneg/1280.bmp' width = '100%;'></div><div class = 'column'><img src = 'category2/CS2.png' width = '70%;'></div></div>","null","neg","CS","CS","2","category2/CS2.png","","","","",""
"","html-keyboard-response","50","1511420","0.0-6.0-4.0-0.2","z79mzj78u9","one_one","1","direct_first","1","hr05nz15","0","33","2","1","3","1","","0","1","0","null","","","<div class = 'row'><div class = 'column'><img src = 'category1/CS3.png' width = '70%;'></div><div class = 'column'><img src = 'uspos/1340.bmp' width = '100%;'></div></div>","null","pos","CS","CS","1","category1/CS3.png","","","","",""
"","html-keyboard-response","51","1513951","0.0-6.0-4.0-0.3","z79mzj78u9","one_one","1","direct_first","1","hr05nz15","0","33","2","1","3","1","","0","1","0","null","","","<div class = 'row'><div class = 'column'><img src = 'category2/CS2.png' width = '70%;'></div><div class = 'column'><img src = 'usneg/1280.bmp' width = '100%;'></div></div>","null","neg","CS","CS","2","category2/CS2.png","","","","",""
"","html-keyboard-response","52","1516480","0.0-6.0-4.0-0.4","z79mzj78u9","one_one","1","direct_first","1","hr05nz15","0","33","2","1","3","1","","0","1","0","null","","","<div class = 'row'><div class = 'column'><img src = 'category1/CS3.png' width = '70%;'></div><div class = 'column'><img src = 'uspos/1340.bmp' width = '100%;'></div></div>","null","pos","CS","CS","1","category1/CS3.png","","","","",""
"","html-keyboard-response","53","1519022","0.0-6.0-4.0-0.5","z79mzj78u9","one_one","1","direct_first","1","hr05nz15","0","33","2","1","3","1","","0","1","0","null","","","<div class = 'row'><div class = 'column'><img src = 'usneg/1280.bmp' width = '100%;'></div><div class = 'column'><img src = 'category2/CS2.png' width = '70%;'></div></div>","null","neg","CS","CS","2","category2/CS2.png","","","","",""
"","html-keyboard-response","54","1521550","0.0-6.0-4.0-0.6","z79mzj78u9","one_one","1","direct_first","1","hr05nz15","0","33","2","1","3","1","","0","1","0","null","","","<div class = 'row'><div class = 'column'><img src = 'category4/CS1.png' width = '70%;'></div><div class = 'column'><img src = 'uspos/2208.bmp' width = '100%;'></div></div>","null","pos","CS","CS","4","category4/CS1.png","","","","",""
"","html-keyboard-response","55","1524080","0.0-6.0-4.0-0.7","z79mzj78u9","one_one","1","direct_first","1","hr05nz15","0","33","2","1","3","1","","0","1","0","null","","","<div class = 'row'><div class = 'column'><img src = 'category1/CS3.png' width = '70%;'></div><div class = 'column'><img src = 'uspos/1340.bmp' width = '100%;'></div></div>","null","pos","CS","CS","1","category1/CS3.png","","","","",""
"","html-keyboard-response","56","1526611","0.0-6.0-4.0-0.8","z79mzj78u9","one_one","1","direct_first","1","hr05nz15","0","33","2","1","3","1","","0","1","0","null","","","<div class = 'row'><div class = 'column'><img src = 'uspos/2208.bmp' width = '100%;'></div><div class = 'column'><img src = 'category4/CS1.png' width = '70%;'></div></div>","null","pos","CS","CS","4","category4/CS1.png","","","","",""
"","html-keyboard-response","57","1529131","0.0-6.0-4.0-0.9","z79mzj78u9","one_one","1","direct_first","1","hr05nz15","0","33","2","1","3","1","","0","1","0","null","","","<div class = 'row'><div class = 'column'><img src = 'usneg/9280.bmp' width = '100%;'></div><div class = 'column'><img src = 'category3/CS5.png' width = '70%;'></div></div>","null","neg","CS","CS","3","category3/CS5.png","","","","",""
"","html-keyboard-response","58","1531660","0.0-6.0-4.0-0.10","z79mzj78u9","one_one","1","direct_first","1","hr05nz15","0","33","2","1","3","1","","0","1","0","null","","","<div class = 'row'><div class = 'column'><img src = 'category4/CS1.png' width = '70%;'></div><div class = 'column'><img src = 'uspos/2208.bmp' width = '100%;'></div></div>","null","pos","CS","CS","4","category4/CS1.png","","","","",""
"","html-keyboard-response","59","1534190","0.0-6.0-4.0-0.11","z79mzj78u9","one_one","1","direct_first","1","hr05nz15","0","33","2","1","3","1","","0","1","0","null","","","<div class = 'row'><div class = 'column'><img src = 'uspos/1340.bmp' width = '100%;'></div><div class = 'column'><img src = 'category1/CS3.png' width = '70%;'></div></div>","null","pos","CS","CS","1","category1/CS3.png","","","","",""
"","html-keyboard-response","60","1536721","0.0-6.0-4.0-0.12","z79mzj78u9","one_one","1","direct_first","1","hr05nz15","0","33","2","1","3","1","","0","1","0","null","","","<div class = 'row'><div class = 'column'><img src = 'category2/CS2.png' width = '70%;'></div><div class = 'column'><img src = 'usneg/1280.bmp' width = '100%;'></div></div>","null","neg","CS","CS","2","category2/CS2.png","","","","",""
"","html-keyboard-response","61","1539242","0.0-6.0-4.0-0.13","z79mzj78u9","one_one","1","direct_first","1","hr05nz15","0","33","2","1","3","1","","0","1","0","null","","","<div class = 'row'><div class = 'column'><img src = 'category3/CS5.png' width = '70%;'></div><div class = 'column'><img src = 'usneg/9280.bmp' width = '100%;'></div></div>","null","neg","CS","CS","3","category3/CS5.png","","","","",""
"","html-keyboard-response","62","1541780","0.0-6.0-4.0-0.14","z79mzj78u9","one_one","1","direct_first","1","hr05nz15","0","33","2","1","3","1","","0","1","0","null","","","<div class = 'row'><div class = 'column'><img src = 'category1/CS3.png' width = '70%;'></div><div class = 'column'><img src = 'uspos/1340.bmp' width = '100%;'></div></div>","null","pos","CS","CS","1","category1/CS3.png","","","","",""
"","html-keyboard-response","63","1544311","0.0-6.0-4.0-0.15","z79mzj78u9","one_one","1","direct_first","1","hr05nz15","0","33","2","1","3","1","","0","1","0","null","","","<div class = 'row'><div class = 'column'><img src = 'category2/CS2.png' width = '70%;'></div><div class = 'column'><img src = 'usneg/1280.bmp' width = '100%;'></div></div>","null","neg","CS","CS","2","category2/CS2.png","","","","",""
"","html-keyboard-response","64","1546825","0.0-6.0-4.0-0.16","z79mzj78u9","one_one","1","direct_first","1","hr05nz15","0","33","2","1","3","1","","0","1","0","null","","","<div class = 'row'><div class = 'column'><img src = 'category4/CS1.png' width = '70%;'></div><div class = 'column'><img src = 'uspos/2208.bmp' width = '100%;'></div></div>","null","pos","CS","CS","4","category4/CS1.png","","","","",""
"","html-keyboard-response","65","1549331","0.0-6.0-4.0-0.17","z79mzj78u9","one_one","1","direct_first","1","hr05nz15","0","33","2","1","3","1","","0","1","0","null","","","<div class = 'row'><div class = 'column'><img src = 'category3/CS5.png' width = '70%;'></div><div class = 'column'><img src = 'usneg/9280.bmp' width = '100%;'></div></div>","null","neg","CS","CS","3","category3/CS5.png","","","","",""
"","html-keyboard-response","66","1551850","0.0-6.0-4.0-0.18","z79mzj78u9","one_one","1","direct_first","1","hr05nz15","0","33","2","1","3","1","","0","1","0","null","","","<div class = 'row'><div class = 'column'><img src = 'category4/CS1.png' width = '70%;'></div><div class = 'column'><img src = 'uspos/2208.bmp' width = '100%;'></div></div>","null","pos","CS","CS","4","category4/CS1.png","","","","",""
"","html-keyboard-response","67","1554380","0.0-6.0-4.0-0.19","z79mzj78u9","one_one","1","direct_first","1","hr05nz15","0","33","2","1","3","1","","0","1","0","null","","","<div class = 'row'><div class = 'column'><img src = 'category3/CS5.png' width = '70%;'></div><div class = 'column'><img src = 'usneg/9280.bmp' width = '100%;'></div></div>","null","neg","CS","CS","3","category3/CS5.png","","","","",""
"","survey-html-form","68","1556072","0.0-6.0-5.0","z79mzj78u9","one_one","1","direct_first","1","hr05nz15","0","33","2","1","3","1","","0","1","0","1172","","{}","","","","","","","","","","","",""
"","html-keyboard-response","69","1560110","0.0-6.0-6.0-0.0","z79mzj78u9","one_one","1","direct_first","1","hr05nz15","0","33","2","1","3","1","","0","1","0","null","","","<div class = 'row'><div class = 'column'><img src = 'uspos/2208.bmp' width = '100%;'></div><div class = 'column'><img src = 'category4/CS1.png' width = '70%;'></div></div>","null","pos","CS","CS","4","category4/CS1.png","","","","",""
"","html-keyboard-response","70","1562640","0.0-6.0-6.0-0.1","z79mzj78u9","one_one","1","direct_first","1","hr05nz15","0","33","2","1","3","1","","0","1","0","null","","","<div class = 'row'><div class = 'column'><img src = 'category2/CS2.png' width = '70%;'></div><div class = 'column'><img src = 'usneg/1280.bmp' width = '100%;'></div></div>","null","neg","CS","CS","2","category2/CS2.png","","","","",""
"","html-keyboard-response","71","1565180","0.0-6.0-6.0-0.2","z79mzj78u9","one_one","1","direct_first","1","hr05nz15","0","33","2","1","3","1","","0","1","0","null","","","<div class = 'row'><div class = 'column'><img src = 'usneg/9280.bmp' width = '100%;'></div><div class = 'column'><img src = 'category3/CS5.png' width = '70%;'></div></div>","null","neg","CS","CS","3","category3/CS5.png","","","","",""
"","html-keyboard-response","72","1567700","0.0-6.0-6.0-0.3","z79mzj78u9","one_one","1","direct_first","1","hr05nz15","0","33","2","1","3","1","","0","1","0","null","","","<div class = 'row'><div class = 'column'><img src = 'uspos/1340.bmp' width = '100%;'></div><div class = 'column'><img src = 'category1/CS3.png' width = '70%;'></div></div>","null","pos","CS","CS","1","category1/CS3.png","","","","",""
"","html-keyboard-response","73","1570230","0.0-6.0-6.0-0.4","z79mzj78u9","one_one","1","direct_first","1","hr05nz15","0","33","2","1","3","1","","0","1","0","null","","","<div class = 'row'><div class = 'column'><img src = 'usneg/9280.bmp' width = '100%;'></div><div class = 'column'><img src = 'category3/CS5.png' width = '70%;'></div></div>","null","neg","CS","CS","3","category3/CS5.png","","","","",""
"","html-keyboard-response","74","1572761","0.0-6.0-6.0-0.5","z79mzj78u9","one_one","1","direct_first","1","hr05nz15","0","33","2","1","3","1","","0","1","0","null","","","<div class = 'row'><div class = 'column'><img src = 'uspos/2208.bmp' width = '100%;'></div><div class = 'column'><img src = 'category4/CS1.png' width = '70%;'></div></div>","null","pos","CS","CS","4","category4/CS1.png","","","","",""
"","html-keyboard-response","75","1575302","0.0-6.0-6.0-0.6","z79mzj78u9","one_one","1","direct_first","1","hr05nz15","0","33","2","1","3","1","","0","1","0","null","","","<div class = 'row'><div class = 'column'><img src = 'usneg/9280.bmp' width = '100%;'></div><div class = 'column'><img src = 'category3/CS5.png' width = '70%;'></div></div>","null","neg","CS","CS","3","category3/CS5.png","","","","",""
"","html-keyboard-response","76","1577821","0.0-6.0-6.0-0.7","z79mzj78u9","one_one","1","direct_first","1","hr05nz15","0","33","2","1","3","1","","0","1","0","null","","","<div class = 'row'><div class = 'column'><img src = 'uspos/1340.bmp' width = '100%;'></div><div class = 'column'><img src = 'category1/CS3.png' width = '70%;'></div></div>","null","pos","CS","CS","1","category1/CS3.png","","","","",""
"","html-keyboard-response","77","1580350","0.0-6.0-6.0-0.8","z79mzj78u9","one_one","1","direct_first","1","hr05nz15","0","33","2","1","3","1","","0","1","0","null","","","<div class = 'row'><div class = 'column'><img src = 'category2/CS2.png' width = '70%;'></div><div class = 'column'><img src = 'usneg/1280.bmp' width = '100%;'></div></div>","null","neg","CS","CS","2","category2/CS2.png","","","","",""
"","html-keyboard-response","78","1582871","0.0-6.0-6.0-0.9","z79mzj78u9","one_one","1","direct_first","1","hr05nz15","0","33","2","1","3","1","","0","1","0","null","","","<div class = 'row'><div class = 'column'><img src = 'category4/CS1.png' width = '70%;'></div><div class = 'column'><img src = 'uspos/2208.bmp' width = '100%;'></div></div>","null","pos","CS","CS","4","category4/CS1.png","","","","",""
"","html-keyboard-response","79","1585410","0.0-6.0-6.0-0.10","z79mzj78u9","one_one","1","direct_first","1","hr05nz15","0","33","2","1","3","1","","0","1","0","null","","","<div class = 'row'><div class = 'column'><img src = 'category3/CS5.png' width = '70%;'></div><div class = 'column'><img src = 'usneg/9280.bmp' width = '100%;'></div></div>","null","neg","CS","CS","3","category3/CS5.png","","","","",""
"","html-keyboard-response","80","1587950","0.0-6.0-6.0-0.11","z79mzj78u9","one_one","1","direct_first","1","hr05nz15","0","33","2","1","3","1","","0","1","0","null","","","<div class = 'row'><div class = 'column'><img src = 'uspos/2208.bmp' width = '100%;'></div><div class = 'column'><img src = 'category4/CS1.png' width = '70%;'></div></div>","null","pos","CS","CS","4","category4/CS1.png","","","","",""
"","html-keyboard-response","81","1590480","0.0-6.0-6.0-0.12","z79mzj78u9","one_one","1","direct_first","1","hr05nz15","0","33","2","1","3","1","","0","1","0","null","","","<div class = 'row'><div class = 'column'><img src = 'uspos/1340.bmp' width = '100%;'></div><div class = 'column'><img src = 'category1/CS3.png' width = '70%;'></div></div>","null","pos","CS","CS","1","category1/CS3.png","","","","",""
"","html-keyboard-response","82","1593011","0.0-6.0-6.0-0.13","z79mzj78u9","one_one","1","direct_first","1","hr05nz15","0","33","2","1","3","1","","0","1","0","null","","","<div class = 'row'><div class = 'column'><img src = 'usneg/1280.bmp' width = '100%;'></div><div class = 'column'><img src = 'category2/CS2.png' width = '70%;'></div></div>","null","neg","CS","CS","2","category2/CS2.png","","","","",""
"","html-keyboard-response","83","1595551","0.0-6.0-6.0-0.14","z79mzj78u9","one_one","1","direct_first","1","hr05nz15","0","33","2","1","3","1","","0","1","0","null","","","<div class = 'row'><div class = 'column'><img src = 'category1/CS3.png' width = '70%;'></div><div class = 'column'><img src = 'uspos/1340.bmp' width = '100%;'></div></div>","null","pos","CS","CS","1","category1/CS3.png","","","","",""
"","html-keyboard-response","84","1598090","0.0-6.0-6.0-0.15","z79mzj78u9","one_one","1","direct_first","1","hr05nz15","0","33","2","1","3","1","","0","1","0","null","","","<div class = 'row'><div class = 'column'><img src = 'category3/CS5.png' width = '70%;'></div><div class = 'column'><img src = 'usneg/9280.bmp' width = '100%;'></div></div>","null","neg","CS","CS","3","category3/CS5.png","","","","",""
"","html-keyboard-response","85","1600621","0.0-6.0-6.0-0.16","z79mzj78u9","one_one","1","direct_first","1","hr05nz15","0","33","2","1","3","1","","0","1","0","null","","","<div class = 'row'><div class = 'column'><img src = 'category2/CS2.png' width = '70%;'></div><div class = 'column'><img src = 'usneg/1280.bmp' width = '100%;'></div></div>","null","neg","CS","CS","2","category2/CS2.png","","","","",""
"","html-keyboard-response","86","1603150","0.0-6.0-6.0-0.17","z79mzj78u9","one_one","1","direct_first","1","hr05nz15","0","33","2","1","3","1","","0","1","0","null","","","<div class = 'row'><div class = 'column'><img src = 'category1/CS3.png' width = '70%;'></div><div class = 'column'><img src = 'uspos/1340.bmp' width = '100%;'></div></div>","null","pos","CS","CS","1","category1/CS3.png","","","","",""
"","html-keyboard-response","87","1605670","0.0-6.0-6.0-0.18","z79mzj78u9","one_one","1","direct_first","1","hr05nz15","0","33","2","1","3","1","","0","1","0","null","","","<div class = 'row'><div class = 'column'><img src = 'uspos/2208.bmp' width = '100%;'></div><div class = 'column'><img src = 'category4/CS1.png' width = '70%;'></div></div>","null","pos","CS","CS","4","category4/CS1.png","","","","",""
"","html-keyboard-response","88","1608210","0.0-6.0-6.0-0.19","z79mzj78u9","one_one","1","direct_first","1","hr05nz15","0","33","2","1","3","1","","0","1","0","null","","","<div class = 'row'><div class = 'column'><img src = 'usneg/1280.bmp' width = '100%;'></div><div class = 'column'><img src = 'category2/CS2.png' width = '70%;'></div></div>","null","neg","CS","CS","2","category2/CS2.png","","","","",""
"","survey-html-form","89","1617930","0.0-7.0","z79mzj78u9","one_one","1","direct_first","1","hr05nz15","0","33","2","1","3","1","","0","1","0","9206","","{}","","","","","","","","","","","",""
"","image-slider-response","90","1629153","0.0-8.0-0.0","z79mzj78u9","one_one","1","direct_first","1","hr05nz15","0","33","2","1","3","1","","0","1","0","9179","","","","","neg","GS","GSnew","2","category2/GS1.png","53","targets/48.png","direct","",""
"","image-slider-response","91","1634845","0.0-8.0-0.1","z79mzj78u9","one_one","1","direct_first","1","hr05nz15","0","33","2","1","3","1","","0","1","0","5678","","","","","neg","GS","GSold","3","category3/CS1.png","56","targets/20.png","direct","",""
"","image-slider-response","92","1638277","0.0-8.0-0.2","z79mzj78u9","one_one","1","direct_first","1","hr05nz15","0","33","2","1","3","1","","0","1","0","3415","","","","","pos","GS","GSnew","4","category4/GS3.png","40","targets/17.png","direct","",""
"","image-slider-response","93","1640693","0.0-8.0-0.3","z79mzj78u9","one_one","1","direct_first","1","hr05nz15","0","33","2","1","3","1","","0","1","0","2401","","","","","neg","GS","GSnew","2","category2/GS3.png","33","targets/3.png","direct","",""
"","image-slider-response","94","1644303","0.0-8.0-0.4","z79mzj78u9","one_one","1","direct_first","1","hr05nz15","0","33","2","1","3","1","","0","1","0","3596","","","","","neg","GS","GSold","3","category3/CS9.png","31","targets/34.png","direct","",""
"","image-slider-response","95","1646809","0.0-8.0-0.5","z79mzj78u9","one_one","1","direct_first","1","hr05nz15","0","33","2","1","3","1","","0","1","0","2489","","","","","pos","GS","GSnew","1","category1/GS1.png","47","targets/47.png","direct","",""
"","image-slider-response","96","1650199","0.0-8.0-0.6","z79mzj78u9","one_one","1","direct_first","1","hr05nz15","0","33","2","1","3","1","","0","1","0","3373","","","","","pos","GS","abstract","1","category1/ma.png","36","targets/22.png","direct","",""
"","image-slider-response","97","1655879","0.0-8.0-0.7","z79mzj78u9","one_one","1","direct_first","1","hr05nz15","0","33","2","1","3","1","","0","1","0","5667","","","","","pos","CS","CS","1","category1/CS3.png","34","targets/14.png","direct","",""
"","image-slider-response","98","1658421","0.0-8.0-0.8","z79mzj78u9","one_one","1","direct_first","1","hr05nz15","0","33","2","1","3","1","","0","1","0","2526","","","","","neg","GS","GSnew","3","category3/GS2.png","57","targets/10.png","direct","",""
"","image-slider-response","99","1660497","0.0-8.0-0.9","z79mzj78u9","one_one","1","direct_first","1","hr05nz15","0","33","2","1","3","1","","0","1","0","2062","","","","","neg","GS","GSnew","3","category3/GS1.png","40","targets/35.png","direct","",""
"","image-slider-response","100","1665229","0.0-8.0-0.10","z79mzj78u9","one_one","1","direct_first","1","hr05nz15","0","33","2","1","3","1","","0","1","0","4713","","","","","neg","GS","GSold","2","category2/CS10.png","31","targets/41.png","direct","",""
"","image-slider-response","101","1668931","0.0-8.0-0.11","z79mzj78u9","one_one","1","direct_first","1","hr05nz15","0","33","2","1","3","1","","0","1","0","3690","","","","","neg","GS","GSold","2","category2/CS1.png","9","targets/27.png","direct","",""
"","image-slider-response","102","1672213","0.0-8.0-0.12","z79mzj78u9","one_one","1","direct_first","1","hr05nz15","0","33","2","1","3","1","","0","1","0","3269","","","","","pos","GS","GSold","1","category1/CS7.png","22","targets/26.png","direct","",""
"","image-slider-response","103","1675617","0.0-8.0-0.13","z79mzj78u9","one_one","1","direct_first","1","hr05nz15","0","33","2","1","3","1","","0","1","0","3388","","","","","pos","GS","abstract","4","category4/lin.png","15","targets/24.png","direct","",""
"","image-slider-response","104","1678976","0.0-8.0-0.14","z79mzj78u9","one_one","1","direct_first","1","hr05nz15","0","33","2","1","3","1","","0","1","0","3341","","","","","neg","GS","GSold","3","category3/CS2.png","5","targets/46.png","direct","",""
"","image-slider-response","105","1681627","0.0-8.0-0.15","z79mzj78u9","one_one","1","direct_first","1","hr05nz15","0","33","2","1","3","1","","0","1","0","2637","","","","","neg","CS","CS","3","category3/CS5.png","3","targets/6.png","direct","",""
"","image-slider-response","106","1684711","0.0-8.0-0.16","z79mzj78u9","one_one","1","direct_first","1","hr05nz15","0","33","2","1","3","1","","0","1","0","3071","","","","","pos","GS","GSnew","1","category1/GS3.png","13","targets/30.png","direct","",""
"","image-slider-response","107","1687773","0.0-8.0-0.17","z79mzj78u9","one_one","1","direct_first","1","hr05nz15","0","33","2","1","3","1","","0","1","0","3046","","","","","neg","GS","GSold","2","category2/CS3.png","8","targets/38.png","direct","",""
"","image-slider-response","108","1689794","0.0-8.0-0.18","z79mzj78u9","one_one","1","direct_first","1","hr05nz15","0","33","2","1","3","1","","0","1","0","2002","","","","","neg","GS","GSnew","2","category2/GS2.png","17","targets/33.png","direct","",""
"","image-slider-response","109","1692371","0.0-8.0-0.19","z79mzj78u9","one_one","1","direct_first","1","hr05nz15","0","33","2","1","3","1","","0","1","0","2559","","","","","neg","GS","abstract","2","category2/men.png","-10","targets/31.png","direct","",""
"","image-slider-response","110","1694711","0.0-8.0-0.20","z79mzj78u9","one_one","1","direct_first","1","hr05nz15","0","33","2","1","3","1","","0","1","0","2319","","","","","pos","GS","GSnew","4","category4/GS2.png","22","targets/1.png","direct","",""
"","image-slider-response","111","1696735","0.0-8.0-0.21","z79mzj78u9","one_one","1","direct_first","1","hr05nz15","0","33","2","1","3","1","","0","1","0","2008","","","","","pos","GS","GSold","4","category4/CS9.png","-8","targets/8.png","direct","",""
"","image-slider-response","112","1698531","0.0-8.0-0.22","z79mzj78u9","one_one","1","direct_first","1","hr05nz15","0","33","2","1","3","1","","0","1","0","1772","","","","","pos","GS","GSold","1","category1/CS4.png","31","targets/37.png","direct","",""
"","image-slider-response","113","1700831","0.0-8.0-0.23","z79mzj78u9","one_one","1","direct_first","1","hr05nz15","0","33","2","1","3","1","","0","1","0","2285","","","","","neg","CS","CS","2","category2/CS2.png","13","targets/16.png","direct","",""
"","image-slider-response","114","1703013","0.0-8.0-0.24","z79mzj78u9","one_one","1","direct_first","1","hr05nz15","0","33","2","1","3","1","","0","1","0","2163","","","","","pos","CS","CS","4","category4/CS1.png","20","targets/9.png","direct","",""
"","image-slider-response","115","1704778","0.0-8.0-0.25","z79mzj78u9","one_one","1","direct_first","1","hr05nz15","0","33","2","1","3","1","","0","1","0","1746","","","","","neg","GS","GSnew","3","category3/GS3.png","15","targets/36.png","direct","",""
"","image-slider-response","116","1707019","0.0-8.0-0.26","z79mzj78u9","one_one","1","direct_first","1","hr05nz15","0","33","2","1","3","1","","0","1","0","2228","","","","","pos","GS","GSold","4","category4/CS6.png","23","targets/19.png","direct","",""
"","image-slider-response","117","1709340","0.0-8.0-0.27","z79mzj78u9","one_one","1","direct_first","1","hr05nz15","0","33","2","1","3","1","","0","1","0","2301","","","","","neg","GS","abstract","3","category3/wang.png","-11","targets/32.png","direct","",""
"","image-slider-response","118","1711381","0.0-8.0-0.28","z79mzj78u9","one_one","1","direct_first","1","hr05nz15","0","33","2","1","3","1","","0","1","0","2025","","","","","pos","GS","GSold","1","category1/CS5.png","20","targets/12.png","direct","",""
"","image-slider-response","119","1713383","0.0-8.0-0.29","z79mzj78u9","one_one","1","direct_first","1","hr05nz15","0","33","2","1","3","1","","0","1","0","1986","","","","","pos","GS","GSnew","1","category1/GS2.png","27","targets/13.png","direct","",""
"","image-slider-response","120","1715560","0.0-8.0-0.30","z79mzj78u9","one_one","1","direct_first","1","hr05nz15","0","33","2","1","3","1","","0","1","0","2161","","","","","pos","GS","GSnew","4","category4/GS1.png","43","targets/25.png","direct","",""
"","image-slider-response","121","1717877","0.0-8.0-0.31","z79mzj78u9","one_one","1","direct_first","1","hr05nz15","0","33","2","1","3","1","","0","1","0","2302","","","","","pos","GS","GSold","4","category4/CS8.png","20","targets/45.png","direct","",""
"","html-keyboard-response","122","1734497","0.0-9.0","z79mzj78u9","one_one","1","direct_first","1","hr05nz15","0","33","2","1","3","1","","0","1","0","16608","","","<p>Sie sehen nun die chinesischen Zeichen nur ganz kurz. Danach sehen Sie die jeweilige Aussprache der Zeichen als Silbe auf dem Bildschrim. Ihre Aufgabe ist es, für jede Silbe anzugeben, ob diese etwas angenehmes, oder unangenehmes bedeuten könnte. Verlassen Sie sich hier vor allem auf Ihre Intuition.<br><br>Die Zeichen werden nur zur Orientierung dargestellt, beachten Sie sie deshalb nicht. Konzentrieren Sie sich vor allem auf die Silben. <br>Reagieren Sie mit folgenden zwei Tasten: <br><br><b>'D' </b> wenn die Silbe etwas <b>unangenehmes</b> bedeuten könnte. <br><b>'K'</b> wenn die Silbe etwas <b>angenehmes</b> bedeuten könnte. <br><br>Bitte legen Sie nun den Zeigefinger der linken Hand auf die Taste 'D' und den Zeigefinger der rechten Hand auf die Taste 'K'. <br>Reagieren Sie auf jede Silbe so schnell wie möglich. Uns interessiert Ihre spontane Reaktion. <br> <br> <br>Drücken Sie 'D' oder 'K', um die nächste Aufgabe zu starten. </p>","68","","","","","","","","","",""
"","html-keyboard-response","123","1737529","0.0-10.0-0.0","z79mzj78u9","one_one","1","direct_first","1","hr05nz15","0","33","2","1","3","1","","0","1","0","null","","","<div style=""font-size:60px;"">+</div>","null","","","","","","","","","",""
"","html-keyboard-response","124","1737640","0.0-10.0-1.0","z79mzj78u9","one_one","1","direct_first","1","hr05nz15","0","33","2","1","3","1","","0","1","0","null","","","<img src = 'category3/CS1.png' width = '100%;'>","null","","","","","","","","","",""
"","html-keyboard-response","125","1737908","0.0-10.0-2.0","z79mzj78u9","one_one","1","direct_first","1","hr05nz15","0","33","2","1","3","1","","0","1","0","null","","","<img src = 'targets/20.png' width = '100%;'>","null","","","","","","","","","",""
"","html-keyboard-response","126","1745091","0.0-10.0-3.0","z79mzj78u9","one_one","1","direct_first","1","hr05nz15","0","33","2","1","3","1","","0","1","0","7178","","","<img src = 'targets/mask.png' width = '100%;'>","75","neg","GS","GSold","3","category3/CS1.png","","targets/20.png","indirect","1","0"
"","html-keyboard-response","127","1746619","0.0-10.0-0.1","z79mzj78u9","one_one","1","direct_first","1","hr05nz15","0","33","2","1","3","1","","0","1","0","null","","","<div style=""font-size:60px;"">+</div>","null","","","","","","","","","",""
"","html-keyboard-response","128","1746720","0.0-10.0-1.1","z79mzj78u9","one_one","1","direct_first","1","hr05nz15","0","33","2","1","3","1","","0","1","0","null","","","<img src = 'category1/CS4.png' width = '100%;'>","null","","","","","","","","","",""
"","html-keyboard-response","129","1746989","0.0-10.0-2.1","z79mzj78u9","one_one","1","direct_first","1","hr05nz15","0","33","2","1","3","1","","0","1","0","null","","","<img src = 'targets/37.png' width = '100%;'>","null","","","","","","","","","",""
"","html-keyboard-response","130","1749889","0.0-10.0-3.1","z79mzj78u9","one_one","1","direct_first","1","hr05nz15","0","33","2","1","3","1","","0","1","0","2896","","","<img src = 'targets/mask.png' width = '100%;'>","75","pos","GS","GSold","1","category1/CS4.png","","targets/37.png","indirect","1","1"
"","html-keyboard-response","131","1751410","0.0-10.0-0.2","z79mzj78u9","one_one","1","direct_first","1","hr05nz15","0","33","2","1","3","1","","0","1","0","null","","","<div style=""font-size:60px;"">+</div>","null","","","","","","","","","",""
"","html-keyboard-response","132","1751509","0.0-10.0-1.2","z79mzj78u9","one_one","1","direct_first","1","hr05nz15","0","33","2","1","3","1","","0","1","0","null","","","<img src = 'category1/CS7.png' width = '100%;'>","null","","","","","","","","","",""
"","html-keyboard-response","133","1751776","0.0-10.0-2.2","z79mzj78u9","one_one","1","direct_first","1","hr05nz15","0","33","2","1","3","1","","0","1","0","null","","","<img src = 'targets/26.png' width = '100%;'>","null","","","","","","","","","",""
"","html-keyboard-response","134","1753290","0.0-10.0-3.2","z79mzj78u9","one_one","1","direct_first","1","hr05nz15","0","33","2","1","3","1","","0","1","0","1511","","","<img src = 'targets/mask.png' width = '100%;'>","75","pos","GS","GSold","1","category1/CS7.png","","targets/26.png","indirect","1","2"
"","html-keyboard-response","135","1754819","0.0-10.0-0.3","z79mzj78u9","one_one","1","direct_first","1","hr05nz15","0","33","2","1","3","1","","0","1","0","null","","","<div style=""font-size:60px;"">+</div>","null","","","","","","","","","",""
"","html-keyboard-response","136","1754925","0.0-10.0-1.3","z79mzj78u9","one_one","1","direct_first","1","hr05nz15","0","33","2","1","3","1","","0","1","0","null","","","<img src = 'category2/CS1.png' width = '100%;'>","null","","","","","","","","","",""
"","html-keyboard-response","137","1755193","0.0-10.0-2.3","z79mzj78u9","one_one","1","direct_first","1","hr05nz15","0","33","2","1","3","1","","0","1","0","null","","","<img src = 'targets/27.png' width = '100%;'>","null","","","","","","","","","",""
"","html-keyboard-response","138","1755645","0.0-10.0-3.3","z79mzj78u9","one_one","1","direct_first","1","hr05nz15","0","33","2","1","3","1","","0","1","0","442","","","<img src = 'targets/mask.png' width = '100%;'>","75","neg","GS","GSold","2","category2/CS1.png","","targets/27.png","indirect","1","3"
"","html-keyboard-response","139","1757160","0.0-10.0-0.4","z79mzj78u9","one_one","1","direct_first","1","hr05nz15","0","33","2","1","3","1","","0","1","0","null","","","<div style=""font-size:60px;"">+</div>","null","","","","","","","","","",""
"","html-keyboard-response","140","1757258","0.0-10.0-1.4","z79mzj78u9","one_one","1","direct_first","1","hr05nz15","0","33","2","1","3","1","","0","1","0","null","","","<img src = 'category1/CS5.png' width = '100%;'>","null","","","","","","","","","",""
"","html-keyboard-response","141","1757526","0.0-10.0-2.4","z79mzj78u9","one_one","1","direct_first","1","hr05nz15","0","33","2","1","3","1","","0","1","0","null","","","<img src = 'targets/12.png' width = '100%;'>","null","","","","","","","","","",""
"","html-keyboard-response","142","1759495","0.0-10.0-3.4","z79mzj78u9","one_one","1","direct_first","1","hr05nz15","0","33","2","1","3","1","","0","1","0","1965","","","<img src = 'targets/mask.png' width = '100%;'>","75","pos","GS","GSold","1","category1/CS5.png","","targets/12.png","indirect","1","4"
"","html-keyboard-response","143","1761031","0.0-10.0-0.5","z79mzj78u9","one_one","1","direct_first","1","hr05nz15","0","33","2","1","3","1","","0","1","0","null","","","<div style=""font-size:60px;"">+</div>","null","","","","","","","","","",""
"","html-keyboard-response","144","1761130","0.0-10.0-1.5","z79mzj78u9","one_one","1","direct_first","1","hr05nz15","0","33","2","1","3","1","","0","1","0","null","","","<img src = 'category4/CS6.png' width = '100%;'>","null","","","","","","","","","",""
"","html-keyboard-response","145","1761390","0.0-10.0-2.5","z79mzj78u9","one_one","1","direct_first","1","hr05nz15","0","33","2","1","3","1","","0","1","0","null","","","<img src = 'targets/19.png' width = '100%;'>","null","","","","","","","","","",""
"","html-keyboard-response","146","1761835","0.0-10.0-3.5","z79mzj78u9","one_one","1","direct_first","1","hr05nz15","0","33","2","1","3","1","","0","1","0","440","","","<img src = 'targets/mask.png' width = '100%;'>","75","pos","GS","GSold","4","category4/CS6.png","","targets/19.png","indirect","1","5"
"","html-keyboard-response","147","1763357","0.0-10.0-0.6","z79mzj78u9","one_one","1","direct_first","1","hr05nz15","0","33","2","1","3","1","","0","1","0","null","","","<div style=""font-size:60px;"">+</div>","null","","","","","","","","","",""
"","html-keyboard-response","148","1763459","0.0-10.0-1.6","z79mzj78u9","one_one","1","direct_first","1","hr05nz15","0","33","2","1","3","1","","0","1","0","null","","","<img src = 'category1/CS3.png' width = '100%;'>","null","","","","","","","","","",""
"","html-keyboard-response","149","1763725","0.0-10.0-2.6","z79mzj78u9","one_one","1","direct_first","1","hr05nz15","0","33","2","1","3","1","","0","1","0","null","","","<img src = 'targets/14.png' width = '100%;'>","null","","","","","","","","","",""
"","html-keyboard-response","150","1764147","0.0-10.0-3.6","z79mzj78u9","one_one","1","direct_first","1","hr05nz15","0","33","2","1","3","1","","0","1","0","418","","","<img src = 'targets/mask.png' width = '100%;'>","75","pos","CS","CS","1","category1/CS3.png","","targets/14.png","indirect","1","6"
"","html-keyboard-response","151","1765670","0.0-10.0-0.7","z79mzj78u9","one_one","1","direct_first","1","hr05nz15","0","33","2","1","3","1","","0","1","0","null","","","<div style=""font-size:60px;"">+</div>","null","","","","","","","","","",""
"","html-keyboard-response","152","1765776","0.0-10.0-1.7","z79mzj78u9","one_one","1","direct_first","1","hr05nz15","0","33","2","1","3","1","","0","1","0","null","","","<img src = 'category2/CS3.png' width = '100%;'>","null","","","","","","","","","",""
"","html-keyboard-response","153","1766041","0.0-10.0-2.7","z79mzj78u9","one_one","1","direct_first","1","hr05nz15","0","33","2","1","3","1","","0","1","0","null","","","<img src = 'targets/38.png' width = '100%;'>","null","","","","","","","","","",""
"","html-keyboard-response","154","1766465","0.0-10.0-3.7","z79mzj78u9","one_one","1","direct_first","1","hr05nz15","0","33","2","1","3","1","","0","1","0","421","","","<img src = 'targets/mask.png' width = '100%;'>","75","neg","GS","GSold","2","category2/CS3.png","","targets/38.png","indirect","1","7"
"","html-keyboard-response","155","1767981","0.0-10.0-0.8","z79mzj78u9","one_one","1","direct_first","1","hr05nz15","0","33","2","1","3","1","","0","1","0","null","","","<div style=""font-size:60px;"">+</div>","null","","","","","","","","","",""
"","html-keyboard-response","156","1768074","0.0-10.0-1.8","z79mzj78u9","one_one","1","direct_first","1","hr05nz15","0","33","2","1","3","1","","0","1","0","null","","","<img src = 'category2/CS10.png' width = '100%;'>","null","","","","","","","","","",""
"","html-keyboard-response","157","1768341","0.0-10.0-2.8","z79mzj78u9","one_one","1","direct_first","1","hr05nz15","0","33","2","1","3","1","","0","1","0","null","","","<img src = 'targets/41.png' width = '100%;'>","null","","","","","","","","","",""
"","html-keyboard-response","158","1769397","0.0-10.0-3.8","z79mzj78u9","one_one","1","direct_first","1","hr05nz15","0","33","2","1","3","1","","0","1","0","1053","","","<img src = 'targets/mask.png' width = '100%;'>","75","neg","GS","GSold","2","category2/CS10.png","","targets/41.png","indirect","1","8"
"","html-keyboard-response","159","1770909","0.0-10.0-0.9","z79mzj78u9","one_one","1","direct_first","1","hr05nz15","0","33","2","1","3","1","","0","1","0","null","","","<div style=""font-size:60px;"">+</div>","null","","","","","","","","","",""
"","html-keyboard-response","160","1771008","0.0-10.0-1.9","z79mzj78u9","one_one","1","direct_first","1","hr05nz15","0","33","2","1","3","1","","0","1","0","null","","","<img src = 'category3/CS2.png' width = '100%;'>","null","","","","","","","","","",""
"","html-keyboard-response","161","1771276","0.0-10.0-2.9","z79mzj78u9","one_one","1","direct_first","1","hr05nz15","0","33","2","1","3","1","","0","1","0","null","","","<img src = 'targets/46.png' width = '100%;'>","null","","","","","","","","","",""
"","html-keyboard-response","162","1771812","0.0-10.0-3.9","z79mzj78u9","one_one","1","direct_first","1","hr05nz15","0","33","2","1","3","1","","0","1","0","533","","","<img src = 'targets/mask.png' width = '100%;'>","75","neg","GS","GSold","3","category3/CS2.png","","targets/46.png","indirect","1","9"
"","html-keyboard-response","163","1773330","0.0-10.0-0.10","z79mzj78u9","one_one","1","direct_first","1","hr05nz15","0","33","2","1","3","1","","0","1","0","null","","","<div style=""font-size:60px;"">+</div>","null","","","","","","","","","",""
"","html-keyboard-response","164","1773425","0.0-10.0-1.10","z79mzj78u9","one_one","1","direct_first","1","hr05nz15","0","33","2","1","3","1","","0","1","0","null","","","<img src = 'category4/CS8.png' width = '100%;'>","null","","","","","","","","","",""
"","html-keyboard-response","165","1773691","0.0-10.0-2.10","z79mzj78u9","one_one","1","direct_first","1","hr05nz15","0","33","2","1","3","1","","0","1","0","null","","","<img src = 'targets/45.png' width = '100%;'>","null","","","","","","","","","",""
"","html-keyboard-response","166","1774041","0.0-10.0-3.10","z79mzj78u9","one_one","1","direct_first","1","hr05nz15","0","33","2","1","3","1","","0","1","0","345","","","<img src = 'targets/mask.png' width = '100%;'>","75","pos","GS","GSold","4","category4/CS8.png","","targets/45.png","indirect","1","10"
"","html-keyboard-response","167","1775570","0.0-10.0-0.11","z79mzj78u9","one_one","1","direct_first","1","hr05nz15","0","33","2","1","3","1","","0","1","0","null","","","<div style=""font-size:60px;"">+</div>","null","","","","","","","","","",""
"","html-keyboard-response","168","1775669","0.0-10.0-1.11","z79mzj78u9","one_one","1","direct_first","1","hr05nz15","0","33","2","1","3","1","","0","1","0","null","","","<img src = 'category2/CS2.png' width = '100%;'>","null","","","","","","","","","",""
"","html-keyboard-response","169","1775942","0.0-10.0-2.11","z79mzj78u9","one_one","1","direct_first","1","hr05nz15","0","33","2","1","3","1","","0","1","0","null","","","<img src = 'targets/16.png' width = '100%;'>","null","","","","","","","","","",""
"","html-keyboard-response","170","1776465","0.0-10.0-3.11","z79mzj78u9","one_one","1","direct_first","1","hr05nz15","0","33","2","1","3","1","","0","1","0","521","","","<img src = 'targets/mask.png' width = '100%;'>","75","neg","CS","CS","2","category2/CS2.png","","targets/16.png","indirect","1","11"
"","html-keyboard-response","171","1777990","0.0-10.0-0.12","z79mzj78u9","one_one","1","direct_first","1","hr05nz15","0","33","2","1","3","1","","0","1","0","null","","","<div style=""font-size:60px;"">+</div>","null","","","","","","","","","",""
"","html-keyboard-response","172","1778090","0.0-10.0-1.12","z79mzj78u9","one_one","1","direct_first","1","hr05nz15","0","33","2","1","3","1","","0","1","0","null","","","<img src = 'category4/CS9.png' width = '100%;'>","null","","","","","","","","","",""
"","html-keyboard-response","173","1778359","0.0-10.0-2.12","z79mzj78u9","one_one","1","direct_first","1","hr05nz15","0","33","2","1","3","1","","0","1","0","null","","","<img src = 'targets/8.png' width = '100%;'>","null","","","","","","","","","",""
"","html-keyboard-response","174","1778638","0.0-10.0-3.12","z79mzj78u9","one_one","1","direct_first","1","hr05nz15","0","33","2","1","3","1","","0","1","0","277","","","<img src = 'targets/mask.png' width = '100%;'>","75","pos","GS","GSold","4","category4/CS9.png","","targets/8.png","indirect","1","12"
"","html-keyboard-response","175","1780150","0.0-10.0-0.13","z79mzj78u9","one_one","1","direct_first","1","hr05nz15","0","33","2","1","3","1","","0","1","0","null","","","<div style=""font-size:60px;"">+</div>","null","","","","","","","","","",""
"","html-keyboard-response","176","1780250","0.0-10.0-1.13","z79mzj78u9","one_one","1","direct_first","1","hr05nz15","0","33","2","1","3","1","","0","1","0","null","","","<img src = 'category3/CS5.png' width = '100%;'>","null","","","","","","","","","",""
"","html-keyboard-response","177","1780525","0.0-10.0-2.13","z79mzj78u9","one_one","1","direct_first","1","hr05nz15","0","33","2","1","3","1","","0","1","0","null","","","<img src = 'targets/6.png' width = '100%;'>","null","","","","","","","","","",""
"","html-keyboard-response","178","1780864","0.0-10.0-3.13","z79mzj78u9","one_one","1","direct_first","1","hr05nz15","0","33","2","1","3","1","","0","1","0","337","","","<img src = 'targets/mask.png' width = '100%;'>","75","neg","CS","CS","3","category3/CS5.png","","targets/6.png","indirect","1","13"
"","html-keyboard-response","179","1782380","0.0-10.0-0.14","z79mzj78u9","one_one","1","direct_first","1","hr05nz15","0","33","2","1","3","1","","0","1","0","null","","","<div style=""font-size:60px;"">+</div>","null","","","","","","","","","",""
"","html-keyboard-response","180","1782476","0.0-10.0-1.14","z79mzj78u9","one_one","1","direct_first","1","hr05nz15","0","33","2","1","3","1","","0","1","0","null","","","<img src = 'category4/CS1.png' width = '100%;'>","null","","","","","","","","","",""
"","html-keyboard-response","181","1782741","0.0-10.0-2.14","z79mzj78u9","one_one","1","direct_first","1","hr05nz15","0","33","2","1","3","1","","0","1","0","null","","","<img src = 'targets/9.png' width = '100%;'>","null","","","","","","","","","",""
"","html-keyboard-response","182","1783135","0.0-10.0-3.14","z79mzj78u9","one_one","1","direct_first","1","hr05nz15","0","33","2","1","3","1","","0","1","0","391","","","<img src = 'targets/mask.png' width = '100%;'>","75","pos","CS","CS","4","category4/CS1.png","","targets/9.png","indirect","1","14"
"","html-keyboard-response","183","1784660","0.0-10.0-0.15","z79mzj78u9","one_one","1","direct_first","1","hr05nz15","0","33","2","1","3","1","","0","1","0","null","","","<div style=""font-size:60px;"">+</div>","null","","","","","","","","","",""
"","html-keyboard-response","184","1784759","0.0-10.0-1.15","z79mzj78u9","one_one","1","direct_first","1","hr05nz15","0","33","2","1","3","1","","0","1","0","null","","","<img src = 'category3/CS9.png' width = '100%;'>","null","","","","","","","","","",""
"","html-keyboard-response","185","1785025","0.0-10.0-2.15","z79mzj78u9","one_one","1","direct_first","1","hr05nz15","0","33","2","1","3","1","","0","1","0","null","","","<img src = 'targets/34.png' width = '100%;'>","null","","","","","","","","","",""
"","html-keyboard-response","186","1785445","0.0-10.0-3.15","z79mzj78u9","one_one","1","direct_first","1","hr05nz15","0","33","2","1","3","1","","0","1","0","418","","","<img src = 'targets/mask.png' width = '100%;'>","75","neg","GS","GSold","3","category3/CS9.png","","targets/34.png","indirect","1","15"
"","survey-html-form","187","1788232","0.0-11.0","z79mzj78u9","one_one","1","direct_first","1","hr05nz15","0","33","2","1","3","1","","0","1","0","2269","","{}","","","","","","","","","","","",""
"","html-keyboard-response","188","1791259","0.0-12.0-0.0","z79mzj78u9","one_one","1","direct_first","1","hr05nz15","0","33","2","1","3","1","","0","1","0","null","","","<div style=""font-size:60px;"">+</div>","null","","","","","","","","","",""
"","html-keyboard-response","189","1791359","0.0-12.0-1.0","z79mzj78u9","one_one","1","direct_first","1","hr05nz15","0","33","2","1","3","1","","0","1","0","null","","","<img src = 'category4/GS2.png' width = '100%;'>","null","","","","","","","","","",""
"","html-keyboard-response","190","1791625","0.0-12.0-2.0","z79mzj78u9","one_one","1","direct_first","1","hr05nz15","0","33","2","1","3","1","","0","1","0","null","","","<img src = 'targets/1.png' width = '100%;'>","null","","","","","","","","","",""
"","html-keyboard-response","191","1792501","0.0-12.0-3.0","z79mzj78u9","one_one","1","direct_first","1","hr05nz15","0","33","2","1","3","1","","0","1","0","874","","","<img src = 'targets/mask.png' width = '100%;'>","75","pos","GS","GSnew","4","category4/GS2.png","","targets/1.png","indirect","1","16"
"","html-keyboard-response","192","1794039","0.0-12.0-0.1","z79mzj78u9","one_one","1","direct_first","1","hr05nz15","0","33","2","1","3","1","","0","1","0","null","","","<div style=""font-size:60px;"">+</div>","null","","","","","","","","","",""
"","html-keyboard-response","193","1794140","0.0-12.0-1.1","z79mzj78u9","one_one","1","direct_first","1","hr05nz15","0","33","2","1","3","1","","0","1","0","null","","","<img src = 'category2/GS2.png' width = '100%;'>","null","","","","","","","","","",""
"","html-keyboard-response","194","1794409","0.0-12.0-2.1","z79mzj78u9","one_one","1","direct_first","1","hr05nz15","0","33","2","1","3","1","","0","1","0","null","","","<img src = 'targets/33.png' width = '100%;'>","null","","","","","","","","","",""
"","html-keyboard-response","195","1794857","0.0-12.0-3.1","z79mzj78u9","one_one","1","direct_first","1","hr05nz15","0","33","2","1","3","1","","0","1","0","446","","","<img src = 'targets/mask.png' width = '100%;'>","75","neg","GS","GSnew","2","category2/GS2.png","","targets/33.png","indirect","1","17"
"","html-keyboard-response","196","1796380","0.0-12.0-0.2","z79mzj78u9","one_one","1","direct_first","1","hr05nz15","0","33","2","1","3","1","","0","1","0","null","","","<div style=""font-size:60px;"">+</div>","null","","","","","","","","","",""
"","html-keyboard-response","197","1796476","0.0-12.0-1.2","z79mzj78u9","one_one","1","direct_first","1","hr05nz15","0","33","2","1","3","1","","0","1","0","null","","","<img src = 'category4/GS3.png' width = '100%;'>","null","","","","","","","","","",""
"","html-keyboard-response","198","1796742","0.0-12.0-2.2","z79mzj78u9","one_one","1","direct_first","1","hr05nz15","0","33","2","1","3","1","","0","1","0","null","","","<img src = 'targets/17.png' width = '100%;'>","null","","","","","","","","","",""
"","html-keyboard-response","199","1796977","0.0-12.0-3.2","z79mzj78u9","one_one","1","direct_first","1","hr05nz15","0","33","2","1","3","1","","0","1","0","234","","","<img src = 'targets/mask.png' width = '100%;'>","75","pos","GS","GSnew","4","category4/GS3.png","","targets/17.png","indirect","1","18"
"","html-keyboard-response","200","1798489","0.0-12.0-0.3","z79mzj78u9","one_one","1","direct_first","1","hr05nz15","0","33","2","1","3","1","","0","1","0","null","","","<div style=""font-size:60px;"">+</div>","null","","","","","","","","","",""
"","html-keyboard-response","201","1798592","0.0-12.0-1.3","z79mzj78u9","one_one","1","direct_first","1","hr05nz15","0","33","2","1","3","1","","0","1","0","null","","","<img src = 'category1/GS3.png' width = '100%;'>","null","","","","","","","","","",""
"","html-keyboard-response","202","1798857","0.0-12.0-2.3","z79mzj78u9","one_one","1","direct_first","1","hr05nz15","0","33","2","1","3","1","","0","1","0","null","","","<img src = 'targets/30.png' width = '100%;'>","null","","","","","","","","","",""
"","html-keyboard-response","203","1799258","0.0-12.0-3.3","z79mzj78u9","one_one","1","direct_first","1","hr05nz15","0","33","2","1","3","1","","0","1","0","400","","","<img src = 'targets/mask.png' width = '100%;'>","75","pos","GS","GSnew","1","category1/GS3.png","","targets/30.png","indirect","1","19"
"","html-keyboard-response","204","1800789","0.0-12.0-0.4","z79mzj78u9","one_one","1","direct_first","1","hr05nz15","0","33","2","1","3","1","","0","1","0","null","","","<div style=""font-size:60px;"">+</div>","null","","","","","","","","","",""
"","html-keyboard-response","205","1800891","0.0-12.0-1.4","z79mzj78u9","one_one","1","direct_first","1","hr05nz15","0","33","2","1","3","1","","0","1","0","null","","","<img src = 'category1/GS2.png' width = '100%;'>","null","","","","","","","","","",""
"","html-keyboard-response","206","1801159","0.0-12.0-2.4","z79mzj78u9","one_one","1","direct_first","1","hr05nz15","0","33","2","1","3","1","","0","1","0","null","","","<img src = 'targets/13.png' width = '100%;'>","null","","","","","","","","","",""
"","html-keyboard-response","207","1801435","0.0-12.0-3.4","z79mzj78u9","one_one","1","direct_first","1","hr05nz15","0","33","2","1","3","1","","0","1","0","274","","","<img src = 'targets/mask.png' width = '100%;'>","75","pos","GS","GSnew","1","category1/GS2.png","","targets/13.png","indirect","1","20"
"","html-keyboard-response","208","1802960","0.0-12.0-0.5","z79mzj78u9","one_one","1","direct_first","1","hr05nz15","0","33","2","1","3","1","","0","1","0","null","","","<div style=""font-size:60px;"">+</div>","null","","","","","","","","","",""
"","html-keyboard-response","209","1803070","0.0-12.0-1.5","z79mzj78u9","one_one","1","direct_first","1","hr05nz15","0","33","2","1","3","1","","0","1","0","null","","","<img src = 'category4/lin.png' width = '100%;'>","null","","","","","","","","","",""
"","html-keyboard-response","210","1803342","0.0-12.0-2.5","z79mzj78u9","one_one","1","direct_first","1","hr05nz15","0","33","2","1","3","1","","0","1","0","null","","","<img src = 'targets/24.png' width = '100%;'>","null","","","","","","","","","",""
"","html-keyboard-response","211","1803617","0.0-12.0-3.5","z79mzj78u9","one_one","1","direct_first","1","hr05nz15","0","33","2","1","3","1","","0","1","0","274","","","<img src = 'targets/mask.png' width = '100%;'>","75","pos","GS","abstract","4","category4/lin.png","","targets/24.png","indirect","1","21"
"","html-keyboard-response","212","1805141","0.0-12.0-0.6","z79mzj78u9","one_one","1","direct_first","1","hr05nz15","0","33","2","1","3","1","","0","1","0","null","","","<div style=""font-size:60px;"">+</div>","null","","","","","","","","","",""
"","html-keyboard-response","213","1805242","0.0-12.0-1.6","z79mzj78u9","one_one","1","direct_first","1","hr05nz15","0","33","2","1","3","1","","0","1","0","null","","","<img src = 'category2/GS3.png' width = '100%;'>","null","","","","","","","","","",""
"","html-keyboard-response","214","1805509","0.0-12.0-2.6","z79mzj78u9","one_one","1","direct_first","1","hr05nz15","0","33","2","1","3","1","","0","1","0","null","","","<img src = 'targets/3.png' width = '100%;'>","null","","","","","","","","","",""
"","html-keyboard-response","215","1805856","0.0-12.0-3.6","z79mzj78u9","one_one","1","direct_first","1","hr05nz15","0","33","2","1","3","1","","0","1","0","345","","","<img src = 'targets/mask.png' width = '100%;'>","75","neg","GS","GSnew","2","category2/GS3.png","","targets/3.png","indirect","1","22"
"","html-keyboard-response","216","1807385","0.0-12.0-0.7","z79mzj78u9","one_one","1","direct_first","1","hr05nz15","0","33","2","1","3","1","","0","1","0","null","","","<div style=""font-size:60px;"">+</div>","null","","","","","","","","","",""
"","html-keyboard-response","217","1807492","0.0-12.0-1.7","z79mzj78u9","one_one","1","direct_first","1","hr05nz15","0","33","2","1","3","1","","0","1","0","null","","","<img src = 'category2/men.png' width = '100%;'>","null","","","","","","","","","",""
"","html-keyboard-response","218","1807759","0.0-12.0-2.7","z79mzj78u9","one_one","1","direct_first","1","hr05nz15","0","33","2","1","3","1","","0","1","0","null","","","<img src = 'targets/31.png' width = '100%;'>","null","","","","","","","","","",""
"","html-keyboard-response","219","1808030","0.0-12.0-3.7","z79mzj78u9","one_one","1","direct_first","1","hr05nz15","0","33","2","1","3","1","","0","1","0","267","","","<img src = 'targets/mask.png' width = '100%;'>","75","neg","GS","abstract","2","category2/men.png","","targets/31.png","indirect","1","23"
"","html-keyboard-response","220","1809551","0.0-12.0-0.8","z79mzj78u9","one_one","1","direct_first","1","hr05nz15","0","33","2","1","3","1","","0","1","0","null","","","<div style=""font-size:60px;"">+</div>","null","","","","","","","","","",""
"","html-keyboard-response","221","1809659","0.0-12.0-1.8","z79mzj78u9","one_one","1","direct_first","1","hr05nz15","0","33","2","1","3","1","","0","1","0","null","","","<img src = 'category3/GS2.png' width = '100%;'>","null","","","","","","","","","",""
"","html-keyboard-response","222","1809926","0.0-12.0-2.8","z79mzj78u9","one_one","1","direct_first","1","hr05nz15","0","33","2","1","3","1","","0","1","0","null","","","<img src = 'targets/10.png' width = '100%;'>","null","","","","","","","","","",""
"","html-keyboard-response","223","1810164","0.0-12.0-3.8","z79mzj78u9","one_one","1","direct_first","1","hr05nz15","0","33","2","1","3","1","","0","1","0","235","","","<img src = 'targets/mask.png' width = '100%;'>","75","neg","GS","GSnew","3","category3/GS2.png","","targets/10.png","indirect","1","24"
"","html-keyboard-response","224","1811685","0.0-12.0-0.9","z79mzj78u9","one_one","1","direct_first","1","hr05nz15","0","33","2","1","3","1","","0","1","0","null","","","<div style=""font-size:60px;"">+</div>","null","","","","","","","","","",""
"","html-keyboard-response","225","1811791","0.0-12.0-1.9","z79mzj78u9","one_one","1","direct_first","1","hr05nz15","0","33","2","1","3","1","","0","1","0","null","","","<img src = 'category2/GS1.png' width = '100%;'>","null","","","","","","","","","",""
"","html-keyboard-response","226","1812058","0.0-12.0-2.9","z79mzj78u9","one_one","1","direct_first","1","hr05nz15","0","33","2","1","3","1","","0","1","0","null","","","<img src = 'targets/48.png' width = '100%;'>","null","","","","","","","","","",""
"","html-keyboard-response","227","1812428","0.0-12.0-3.9","z79mzj78u9","one_one","1","direct_first","1","hr05nz15","0","33","2","1","3","1","","0","1","0","369","","","<img src = 'targets/mask.png' width = '100%;'>","75","neg","GS","GSnew","2","category2/GS1.png","","targets/48.png","indirect","1","25"
"","html-keyboard-response","228","1813940","0.0-12.0-0.10","z79mzj78u9","one_one","1","direct_first","1","hr05nz15","0","33","2","1","3","1","","0","1","0","null","","","<div style=""font-size:60px;"">+</div>","null","","","","","","","","","",""
"","html-keyboard-response","229","1814042","0.0-12.0-1.10","z79mzj78u9","one_one","1","direct_first","1","hr05nz15","0","33","2","1","3","1","","0","1","0","null","","","<img src = 'category3/GS3.png' width = '100%;'>","null","","","","","","","","","",""
"","html-keyboard-response","230","1814309","0.0-12.0-2.10","z79mzj78u9","one_one","1","direct_first","1","hr05nz15","0","33","2","1","3","1","","0","1","0","null","","","<img src = 'targets/36.png' width = '100%;'>","null","","","","","","","","","",""
"","html-keyboard-response","231","1814506","0.0-12.0-3.10","z79mzj78u9","one_one","1","direct_first","1","hr05nz15","0","33","2","1","3","1","","0","1","0","193","","","<img src = 'targets/mask.png' width = '100%;'>","75","neg","GS","GSnew","3","category3/GS3.png","","targets/36.png","indirect","1","26"
"","html-keyboard-response","232","1816039","0.0-12.0-0.11","z79mzj78u9","one_one","1","direct_first","1","hr05nz15","0","33","2","1","3","1","","0","1","0","null","","","<div style=""font-size:60px;"">+</div>","null","","","","","","","","","",""
"","html-keyboard-response","233","1816141","0.0-12.0-1.11","z79mzj78u9","one_one","1","direct_first","1","hr05nz15","0","33","2","1","3","1","","0","1","0","null","","","<img src = 'category3/GS1.png' width = '100%;'>","null","","","","","","","","","",""
"","html-keyboard-response","234","1816409","0.0-12.0-2.11","z79mzj78u9","one_one","1","direct_first","1","hr05nz15","0","33","2","1","3","1","","0","1","0","null","","","<img src = 'targets/35.png' width = '100%;'>","null","","","","","","","","","",""
"","html-keyboard-response","235","1816449","0.0-12.0-3.11","z79mzj78u9","one_one","1","direct_first","1","hr05nz15","0","33","2","1","3","1","","0","1","0","38","","","<img src = 'targets/mask.png' width = '100%;'>","75","neg","GS","GSnew","3","category3/GS1.png","","targets/35.png","indirect","1","27"
"","html-keyboard-response","236","1817971","0.0-12.0-0.12","z79mzj78u9","one_one","1","direct_first","1","hr05nz15","0","33","2","1","3","1","","0","1","0","null","","","<div style=""font-size:60px;"">+</div>","null","","","","","","","","","",""
"","html-keyboard-response","237","1818069","0.0-12.0-1.12","z79mzj78u9","one_one","1","direct_first","1","hr05nz15","0","33","2","1","3","1","","0","1","0","null","","","<img src = 'category4/GS1.png' width = '100%;'>","null","","","","","","","","","",""
"","html-keyboard-response","238","1818341","0.0-12.0-2.12","z79mzj78u9","one_one","1","direct_first","1","hr05nz15","0","33","2","1","3","1","","0","1","0","null","","","<img src = 'targets/25.png' width = '100%;'>","null","","","","","","","","","",""
"","html-keyboard-response","239","1818527","0.0-12.0-3.12","z79mzj78u9","one_one","1","direct_first","1","hr05nz15","0","33","2","1","3","1","","0","1","0","182","","","<img src = 'targets/mask.png' width = '100%;'>","75","pos","GS","GSnew","4","category4/GS1.png","","targets/25.png","indirect","1","28"
"","html-keyboard-response","240","1820039","0.0-12.0-0.13","z79mzj78u9","one_one","1","direct_first","1","hr05nz15","0","33","2","1","3","1","","0","1","0","null","","","<div style=""font-size:60px;"">+</div>","null","","","","","","","","","",""
"","html-keyboard-response","241","1820142","0.0-12.0-1.13","z79mzj78u9","one_one","1","direct_first","1","hr05nz15","0","33","2","1","3","1","","0","1","0","null","","","<img src = 'category1/ma.png' width = '100%;'>","null","","","","","","","","","",""
"","html-keyboard-response","242","1820407","0.0-12.0-2.13","z79mzj78u9","one_one","1","direct_first","1","hr05nz15","0","33","2","1","3","1","","0","1","0","null","","","<img src = 'targets/22.png' width = '100%;'>","null","","","","","","","","","",""
"","html-keyboard-response","243","1820413","0.0-12.0-3.13","z79mzj78u9","one_one","1","direct_first","1","hr05nz15","0","33","2","1","3","1","","0","1","0","4","","","<img src = 'targets/mask.png' width = '100%;'>","75","pos","GS","abstract","1","category1/ma.png","","targets/22.png","indirect","1","29"
"","html-keyboard-response","244","1821930","0.0-12.0-0.14","z79mzj78u9","one_one","1","direct_first","1","hr05nz15","0","33","2","1","3","1","","0","1","0","null","","","<div style=""font-size:60px;"">+</div>","null","","","","","","","","","",""
"","html-keyboard-response","245","1822026","0.0-12.0-1.14","z79mzj78u9","one_one","1","direct_first","1","hr05nz15","0","33","2","1","3","1","","0","1","0","null","","","<img src = 'category3/wang.png' width = '100%;'>","null","","","","","","","","","",""
"","html-keyboard-response","246","1822291","0.0-12.0-2.14","z79mzj78u9","one_one","1","direct_first","1","hr05nz15","0","33","2","1","3","1","","0","1","0","null","","","<img src = 'targets/32.png' width = '100%;'>","null","","","","","","","","","",""
"","html-keyboard-response","247","1822637","0.0-12.0-3.14","z79mzj78u9","one_one","1","direct_first","1","hr05nz15","0","33","2","1","3","1","","0","1","0","345","","","<img src = 'targets/mask.png' width = '100%;'>","75","neg","GS","abstract","3","category3/wang.png","","targets/32.png","indirect","1","30"
"","html-keyboard-response","248","1824159","0.0-12.0-0.15","z79mzj78u9","one_one","1","direct_first","1","hr05nz15","0","33","2","1","3","1","","0","1","0","null","","","<div style=""font-size:60px;"">+</div>","null","","","","","","","","","",""
"","html-keyboard-response","249","1824259","0.0-12.0-1.15","z79mzj78u9","one_one","1","direct_first","1","hr05nz15","0","33","2","1","3","1","","0","1","0","null","","","<img src = 'category1/GS1.png' width = '100%;'>","null","","","","","","","","","",""
"","html-keyboard-response","250","1824525","0.0-12.0-2.15","z79mzj78u9","one_one","1","direct_first","1","hr05nz15","0","33","2","1","3","1","","0","1","0","null","","","<img src = 'targets/47.png' width = '100%;'>","null","","","","","","","","","",""
"","html-keyboard-response","251","1824898","0.0-12.0-3.15","z79mzj78u9","one_one","1","direct_first","1","hr05nz15","0","33","2","1","3","1","","0","1","0","371","","","<img src = 'targets/mask.png' width = '100%;'>","75","pos","GS","GSnew","1","category1/GS1.png","","targets/47.png","indirect","1","31"
"","survey-html-form","252","1828838","0.0-13.0","z79mzj78u9","one_one","1","direct_first","1","hr05nz15","0","33","2","1","3","1","","0","1","0","3432","","{}","","","","","","","","","","","",""
"","image-slider-response","253","1834070","0.0-14.0-0.0","z79mzj78u9","one_one","1","direct_first","1","hr05nz15","0","33","2","1","3","1","","0","1","0","4211","","","","","pos","All","all","4","category4/lin_all.png","25","","all","",""
"","image-slider-response","254","1838718","0.0-14.0-0.1","z79mzj78u9","one_one","1","direct_first","1","hr05nz15","0","33","2","1","3","1","","0","1","0","4634","","","","","pos","All","all","1","category1/ma_all.png","1","","all","",""
"","image-slider-response","255","1843124","0.0-14.0-0.2","z79mzj78u9","one_one","1","direct_first","1","hr05nz15","0","33","2","1","3","1","","0","1","0","4396","","","","","neg","All","all","2","category2/men_all.png","7","","all","",""
"","image-slider-response","256","1848913","0.0-14.0-0.3","z79mzj78u9","one_one","1","direct_first","1","hr05nz15","0","33","2","1","3","1","","0","1","0","5782","","","","","neg","All","all","3","category3/wang_all.png","-2","","all","",""
"","survey-text","257","1850884","0.0-15.0","z79mzj78u9","one_one","1","direct_first","1","hr05nz15","0","33","2","1","3","1","","0","1","0","1904","","{""comment"":""""}","","","","","","","","","","","",""
"","survey-html-form","258","1857679","0.0-16.0","z79mzj78u9","one_one","1","direct_first","1","hr05nz15","0","33","2","1","3","1","","0","1","0","6780","","{""hinschauen"":""0"",""ablenkung"":""1"",""gewissenhaft"":""0""}","","","","","","","","","","","",""
