"success","trial_type","trial_index","time_elapsed","internal_node_id","subject","condition","condition_code","measure","measure_code","codeword","gender","age","education","chinese","fach","handedness","comment","hinschauen","ablenkung","gewissenhaft","rt","url","responses","stimulus","key_press","val","type","type_specific","category","cs_selected","target","indirect","task","nr_pres","response"
"true","fullscreen","0","4390","0.0-0.0","6zw6rovqj1","one_one","1","indirect_first","0","RT04OR28","0","29","1","0","3","1","","0","1","0","","","","","","","","","","","","","","",""
"","external-html","1","10012","0.0-1.0","6zw6rovqj1","one_one","1","indirect_first","0","RT04OR28","0","29","1","0","3","1","","0","1","0","5510.290000005625","text/information.html","","","","","","","","","","","","",""
"","external-html","2","33597","0.0-2.0","6zw6rovqj1","one_one","1","indirect_first","0","RT04OR28","0","29","1","0","3","1","","0","1","0","23505.82000002032","text/consent.html","","","","","","","","","","","","",""
"","survey-html-form","3","123044","0.0-3.0","6zw6rovqj1","one_one","1","indirect_first","0","RT04OR28","0","29","1","0","3","1","","0","1","0","89427.5749999797","","{""codeword_enter"":""RT04OR28""}","","","","","","","","","","","",""
"","survey-html-form","4","144854","0.0-4.0","6zw6rovqj1","one_one","1","indirect_first","0","RT04OR28","0","29","1","0","3","1","","0","1","0","21788.494999986142","","{""age"":""29"",""education"":""1"",""subject"":""3"",""gender"":""0"",""handedness"":""1"",""chinese"":""0""}","","","","","","","","","","","",""
"","survey-html-form","5","155384","0.0-5.0","6zw6rovqj1","one_one","1","indirect_first","0","RT04OR28","0","29","1","0","3","1","","0","1","0","10501.455000019632","","{}","","","","","","","","","","","",""
"","html-keyboard-response","6","159402","0.0-6.0-0.0-0.0","6zw6rovqj1","one_one","1","indirect_first","0","RT04OR28","0","29","1","0","3","1","","0","1","0","null","","","<div class = 'row'><div class = 'column'><img src = 'category2/CS7.png' width = '70%;'></div><div class = 'column'><img src = 'uspos/1463.bmp' width = '100%;'></div></div>","null","pos","CS","CS","2","category2/CS7.png","","","","",""
"","html-keyboard-response","7","161919","0.0-6.0-0.0-0.1","6zw6rovqj1","one_one","1","indirect_first","0","RT04OR28","0","29","1","0","3","1","","0","1","0","null","","","<div class = 'row'><div class = 'column'><img src = 'category3/CS1.png' width = '70%;'></div><div class = 'column'><img src = 'usneg/9340.bmp' width = '100%;'></div></div>","null","neg","CS","CS","3","category3/CS1.png","","","","",""
"","html-keyboard-response","8","164441","0.0-6.0-0.0-0.2","6zw6rovqj1","one_one","1","indirect_first","0","RT04OR28","0","29","1","0","3","1","","0","1","0","null","","","<div class = 'row'><div class = 'column'><img src = 'category2/CS7.png' width = '70%;'></div><div class = 'column'><img src = 'uspos/1463.bmp' width = '100%;'></div></div>","null","pos","CS","CS","2","category2/CS7.png","","","","",""
"","html-keyboard-response","9","166949","0.0-6.0-0.0-0.3","6zw6rovqj1","one_one","1","indirect_first","0","RT04OR28","0","29","1","0","3","1","","0","1","0","null","","","<div class = 'row'><div class = 'column'><img src = 'usneg/9340.bmp' width = '100%;'></div><div class = 'column'><img src = 'category3/CS1.png' width = '70%;'></div></div>","null","neg","CS","CS","3","category3/CS1.png","","","","",""
"","html-keyboard-response","10","169468","0.0-6.0-0.0-0.4","6zw6rovqj1","one_one","1","indirect_first","0","RT04OR28","0","29","1","0","3","1","","0","1","0","null","","","<div class = 'row'><div class = 'column'><img src = 'uspos/1463.bmp' width = '100%;'></div><div class = 'column'><img src = 'category2/CS7.png' width = '70%;'></div></div>","null","pos","CS","CS","2","category2/CS7.png","","","","",""
"","html-keyboard-response","11","171996","0.0-6.0-0.0-0.5","6zw6rovqj1","one_one","1","indirect_first","0","RT04OR28","0","29","1","0","3","1","","0","1","0","null","","","<div class = 'row'><div class = 'column'><img src = 'usneg/6570.1.bmp' width = '100%;'></div><div class = 'column'><img src = 'category1/CS1.png' width = '70%;'></div></div>","null","neg","CS","CS","1","category1/CS1.png","","","","",""
"","html-keyboard-response","12","174509","0.0-6.0-0.0-0.6","6zw6rovqj1","one_one","1","indirect_first","0","RT04OR28","0","29","1","0","3","1","","0","1","0","null","","","<div class = 'row'><div class = 'column'><img src = 'uspos/5831.bmp' width = '100%;'></div><div class = 'column'><img src = 'category4/CS2.png' width = '70%;'></div></div>","null","pos","CS","CS","4","category4/CS2.png","","","","",""
"","html-keyboard-response","13","177023","0.0-6.0-0.0-0.7","6zw6rovqj1","one_one","1","indirect_first","0","RT04OR28","0","29","1","0","3","1","","0","1","0","null","","","<div class = 'row'><div class = 'column'><img src = 'category1/CS1.png' width = '70%;'></div><div class = 'column'><img src = 'usneg/6570.1.bmp' width = '100%;'></div></div>","null","neg","CS","CS","1","category1/CS1.png","","","","",""
"","html-keyboard-response","14","179538","0.0-6.0-0.0-0.8","6zw6rovqj1","one_one","1","indirect_first","0","RT04OR28","0","29","1","0","3","1","","0","1","0","null","","","<div class = 'row'><div class = 'column'><img src = 'uspos/5831.bmp' width = '100%;'></div><div class = 'column'><img src = 'category4/CS2.png' width = '70%;'></div></div>","null","pos","CS","CS","4","category4/CS2.png","","","","",""
"","html-keyboard-response","15","182059","0.0-6.0-0.0-0.9","6zw6rovqj1","one_one","1","indirect_first","0","RT04OR28","0","29","1","0","3","1","","0","1","0","null","","","<div class = 'row'><div class = 'column'><img src = 'category3/CS1.png' width = '70%;'></div><div class = 'column'><img src = 'usneg/9340.bmp' width = '100%;'></div></div>","null","neg","CS","CS","3","category3/CS1.png","","","","",""
"","html-keyboard-response","16","184578","0.0-6.0-0.0-0.10","6zw6rovqj1","one_one","1","indirect_first","0","RT04OR28","0","29","1","0","3","1","","0","1","0","null","","","<div class = 'row'><div class = 'column'><img src = 'uspos/5831.bmp' width = '100%;'></div><div class = 'column'><img src = 'category4/CS2.png' width = '70%;'></div></div>","null","pos","CS","CS","4","category4/CS2.png","","","","",""
"","html-keyboard-response","17","187092","0.0-6.0-0.0-0.11","6zw6rovqj1","one_one","1","indirect_first","0","RT04OR28","0","29","1","0","3","1","","0","1","0","null","","","<div class = 'row'><div class = 'column'><img src = 'category2/CS7.png' width = '70%;'></div><div class = 'column'><img src = 'uspos/1463.bmp' width = '100%;'></div></div>","null","pos","CS","CS","2","category2/CS7.png","","","","",""
"","html-keyboard-response","18","189599","0.0-6.0-0.0-0.12","6zw6rovqj1","one_one","1","indirect_first","0","RT04OR28","0","29","1","0","3","1","","0","1","0","null","","","<div class = 'row'><div class = 'column'><img src = 'usneg/6570.1.bmp' width = '100%;'></div><div class = 'column'><img src = 'category1/CS1.png' width = '70%;'></div></div>","null","neg","CS","CS","1","category1/CS1.png","","","","",""
"","html-keyboard-response","19","192115","0.0-6.0-0.0-0.13","6zw6rovqj1","one_one","1","indirect_first","0","RT04OR28","0","29","1","0","3","1","","0","1","0","null","","","<div class = 'row'><div class = 'column'><img src = 'usneg/9340.bmp' width = '100%;'></div><div class = 'column'><img src = 'category3/CS1.png' width = '70%;'></div></div>","null","neg","CS","CS","3","category3/CS1.png","","","","",""
"","html-keyboard-response","20","194627","0.0-6.0-0.0-0.14","6zw6rovqj1","one_one","1","indirect_first","0","RT04OR28","0","29","1","0","3","1","","0","1","0","null","","","<div class = 'row'><div class = 'column'><img src = 'category1/CS1.png' width = '70%;'></div><div class = 'column'><img src = 'usneg/6570.1.bmp' width = '100%;'></div></div>","null","neg","CS","CS","1","category1/CS1.png","","","","",""
"","html-keyboard-response","21","197149","0.0-6.0-0.0-0.15","6zw6rovqj1","one_one","1","indirect_first","0","RT04OR28","0","29","1","0","3","1","","0","1","0","null","","","<div class = 'row'><div class = 'column'><img src = 'category4/CS2.png' width = '70%;'></div><div class = 'column'><img src = 'uspos/5831.bmp' width = '100%;'></div></div>","null","pos","CS","CS","4","category4/CS2.png","","","","",""
"","html-keyboard-response","22","199669","0.0-6.0-0.0-0.16","6zw6rovqj1","one_one","1","indirect_first","0","RT04OR28","0","29","1","0","3","1","","0","1","0","null","","","<div class = 'row'><div class = 'column'><img src = 'category1/CS1.png' width = '70%;'></div><div class = 'column'><img src = 'usneg/6570.1.bmp' width = '100%;'></div></div>","null","neg","CS","CS","1","category1/CS1.png","","","","",""
"","html-keyboard-response","23","202181","0.0-6.0-0.0-0.17","6zw6rovqj1","one_one","1","indirect_first","0","RT04OR28","0","29","1","0","3","1","","0","1","0","null","","","<div class = 'row'><div class = 'column'><img src = 'uspos/1463.bmp' width = '100%;'></div><div class = 'column'><img src = 'category2/CS7.png' width = '70%;'></div></div>","null","pos","CS","CS","2","category2/CS7.png","","","","",""
"","html-keyboard-response","24","204699","0.0-6.0-0.0-0.18","6zw6rovqj1","one_one","1","indirect_first","0","RT04OR28","0","29","1","0","3","1","","0","1","0","null","","","<div class = 'row'><div class = 'column'><img src = 'uspos/5831.bmp' width = '100%;'></div><div class = 'column'><img src = 'category4/CS2.png' width = '70%;'></div></div>","null","pos","CS","CS","4","category4/CS2.png","","","","",""
"","html-keyboard-response","25","207209","0.0-6.0-0.0-0.19","6zw6rovqj1","one_one","1","indirect_first","0","RT04OR28","0","29","1","0","3","1","","0","1","0","null","","","<div class = 'row'><div class = 'column'><img src = 'usneg/9340.bmp' width = '100%;'></div><div class = 'column'><img src = 'category3/CS1.png' width = '70%;'></div></div>","null","neg","CS","CS","3","category3/CS1.png","","","","",""
"","survey-html-form","26","210199","0.0-6.0-1.0","6zw6rovqj1","one_one","1","indirect_first","0","RT04OR28","0","29","1","0","3","1","","0","1","0","2479.9549999879673","","{}","","","","","","","","","","","",""
"","html-keyboard-response","27","214218","0.0-6.0-2.0-0.0","6zw6rovqj1","one_one","1","indirect_first","0","RT04OR28","0","29","1","0","3","1","","0","1","0","null","","","<div class = 'row'><div class = 'column'><img src = 'uspos/1463.bmp' width = '100%;'></div><div class = 'column'><img src = 'category2/CS7.png' width = '70%;'></div></div>","null","pos","CS","CS","2","category2/CS7.png","","","","",""
"","html-keyboard-response","28","216741","0.0-6.0-2.0-0.1","6zw6rovqj1","one_one","1","indirect_first","0","RT04OR28","0","29","1","0","3","1","","0","1","0","null","","","<div class = 'row'><div class = 'column'><img src = 'usneg/6570.1.bmp' width = '100%;'></div><div class = 'column'><img src = 'category1/CS1.png' width = '70%;'></div></div>","null","neg","CS","CS","1","category1/CS1.png","","","","",""
"","html-keyboard-response","29","219258","0.0-6.0-2.0-0.2","6zw6rovqj1","one_one","1","indirect_first","0","RT04OR28","0","29","1","0","3","1","","0","1","0","null","","","<div class = 'row'><div class = 'column'><img src = 'uspos/1463.bmp' width = '100%;'></div><div class = 'column'><img src = 'category2/CS7.png' width = '70%;'></div></div>","null","pos","CS","CS","2","category2/CS7.png","","","","",""
"","html-keyboard-response","30","221778","0.0-6.0-2.0-0.3","6zw6rovqj1","one_one","1","indirect_first","0","RT04OR28","0","29","1","0","3","1","","0","1","0","null","","","<div class = 'row'><div class = 'column'><img src = 'category1/CS1.png' width = '70%;'></div><div class = 'column'><img src = 'usneg/6570.1.bmp' width = '100%;'></div></div>","null","neg","CS","CS","1","category1/CS1.png","","","","",""
"","html-keyboard-response","31","224289","0.0-6.0-2.0-0.4","6zw6rovqj1","one_one","1","indirect_first","0","RT04OR28","0","29","1","0","3","1","","0","1","0","null","","","<div class = 'row'><div class = 'column'><img src = 'category4/CS2.png' width = '70%;'></div><div class = 'column'><img src = 'uspos/5831.bmp' width = '100%;'></div></div>","null","pos","CS","CS","4","category4/CS2.png","","","","",""
"","html-keyboard-response","32","226803","0.0-6.0-2.0-0.5","6zw6rovqj1","one_one","1","indirect_first","0","RT04OR28","0","29","1","0","3","1","","0","1","0","null","","","<div class = 'row'><div class = 'column'><img src = 'category3/CS1.png' width = '70%;'></div><div class = 'column'><img src = 'usneg/9340.bmp' width = '100%;'></div></div>","null","neg","CS","CS","3","category3/CS1.png","","","","",""
"","html-keyboard-response","33","229318","0.0-6.0-2.0-0.6","6zw6rovqj1","one_one","1","indirect_first","0","RT04OR28","0","29","1","0","3","1","","0","1","0","null","","","<div class = 'row'><div class = 'column'><img src = 'category2/CS7.png' width = '70%;'></div><div class = 'column'><img src = 'uspos/1463.bmp' width = '100%;'></div></div>","null","pos","CS","CS","2","category2/CS7.png","","","","",""
"","html-keyboard-response","34","231841","0.0-6.0-2.0-0.7","6zw6rovqj1","one_one","1","indirect_first","0","RT04OR28","0","29","1","0","3","1","","0","1","0","null","","","<div class = 'row'><div class = 'column'><img src = 'category1/CS1.png' width = '70%;'></div><div class = 'column'><img src = 'usneg/6570.1.bmp' width = '100%;'></div></div>","null","neg","CS","CS","1","category1/CS1.png","","","","",""
"","html-keyboard-response","35","234359","0.0-6.0-2.0-0.8","6zw6rovqj1","one_one","1","indirect_first","0","RT04OR28","0","29","1","0","3","1","","0","1","0","null","","","<div class = 'row'><div class = 'column'><img src = 'category4/CS2.png' width = '70%;'></div><div class = 'column'><img src = 'uspos/5831.bmp' width = '100%;'></div></div>","null","pos","CS","CS","4","category4/CS2.png","","","","",""
"","html-keyboard-response","36","236871","0.0-6.0-2.0-0.9","6zw6rovqj1","one_one","1","indirect_first","0","RT04OR28","0","29","1","0","3","1","","0","1","0","null","","","<div class = 'row'><div class = 'column'><img src = 'category3/CS1.png' width = '70%;'></div><div class = 'column'><img src = 'usneg/9340.bmp' width = '100%;'></div></div>","null","neg","CS","CS","3","category3/CS1.png","","","","",""
"","html-keyboard-response","37","239390","0.0-6.0-2.0-0.10","6zw6rovqj1","one_one","1","indirect_first","0","RT04OR28","0","29","1","0","3","1","","0","1","0","null","","","<div class = 'row'><div class = 'column'><img src = 'uspos/5831.bmp' width = '100%;'></div><div class = 'column'><img src = 'category4/CS2.png' width = '70%;'></div></div>","null","pos","CS","CS","4","category4/CS2.png","","","","",""
"","html-keyboard-response","38","241905","0.0-6.0-2.0-0.11","6zw6rovqj1","one_one","1","indirect_first","0","RT04OR28","0","29","1","0","3","1","","0","1","0","null","","","<div class = 'row'><div class = 'column'><img src = 'usneg/6570.1.bmp' width = '100%;'></div><div class = 'column'><img src = 'category1/CS1.png' width = '70%;'></div></div>","null","neg","CS","CS","1","category1/CS1.png","","","","",""
"","html-keyboard-response","39","244419","0.0-6.0-2.0-0.12","6zw6rovqj1","one_one","1","indirect_first","0","RT04OR28","0","29","1","0","3","1","","0","1","0","null","","","<div class = 'row'><div class = 'column'><img src = 'uspos/5831.bmp' width = '100%;'></div><div class = 'column'><img src = 'category4/CS2.png' width = '70%;'></div></div>","null","pos","CS","CS","4","category4/CS2.png","","","","",""
"","html-keyboard-response","40","246944","0.0-6.0-2.0-0.13","6zw6rovqj1","one_one","1","indirect_first","0","RT04OR28","0","29","1","0","3","1","","0","1","0","null","","","<div class = 'row'><div class = 'column'><img src = 'usneg/9340.bmp' width = '100%;'></div><div class = 'column'><img src = 'category3/CS1.png' width = '70%;'></div></div>","null","neg","CS","CS","3","category3/CS1.png","","","","",""
"","html-keyboard-response","41","249449","0.0-6.0-2.0-0.14","6zw6rovqj1","one_one","1","indirect_first","0","RT04OR28","0","29","1","0","3","1","","0","1","0","null","","","<div class = 'row'><div class = 'column'><img src = 'uspos/1463.bmp' width = '100%;'></div><div class = 'column'><img src = 'category2/CS7.png' width = '70%;'></div></div>","null","pos","CS","CS","2","category2/CS7.png","","","","",""
"","html-keyboard-response","42","251967","0.0-6.0-2.0-0.15","6zw6rovqj1","one_one","1","indirect_first","0","RT04OR28","0","29","1","0","3","1","","0","1","0","null","","","<div class = 'row'><div class = 'column'><img src = 'usneg/9340.bmp' width = '100%;'></div><div class = 'column'><img src = 'category3/CS1.png' width = '70%;'></div></div>","null","neg","CS","CS","3","category3/CS1.png","","","","",""
"","html-keyboard-response","43","254488","0.0-6.0-2.0-0.16","6zw6rovqj1","one_one","1","indirect_first","0","RT04OR28","0","29","1","0","3","1","","0","1","0","null","","","<div class = 'row'><div class = 'column'><img src = 'uspos/5831.bmp' width = '100%;'></div><div class = 'column'><img src = 'category4/CS2.png' width = '70%;'></div></div>","null","pos","CS","CS","4","category4/CS2.png","","","","",""
"","html-keyboard-response","44","257011","0.0-6.0-2.0-0.17","6zw6rovqj1","one_one","1","indirect_first","0","RT04OR28","0","29","1","0","3","1","","0","1","0","null","","","<div class = 'row'><div class = 'column'><img src = 'category2/CS7.png' width = '70%;'></div><div class = 'column'><img src = 'uspos/1463.bmp' width = '100%;'></div></div>","null","pos","CS","CS","2","category2/CS7.png","","","","",""
"","html-keyboard-response","45","259538","0.0-6.0-2.0-0.18","6zw6rovqj1","one_one","1","indirect_first","0","RT04OR28","0","29","1","0","3","1","","0","1","0","null","","","<div class = 'row'><div class = 'column'><img src = 'usneg/9340.bmp' width = '100%;'></div><div class = 'column'><img src = 'category3/CS1.png' width = '70%;'></div></div>","null","neg","CS","CS","3","category3/CS1.png","","","","",""
"","html-keyboard-response","46","262059","0.0-6.0-2.0-0.19","6zw6rovqj1","one_one","1","indirect_first","0","RT04OR28","0","29","1","0","3","1","","0","1","0","null","","","<div class = 'row'><div class = 'column'><img src = 'usneg/6570.1.bmp' width = '100%;'></div><div class = 'column'><img src = 'category1/CS1.png' width = '70%;'></div></div>","null","neg","CS","CS","1","category1/CS1.png","","","","",""
"","survey-html-form","47","264487","0.0-6.0-3.0","6zw6rovqj1","one_one","1","indirect_first","0","RT04OR28","0","29","1","0","3","1","","0","1","0","1918.7350000138395","","{}","","","","","","","","","","","",""
"","html-keyboard-response","48","268497","0.0-6.0-4.0-0.0","6zw6rovqj1","one_one","1","indirect_first","0","RT04OR28","0","29","1","0","3","1","","0","1","0","null","","","<div class = 'row'><div class = 'column'><img src = 'usneg/9340.bmp' width = '100%;'></div><div class = 'column'><img src = 'category3/CS1.png' width = '70%;'></div></div>","null","neg","CS","CS","3","category3/CS1.png","","","","",""
"","html-keyboard-response","49","271010","0.0-6.0-4.0-0.1","6zw6rovqj1","one_one","1","indirect_first","0","RT04OR28","0","29","1","0","3","1","","0","1","0","null","","","<div class = 'row'><div class = 'column'><img src = 'uspos/1463.bmp' width = '100%;'></div><div class = 'column'><img src = 'category2/CS7.png' width = '70%;'></div></div>","null","pos","CS","CS","2","category2/CS7.png","","","","",""
"","html-keyboard-response","50","273528","0.0-6.0-4.0-0.2","6zw6rovqj1","one_one","1","indirect_first","0","RT04OR28","0","29","1","0","3","1","","0","1","0","null","","","<div class = 'row'><div class = 'column'><img src = 'usneg/9340.bmp' width = '100%;'></div><div class = 'column'><img src = 'category3/CS1.png' width = '70%;'></div></div>","null","neg","CS","CS","3","category3/CS1.png","","","","",""
"","html-keyboard-response","51","276049","0.0-6.0-4.0-0.3","6zw6rovqj1","one_one","1","indirect_first","0","RT04OR28","0","29","1","0","3","1","","0","1","0","null","","","<div class = 'row'><div class = 'column'><img src = 'uspos/5831.bmp' width = '100%;'></div><div class = 'column'><img src = 'category4/CS2.png' width = '70%;'></div></div>","null","pos","CS","CS","4","category4/CS2.png","","","","",""
"","html-keyboard-response","52","278576","0.0-6.0-4.0-0.4","6zw6rovqj1","one_one","1","indirect_first","0","RT04OR28","0","29","1","0","3","1","","0","1","0","null","","","<div class = 'row'><div class = 'column'><img src = 'uspos/1463.bmp' width = '100%;'></div><div class = 'column'><img src = 'category2/CS7.png' width = '70%;'></div></div>","null","pos","CS","CS","2","category2/CS7.png","","","","",""
"","html-keyboard-response","53","281086","0.0-6.0-4.0-0.5","6zw6rovqj1","one_one","1","indirect_first","0","RT04OR28","0","29","1","0","3","1","","0","1","0","null","","","<div class = 'row'><div class = 'column'><img src = 'category4/CS2.png' width = '70%;'></div><div class = 'column'><img src = 'uspos/5831.bmp' width = '100%;'></div></div>","null","pos","CS","CS","4","category4/CS2.png","","","","",""
"","html-keyboard-response","54","283601","0.0-6.0-4.0-0.6","6zw6rovqj1","one_one","1","indirect_first","0","RT04OR28","0","29","1","0","3","1","","0","1","0","null","","","<div class = 'row'><div class = 'column'><img src = 'category1/CS1.png' width = '70%;'></div><div class = 'column'><img src = 'usneg/6570.1.bmp' width = '100%;'></div></div>","null","neg","CS","CS","1","category1/CS1.png","","","","",""
"","html-keyboard-response","55","286118","0.0-6.0-4.0-0.7","6zw6rovqj1","one_one","1","indirect_first","0","RT04OR28","0","29","1","0","3","1","","0","1","0","null","","","<div class = 'row'><div class = 'column'><img src = 'category3/CS1.png' width = '70%;'></div><div class = 'column'><img src = 'usneg/9340.bmp' width = '100%;'></div></div>","null","neg","CS","CS","3","category3/CS1.png","","","","",""
"","html-keyboard-response","56","288632","0.0-6.0-4.0-0.8","6zw6rovqj1","one_one","1","indirect_first","0","RT04OR28","0","29","1","0","3","1","","0","1","0","null","","","<div class = 'row'><div class = 'column'><img src = 'usneg/6570.1.bmp' width = '100%;'></div><div class = 'column'><img src = 'category1/CS1.png' width = '70%;'></div></div>","null","neg","CS","CS","1","category1/CS1.png","","","","",""
"","html-keyboard-response","57","291150","0.0-6.0-4.0-0.9","6zw6rovqj1","one_one","1","indirect_first","0","RT04OR28","0","29","1","0","3","1","","0","1","0","null","","","<div class = 'row'><div class = 'column'><img src = 'category3/CS1.png' width = '70%;'></div><div class = 'column'><img src = 'usneg/9340.bmp' width = '100%;'></div></div>","null","neg","CS","CS","3","category3/CS1.png","","","","",""
"","html-keyboard-response","58","293660","0.0-6.0-4.0-0.10","6zw6rovqj1","one_one","1","indirect_first","0","RT04OR28","0","29","1","0","3","1","","0","1","0","null","","","<div class = 'row'><div class = 'column'><img src = 'uspos/1463.bmp' width = '100%;'></div><div class = 'column'><img src = 'category2/CS7.png' width = '70%;'></div></div>","null","pos","CS","CS","2","category2/CS7.png","","","","",""
"","html-keyboard-response","59","296179","0.0-6.0-4.0-0.11","6zw6rovqj1","one_one","1","indirect_first","0","RT04OR28","0","29","1","0","3","1","","0","1","0","null","","","<div class = 'row'><div class = 'column'><img src = 'category1/CS1.png' width = '70%;'></div><div class = 'column'><img src = 'usneg/6570.1.bmp' width = '100%;'></div></div>","null","neg","CS","CS","1","category1/CS1.png","","","","",""
"","html-keyboard-response","60","298698","0.0-6.0-4.0-0.12","6zw6rovqj1","one_one","1","indirect_first","0","RT04OR28","0","29","1","0","3","1","","0","1","0","null","","","<div class = 'row'><div class = 'column'><img src = 'category4/CS2.png' width = '70%;'></div><div class = 'column'><img src = 'uspos/5831.bmp' width = '100%;'></div></div>","null","pos","CS","CS","4","category4/CS2.png","","","","",""
"","html-keyboard-response","61","301214","0.0-6.0-4.0-0.13","6zw6rovqj1","one_one","1","indirect_first","0","RT04OR28","0","29","1","0","3","1","","0","1","0","null","","","<div class = 'row'><div class = 'column'><img src = 'category2/CS7.png' width = '70%;'></div><div class = 'column'><img src = 'uspos/1463.bmp' width = '100%;'></div></div>","null","pos","CS","CS","2","category2/CS7.png","","","","",""
"","html-keyboard-response","62","303730","0.0-6.0-4.0-0.14","6zw6rovqj1","one_one","1","indirect_first","0","RT04OR28","0","29","1","0","3","1","","0","1","0","null","","","<div class = 'row'><div class = 'column'><img src = 'uspos/5831.bmp' width = '100%;'></div><div class = 'column'><img src = 'category4/CS2.png' width = '70%;'></div></div>","null","pos","CS","CS","4","category4/CS2.png","","","","",""
"","html-keyboard-response","63","306253","0.0-6.0-4.0-0.15","6zw6rovqj1","one_one","1","indirect_first","0","RT04OR28","0","29","1","0","3","1","","0","1","0","null","","","<div class = 'row'><div class = 'column'><img src = 'usneg/6570.1.bmp' width = '100%;'></div><div class = 'column'><img src = 'category1/CS1.png' width = '70%;'></div></div>","null","neg","CS","CS","1","category1/CS1.png","","","","",""
"","html-keyboard-response","64","308772","0.0-6.0-4.0-0.16","6zw6rovqj1","one_one","1","indirect_first","0","RT04OR28","0","29","1","0","3","1","","0","1","0","null","","","<div class = 'row'><div class = 'column'><img src = 'category2/CS7.png' width = '70%;'></div><div class = 'column'><img src = 'uspos/1463.bmp' width = '100%;'></div></div>","null","pos","CS","CS","2","category2/CS7.png","","","","",""
"","html-keyboard-response","65","311290","0.0-6.0-4.0-0.17","6zw6rovqj1","one_one","1","indirect_first","0","RT04OR28","0","29","1","0","3","1","","0","1","0","null","","","<div class = 'row'><div class = 'column'><img src = 'category4/CS2.png' width = '70%;'></div><div class = 'column'><img src = 'uspos/5831.bmp' width = '100%;'></div></div>","null","pos","CS","CS","4","category4/CS2.png","","","","",""
"","html-keyboard-response","66","313803","0.0-6.0-4.0-0.18","6zw6rovqj1","one_one","1","indirect_first","0","RT04OR28","0","29","1","0","3","1","","0","1","0","null","","","<div class = 'row'><div class = 'column'><img src = 'category3/CS1.png' width = '70%;'></div><div class = 'column'><img src = 'usneg/9340.bmp' width = '100%;'></div></div>","null","neg","CS","CS","3","category3/CS1.png","","","","",""
"","html-keyboard-response","67","316320","0.0-6.0-4.0-0.19","6zw6rovqj1","one_one","1","indirect_first","0","RT04OR28","0","29","1","0","3","1","","0","1","0","null","","","<div class = 'row'><div class = 'column'><img src = 'category1/CS1.png' width = '70%;'></div><div class = 'column'><img src = 'usneg/6570.1.bmp' width = '100%;'></div></div>","null","neg","CS","CS","1","category1/CS1.png","","","","",""
"","survey-html-form","68","318715","0.0-6.0-5.0","6zw6rovqj1","one_one","1","indirect_first","0","RT04OR28","0","29","1","0","3","1","","0","1","0","1890.8799999626353","","{}","","","","","","","","","","","",""
"","html-keyboard-response","69","322740","0.0-6.0-6.0-0.0","6zw6rovqj1","one_one","1","indirect_first","0","RT04OR28","0","29","1","0","3","1","","0","1","0","null","","","<div class = 'row'><div class = 'column'><img src = 'uspos/1463.bmp' width = '100%;'></div><div class = 'column'><img src = 'category2/CS7.png' width = '70%;'></div></div>","null","pos","CS","CS","2","category2/CS7.png","","","","",""
"","html-keyboard-response","70","325266","0.0-6.0-6.0-0.1","6zw6rovqj1","one_one","1","indirect_first","0","RT04OR28","0","29","1","0","3","1","","0","1","0","null","","","<div class = 'row'><div class = 'column'><img src = 'usneg/9340.bmp' width = '100%;'></div><div class = 'column'><img src = 'category3/CS1.png' width = '70%;'></div></div>","null","neg","CS","CS","3","category3/CS1.png","","","","",""
"","html-keyboard-response","71","327779","0.0-6.0-6.0-0.2","6zw6rovqj1","one_one","1","indirect_first","0","RT04OR28","0","29","1","0","3","1","","0","1","0","null","","","<div class = 'row'><div class = 'column'><img src = 'category2/CS7.png' width = '70%;'></div><div class = 'column'><img src = 'uspos/1463.bmp' width = '100%;'></div></div>","null","pos","CS","CS","2","category2/CS7.png","","","","",""
"","html-keyboard-response","72","330299","0.0-6.0-6.0-0.3","6zw6rovqj1","one_one","1","indirect_first","0","RT04OR28","0","29","1","0","3","1","","0","1","0","null","","","<div class = 'row'><div class = 'column'><img src = 'category4/CS2.png' width = '70%;'></div><div class = 'column'><img src = 'uspos/5831.bmp' width = '100%;'></div></div>","null","pos","CS","CS","4","category4/CS2.png","","","","",""
"","html-keyboard-response","73","332813","0.0-6.0-6.0-0.4","6zw6rovqj1","one_one","1","indirect_first","0","RT04OR28","0","29","1","0","3","1","","0","1","0","null","","","<div class = 'row'><div class = 'column'><img src = 'category2/CS7.png' width = '70%;'></div><div class = 'column'><img src = 'uspos/1463.bmp' width = '100%;'></div></div>","null","pos","CS","CS","2","category2/CS7.png","","","","",""
"","html-keyboard-response","74","335329","0.0-6.0-6.0-0.5","6zw6rovqj1","one_one","1","indirect_first","0","RT04OR28","0","29","1","0","3","1","","0","1","0","null","","","<div class = 'row'><div class = 'column'><img src = 'category4/CS2.png' width = '70%;'></div><div class = 'column'><img src = 'uspos/5831.bmp' width = '100%;'></div></div>","null","pos","CS","CS","4","category4/CS2.png","","","","",""
"","html-keyboard-response","75","337852","0.0-6.0-6.0-0.6","6zw6rovqj1","one_one","1","indirect_first","0","RT04OR28","0","29","1","0","3","1","","0","1","0","null","","","<div class = 'row'><div class = 'column'><img src = 'category3/CS1.png' width = '70%;'></div><div class = 'column'><img src = 'usneg/9340.bmp' width = '100%;'></div></div>","null","neg","CS","CS","3","category3/CS1.png","","","","",""
"","html-keyboard-response","76","340371","0.0-6.0-6.0-0.7","6zw6rovqj1","one_one","1","indirect_first","0","RT04OR28","0","29","1","0","3","1","","0","1","0","null","","","<div class = 'row'><div class = 'column'><img src = 'usneg/6570.1.bmp' width = '100%;'></div><div class = 'column'><img src = 'category1/CS1.png' width = '70%;'></div></div>","null","neg","CS","CS","1","category1/CS1.png","","","","",""
"","html-keyboard-response","77","342889","0.0-6.0-6.0-0.8","6zw6rovqj1","one_one","1","indirect_first","0","RT04OR28","0","29","1","0","3","1","","0","1","0","null","","","<div class = 'row'><div class = 'column'><img src = 'category3/CS1.png' width = '70%;'></div><div class = 'column'><img src = 'usneg/9340.bmp' width = '100%;'></div></div>","null","neg","CS","CS","3","category3/CS1.png","","","","",""
"","html-keyboard-response","78","345406","0.0-6.0-6.0-0.9","6zw6rovqj1","one_one","1","indirect_first","0","RT04OR28","0","29","1","0","3","1","","0","1","0","null","","","<div class = 'row'><div class = 'column'><img src = 'usneg/6570.1.bmp' width = '100%;'></div><div class = 'column'><img src = 'category1/CS1.png' width = '70%;'></div></div>","null","neg","CS","CS","1","category1/CS1.png","","","","",""
"","html-keyboard-response","79","347920","0.0-6.0-6.0-0.10","6zw6rovqj1","one_one","1","indirect_first","0","RT04OR28","0","29","1","0","3","1","","0","1","0","null","","","<div class = 'row'><div class = 'column'><img src = 'category4/CS2.png' width = '70%;'></div><div class = 'column'><img src = 'uspos/5831.bmp' width = '100%;'></div></div>","null","pos","CS","CS","4","category4/CS2.png","","","","",""
"","html-keyboard-response","80","350428","0.0-6.0-6.0-0.11","6zw6rovqj1","one_one","1","indirect_first","0","RT04OR28","0","29","1","0","3","1","","0","1","0","null","","","<div class = 'row'><div class = 'column'><img src = 'usneg/6570.1.bmp' width = '100%;'></div><div class = 'column'><img src = 'category1/CS1.png' width = '70%;'></div></div>","null","neg","CS","CS","1","category1/CS1.png","","","","",""
"","html-keyboard-response","81","352943","0.0-6.0-6.0-0.12","6zw6rovqj1","one_one","1","indirect_first","0","RT04OR28","0","29","1","0","3","1","","0","1","0","null","","","<div class = 'row'><div class = 'column'><img src = 'uspos/1463.bmp' width = '100%;'></div><div class = 'column'><img src = 'category2/CS7.png' width = '70%;'></div></div>","null","pos","CS","CS","2","category2/CS7.png","","","","",""
"","html-keyboard-response","82","355459","0.0-6.0-6.0-0.13","6zw6rovqj1","one_one","1","indirect_first","0","RT04OR28","0","29","1","0","3","1","","0","1","0","null","","","<div class = 'row'><div class = 'column'><img src = 'category1/CS1.png' width = '70%;'></div><div class = 'column'><img src = 'usneg/6570.1.bmp' width = '100%;'></div></div>","null","neg","CS","CS","1","category1/CS1.png","","","","",""
"","html-keyboard-response","83","357979","0.0-6.0-6.0-0.14","6zw6rovqj1","one_one","1","indirect_first","0","RT04OR28","0","29","1","0","3","1","","0","1","0","null","","","<div class = 'row'><div class = 'column'><img src = 'category4/CS2.png' width = '70%;'></div><div class = 'column'><img src = 'uspos/5831.bmp' width = '100%;'></div></div>","null","pos","CS","CS","4","category4/CS2.png","","","","",""
"","html-keyboard-response","84","360502","0.0-6.0-6.0-0.15","6zw6rovqj1","one_one","1","indirect_first","0","RT04OR28","0","29","1","0","3","1","","0","1","0","null","","","<div class = 'row'><div class = 'column'><img src = 'usneg/9340.bmp' width = '100%;'></div><div class = 'column'><img src = 'category3/CS1.png' width = '70%;'></div></div>","null","neg","CS","CS","3","category3/CS1.png","","","","",""
"","html-keyboard-response","85","363019","0.0-6.0-6.0-0.16","6zw6rovqj1","one_one","1","indirect_first","0","RT04OR28","0","29","1","0","3","1","","0","1","0","null","","","<div class = 'row'><div class = 'column'><img src = 'uspos/1463.bmp' width = '100%;'></div><div class = 'column'><img src = 'category2/CS7.png' width = '70%;'></div></div>","null","pos","CS","CS","2","category2/CS7.png","","","","",""
"","html-keyboard-response","86","365548","0.0-6.0-6.0-0.17","6zw6rovqj1","one_one","1","indirect_first","0","RT04OR28","0","29","1","0","3","1","","0","1","0","null","","","<div class = 'row'><div class = 'column'><img src = 'category4/CS2.png' width = '70%;'></div><div class = 'column'><img src = 'uspos/5831.bmp' width = '100%;'></div></div>","null","pos","CS","CS","4","category4/CS2.png","","","","",""
"","html-keyboard-response","87","368068","0.0-6.0-6.0-0.18","6zw6rovqj1","one_one","1","indirect_first","0","RT04OR28","0","29","1","0","3","1","","0","1","0","null","","","<div class = 'row'><div class = 'column'><img src = 'usneg/9340.bmp' width = '100%;'></div><div class = 'column'><img src = 'category3/CS1.png' width = '70%;'></div></div>","null","neg","CS","CS","3","category3/CS1.png","","","","",""
"","html-keyboard-response","88","370589","0.0-6.0-6.0-0.19","6zw6rovqj1","one_one","1","indirect_first","0","RT04OR28","0","29","1","0","3","1","","0","1","0","null","","","<div class = 'row'><div class = 'column'><img src = 'category1/CS1.png' width = '70%;'></div><div class = 'column'><img src = 'usneg/6570.1.bmp' width = '100%;'></div></div>","null","neg","CS","CS","1","category1/CS1.png","","","","",""
"","html-keyboard-response","89","412025","0.0-7.0","6zw6rovqj1","one_one","1","indirect_first","0","RT04OR28","0","29","1","0","3","1","","0","1","0","40924.20000000857","","","<p>Sie sehen nun die chinesischen Zeichen nur ganz kurz. Danach sehen Sie die jeweilige Aussprache der Zeichen als Silbe auf dem Bildschrim. Ihre Aufgabe ist es, für jede Silbe anzugeben, ob diese etwas angenehmes, oder unangenehmes bedeuten könnte. Verlassen Sie sich hier vor allem auf Ihre Intuition.<br><br>Die Zeichen werden nur zur Orientierung dargestellt, beachten Sie sie deshalb nicht. Konzentrieren Sie sich vor allem auf die Silben. <br>Reagieren Sie mit folgenden zwei Tasten: <br><br><b>'D' </b> wenn die Silbe etwas <b>unangenehmes</b> bedeuten könnte. <br><b>'K'</b> wenn die Silbe etwas <b>angenehmes</b> bedeuten könnte. <br><br>Bitte legen Sie nun den Zeigefinger der linken Hand auf die Taste 'D' und den Zeigefinger der rechten Hand auf die Taste 'K'. <br>Reagieren Sie auf jede Silbe so schnell wie möglich. Uns interessiert Ihre spontane Reaktion. <br> <br> <br>Drücken Sie 'D' oder 'K', um die nächste Aufgabe zu starten. </p>","75","","","","","","","","","",""
"","html-keyboard-response","90","415026","0.0-8.0-0.0","6zw6rovqj1","one_one","1","indirect_first","0","RT04OR28","0","29","1","0","3","1","","0","1","0","null","","","<div style=""font-size:60px;"">+</div>","null","","","","","","","","","",""
"","html-keyboard-response","91","415126","0.0-8.0-1.0","6zw6rovqj1","one_one","1","indirect_first","0","RT04OR28","0","29","1","0","3","1","","0","1","0","null","","","<img src = 'category4/CS2.png' width = '100%;'>","null","","","","","","","","","",""
"","html-keyboard-response","92","415387","0.0-8.0-2.0","6zw6rovqj1","one_one","1","indirect_first","0","RT04OR28","0","29","1","0","3","1","","0","1","0","null","","","<img src = 'targets/42.png' width = '100%;'>","null","","","","","","","","","",""
"","html-keyboard-response","93","418845","0.0-8.0-3.0","6zw6rovqj1","one_one","1","indirect_first","0","RT04OR28","0","29","1","0","3","1","","0","1","0","3455.3150000283495","","","<img src = 'targets/mask.png' width = '100%;'>","75","pos","CS","CS","4","category4/CS2.png","targets/42.png","1","indirect","0",""
"","html-keyboard-response","94","420366","0.0-8.0-0.1","6zw6rovqj1","one_one","1","indirect_first","0","RT04OR28","0","29","1","0","3","1","","0","1","0","null","","","<div style=""font-size:60px;"">+</div>","null","","","","","","","","","",""
"","html-keyboard-response","95","420467","0.0-8.0-1.1","6zw6rovqj1","one_one","1","indirect_first","0","RT04OR28","0","29","1","0","3","1","","0","1","0","null","","","<img src = 'category1/CS7.png' width = '100%;'>","null","","","","","","","","","",""
"","html-keyboard-response","96","420736","0.0-8.0-2.1","6zw6rovqj1","one_one","1","indirect_first","0","RT04OR28","0","29","1","0","3","1","","0","1","0","null","","","<img src = 'targets/8.png' width = '100%;'>","null","","","","","","","","","",""
"","html-keyboard-response","97","422496","0.0-8.0-3.1","6zw6rovqj1","one_one","1","indirect_first","0","RT04OR28","0","29","1","0","3","1","","0","1","0","1757.1999999927357","","","<img src = 'targets/mask.png' width = '100%;'>","75","neg","GS","GSold","1","category1/CS7.png","targets/8.png","1","indirect","1",""
"","html-keyboard-response","98","424016","0.0-8.0-0.2","6zw6rovqj1","one_one","1","indirect_first","0","RT04OR28","0","29","1","0","3","1","","0","1","0","null","","","<div style=""font-size:60px;"">+</div>","null","","","","","","","","","",""
"","html-keyboard-response","99","424110","0.0-8.0-1.2","6zw6rovqj1","one_one","1","indirect_first","0","RT04OR28","0","29","1","0","3","1","","0","1","0","null","","","<img src = 'category2/CS8.png' width = '100%;'>","null","","","","","","","","","",""
"","html-keyboard-response","100","424374","0.0-8.0-2.2","6zw6rovqj1","one_one","1","indirect_first","0","RT04OR28","0","29","1","0","3","1","","0","1","0","null","","","<img src = 'targets/41.png' width = '100%;'>","null","","","","","","","","","",""
"","html-keyboard-response","101","425366","0.0-8.0-3.2","6zw6rovqj1","one_one","1","indirect_first","0","RT04OR28","0","29","1","0","3","1","","0","1","0","988.0600000033155","","","<img src = 'targets/mask.png' width = '100%;'>","75","pos","GS","GSold","2","category2/CS8.png","targets/41.png","1","indirect","2",""
"","html-keyboard-response","102","426886","0.0-8.0-0.3","6zw6rovqj1","one_one","1","indirect_first","0","RT04OR28","0","29","1","0","3","1","","0","1","0","null","","","<div style=""font-size:60px;"">+</div>","null","","","","","","","","","",""
"","html-keyboard-response","103","426986","0.0-8.0-1.3","6zw6rovqj1","one_one","1","indirect_first","0","RT04OR28","0","29","1","0","3","1","","0","1","0","null","","","<img src = 'category3/CS1.png' width = '100%;'>","null","","","","","","","","","",""
"","html-keyboard-response","104","427247","0.0-8.0-2.3","6zw6rovqj1","one_one","1","indirect_first","0","RT04OR28","0","29","1","0","3","1","","0","1","0","null","","","<img src = 'targets/33.png' width = '100%;'>","null","","","","","","","","","",""
"","html-keyboard-response","105","428125","0.0-8.0-3.3","6zw6rovqj1","one_one","1","indirect_first","0","RT04OR28","0","29","1","0","3","1","","0","1","0","875.5099999834783","","","<img src = 'targets/mask.png' width = '100%;'>","68","neg","CS","CS","3","category3/CS1.png","targets/33.png","0","indirect","3",""
"","html-keyboard-response","106","429640","0.0-8.0-0.4","6zw6rovqj1","one_one","1","indirect_first","0","RT04OR28","0","29","1","0","3","1","","0","1","0","null","","","<div style=""font-size:60px;"">+</div>","null","","","","","","","","","",""
"","html-keyboard-response","107","429735","0.0-8.0-1.4","6zw6rovqj1","one_one","1","indirect_first","0","RT04OR28","0","29","1","0","3","1","","0","1","0","null","","","<img src = 'category4/CS5.png' width = '100%;'>","null","","","","","","","","","",""
"","html-keyboard-response","108","429995","0.0-8.0-2.4","6zw6rovqj1","one_one","1","indirect_first","0","RT04OR28","0","29","1","0","3","1","","0","1","0","null","","","<img src = 'targets/31.png' width = '100%;'>","null","","","","","","","","","",""
"","html-keyboard-response","109","430636","0.0-8.0-3.4","6zw6rovqj1","one_one","1","indirect_first","0","RT04OR28","0","29","1","0","3","1","","0","1","0","638.2549999980256","","","<img src = 'targets/mask.png' width = '100%;'>","75","pos","GS","GSold","4","category4/CS5.png","targets/31.png","1","indirect","4",""
"","html-keyboard-response","110","432156","0.0-8.0-0.5","6zw6rovqj1","one_one","1","indirect_first","0","RT04OR28","0","29","1","0","3","1","","0","1","0","null","","","<div style=""font-size:60px;"">+</div>","null","","","","","","","","","",""
"","html-keyboard-response","111","432258","0.0-8.0-1.5","6zw6rovqj1","one_one","1","indirect_first","0","RT04OR28","0","29","1","0","3","1","","0","1","0","null","","","<img src = 'category1/CS9.png' width = '100%;'>","null","","","","","","","","","",""
"","html-keyboard-response","112","432513","0.0-8.0-2.5","6zw6rovqj1","one_one","1","indirect_first","0","RT04OR28","0","29","1","0","3","1","","0","1","0","null","","","<img src = 'targets/17.png' width = '100%;'>","null","","","","","","","","","",""
"","html-keyboard-response","113","433728","0.0-8.0-3.5","6zw6rovqj1","one_one","1","indirect_first","0","RT04OR28","0","29","1","0","3","1","","0","1","0","1211.2900000065565","","","<img src = 'targets/mask.png' width = '100%;'>","75","neg","GS","GSold","1","category1/CS9.png","targets/17.png","1","indirect","5",""
"","html-keyboard-response","114","435246","0.0-8.0-0.6","6zw6rovqj1","one_one","1","indirect_first","0","RT04OR28","0","29","1","0","3","1","","0","1","0","null","","","<div style=""font-size:60px;"">+</div>","null","","","","","","","","","",""
"","html-keyboard-response","115","435341","0.0-8.0-1.6","6zw6rovqj1","one_one","1","indirect_first","0","RT04OR28","0","29","1","0","3","1","","0","1","0","null","","","<img src = 'category1/CS2.png' width = '100%;'>","null","","","","","","","","","",""
"","html-keyboard-response","116","435603","0.0-8.0-2.6","6zw6rovqj1","one_one","1","indirect_first","0","RT04OR28","0","29","1","0","3","1","","0","1","0","null","","","<img src = 'targets/20.png' width = '100%;'>","null","","","","","","","","","",""
"","html-keyboard-response","117","436767","0.0-8.0-3.6","6zw6rovqj1","one_one","1","indirect_first","0","RT04OR28","0","29","1","0","3","1","","0","1","0","1160.745000001043","","","<img src = 'targets/mask.png' width = '100%;'>","68","neg","GS","GSold","1","category1/CS2.png","targets/20.png","0","indirect","6",""
"","html-keyboard-response","118","438286","0.0-8.0-0.7","6zw6rovqj1","one_one","1","indirect_first","0","RT04OR28","0","29","1","0","3","1","","0","1","0","null","","","<div style=""font-size:60px;"">+</div>","null","","","","","","","","","",""
"","html-keyboard-response","119","438387","0.0-8.0-1.7","6zw6rovqj1","one_one","1","indirect_first","0","RT04OR28","0","29","1","0","3","1","","0","1","0","null","","","<img src = 'category3/CS3.png' width = '100%;'>","null","","","","","","","","","",""
"","html-keyboard-response","120","438648","0.0-8.0-2.7","6zw6rovqj1","one_one","1","indirect_first","0","RT04OR28","0","29","1","0","3","1","","0","1","0","null","","","<img src = 'targets/13.png' width = '100%;'>","null","","","","","","","","","",""
"","html-keyboard-response","121","439206","0.0-8.0-3.7","6zw6rovqj1","one_one","1","indirect_first","0","RT04OR28","0","29","1","0","3","1","","0","1","0","555.3799999761395","","","<img src = 'targets/mask.png' width = '100%;'>","68","neg","GS","GSold","3","category3/CS3.png","targets/13.png","0","indirect","7",""
"","html-keyboard-response","122","440725","0.0-8.0-0.8","6zw6rovqj1","one_one","1","indirect_first","0","RT04OR28","0","29","1","0","3","1","","0","1","0","null","","","<div style=""font-size:60px;"">+</div>","null","","","","","","","","","",""
"","html-keyboard-response","123","440826","0.0-8.0-1.8","6zw6rovqj1","one_one","1","indirect_first","0","RT04OR28","0","29","1","0","3","1","","0","1","0","null","","","<img src = 'category4/CS9.png' width = '100%;'>","null","","","","","","","","","",""
"","html-keyboard-response","124","441095","0.0-8.0-2.8","6zw6rovqj1","one_one","1","indirect_first","0","RT04OR28","0","29","1","0","3","1","","0","1","0","null","","","<img src = 'targets/36.png' width = '100%;'>","null","","","","","","","","","",""
"","html-keyboard-response","125","441917","0.0-8.0-3.8","6zw6rovqj1","one_one","1","indirect_first","0","RT04OR28","0","29","1","0","3","1","","0","1","0","819.2150000249967","","","<img src = 'targets/mask.png' width = '100%;'>","75","pos","GS","GSold","4","category4/CS9.png","targets/36.png","1","indirect","8",""
"","html-keyboard-response","126","443430","0.0-8.0-0.9","6zw6rovqj1","one_one","1","indirect_first","0","RT04OR28","0","29","1","0","3","1","","0","1","0","null","","","<div style=""font-size:60px;"">+</div>","null","","","","","","","","","",""
"","html-keyboard-response","127","443524","0.0-8.0-1.9","6zw6rovqj1","one_one","1","indirect_first","0","RT04OR28","0","29","1","0","3","1","","0","1","0","null","","","<img src = 'category3/CS5.png' width = '100%;'>","null","","","","","","","","","",""
"","html-keyboard-response","128","443786","0.0-8.0-2.9","6zw6rovqj1","one_one","1","indirect_first","0","RT04OR28","0","29","1","0","3","1","","0","1","0","null","","","<img src = 'targets/4.png' width = '100%;'>","null","","","","","","","","","",""
"","html-keyboard-response","129","444177","0.0-8.0-3.9","6zw6rovqj1","one_one","1","indirect_first","0","RT04OR28","0","29","1","0","3","1","","0","1","0","388.50499998079613","","","<img src = 'targets/mask.png' width = '100%;'>","68","neg","GS","GSold","3","category3/CS5.png","targets/4.png","0","indirect","9",""
"","html-keyboard-response","130","445696","0.0-8.0-0.10","6zw6rovqj1","one_one","1","indirect_first","0","RT04OR28","0","29","1","0","3","1","","0","1","0","null","","","<div style=""font-size:60px;"">+</div>","null","","","","","","","","","",""
"","html-keyboard-response","131","445797","0.0-8.0-1.10","6zw6rovqj1","one_one","1","indirect_first","0","RT04OR28","0","29","1","0","3","1","","0","1","0","null","","","<img src = 'category2/CS6.png' width = '100%;'>","null","","","","","","","","","",""
"","html-keyboard-response","132","446058","0.0-8.0-2.10","6zw6rovqj1","one_one","1","indirect_first","0","RT04OR28","0","29","1","0","3","1","","0","1","0","null","","","<img src = 'targets/48.png' width = '100%;'>","null","","","","","","","","","",""
"","html-keyboard-response","133","447267","0.0-8.0-3.10","6zw6rovqj1","one_one","1","indirect_first","0","RT04OR28","0","29","1","0","3","1","","0","1","0","1206.3400000333786","","","<img src = 'targets/mask.png' width = '100%;'>","75","pos","GS","GSold","2","category2/CS6.png","targets/48.png","1","indirect","10",""
"","html-keyboard-response","134","448772","0.0-8.0-0.11","6zw6rovqj1","one_one","1","indirect_first","0","RT04OR28","0","29","1","0","3","1","","0","1","0","null","","","<div style=""font-size:60px;"">+</div>","null","","","","","","","","","",""
"","html-keyboard-response","135","448872","0.0-8.0-1.11","6zw6rovqj1","one_one","1","indirect_first","0","RT04OR28","0","29","1","0","3","1","","0","1","0","null","","","<img src = 'category1/CS1.png' width = '100%;'>","null","","","","","","","","","",""
"","html-keyboard-response","136","449136","0.0-8.0-2.11","6zw6rovqj1","one_one","1","indirect_first","0","RT04OR28","0","29","1","0","3","1","","0","1","0","null","","","<img src = 'targets/21.png' width = '100%;'>","null","","","","","","","","","",""
"","html-keyboard-response","137","450007","0.0-8.0-3.11","6zw6rovqj1","one_one","1","indirect_first","0","RT04OR28","0","29","1","0","3","1","","0","1","0","867.0850000344217","","","<img src = 'targets/mask.png' width = '100%;'>","75","neg","CS","CS","1","category1/CS1.png","targets/21.png","1","indirect","11",""
"","html-keyboard-response","138","451517","0.0-8.0-0.12","6zw6rovqj1","one_one","1","indirect_first","0","RT04OR28","0","29","1","0","3","1","","0","1","0","null","","","<div style=""font-size:60px;"">+</div>","null","","","","","","","","","",""
"","html-keyboard-response","139","451613","0.0-8.0-1.12","6zw6rovqj1","one_one","1","indirect_first","0","RT04OR28","0","29","1","0","3","1","","0","1","0","null","","","<img src = 'category2/CS7.png' width = '100%;'>","null","","","","","","","","","",""
"","html-keyboard-response","140","451876","0.0-8.0-2.12","6zw6rovqj1","one_one","1","indirect_first","0","RT04OR28","0","29","1","0","3","1","","0","1","0","null","","","<img src = 'targets/32.png' width = '100%;'>","null","","","","","","","","","",""
"","html-keyboard-response","141","452826","0.0-8.0-3.12","6zw6rovqj1","one_one","1","indirect_first","0","RT04OR28","0","29","1","0","3","1","","0","1","0","947.2850000020117","","","<img src = 'targets/mask.png' width = '100%;'>","75","pos","CS","CS","2","category2/CS7.png","targets/32.png","1","indirect","12",""
"","html-keyboard-response","142","454334","0.0-8.0-0.13","6zw6rovqj1","one_one","1","indirect_first","0","RT04OR28","0","29","1","0","3","1","","0","1","0","null","","","<div style=""font-size:60px;"">+</div>","null","","","","","","","","","",""
"","html-keyboard-response","143","454433","0.0-8.0-1.13","6zw6rovqj1","one_one","1","indirect_first","0","RT04OR28","0","29","1","0","3","1","","0","1","0","null","","","<img src = 'category2/CS5.png' width = '100%;'>","null","","","","","","","","","",""
"","html-keyboard-response","144","454692","0.0-8.0-2.13","6zw6rovqj1","one_one","1","indirect_first","0","RT04OR28","0","29","1","0","3","1","","0","1","0","null","","","<img src = 'targets/26.png' width = '100%;'>","null","","","","","","","","","",""
"","html-keyboard-response","145","455438","0.0-8.0-3.13","6zw6rovqj1","one_one","1","indirect_first","0","RT04OR28","0","29","1","0","3","1","","0","1","0","742.2199999564327","","","<img src = 'targets/mask.png' width = '100%;'>","75","pos","GS","GSold","2","category2/CS5.png","targets/26.png","1","indirect","13",""
"","html-keyboard-response","146","456948","0.0-8.0-0.14","6zw6rovqj1","one_one","1","indirect_first","0","RT04OR28","0","29","1","0","3","1","","0","1","0","null","","","<div style=""font-size:60px;"">+</div>","null","","","","","","","","","",""
"","html-keyboard-response","147","457041","0.0-8.0-1.14","6zw6rovqj1","one_one","1","indirect_first","0","RT04OR28","0","29","1","0","3","1","","0","1","0","null","","","<img src = 'category3/CS9.png' width = '100%;'>","null","","","","","","","","","",""
"","html-keyboard-response","148","457304","0.0-8.0-2.14","6zw6rovqj1","one_one","1","indirect_first","0","RT04OR28","0","29","1","0","3","1","","0","1","0","null","","","<img src = 'targets/45.png' width = '100%;'>","null","","","","","","","","","",""
"","html-keyboard-response","149","457607","0.0-8.0-3.14","6zw6rovqj1","one_one","1","indirect_first","0","RT04OR28","0","29","1","0","3","1","","0","1","0","299.73500000778586","","","<img src = 'targets/mask.png' width = '100%;'>","68","neg","GS","GSold","3","category3/CS9.png","targets/45.png","0","indirect","14",""
"","html-keyboard-response","150","459125","0.0-8.0-0.15","6zw6rovqj1","one_one","1","indirect_first","0","RT04OR28","0","29","1","0","3","1","","0","1","0","null","","","<div style=""font-size:60px;"">+</div>","null","","","","","","","","","",""
"","html-keyboard-response","151","459226","0.0-8.0-1.15","6zw6rovqj1","one_one","1","indirect_first","0","RT04OR28","0","29","1","0","3","1","","0","1","0","null","","","<img src = 'category4/CS1.png' width = '100%;'>","null","","","","","","","","","",""
"","html-keyboard-response","152","459486","0.0-8.0-2.15","6zw6rovqj1","one_one","1","indirect_first","0","RT04OR28","0","29","1","0","3","1","","0","1","0","null","","","<img src = 'targets/46.png' width = '100%;'>","null","","","","","","","","","",""
"","html-keyboard-response","153","460267","0.0-8.0-3.15","6zw6rovqj1","one_one","1","indirect_first","0","RT04OR28","0","29","1","0","3","1","","0","1","0","777.3199999937788","","","<img src = 'targets/mask.png' width = '100%;'>","75","pos","GS","GSold","4","category4/CS1.png","targets/46.png","1","indirect","15",""
"","survey-html-form","154","462710","0.0-9.0","6zw6rovqj1","one_one","1","indirect_first","0","RT04OR28","0","29","1","0","3","1","","0","1","0","1926.229999982752","","{}","","","","","","","","","","","",""
"","html-keyboard-response","155","465728","0.0-10.0-0.0","6zw6rovqj1","one_one","1","indirect_first","0","RT04OR28","0","29","1","0","3","1","","0","1","0","null","","","<div style=""font-size:60px;"">+</div>","null","","","","","","","","","",""
"","html-keyboard-response","156","465829","0.0-10.0-1.0","6zw6rovqj1","one_one","1","indirect_first","0","RT04OR28","0","29","1","0","3","1","","0","1","0","null","","","<img src = 'category3/GS1.png' width = '100%;'>","null","","","","","","","","","",""
"","html-keyboard-response","157","466085","0.0-10.0-2.0","6zw6rovqj1","one_one","1","indirect_first","0","RT04OR28","0","29","1","0","3","1","","0","1","0","null","","","<img src = 'targets/24.png' width = '100%;'>","null","","","","","","","","","",""
"","html-keyboard-response","158","467157","0.0-10.0-3.0","6zw6rovqj1","one_one","1","indirect_first","0","RT04OR28","0","29","1","0","3","1","","0","1","0","1067.7750000031665","","","<img src = 'targets/mask.png' width = '100%;'>","75","neg","GS","GSnew","3","category3/GS1.png","targets/24.png","1","indirect","16",""
"","html-keyboard-response","159","468667","0.0-10.0-0.1","6zw6rovqj1","one_one","1","indirect_first","0","RT04OR28","0","29","1","0","3","1","","0","1","0","null","","","<div style=""font-size:60px;"">+</div>","null","","","","","","","","","",""
"","html-keyboard-response","160","468768","0.0-10.0-1.1","6zw6rovqj1","one_one","1","indirect_first","0","RT04OR28","0","29","1","0","3","1","","0","1","0","null","","","<img src = 'category2/GS3.png' width = '100%;'>","null","","","","","","","","","",""
"","html-keyboard-response","161","469029","0.0-10.0-2.1","6zw6rovqj1","one_one","1","indirect_first","0","RT04OR28","0","29","1","0","3","1","","0","1","0","null","","","<img src = 'targets/23.png' width = '100%;'>","null","","","","","","","","","",""
"","html-keyboard-response","162","469758","0.0-10.0-3.1","6zw6rovqj1","one_one","1","indirect_first","0","RT04OR28","0","29","1","0","3","1","","0","1","0","725.014999974519","","","<img src = 'targets/mask.png' width = '100%;'>","75","pos","GS","GSnew","2","category2/GS3.png","targets/23.png","1","indirect","17",""
"","html-keyboard-response","163","471284","0.0-10.0-0.2","6zw6rovqj1","one_one","1","indirect_first","0","RT04OR28","0","29","1","0","3","1","","0","1","0","null","","","<div style=""font-size:60px;"">+</div>","null","","","","","","","","","",""
"","html-keyboard-response","164","471389","0.0-10.0-1.2","6zw6rovqj1","one_one","1","indirect_first","0","RT04OR28","0","29","1","0","3","1","","0","1","0","null","","","<img src = 'category4/GS1.png' width = '100%;'>","null","","","","","","","","","",""
"","html-keyboard-response","165","471654","0.0-10.0-2.2","6zw6rovqj1","one_one","1","indirect_first","0","RT04OR28","0","29","1","0","3","1","","0","1","0","null","","","<img src = 'targets/34.png' width = '100%;'>","null","","","","","","","","","",""
"","html-keyboard-response","166","472298","0.0-10.0-3.2","6zw6rovqj1","one_one","1","indirect_first","0","RT04OR28","0","29","1","0","3","1","","0","1","0","640.9950000233948","","","<img src = 'targets/mask.png' width = '100%;'>","75","pos","GS","GSnew","4","category4/GS1.png","targets/34.png","1","indirect","18",""
"","html-keyboard-response","167","473808","0.0-10.0-0.3","6zw6rovqj1","one_one","1","indirect_first","0","RT04OR28","0","29","1","0","3","1","","0","1","0","null","","","<div style=""font-size:60px;"">+</div>","null","","","","","","","","","",""
"","html-keyboard-response","168","473905","0.0-10.0-1.3","6zw6rovqj1","one_one","1","indirect_first","0","RT04OR28","0","29","1","0","3","1","","0","1","0","null","","","<img src = 'category3/GS3.png' width = '100%;'>","null","","","","","","","","","",""
"","html-keyboard-response","169","474167","0.0-10.0-2.3","6zw6rovqj1","one_one","1","indirect_first","0","RT04OR28","0","29","1","0","3","1","","0","1","0","null","","","<img src = 'targets/40.png' width = '100%;'>","null","","","","","","","","","",""
"","html-keyboard-response","170","474880","0.0-10.0-3.3","6zw6rovqj1","one_one","1","indirect_first","0","RT04OR28","0","29","1","0","3","1","","0","1","0","710.3150000330061","","","<img src = 'targets/mask.png' width = '100%;'>","68","neg","GS","GSnew","3","category3/GS3.png","targets/40.png","0","indirect","19",""
"","html-keyboard-response","171","476388","0.0-10.0-0.4","6zw6rovqj1","one_one","1","indirect_first","0","RT04OR28","0","29","1","0","3","1","","0","1","0","null","","","<div style=""font-size:60px;"">+</div>","null","","","","","","","","","",""
"","html-keyboard-response","172","476482","0.0-10.0-1.4","6zw6rovqj1","one_one","1","indirect_first","0","RT04OR28","0","29","1","0","3","1","","0","1","0","null","","","<img src = 'category1/GS3.png' width = '100%;'>","null","","","","","","","","","",""
"","html-keyboard-response","173","476741","0.0-10.0-2.4","6zw6rovqj1","one_one","1","indirect_first","0","RT04OR28","0","29","1","0","3","1","","0","1","0","null","","","<img src = 'targets/3.png' width = '100%;'>","null","","","","","","","","","",""
"","html-keyboard-response","174","477341","0.0-10.0-3.4","6zw6rovqj1","one_one","1","indirect_first","0","RT04OR28","0","29","1","0","3","1","","0","1","0","596.5800000121817","","","<img src = 'targets/mask.png' width = '100%;'>","75","neg","GS","GSnew","1","category1/GS3.png","targets/3.png","1","indirect","20",""
"","html-keyboard-response","175","478858","0.0-10.0-0.5","6zw6rovqj1","one_one","1","indirect_first","0","RT04OR28","0","29","1","0","3","1","","0","1","0","null","","","<div style=""font-size:60px;"">+</div>","null","","","","","","","","","",""
"","html-keyboard-response","176","478956","0.0-10.0-1.5","6zw6rovqj1","one_one","1","indirect_first","0","RT04OR28","0","29","1","0","3","1","","0","1","0","null","","","<img src = 'category2/GS1.png' width = '100%;'>","null","","","","","","","","","",""
"","html-keyboard-response","177","479222","0.0-10.0-2.5","6zw6rovqj1","one_one","1","indirect_first","0","RT04OR28","0","29","1","0","3","1","","0","1","0","null","","","<img src = 'targets/2.png' width = '100%;'>","null","","","","","","","","","",""
"","html-keyboard-response","178","479710","0.0-10.0-3.5","6zw6rovqj1","one_one","1","indirect_first","0","RT04OR28","0","29","1","0","3","1","","0","1","0","485.1650000200607","","","<img src = 'targets/mask.png' width = '100%;'>","75","pos","GS","GSnew","2","category2/GS1.png","targets/2.png","1","indirect","21",""
"","html-keyboard-response","179","481229","0.0-10.0-0.6","6zw6rovqj1","one_one","1","indirect_first","0","RT04OR28","0","29","1","0","3","1","","0","1","0","null","","","<div style=""font-size:60px;"">+</div>","null","","","","","","","","","",""
"","html-keyboard-response","180","481322","0.0-10.0-1.6","6zw6rovqj1","one_one","1","indirect_first","0","RT04OR28","0","29","1","0","3","1","","0","1","0","null","","","<img src = 'category4/GS3.png' width = '100%;'>","null","","","","","","","","","",""
"","html-keyboard-response","181","481585","0.0-10.0-2.6","6zw6rovqj1","one_one","1","indirect_first","0","RT04OR28","0","29","1","0","3","1","","0","1","0","null","","","<img src = 'targets/5.png' width = '100%;'>","null","","","","","","","","","",""
"","html-keyboard-response","182","482009","0.0-10.0-3.6","6zw6rovqj1","one_one","1","indirect_first","0","RT04OR28","0","29","1","0","3","1","","0","1","0","421.79499997291714","","","<img src = 'targets/mask.png' width = '100%;'>","75","pos","GS","GSnew","4","category4/GS3.png","targets/5.png","1","indirect","22",""
"","html-keyboard-response","183","483520","0.0-10.0-0.7","6zw6rovqj1","one_one","1","indirect_first","0","RT04OR28","0","29","1","0","3","1","","0","1","0","null","","","<div style=""font-size:60px;"">+</div>","null","","","","","","","","","",""
"","html-keyboard-response","184","483612","0.0-10.0-1.7","6zw6rovqj1","one_one","1","indirect_first","0","RT04OR28","0","29","1","0","3","1","","0","1","0","null","","","<img src = 'category2/men.png' width = '100%;'>","null","","","","","","","","","",""
"","html-keyboard-response","185","483869","0.0-10.0-2.7","6zw6rovqj1","one_one","1","indirect_first","0","RT04OR28","0","29","1","0","3","1","","0","1","0","null","","","<img src = 'targets/37.png' width = '100%;'>","null","","","","","","","","","",""
"","html-keyboard-response","186","484850","0.0-10.0-3.7","6zw6rovqj1","one_one","1","indirect_first","0","RT04OR28","0","29","1","0","3","1","","0","1","0","978.1049999874085","","","<img src = 'targets/mask.png' width = '100%;'>","75","pos","GS","abstract","2","category2/men.png","targets/37.png","1","indirect","23",""
"","html-keyboard-response","187","486369","0.0-10.0-0.8","6zw6rovqj1","one_one","1","indirect_first","0","RT04OR28","0","29","1","0","3","1","","0","1","0","null","","","<div style=""font-size:60px;"">+</div>","null","","","","","","","","","",""
"","html-keyboard-response","188","486470","0.0-10.0-1.8","6zw6rovqj1","one_one","1","indirect_first","0","RT04OR28","0","29","1","0","3","1","","0","1","0","null","","","<img src = 'category2/GS2.png' width = '100%;'>","null","","","","","","","","","",""
"","html-keyboard-response","189","486734","0.0-10.0-2.8","6zw6rovqj1","one_one","1","indirect_first","0","RT04OR28","0","29","1","0","3","1","","0","1","0","null","","","<img src = 'targets/47.png' width = '100%;'>","null","","","","","","","","","",""
"","html-keyboard-response","190","487170","0.0-10.0-3.8","6zw6rovqj1","one_one","1","indirect_first","0","RT04OR28","0","29","1","0","3","1","","0","1","0","431.3049999764189","","","<img src = 'targets/mask.png' width = '100%;'>","75","pos","GS","GSnew","2","category2/GS2.png","targets/47.png","1","indirect","24",""
"","html-keyboard-response","191","488689","0.0-10.0-0.9","6zw6rovqj1","one_one","1","indirect_first","0","RT04OR28","0","29","1","0","3","1","","0","1","0","null","","","<div style=""font-size:60px;"">+</div>","null","","","","","","","","","",""
"","html-keyboard-response","192","488791","0.0-10.0-1.9","6zw6rovqj1","one_one","1","indirect_first","0","RT04OR28","0","29","1","0","3","1","","0","1","0","null","","","<img src = 'category3/wang.png' width = '100%;'>","null","","","","","","","","","",""
"","html-keyboard-response","193","489049","0.0-10.0-2.9","6zw6rovqj1","one_one","1","indirect_first","0","RT04OR28","0","29","1","0","3","1","","0","1","0","null","","","<img src = 'targets/43.png' width = '100%;'>","null","","","","","","","","","",""
"","html-keyboard-response","194","489531","0.0-10.0-3.9","6zw6rovqj1","one_one","1","indirect_first","0","RT04OR28","0","29","1","0","3","1","","0","1","0","478.62999996868894","","","<img src = 'targets/mask.png' width = '100%;'>","68","neg","GS","abstract","3","category3/wang.png","targets/43.png","0","indirect","25",""
"","html-keyboard-response","195","491049","0.0-10.0-0.10","6zw6rovqj1","one_one","1","indirect_first","0","RT04OR28","0","29","1","0","3","1","","0","1","0","null","","","<div style=""font-size:60px;"">+</div>","null","","","","","","","","","",""
"","html-keyboard-response","196","491150","0.0-10.0-1.10","6zw6rovqj1","one_one","1","indirect_first","0","RT04OR28","0","29","1","0","3","1","","0","1","0","null","","","<img src = 'category3/GS2.png' width = '100%;'>","null","","","","","","","","","",""
"","html-keyboard-response","197","491407","0.0-10.0-2.10","6zw6rovqj1","one_one","1","indirect_first","0","RT04OR28","0","29","1","0","3","1","","0","1","0","null","","","<img src = 'targets/27.png' width = '100%;'>","null","","","","","","","","","",""
"","html-keyboard-response","198","491940","0.0-10.0-3.10","6zw6rovqj1","one_one","1","indirect_first","0","RT04OR28","0","29","1","0","3","1","","0","1","0","529.9549999763258","","","<img src = 'targets/mask.png' width = '100%;'>","75","neg","GS","GSnew","3","category3/GS2.png","targets/27.png","1","indirect","26",""
"","html-keyboard-response","199","493457","0.0-10.0-0.11","6zw6rovqj1","one_one","1","indirect_first","0","RT04OR28","0","29","1","0","3","1","","0","1","0","null","","","<div style=""font-size:60px;"">+</div>","null","","","","","","","","","",""
"","html-keyboard-response","200","493559","0.0-10.0-1.11","6zw6rovqj1","one_one","1","indirect_first","0","RT04OR28","0","29","1","0","3","1","","0","1","0","null","","","<img src = 'category1/GS2.png' width = '100%;'>","null","","","","","","","","","",""
"","html-keyboard-response","201","493818","0.0-10.0-2.11","6zw6rovqj1","one_one","1","indirect_first","0","RT04OR28","0","29","1","0","3","1","","0","1","0","null","","","<img src = 'targets/14.png' width = '100%;'>","null","","","","","","","","","",""
"","html-keyboard-response","202","494270","0.0-10.0-3.11","6zw6rovqj1","one_one","1","indirect_first","0","RT04OR28","0","29","1","0","3","1","","0","1","0","449.1050000069663","","","<img src = 'targets/mask.png' width = '100%;'>","75","neg","GS","GSnew","1","category1/GS2.png","targets/14.png","1","indirect","27",""
"","html-keyboard-response","203","495785","0.0-10.0-0.12","6zw6rovqj1","one_one","1","indirect_first","0","RT04OR28","0","29","1","0","3","1","","0","1","0","null","","","<div style=""font-size:60px;"">+</div>","null","","","","","","","","","",""
"","html-keyboard-response","204","495882","0.0-10.0-1.12","6zw6rovqj1","one_one","1","indirect_first","0","RT04OR28","0","29","1","0","3","1","","0","1","0","null","","","<img src = 'category4/GS2.png' width = '100%;'>","null","","","","","","","","","",""
"","html-keyboard-response","205","496138","0.0-10.0-2.12","6zw6rovqj1","one_one","1","indirect_first","0","RT04OR28","0","29","1","0","3","1","","0","1","0","null","","","<img src = 'targets/11.png' width = '100%;'>","null","","","","","","","","","",""
"","html-keyboard-response","206","496500","0.0-10.0-3.12","6zw6rovqj1","one_one","1","indirect_first","0","RT04OR28","0","29","1","0","3","1","","0","1","0","358.89499995391816","","","<img src = 'targets/mask.png' width = '100%;'>","75","pos","GS","GSnew","4","category4/GS2.png","targets/11.png","1","indirect","28",""
"","html-keyboard-response","207","498019","0.0-10.0-0.13","6zw6rovqj1","one_one","1","indirect_first","0","RT04OR28","0","29","1","0","3","1","","0","1","0","null","","","<div style=""font-size:60px;"">+</div>","null","","","","","","","","","",""
"","html-keyboard-response","208","498119","0.0-10.0-1.13","6zw6rovqj1","one_one","1","indirect_first","0","RT04OR28","0","29","1","0","3","1","","0","1","0","null","","","<img src = 'category1/GS1.png' width = '100%;'>","null","","","","","","","","","",""
"","html-keyboard-response","209","498380","0.0-10.0-2.13","6zw6rovqj1","one_one","1","indirect_first","0","RT04OR28","0","29","1","0","3","1","","0","1","0","null","","","<img src = 'targets/7.png' width = '100%;'>","null","","","","","","","","","",""
"","html-keyboard-response","210","498740","0.0-10.0-3.13","6zw6rovqj1","one_one","1","indirect_first","0","RT04OR28","0","29","1","0","3","1","","0","1","0","356.8949999753386","","","<img src = 'targets/mask.png' width = '100%;'>","75","neg","GS","GSnew","1","category1/GS1.png","targets/7.png","1","indirect","29",""
"","html-keyboard-response","211","500259","0.0-10.0-0.14","6zw6rovqj1","one_one","1","indirect_first","0","RT04OR28","0","29","1","0","3","1","","0","1","0","null","","","<div style=""font-size:60px;"">+</div>","null","","","","","","","","","",""
"","html-keyboard-response","212","500362","0.0-10.0-1.14","6zw6rovqj1","one_one","1","indirect_first","0","RT04OR28","0","29","1","0","3","1","","0","1","0","null","","","<img src = 'category1/ma.png' width = '100%;'>","null","","","","","","","","","",""
"","html-keyboard-response","213","500632","0.0-10.0-2.14","6zw6rovqj1","one_one","1","indirect_first","0","RT04OR28","0","29","1","0","3","1","","0","1","0","null","","","<img src = 'targets/19.png' width = '100%;'>","null","","","","","","","","","",""
"","html-keyboard-response","214","501081","0.0-10.0-3.14","6zw6rovqj1","one_one","1","indirect_first","0","RT04OR28","0","29","1","0","3","1","","0","1","0","445.89500001166016","","","<img src = 'targets/mask.png' width = '100%;'>","75","neg","GS","abstract","1","category1/ma.png","targets/19.png","1","indirect","30",""
"","html-keyboard-response","215","502595","0.0-10.0-0.15","6zw6rovqj1","one_one","1","indirect_first","0","RT04OR28","0","29","1","0","3","1","","0","1","0","null","","","<div style=""font-size:60px;"">+</div>","null","","","","","","","","","",""
"","html-keyboard-response","216","502700","0.0-10.0-1.15","6zw6rovqj1","one_one","1","indirect_first","0","RT04OR28","0","29","1","0","3","1","","0","1","0","null","","","<img src = 'category4/lin.png' width = '100%;'>","null","","","","","","","","","",""
"","html-keyboard-response","217","502959","0.0-10.0-2.15","6zw6rovqj1","one_one","1","indirect_first","0","RT04OR28","0","29","1","0","3","1","","0","1","0","null","","","<img src = 'targets/10.png' width = '100%;'>","null","","","","","","","","","",""
"","html-keyboard-response","218","503361","0.0-10.0-3.15","6zw6rovqj1","one_one","1","indirect_first","0","RT04OR28","0","29","1","0","3","1","","0","1","0","399.83000000938773","","","<img src = 'targets/mask.png' width = '100%;'>","75","pos","GS","abstract","4","category4/lin.png","targets/10.png","1","indirect","31",""
"","survey-html-form","219","512690","0.0-11.0","6zw6rovqj1","one_one","1","indirect_first","0","RT04OR28","0","29","1","0","3","1","","0","1","0","8826.279999979306","","{}","","","","","","","","","","","",""
"","image-slider-response","220","522539","0.0-12.0-0.0","6zw6rovqj1","one_one","1","indirect_first","0","RT04OR28","0","29","1","0","3","1","","0","1","0","7837.495000043418","","","","","pos","GS","abstract","4","category4/lin.png","targets/10.png","","direct","","95"
"","image-slider-response","221","525488","0.0-12.0-0.1","6zw6rovqj1","one_one","1","indirect_first","0","RT04OR28","0","29","1","0","3","1","","0","1","0","2942.18999997247","","","","","neg","GS","GSnew","1","category1/GS2.png","targets/14.png","","direct","","91"
"","image-slider-response","222","529102","0.0-12.0-0.2","6zw6rovqj1","one_one","1","indirect_first","0","RT04OR28","0","29","1","0","3","1","","0","1","0","3608.2600000081584","","","","","pos","GS","GSold","2","category2/CS5.png","targets/26.png","","direct","","77"
"","image-slider-response","223","534978","0.0-12.0-0.3","6zw6rovqj1","one_one","1","indirect_first","0","RT04OR28","0","29","1","0","3","1","","0","1","0","5869.76000003051","","","","","pos","GS","GSnew","4","category4/GS3.png","targets/5.png","","direct","","92"
"","image-slider-response","224","539011","0.0-12.0-0.4","6zw6rovqj1","one_one","1","indirect_first","0","RT04OR28","0","29","1","0","3","1","","0","1","0","4027.3249999736436","","","","","neg","GS","GSold","1","category1/CS9.png","targets/17.png","","direct","","87"
"","image-slider-response","225","542355","0.0-12.0-0.5","6zw6rovqj1","one_one","1","indirect_first","0","RT04OR28","0","29","1","0","3","1","","0","1","0","3338.900000031572","","","","","pos","GS","GSnew","4","category4/GS2.png","targets/11.png","","direct","","67"
"","image-slider-response","226","547971","0.0-12.0-0.6","6zw6rovqj1","one_one","1","indirect_first","0","RT04OR28","0","29","1","0","3","1","","0","1","0","5612.874999991618","","","","","neg","GS","GSold","3","category3/CS5.png","targets/4.png","","direct","","7"
"","image-slider-response","227","551262","0.0-12.0-0.7","6zw6rovqj1","one_one","1","indirect_first","0","RT04OR28","0","29","1","0","3","1","","0","1","0","3284.1649999609217","","","","","pos","GS","GSnew","2","category2/GS3.png","targets/23.png","","direct","","75"
"","image-slider-response","228","554801","0.0-12.0-0.8","6zw6rovqj1","one_one","1","indirect_first","0","RT04OR28","0","29","1","0","3","1","","0","1","0","3533.1899999873713","","","","","pos","CS","CS","4","category4/CS2.png","targets/42.png","","direct","","82"
"","image-slider-response","229","560603","0.0-12.0-0.9","6zw6rovqj1","one_one","1","indirect_first","0","RT04OR28","0","29","1","0","3","1","","0","1","0","5796.280000009574","","","","","neg","GS","abstract","1","category1/ma.png","targets/19.png","","direct","","86"
"","image-slider-response","230","563642","0.0-12.0-0.10","6zw6rovqj1","one_one","1","indirect_first","0","RT04OR28","0","29","1","0","3","1","","0","1","0","3033.3300000056624","","","","","neg","GS","GSold","3","category3/CS9.png","targets/45.png","","direct","","7"
"","image-slider-response","231","588758","0.0-12.0-0.11","6zw6rovqj1","one_one","1","indirect_first","0","RT04OR28","0","29","1","0","3","1","","0","1","0","25109.305000049062","","","","","neg","GS","GSold","1","category1/CS7.png","targets/8.png","","direct","","88"
"","image-slider-response","232","591422","0.0-12.0-0.12","6zw6rovqj1","one_one","1","indirect_first","0","RT04OR28","0","29","1","0","3","1","","0","1","0","2658.034999971278","","","","","pos","GS","GSold","2","category2/CS8.png","targets/41.png","","direct","","71"
"","image-slider-response","233","594523","0.0-12.0-0.13","6zw6rovqj1","one_one","1","indirect_first","0","RT04OR28","0","29","1","0","3","1","","0","1","0","3097.2099999780767","","","","","pos","GS","GSold","4","category4/CS9.png","targets/36.png","","direct","","75"
"","image-slider-response","234","597780","0.0-12.0-0.14","6zw6rovqj1","one_one","1","indirect_first","0","RT04OR28","0","29","1","0","3","1","","0","1","0","3251.720000000205","","","","","pos","GS","GSnew","2","category2/GS1.png","targets/2.png","","direct","","83"
"","image-slider-response","235","601646","0.0-12.0-0.15","6zw6rovqj1","one_one","1","indirect_first","0","RT04OR28","0","29","1","0","3","1","","0","1","0","3861.2650000141","","","","","neg","GS","abstract","3","category3/wang.png","targets/43.png","","direct","","12"
"","image-slider-response","236","605413","0.0-12.0-0.16","6zw6rovqj1","one_one","1","indirect_first","0","RT04OR28","0","29","1","0","3","1","","0","1","0","3760.8950000139885","","","","","neg","GS","GSnew","3","category3/GS2.png","targets/27.png","","direct","","25"
"","image-slider-response","237","608706","0.0-12.0-0.17","6zw6rovqj1","one_one","1","indirect_first","0","RT04OR28","0","29","1","0","3","1","","0","1","0","3287.060000002384","","","","","pos","GS","GSold","2","category2/CS6.png","targets/48.png","","direct","","68"
"","image-slider-response","238","613615","0.0-12.0-0.18","6zw6rovqj1","one_one","1","indirect_first","0","RT04OR28","0","29","1","0","3","1","","0","1","0","4904.479999968316","","","","","neg","GS","GSnew","1","category1/GS1.png","targets/7.png","","direct","","85"
"","image-slider-response","239","617413","0.0-12.0-0.19","6zw6rovqj1","one_one","1","indirect_first","0","RT04OR28","0","29","1","0","3","1","","0","1","0","3793.134999985341","","","","","neg","GS","GSold","1","category1/CS2.png","targets/20.png","","direct","","85"
"","image-slider-response","240","622145","0.0-12.0-0.20","6zw6rovqj1","one_one","1","indirect_first","0","RT04OR28","0","29","1","0","3","1","","0","1","0","4726.034999999683","","","","","pos","GS","abstract","2","category2/men.png","targets/37.png","","direct","","71"
"","image-slider-response","241","627722","0.0-12.0-0.21","6zw6rovqj1","one_one","1","indirect_first","0","RT04OR28","0","29","1","0","3","1","","0","1","0","5571.960000030231","","","","","pos","GS","GSnew","4","category4/GS1.png","targets/34.png","","direct","","87"
"","image-slider-response","242","632342","0.0-12.0-0.22","6zw6rovqj1","one_one","1","indirect_first","0","RT04OR28","0","29","1","0","3","1","","0","1","0","4613.939999951981","","","","","neg","GS","GSold","3","category3/CS3.png","targets/13.png","","direct","","12"
"","image-slider-response","243","635742","0.0-12.0-0.23","6zw6rovqj1","one_one","1","indirect_first","0","RT04OR28","0","29","1","0","3","1","","0","1","0","3394.4250000058673","","","","","pos","CS","CS","2","category2/CS7.png","targets/32.png","","direct","","73"
"","image-slider-response","244","639150","0.0-12.0-0.24","6zw6rovqj1","one_one","1","indirect_first","0","RT04OR28","0","29","1","0","3","1","","0","1","0","3402.2050000494346","","","","","neg","CS","CS","1","category1/CS1.png","targets/21.png","","direct","","88"
"","image-slider-response","245","642222","0.0-12.0-0.25","6zw6rovqj1","one_one","1","indirect_first","0","RT04OR28","0","29","1","0","3","1","","0","1","0","3066.1549999495037","","","","","neg","GS","GSnew","3","category3/GS1.png","targets/24.png","","direct","","31"
"","image-slider-response","246","645754","0.0-12.0-0.26","6zw6rovqj1","one_one","1","indirect_first","0","RT04OR28","0","29","1","0","3","1","","0","1","0","3528.455000021495","","","","","neg","CS","CS","3","category3/CS1.png","targets/33.png","","direct","","15"
"","image-slider-response","247","650002","0.0-12.0-0.27","6zw6rovqj1","one_one","1","indirect_first","0","RT04OR28","0","29","1","0","3","1","","0","1","0","4242.474999977276","","","","","pos","GS","GSold","4","category4/CS1.png","targets/46.png","","direct","","91"
"","image-slider-response","248","654792","0.0-12.0-0.28","6zw6rovqj1","one_one","1","indirect_first","0","RT04OR28","0","29","1","0","3","1","","0","1","0","4784.9350000033155","","","","","neg","GS","GSnew","3","category3/GS3.png","targets/40.png","","direct","","25"
"","image-slider-response","249","657522","0.0-12.0-0.29","6zw6rovqj1","one_one","1","indirect_first","0","RT04OR28","0","29","1","0","3","1","","0","1","0","2724.839999980759","","","","","pos","GS","GSnew","2","category2/GS2.png","targets/47.png","","direct","","86"
"","image-slider-response","250","659992","0.0-12.0-0.30","6zw6rovqj1","one_one","1","indirect_first","0","RT04OR28","0","29","1","0","3","1","","0","1","0","2463.824999984354","","","","","neg","GS","GSnew","1","category1/GS3.png","targets/3.png","","direct","","83"
"","image-slider-response","251","662662","0.0-12.0-0.31","6zw6rovqj1","one_one","1","indirect_first","0","RT04OR28","0","29","1","0","3","1","","0","1","0","2666.3499999558553","","","","","pos","GS","GSold","4","category4/CS5.png","targets/31.png","","direct","","89"
"","survey-html-form","252","667371","0.0-13.0","6zw6rovqj1","one_one","1","indirect_first","0","RT04OR28","0","29","1","0","3","1","","0","1","0","4706.490000011399","","{}","","","","","","","","","","","",""
"","image-slider-response","253","672921","0.0-14.0-0.0","6zw6rovqj1","one_one","1","indirect_first","0","RT04OR28","0","29","1","0","3","1","","0","1","0","4534.745000011753","","","","","pos","All","all","2","category2/men_all.png","","","all","","71"
"","image-slider-response","254","676686","0.0-14.0-0.1","6zw6rovqj1","one_one","1","indirect_first","0","RT04OR28","0","29","1","0","3","1","","0","1","0","3758.9699999662116","","","","","neg","All","all","3","category3/wang_all.png","","","all","","9"
"","image-slider-response","255","680959","0.0-14.0-0.2","6zw6rovqj1","one_one","1","indirect_first","0","RT04OR28","0","29","1","0","3","1","","0","1","0","4266.97499997681","","","","","neg","All","all","1","category1/ma_all.png","","","all","","89"
"","image-slider-response","256","684200","0.0-14.0-0.3","6zw6rovqj1","one_one","1","indirect_first","0","RT04OR28","0","29","1","0","3","1","","0","1","0","3236.81500001112","","","","","pos","All","all","4","category4/lin_all.png","","","all","","89"
"","survey-text","257","688433","0.0-15.0","6zw6rovqj1","one_one","1","indirect_first","0","RT04OR28","0","29","1","0","3","1","","0","1","0","4189.429999969434","","{""comment"":""""}","","","","","","","","","","","",""
"","survey-html-form","258","701366","0.0-16.0","6zw6rovqj1","one_one","1","indirect_first","0","RT04OR28","0","29","1","0","3","1","","0","1","0","12925.960000022314","","{""hinschauen"":""0"",""ablenkung"":""1"",""gewissenhaft"":""0""}","","","","","","","","","","","",""
