"success","trial_type","trial_index","time_elapsed","internal_node_id","subject","condition","condition_code","measure","measure_code","codeword","gender","age","education","chinese","fach","handedness","comment","hinschauen","ablenkung","gewissenhaft","rt","url","responses","stimulus","key_press","val","type","type_specific","category","cs_selected","target","indirect","task","nr_pres","response"
"true","fullscreen","0","83445","0.0-0.0","xqkkl6heqo","many_one","0","indirect_first","0","NE06LA15","0","27","1","1","3","1","","0","1","0","","","","","","","","","","","","","","",""
"","external-html","1","92486","0.0-1.0","xqkkl6heqo","many_one","0","indirect_first","0","NE06LA15","0","27","1","1","3","1","","0","1","0","8914","text/information.html","","","","","","","","","","","","",""
"","external-html","2","99027","0.0-2.0","xqkkl6heqo","many_one","0","indirect_first","0","NE06LA15","0","27","1","1","3","1","","0","1","0","6426","text/consent.html","","","","","","","","","","","","",""
"","survey-html-form","3","180114","0.0-3.0","xqkkl6heqo","many_one","0","indirect_first","0","NE06LA15","0","27","1","1","3","1","","0","1","0","81076","","{""codeword_enter"":""NE06LA15""}","","","","","","","","","","","",""
"","survey-html-form","4","205897","0.0-4.0","xqkkl6heqo","many_one","0","indirect_first","0","NE06LA15","0","27","1","1","3","1","","0","1","0","25775","","{""age"":""27"",""education"":""1"",""subject"":""3"",""gender"":""0"",""handedness"":""1"",""chinese"":""1""}","","","","","","","","","","","",""
"","survey-html-form","5","207434","0.0-5.0","xqkkl6heqo","many_one","0","indirect_first","0","NE06LA15","0","27","1","1","3","1","","0","1","0","1533","","{}","","","","","","","","","","","",""
"","html-keyboard-response","6","211468","0.0-6.0-0.0-0.0","xqkkl6heqo","many_one","0","indirect_first","0","NE06LA15","0","27","1","1","3","1","","0","1","0","null","","","<div class = 'row'><div class = 'column'><img src = 'category2/CS3.png' width = '70%;'></div><div class = 'column'><img src = 'uspos/8490.bmp' width = '100%;'></div></div>","null","pos","CS","CS","2","category2/CS3.png","","","","",""
"","html-keyboard-response","7","213991","0.0-6.0-0.0-0.1","xqkkl6heqo","many_one","0","indirect_first","0","NE06LA15","0","27","1","1","3","1","","0","1","0","null","","","<div class = 'row'><div class = 'column'><img src = 'category2/CS2.png' width = '70%;'></div><div class = 'column'><img src = 'uspos/5621.bmp' width = '100%;'></div></div>","null","pos","CS","CS","2","category2/CS2.png","","","","",""
"","html-keyboard-response","8","216531","0.0-6.0-0.0-0.2","xqkkl6heqo","many_one","0","indirect_first","0","NE06LA15","0","27","1","1","3","1","","0","1","0","null","","","<div class = 'row'><div class = 'column'><img src = 'uspos/2341.bmp' width = '100%;'></div><div class = 'column'><img src = 'category4/CS3.png' width = '70%;'></div></div>","null","pos","CS","CS","4","category4/CS3.png","","","","",""
"","html-keyboard-response","9","219073","0.0-6.0-0.0-0.3","xqkkl6heqo","many_one","0","indirect_first","0","NE06LA15","0","27","1","1","3","1","","0","1","0","null","","","<div class = 'row'><div class = 'column'><img src = 'category3/CS6.png' width = '70%;'></div><div class = 'column'><img src = 'usneg/3300.bmp' width = '100%;'></div></div>","null","neg","CS","CS","3","category3/CS6.png","","","","",""
"","html-keyboard-response","10","221614","0.0-6.0-0.0-0.4","xqkkl6heqo","many_one","0","indirect_first","0","NE06LA15","0","27","1","1","3","1","","0","1","0","null","","","<div class = 'row'><div class = 'column'><img src = 'category3/CS10.png' width = '70%;'></div><div class = 'column'><img src = 'usneg/9830.bmp' width = '100%;'></div></div>","null","neg","CS","CS","3","category3/CS10.png","","","","",""
"","html-keyboard-response","11","224143","0.0-6.0-0.0-0.5","xqkkl6heqo","many_one","0","indirect_first","0","NE06LA15","0","27","1","1","3","1","","0","1","0","null","","","<div class = 'row'><div class = 'column'><img src = 'uspos/2360.bmp' width = '100%;'></div><div class = 'column'><img src = 'category4/CS4.png' width = '70%;'></div></div>","null","pos","CS","CS","4","category4/CS4.png","","","","",""
"","html-keyboard-response","12","226671","0.0-6.0-0.0-0.6","xqkkl6heqo","many_one","0","indirect_first","0","NE06LA15","0","27","1","1","3","1","","0","1","0","null","","","<div class = 'row'><div class = 'column'><img src = 'uspos/8461.bmp' width = '100%;'></div><div class = 'column'><img src = 'category4/CS1.png' width = '70%;'></div></div>","null","pos","CS","CS","4","category4/CS1.png","","","","",""
"","html-keyboard-response","13","229211","0.0-6.0-0.0-0.7","xqkkl6heqo","many_one","0","indirect_first","0","NE06LA15","0","27","1","1","3","1","","0","1","0","null","","","<div class = 'row'><div class = 'column'><img src = 'category2/CS5.png' width = '70%;'></div><div class = 'column'><img src = 'uspos/5470.bmp' width = '100%;'></div></div>","null","pos","CS","CS","2","category2/CS5.png","","","","",""
"","html-keyboard-response","14","231751","0.0-6.0-0.0-0.8","xqkkl6heqo","many_one","0","indirect_first","0","NE06LA15","0","27","1","1","3","1","","0","1","0","null","","","<div class = 'row'><div class = 'column'><img src = 'category1/CS10.png' width = '70%;'></div><div class = 'column'><img src = 'usneg/9435.bmp' width = '100%;'></div></div>","null","neg","CS","CS","1","category1/CS10.png","","","","",""
"","html-keyboard-response","15","234287","0.0-6.0-0.0-0.9","xqkkl6heqo","many_one","0","indirect_first","0","NE06LA15","0","27","1","1","3","1","","0","1","0","null","","","<div class = 'row'><div class = 'column'><img src = 'category4/CS5.png' width = '70%;'></div><div class = 'column'><img src = 'uspos/5831.bmp' width = '100%;'></div></div>","null","pos","CS","CS","4","category4/CS5.png","","","","",""
"","html-keyboard-response","16","236831","0.0-6.0-0.0-0.10","xqkkl6heqo","many_one","0","indirect_first","0","NE06LA15","0","27","1","1","3","1","","0","1","0","null","","","<div class = 'row'><div class = 'column'><img src = 'usneg/3181.bmp' width = '100%;'></div><div class = 'column'><img src = 'category1/CS4.png' width = '70%;'></div></div>","null","neg","CS","CS","1","category1/CS4.png","","","","",""
"","html-keyboard-response","17","239370","0.0-6.0-0.0-0.11","xqkkl6heqo","many_one","0","indirect_first","0","NE06LA15","0","27","1","1","3","1","","0","1","0","null","","","<div class = 'row'><div class = 'column'><img src = 'usneg/9560.bmp' width = '100%;'></div><div class = 'column'><img src = 'category3/CS8.png' width = '70%;'></div></div>","null","neg","CS","CS","3","category3/CS8.png","","","","",""
"","html-keyboard-response","18","241911","0.0-6.0-0.0-0.12","xqkkl6heqo","many_one","0","indirect_first","0","NE06LA15","0","27","1","1","3","1","","0","1","0","null","","","<div class = 'row'><div class = 'column'><img src = 'uspos/2030.bmp' width = '100%;'></div><div class = 'column'><img src = 'category2/CS8.png' width = '70%;'></div></div>","null","pos","CS","CS","2","category2/CS8.png","","","","",""
"","html-keyboard-response","19","244441","0.0-6.0-0.0-0.13","xqkkl6heqo","many_one","0","indirect_first","0","NE06LA15","0","27","1","1","3","1","","0","1","0","null","","","<div class = 'row'><div class = 'column'><img src = 'category1/CS5.png' width = '70%;'></div><div class = 'column'><img src = 'usneg/9404.bmp' width = '100%;'></div></div>","null","neg","CS","CS","1","category1/CS5.png","","","","",""
"","html-keyboard-response","20","246980","0.0-6.0-0.0-0.14","xqkkl6heqo","many_one","0","indirect_first","0","NE06LA15","0","27","1","1","3","1","","0","1","0","null","","","<div class = 'row'><div class = 'column'><img src = 'uspos/2900.2.bmp' width = '100%;'></div><div class = 'column'><img src = 'category4/CS9.png' width = '70%;'></div></div>","null","pos","CS","CS","4","category4/CS9.png","","","","",""
"","html-keyboard-response","21","249522","0.0-6.0-0.0-0.15","xqkkl6heqo","many_one","0","indirect_first","0","NE06LA15","0","27","1","1","3","1","","0","1","0","null","","","<div class = 'row'><div class = 'column'><img src = 'uspos/2208.bmp' width = '100%;'></div><div class = 'column'><img src = 'category2/CS9.png' width = '70%;'></div></div>","null","pos","CS","CS","2","category2/CS9.png","","","","",""
"","html-keyboard-response","22","252061","0.0-6.0-0.0-0.16","xqkkl6heqo","many_one","0","indirect_first","0","NE06LA15","0","27","1","1","3","1","","0","1","0","null","","","<div class = 'row'><div class = 'column'><img src = 'usneg/9340.bmp' width = '100%;'></div><div class = 'column'><img src = 'category3/CS4.png' width = '70%;'></div></div>","null","neg","CS","CS","3","category3/CS4.png","","","","",""
"","html-keyboard-response","23","254587","0.0-6.0-0.0-0.17","xqkkl6heqo","many_one","0","indirect_first","0","NE06LA15","0","27","1","1","3","1","","0","1","0","null","","","<div class = 'row'><div class = 'column'><img src = 'usneg/9180.bmp' width = '100%;'></div><div class = 'column'><img src = 'category3/CS7.png' width = '70%;'></div></div>","null","neg","CS","CS","3","category3/CS7.png","","","","",""
"","html-keyboard-response","24","257131","0.0-6.0-0.0-0.18","xqkkl6heqo","many_one","0","indirect_first","0","NE06LA15","0","27","1","1","3","1","","0","1","0","null","","","<div class = 'row'><div class = 'column'><img src = 'category1/CS6.png' width = '70%;'></div><div class = 'column'><img src = 'usneg/9520.bmp' width = '100%;'></div></div>","null","neg","CS","CS","1","category1/CS6.png","","","","",""
"","html-keyboard-response","25","259661","0.0-6.0-0.0-0.19","xqkkl6heqo","many_one","0","indirect_first","0","NE06LA15","0","27","1","1","3","1","","0","1","0","null","","","<div class = 'row'><div class = 'column'><img src = 'category1/CS1.png' width = '70%;'></div><div class = 'column'><img src = 'usneg/9280.bmp' width = '100%;'></div></div>","null","neg","CS","CS","1","category1/CS1.png","","","","",""
"","survey-html-form","26","262463","0.0-6.0-1.0","xqkkl6heqo","many_one","0","indirect_first","0","NE06LA15","0","27","1","1","3","1","","0","1","0","2293","","{}","","","","","","","","","","","",""
"","html-keyboard-response","27","266500","0.0-6.0-2.0-0.0","xqkkl6heqo","many_one","0","indirect_first","0","NE06LA15","0","27","1","1","3","1","","0","1","0","null","","","<div class = 'row'><div class = 'column'><img src = 'category1/CS4.png' width = '70%;'></div><div class = 'column'><img src = 'usneg/3181.bmp' width = '100%;'></div></div>","null","neg","CS","CS","1","category1/CS4.png","","","","",""
"","html-keyboard-response","28","269041","0.0-6.0-2.0-0.1","xqkkl6heqo","many_one","0","indirect_first","0","NE06LA15","0","27","1","1","3","1","","0","1","0","null","","","<div class = 'row'><div class = 'column'><img src = 'usneg/9404.bmp' width = '100%;'></div><div class = 'column'><img src = 'category1/CS5.png' width = '70%;'></div></div>","null","neg","CS","CS","1","category1/CS5.png","","","","",""
"","html-keyboard-response","29","271580","0.0-6.0-2.0-0.2","xqkkl6heqo","many_one","0","indirect_first","0","NE06LA15","0","27","1","1","3","1","","0","1","0","null","","","<div class = 'row'><div class = 'column'><img src = 'category3/CS7.png' width = '70%;'></div><div class = 'column'><img src = 'usneg/9180.bmp' width = '100%;'></div></div>","null","neg","CS","CS","3","category3/CS7.png","","","","",""
"","html-keyboard-response","30","274121","0.0-6.0-2.0-0.3","xqkkl6heqo","many_one","0","indirect_first","0","NE06LA15","0","27","1","1","3","1","","0","1","0","null","","","<div class = 'row'><div class = 'column'><img src = 'category1/CS1.png' width = '70%;'></div><div class = 'column'><img src = 'usneg/9280.bmp' width = '100%;'></div></div>","null","neg","CS","CS","1","category1/CS1.png","","","","",""
"","html-keyboard-response","31","276662","0.0-6.0-2.0-0.4","xqkkl6heqo","many_one","0","indirect_first","0","NE06LA15","0","27","1","1","3","1","","0","1","0","null","","","<div class = 'row'><div class = 'column'><img src = 'category1/CS10.png' width = '70%;'></div><div class = 'column'><img src = 'usneg/9435.bmp' width = '100%;'></div></div>","null","neg","CS","CS","1","category1/CS10.png","","","","",""
"","html-keyboard-response","32","279200","0.0-6.0-2.0-0.5","xqkkl6heqo","many_one","0","indirect_first","0","NE06LA15","0","27","1","1","3","1","","0","1","0","null","","","<div class = 'row'><div class = 'column'><img src = 'category2/CS3.png' width = '70%;'></div><div class = 'column'><img src = 'uspos/8490.bmp' width = '100%;'></div></div>","null","pos","CS","CS","2","category2/CS3.png","","","","",""
"","html-keyboard-response","33","281730","0.0-6.0-2.0-0.6","xqkkl6heqo","many_one","0","indirect_first","0","NE06LA15","0","27","1","1","3","1","","0","1","0","null","","","<div class = 'row'><div class = 'column'><img src = 'category3/CS6.png' width = '70%;'></div><div class = 'column'><img src = 'usneg/3300.bmp' width = '100%;'></div></div>","null","neg","CS","CS","3","category3/CS6.png","","","","",""
"","html-keyboard-response","34","284271","0.0-6.0-2.0-0.7","xqkkl6heqo","many_one","0","indirect_first","0","NE06LA15","0","27","1","1","3","1","","0","1","0","null","","","<div class = 'row'><div class = 'column'><img src = 'uspos/2900.2.bmp' width = '100%;'></div><div class = 'column'><img src = 'category4/CS9.png' width = '70%;'></div></div>","null","pos","CS","CS","4","category4/CS9.png","","","","",""
"","html-keyboard-response","35","286811","0.0-6.0-2.0-0.8","xqkkl6heqo","many_one","0","indirect_first","0","NE06LA15","0","27","1","1","3","1","","0","1","0","null","","","<div class = 'row'><div class = 'column'><img src = 'usneg/9560.bmp' width = '100%;'></div><div class = 'column'><img src = 'category3/CS8.png' width = '70%;'></div></div>","null","neg","CS","CS","3","category3/CS8.png","","","","",""
"","html-keyboard-response","36","289341","0.0-6.0-2.0-0.9","xqkkl6heqo","many_one","0","indirect_first","0","NE06LA15","0","27","1","1","3","1","","0","1","0","null","","","<div class = 'row'><div class = 'column'><img src = 'uspos/5470.bmp' width = '100%;'></div><div class = 'column'><img src = 'category2/CS5.png' width = '70%;'></div></div>","null","pos","CS","CS","2","category2/CS5.png","","","","",""
"","html-keyboard-response","37","291881","0.0-6.0-2.0-0.10","xqkkl6heqo","many_one","0","indirect_first","0","NE06LA15","0","27","1","1","3","1","","0","1","0","null","","","<div class = 'row'><div class = 'column'><img src = 'usneg/9830.bmp' width = '100%;'></div><div class = 'column'><img src = 'category3/CS10.png' width = '70%;'></div></div>","null","neg","CS","CS","3","category3/CS10.png","","","","",""
"","html-keyboard-response","38","294415","0.0-6.0-2.0-0.11","xqkkl6heqo","many_one","0","indirect_first","0","NE06LA15","0","27","1","1","3","1","","0","1","0","null","","","<div class = 'row'><div class = 'column'><img src = 'category2/CS2.png' width = '70%;'></div><div class = 'column'><img src = 'uspos/5621.bmp' width = '100%;'></div></div>","null","pos","CS","CS","2","category2/CS2.png","","","","",""
"","html-keyboard-response","39","296951","0.0-6.0-2.0-0.12","xqkkl6heqo","many_one","0","indirect_first","0","NE06LA15","0","27","1","1","3","1","","0","1","0","null","","","<div class = 'row'><div class = 'column'><img src = 'category4/CS4.png' width = '70%;'></div><div class = 'column'><img src = 'uspos/2360.bmp' width = '100%;'></div></div>","null","pos","CS","CS","4","category4/CS4.png","","","","",""
"","html-keyboard-response","40","299489","0.0-6.0-2.0-0.13","xqkkl6heqo","many_one","0","indirect_first","0","NE06LA15","0","27","1","1","3","1","","0","1","0","null","","","<div class = 'row'><div class = 'column'><img src = 'category3/CS4.png' width = '70%;'></div><div class = 'column'><img src = 'usneg/9340.bmp' width = '100%;'></div></div>","null","neg","CS","CS","3","category3/CS4.png","","","","",""
"","html-keyboard-response","41","302011","0.0-6.0-2.0-0.14","xqkkl6heqo","many_one","0","indirect_first","0","NE06LA15","0","27","1","1","3","1","","0","1","0","null","","","<div class = 'row'><div class = 'column'><img src = 'category2/CS9.png' width = '70%;'></div><div class = 'column'><img src = 'uspos/2208.bmp' width = '100%;'></div></div>","null","pos","CS","CS","2","category2/CS9.png","","","","",""
"","html-keyboard-response","42","304551","0.0-6.0-2.0-0.15","xqkkl6heqo","many_one","0","indirect_first","0","NE06LA15","0","27","1","1","3","1","","0","1","0","null","","","<div class = 'row'><div class = 'column'><img src = 'uspos/8461.bmp' width = '100%;'></div><div class = 'column'><img src = 'category4/CS1.png' width = '70%;'></div></div>","null","pos","CS","CS","4","category4/CS1.png","","","","",""
"","html-keyboard-response","43","307090","0.0-6.0-2.0-0.16","xqkkl6heqo","many_one","0","indirect_first","0","NE06LA15","0","27","1","1","3","1","","0","1","0","null","","","<div class = 'row'><div class = 'column'><img src = 'category4/CS3.png' width = '70%;'></div><div class = 'column'><img src = 'uspos/2341.bmp' width = '100%;'></div></div>","null","pos","CS","CS","4","category4/CS3.png","","","","",""
"","html-keyboard-response","44","309631","0.0-6.0-2.0-0.17","xqkkl6heqo","many_one","0","indirect_first","0","NE06LA15","0","27","1","1","3","1","","0","1","0","null","","","<div class = 'row'><div class = 'column'><img src = 'category1/CS6.png' width = '70%;'></div><div class = 'column'><img src = 'usneg/9520.bmp' width = '100%;'></div></div>","null","neg","CS","CS","1","category1/CS6.png","","","","",""
"","html-keyboard-response","45","312172","0.0-6.0-2.0-0.18","xqkkl6heqo","many_one","0","indirect_first","0","NE06LA15","0","27","1","1","3","1","","0","1","0","null","","","<div class = 'row'><div class = 'column'><img src = 'category2/CS8.png' width = '70%;'></div><div class = 'column'><img src = 'uspos/2030.bmp' width = '100%;'></div></div>","null","pos","CS","CS","2","category2/CS8.png","","","","",""
"","html-keyboard-response","46","314711","0.0-6.0-2.0-0.19","xqkkl6heqo","many_one","0","indirect_first","0","NE06LA15","0","27","1","1","3","1","","0","1","0","null","","","<div class = 'row'><div class = 'column'><img src = 'uspos/5831.bmp' width = '100%;'></div><div class = 'column'><img src = 'category4/CS5.png' width = '70%;'></div></div>","null","pos","CS","CS","4","category4/CS5.png","","","","",""
"","survey-html-form","47","316994","0.0-6.0-3.0","xqkkl6heqo","many_one","0","indirect_first","0","NE06LA15","0","27","1","1","3","1","","0","1","0","1764","","{}","","","","","","","","","","","",""
"","html-keyboard-response","48","321022","0.0-6.0-4.0-0.0","xqkkl6heqo","many_one","0","indirect_first","0","NE06LA15","0","27","1","1","3","1","","0","1","0","null","","","<div class = 'row'><div class = 'column'><img src = 'uspos/2208.bmp' width = '100%;'></div><div class = 'column'><img src = 'category2/CS9.png' width = '70%;'></div></div>","null","pos","CS","CS","2","category2/CS9.png","","","","",""
"","html-keyboard-response","49","323560","0.0-6.0-4.0-0.1","xqkkl6heqo","many_one","0","indirect_first","0","NE06LA15","0","27","1","1","3","1","","0","1","0","null","","","<div class = 'row'><div class = 'column'><img src = 'usneg/9830.bmp' width = '100%;'></div><div class = 'column'><img src = 'category3/CS10.png' width = '70%;'></div></div>","null","neg","CS","CS","3","category3/CS10.png","","","","",""
"","html-keyboard-response","50","326096","0.0-6.0-4.0-0.2","xqkkl6heqo","many_one","0","indirect_first","0","NE06LA15","0","27","1","1","3","1","","0","1","0","null","","","<div class = 'row'><div class = 'column'><img src = 'category1/CS1.png' width = '70%;'></div><div class = 'column'><img src = 'usneg/9280.bmp' width = '100%;'></div></div>","null","neg","CS","CS","1","category1/CS1.png","","","","",""
"","html-keyboard-response","51","328630","0.0-6.0-4.0-0.3","xqkkl6heqo","many_one","0","indirect_first","0","NE06LA15","0","27","1","1","3","1","","0","1","0","null","","","<div class = 'row'><div class = 'column'><img src = 'category3/CS6.png' width = '70%;'></div><div class = 'column'><img src = 'usneg/3300.bmp' width = '100%;'></div></div>","null","neg","CS","CS","3","category3/CS6.png","","","","",""
"","html-keyboard-response","52","331171","0.0-6.0-4.0-0.4","xqkkl6heqo","many_one","0","indirect_first","0","NE06LA15","0","27","1","1","3","1","","0","1","0","null","","","<div class = 'row'><div class = 'column'><img src = 'category4/CS9.png' width = '70%;'></div><div class = 'column'><img src = 'uspos/2900.2.bmp' width = '100%;'></div></div>","null","pos","CS","CS","4","category4/CS9.png","","","","",""
"","html-keyboard-response","53","333710","0.0-6.0-4.0-0.5","xqkkl6heqo","many_one","0","indirect_first","0","NE06LA15","0","27","1","1","3","1","","0","1","0","null","","","<div class = 'row'><div class = 'column'><img src = 'category4/CS5.png' width = '70%;'></div><div class = 'column'><img src = 'uspos/5831.bmp' width = '100%;'></div></div>","null","pos","CS","CS","4","category4/CS5.png","","","","",""
"","html-keyboard-response","54","336251","0.0-6.0-4.0-0.6","xqkkl6heqo","many_one","0","indirect_first","0","NE06LA15","0","27","1","1","3","1","","0","1","0","null","","","<div class = 'row'><div class = 'column'><img src = 'usneg/3181.bmp' width = '100%;'></div><div class = 'column'><img src = 'category1/CS4.png' width = '70%;'></div></div>","null","neg","CS","CS","1","category1/CS4.png","","","","",""
"","html-keyboard-response","55","338792","0.0-6.0-4.0-0.7","xqkkl6heqo","many_one","0","indirect_first","0","NE06LA15","0","27","1","1","3","1","","0","1","0","null","","","<div class = 'row'><div class = 'column'><img src = 'usneg/9180.bmp' width = '100%;'></div><div class = 'column'><img src = 'category3/CS7.png' width = '70%;'></div></div>","null","neg","CS","CS","3","category3/CS7.png","","","","",""
"","html-keyboard-response","56","341331","0.0-6.0-4.0-0.8","xqkkl6heqo","many_one","0","indirect_first","0","NE06LA15","0","27","1","1","3","1","","0","1","0","null","","","<div class = 'row'><div class = 'column'><img src = 'category4/CS4.png' width = '70%;'></div><div class = 'column'><img src = 'uspos/2360.bmp' width = '100%;'></div></div>","null","pos","CS","CS","4","category4/CS4.png","","","","",""
"","html-keyboard-response","57","343872","0.0-6.0-4.0-0.9","xqkkl6heqo","many_one","0","indirect_first","0","NE06LA15","0","27","1","1","3","1","","0","1","0","null","","","<div class = 'row'><div class = 'column'><img src = 'uspos/2030.bmp' width = '100%;'></div><div class = 'column'><img src = 'category2/CS8.png' width = '70%;'></div></div>","null","pos","CS","CS","2","category2/CS8.png","","","","",""
"","html-keyboard-response","58","346411","0.0-6.0-4.0-0.10","xqkkl6heqo","many_one","0","indirect_first","0","NE06LA15","0","27","1","1","3","1","","0","1","0","null","","","<div class = 'row'><div class = 'column'><img src = 'category4/CS1.png' width = '70%;'></div><div class = 'column'><img src = 'uspos/8461.bmp' width = '100%;'></div></div>","null","pos","CS","CS","4","category4/CS1.png","","","","",""
"","html-keyboard-response","59","348951","0.0-6.0-4.0-0.11","xqkkl6heqo","many_one","0","indirect_first","0","NE06LA15","0","27","1","1","3","1","","0","1","0","null","","","<div class = 'row'><div class = 'column'><img src = 'category3/CS4.png' width = '70%;'></div><div class = 'column'><img src = 'usneg/9340.bmp' width = '100%;'></div></div>","null","neg","CS","CS","3","category3/CS4.png","","","","",""
"","html-keyboard-response","60","351492","0.0-6.0-4.0-0.12","xqkkl6heqo","many_one","0","indirect_first","0","NE06LA15","0","27","1","1","3","1","","0","1","0","null","","","<div class = 'row'><div class = 'column'><img src = 'uspos/5470.bmp' width = '100%;'></div><div class = 'column'><img src = 'category2/CS5.png' width = '70%;'></div></div>","null","pos","CS","CS","2","category2/CS5.png","","","","",""
"","html-keyboard-response","61","354030","0.0-6.0-4.0-0.13","xqkkl6heqo","many_one","0","indirect_first","0","NE06LA15","0","27","1","1","3","1","","0","1","0","null","","","<div class = 'row'><div class = 'column'><img src = 'category3/CS8.png' width = '70%;'></div><div class = 'column'><img src = 'usneg/9560.bmp' width = '100%;'></div></div>","null","neg","CS","CS","3","category3/CS8.png","","","","",""
"","html-keyboard-response","62","356571","0.0-6.0-4.0-0.14","xqkkl6heqo","many_one","0","indirect_first","0","NE06LA15","0","27","1","1","3","1","","0","1","0","null","","","<div class = 'row'><div class = 'column'><img src = 'category2/CS2.png' width = '70%;'></div><div class = 'column'><img src = 'uspos/5621.bmp' width = '100%;'></div></div>","null","pos","CS","CS","2","category2/CS2.png","","","","",""
"","html-keyboard-response","63","359113","0.0-6.0-4.0-0.15","xqkkl6heqo","many_one","0","indirect_first","0","NE06LA15","0","27","1","1","3","1","","0","1","0","null","","","<div class = 'row'><div class = 'column'><img src = 'category4/CS3.png' width = '70%;'></div><div class = 'column'><img src = 'uspos/2341.bmp' width = '100%;'></div></div>","null","pos","CS","CS","4","category4/CS3.png","","","","",""
"","html-keyboard-response","64","361651","0.0-6.0-4.0-0.16","xqkkl6heqo","many_one","0","indirect_first","0","NE06LA15","0","27","1","1","3","1","","0","1","0","null","","","<div class = 'row'><div class = 'column'><img src = 'uspos/8490.bmp' width = '100%;'></div><div class = 'column'><img src = 'category2/CS3.png' width = '70%;'></div></div>","null","pos","CS","CS","2","category2/CS3.png","","","","",""
"","html-keyboard-response","65","364180","0.0-6.0-4.0-0.17","xqkkl6heqo","many_one","0","indirect_first","0","NE06LA15","0","27","1","1","3","1","","0","1","0","null","","","<div class = 'row'><div class = 'column'><img src = 'category1/CS10.png' width = '70%;'></div><div class = 'column'><img src = 'usneg/9435.bmp' width = '100%;'></div></div>","null","neg","CS","CS","1","category1/CS10.png","","","","",""
"","html-keyboard-response","66","366721","0.0-6.0-4.0-0.18","xqkkl6heqo","many_one","0","indirect_first","0","NE06LA15","0","27","1","1","3","1","","0","1","0","null","","","<div class = 'row'><div class = 'column'><img src = 'usneg/9520.bmp' width = '100%;'></div><div class = 'column'><img src = 'category1/CS6.png' width = '70%;'></div></div>","null","neg","CS","CS","1","category1/CS6.png","","","","",""
"","html-keyboard-response","67","369261","0.0-6.0-4.0-0.19","xqkkl6heqo","many_one","0","indirect_first","0","NE06LA15","0","27","1","1","3","1","","0","1","0","null","","","<div class = 'row'><div class = 'column'><img src = 'usneg/9404.bmp' width = '100%;'></div><div class = 'column'><img src = 'category1/CS5.png' width = '70%;'></div></div>","null","neg","CS","CS","1","category1/CS5.png","","","","",""
"","survey-html-form","68","374083","0.0-6.0-5.0","xqkkl6heqo","many_one","0","indirect_first","0","NE06LA15","0","27","1","1","3","1","","0","1","0","4302","","{}","","","","","","","","","","","",""
"","html-keyboard-response","69","378110","0.0-6.0-6.0-0.0","xqkkl6heqo","many_one","0","indirect_first","0","NE06LA15","0","27","1","1","3","1","","0","1","0","null","","","<div class = 'row'><div class = 'column'><img src = 'category3/CS6.png' width = '70%;'></div><div class = 'column'><img src = 'usneg/3300.bmp' width = '100%;'></div></div>","null","neg","CS","CS","3","category3/CS6.png","","","","",""
"","html-keyboard-response","70","380630","0.0-6.0-6.0-0.1","xqkkl6heqo","many_one","0","indirect_first","0","NE06LA15","0","27","1","1","3","1","","0","1","0","null","","","<div class = 'row'><div class = 'column'><img src = 'uspos/5470.bmp' width = '100%;'></div><div class = 'column'><img src = 'category2/CS5.png' width = '70%;'></div></div>","null","pos","CS","CS","2","category2/CS5.png","","","","",""
"","html-keyboard-response","71","383171","0.0-6.0-6.0-0.2","xqkkl6heqo","many_one","0","indirect_first","0","NE06LA15","0","27","1","1","3","1","","0","1","0","null","","","<div class = 'row'><div class = 'column'><img src = 'category1/CS6.png' width = '70%;'></div><div class = 'column'><img src = 'usneg/9520.bmp' width = '100%;'></div></div>","null","neg","CS","CS","1","category1/CS6.png","","","","",""
"","html-keyboard-response","72","385705","0.0-6.0-6.0-0.3","xqkkl6heqo","many_one","0","indirect_first","0","NE06LA15","0","27","1","1","3","1","","0","1","0","null","","","<div class = 'row'><div class = 'column'><img src = 'category3/CS8.png' width = '70%;'></div><div class = 'column'><img src = 'usneg/9560.bmp' width = '100%;'></div></div>","null","neg","CS","CS","3","category3/CS8.png","","","","",""
"","html-keyboard-response","73","388241","0.0-6.0-6.0-0.4","xqkkl6heqo","many_one","0","indirect_first","0","NE06LA15","0","27","1","1","3","1","","0","1","0","null","","","<div class = 'row'><div class = 'column'><img src = 'uspos/2900.2.bmp' width = '100%;'></div><div class = 'column'><img src = 'category4/CS9.png' width = '70%;'></div></div>","null","pos","CS","CS","4","category4/CS9.png","","","","",""
"","html-keyboard-response","74","390782","0.0-6.0-6.0-0.5","xqkkl6heqo","many_one","0","indirect_first","0","NE06LA15","0","27","1","1","3","1","","0","1","0","null","","","<div class = 'row'><div class = 'column'><img src = 'category4/CS4.png' width = '70%;'></div><div class = 'column'><img src = 'uspos/2360.bmp' width = '100%;'></div></div>","null","pos","CS","CS","4","category4/CS4.png","","","","",""
"","html-keyboard-response","75","393322","0.0-6.0-6.0-0.6","xqkkl6heqo","many_one","0","indirect_first","0","NE06LA15","0","27","1","1","3","1","","0","1","0","null","","","<div class = 'row'><div class = 'column'><img src = 'category1/CS10.png' width = '70%;'></div><div class = 'column'><img src = 'usneg/9435.bmp' width = '100%;'></div></div>","null","neg","CS","CS","1","category1/CS10.png","","","","",""
"","html-keyboard-response","76","395861","0.0-6.0-6.0-0.7","xqkkl6heqo","many_one","0","indirect_first","0","NE06LA15","0","27","1","1","3","1","","0","1","0","null","","","<div class = 'row'><div class = 'column'><img src = 'usneg/9180.bmp' width = '100%;'></div><div class = 'column'><img src = 'category3/CS7.png' width = '70%;'></div></div>","null","neg","CS","CS","3","category3/CS7.png","","","","",""
"","html-keyboard-response","77","398401","0.0-6.0-6.0-0.8","xqkkl6heqo","many_one","0","indirect_first","0","NE06LA15","0","27","1","1","3","1","","0","1","0","null","","","<div class = 'row'><div class = 'column'><img src = 'category2/CS2.png' width = '70%;'></div><div class = 'column'><img src = 'uspos/5621.bmp' width = '100%;'></div></div>","null","pos","CS","CS","2","category2/CS2.png","","","","",""
"","html-keyboard-response","78","400931","0.0-6.0-6.0-0.9","xqkkl6heqo","many_one","0","indirect_first","0","NE06LA15","0","27","1","1","3","1","","0","1","0","null","","","<div class = 'row'><div class = 'column'><img src = 'category3/CS4.png' width = '70%;'></div><div class = 'column'><img src = 'usneg/9340.bmp' width = '100%;'></div></div>","null","neg","CS","CS","3","category3/CS4.png","","","","",""
"","html-keyboard-response","79","403460","0.0-6.0-6.0-0.10","xqkkl6heqo","many_one","0","indirect_first","0","NE06LA15","0","27","1","1","3","1","","0","1","0","null","","","<div class = 'row'><div class = 'column'><img src = 'category4/CS1.png' width = '70%;'></div><div class = 'column'><img src = 'uspos/8461.bmp' width = '100%;'></div></div>","null","pos","CS","CS","4","category4/CS1.png","","","","",""
"","html-keyboard-response","80","406000","0.0-6.0-6.0-0.11","xqkkl6heqo","many_one","0","indirect_first","0","NE06LA15","0","27","1","1","3","1","","0","1","0","null","","","<div class = 'row'><div class = 'column'><img src = 'usneg/9404.bmp' width = '100%;'></div><div class = 'column'><img src = 'category1/CS5.png' width = '70%;'></div></div>","null","neg","CS","CS","1","category1/CS5.png","","","","",""
"","html-keyboard-response","81","408541","0.0-6.0-6.0-0.12","xqkkl6heqo","many_one","0","indirect_first","0","NE06LA15","0","27","1","1","3","1","","0","1","0","null","","","<div class = 'row'><div class = 'column'><img src = 'usneg/9280.bmp' width = '100%;'></div><div class = 'column'><img src = 'category1/CS1.png' width = '70%;'></div></div>","null","neg","CS","CS","1","category1/CS1.png","","","","",""
"","html-keyboard-response","82","411081","0.0-6.0-6.0-0.13","xqkkl6heqo","many_one","0","indirect_first","0","NE06LA15","0","27","1","1","3","1","","0","1","0","null","","","<div class = 'row'><div class = 'column'><img src = 'uspos/2341.bmp' width = '100%;'></div><div class = 'column'><img src = 'category4/CS3.png' width = '70%;'></div></div>","null","pos","CS","CS","4","category4/CS3.png","","","","",""
"","html-keyboard-response","83","413621","0.0-6.0-6.0-0.14","xqkkl6heqo","many_one","0","indirect_first","0","NE06LA15","0","27","1","1","3","1","","0","1","0","null","","","<div class = 'row'><div class = 'column'><img src = 'uspos/2208.bmp' width = '100%;'></div><div class = 'column'><img src = 'category2/CS9.png' width = '70%;'></div></div>","null","pos","CS","CS","2","category2/CS9.png","","","","",""
"","html-keyboard-response","84","416151","0.0-6.0-6.0-0.15","xqkkl6heqo","many_one","0","indirect_first","0","NE06LA15","0","27","1","1","3","1","","0","1","0","null","","","<div class = 'row'><div class = 'column'><img src = 'uspos/8490.bmp' width = '100%;'></div><div class = 'column'><img src = 'category2/CS3.png' width = '70%;'></div></div>","null","pos","CS","CS","2","category2/CS3.png","","","","",""
"","html-keyboard-response","85","418692","0.0-6.0-6.0-0.16","xqkkl6heqo","many_one","0","indirect_first","0","NE06LA15","0","27","1","1","3","1","","0","1","0","null","","","<div class = 'row'><div class = 'column'><img src = 'category3/CS10.png' width = '70%;'></div><div class = 'column'><img src = 'usneg/9830.bmp' width = '100%;'></div></div>","null","neg","CS","CS","3","category3/CS10.png","","","","",""
"","html-keyboard-response","86","421230","0.0-6.0-6.0-0.17","xqkkl6heqo","many_one","0","indirect_first","0","NE06LA15","0","27","1","1","3","1","","0","1","0","null","","","<div class = 'row'><div class = 'column'><img src = 'category1/CS4.png' width = '70%;'></div><div class = 'column'><img src = 'usneg/3181.bmp' width = '100%;'></div></div>","null","neg","CS","CS","1","category1/CS4.png","","","","",""
"","html-keyboard-response","87","423760","0.0-6.0-6.0-0.18","xqkkl6heqo","many_one","0","indirect_first","0","NE06LA15","0","27","1","1","3","1","","0","1","0","null","","","<div class = 'row'><div class = 'column'><img src = 'uspos/5831.bmp' width = '100%;'></div><div class = 'column'><img src = 'category4/CS5.png' width = '70%;'></div></div>","null","pos","CS","CS","4","category4/CS5.png","","","","",""
"","html-keyboard-response","88","426300","0.0-6.0-6.0-0.19","xqkkl6heqo","many_one","0","indirect_first","0","NE06LA15","0","27","1","1","3","1","","0","1","0","null","","","<div class = 'row'><div class = 'column'><img src = 'category2/CS8.png' width = '70%;'></div><div class = 'column'><img src = 'uspos/2030.bmp' width = '100%;'></div></div>","null","pos","CS","CS","2","category2/CS8.png","","","","",""
"","html-keyboard-response","89","440573","0.0-7.0","xqkkl6heqo","many_one","0","indirect_first","0","NE06LA15","0","27","1","1","3","1","","0","1","0","13749","","","<p>Sie sehen nun die chinesischen Zeichen nur ganz kurz. Danach sehen Sie die jeweilige Aussprache der Zeichen als Silbe auf dem Bildschrim. Ihre Aufgabe ist es, für jede Silbe anzugeben, ob diese etwas angenehmes, oder unangenehmes bedeuten könnte. Verlassen Sie sich hier vor allem auf Ihre Intuition.<br><br>Die Zeichen werden nur zur Orientierung dargestellt, beachten Sie sie deshalb nicht. Konzentrieren Sie sich vor allem auf die Silben. <br>Reagieren Sie mit folgenden zwei Tasten: <br><br><b>'D' </b> wenn die Silbe etwas <b>unangenehmes</b> bedeuten könnte. <br><b>'K'</b> wenn die Silbe etwas <b>angenehmes</b> bedeuten könnte. <br><br>Bitte legen Sie nun den Zeigefinger der linken Hand auf die Taste 'D' und den Zeigefinger der rechten Hand auf die Taste 'K'. <br>Reagieren Sie auf jede Silbe so schnell wie möglich. Uns interessiert Ihre spontane Reaktion. <br> <br> <br>Drücken Sie 'D' oder 'K', um die nächste Aufgabe zu starten. </p>","75","","","","","","","","","",""
"","html-keyboard-response","90","443610","0.0-8.0-0.0","xqkkl6heqo","many_one","0","indirect_first","0","NE06LA15","0","27","1","1","3","1","","0","1","0","null","","","<div style=""font-size:60px;"">+</div>","null","","","","","","","","","",""
"","html-keyboard-response","91","443711","0.0-8.0-1.0","xqkkl6heqo","many_one","0","indirect_first","0","NE06LA15","0","27","1","1","3","1","","0","1","0","null","","","<img src = 'category2/CS2.png' width = '100%;'>","null","","","","","","","","","",""
"","html-keyboard-response","92","443991","0.0-8.0-2.0","xqkkl6heqo","many_one","0","indirect_first","0","NE06LA15","0","27","1","1","3","1","","0","1","0","null","","","<img src = 'targets/6.png' width = '100%;'>","null","","","","","","","","","",""
"","html-keyboard-response","93","447778","0.0-8.0-3.0","xqkkl6heqo","many_one","0","indirect_first","0","NE06LA15","0","27","1","1","3","1","","0","1","0","3782","","","<img src = 'targets/mask.png' width = '100%;'>","75","pos","CS","CS","2","category2/CS2.png","targets/6.png","1","indirect","0",""
"","html-keyboard-response","94","449310","0.0-8.0-0.1","xqkkl6heqo","many_one","0","indirect_first","0","NE06LA15","0","27","1","1","3","1","","0","1","0","null","","","<div style=""font-size:60px;"">+</div>","null","","","","","","","","","",""
"","html-keyboard-response","95","449410","0.0-8.0-1.1","xqkkl6heqo","many_one","0","indirect_first","0","NE06LA15","0","27","1","1","3","1","","0","1","0","null","","","<img src = 'category4/CS4.png' width = '100%;'>","null","","","","","","","","","",""
"","html-keyboard-response","96","449690","0.0-8.0-2.1","xqkkl6heqo","many_one","0","indirect_first","0","NE06LA15","0","27","1","1","3","1","","0","1","0","null","","","<img src = 'targets/22.png' width = '100%;'>","null","","","","","","","","","",""
"","html-keyboard-response","97","451858","0.0-8.0-3.1","xqkkl6heqo","many_one","0","indirect_first","0","NE06LA15","0","27","1","1","3","1","","0","1","0","2164","","","<img src = 'targets/mask.png' width = '100%;'>","75","pos","CS","CS","4","category4/CS4.png","targets/22.png","1","indirect","1",""
"","html-keyboard-response","98","453390","0.0-8.0-0.2","xqkkl6heqo","many_one","0","indirect_first","0","NE06LA15","0","27","1","1","3","1","","0","1","0","null","","","<div style=""font-size:60px;"">+</div>","null","","","","","","","","","",""
"","html-keyboard-response","99","453490","0.0-8.0-1.2","xqkkl6heqo","many_one","0","indirect_first","0","NE06LA15","0","27","1","1","3","1","","0","1","0","null","","","<img src = 'category3/CS4.png' width = '100%;'>","null","","","","","","","","","",""
"","html-keyboard-response","100","453770","0.0-8.0-2.2","xqkkl6heqo","many_one","0","indirect_first","0","NE06LA15","0","27","1","1","3","1","","0","1","0","null","","","<img src = 'targets/3.png' width = '100%;'>","null","","","","","","","","","",""
"","html-keyboard-response","101","454706","0.0-8.0-3.2","xqkkl6heqo","many_one","0","indirect_first","0","NE06LA15","0","27","1","1","3","1","","0","1","0","935","","","<img src = 'targets/mask.png' width = '100%;'>","68","neg","CS","CS","3","category3/CS4.png","targets/3.png","0","indirect","2",""
"","html-keyboard-response","102","456230","0.0-8.0-0.3","xqkkl6heqo","many_one","0","indirect_first","0","NE06LA15","0","27","1","1","3","1","","0","1","0","null","","","<div style=""font-size:60px;"">+</div>","null","","","","","","","","","",""
"","html-keyboard-response","103","456330","0.0-8.0-1.3","xqkkl6heqo","many_one","0","indirect_first","0","NE06LA15","0","27","1","1","3","1","","0","1","0","null","","","<img src = 'category2/CS9.png' width = '100%;'>","null","","","","","","","","","",""
"","html-keyboard-response","104","456610","0.0-8.0-2.3","xqkkl6heqo","many_one","0","indirect_first","0","NE06LA15","0","27","1","1","3","1","","0","1","0","null","","","<img src = 'targets/43.png' width = '100%;'>","null","","","","","","","","","",""
"","html-keyboard-response","105","458421","0.0-8.0-3.3","xqkkl6heqo","many_one","0","indirect_first","0","NE06LA15","0","27","1","1","3","1","","0","1","0","1807","","","<img src = 'targets/mask.png' width = '100%;'>","75","pos","CS","CS","2","category2/CS9.png","targets/43.png","1","indirect","3",""
"","html-keyboard-response","106","459950","0.0-8.0-0.4","xqkkl6heqo","many_one","0","indirect_first","0","NE06LA15","0","27","1","1","3","1","","0","1","0","null","","","<div style=""font-size:60px;"">+</div>","null","","","","","","","","","",""
"","html-keyboard-response","107","460050","0.0-8.0-1.4","xqkkl6heqo","many_one","0","indirect_first","0","NE06LA15","0","27","1","1","3","1","","0","1","0","null","","","<img src = 'category2/CS8.png' width = '100%;'>","null","","","","","","","","","",""
"","html-keyboard-response","108","460320","0.0-8.0-2.4","xqkkl6heqo","many_one","0","indirect_first","0","NE06LA15","0","27","1","1","3","1","","0","1","0","null","","","<img src = 'targets/15.png' width = '100%;'>","null","","","","","","","","","",""
"","html-keyboard-response","109","461446","0.0-8.0-3.4","xqkkl6heqo","many_one","0","indirect_first","0","NE06LA15","0","27","1","1","3","1","","0","1","0","1125","","","<img src = 'targets/mask.png' width = '100%;'>","68","pos","CS","CS","2","category2/CS8.png","targets/15.png","0","indirect","4",""
"","html-keyboard-response","110","462979","0.0-8.0-0.5","xqkkl6heqo","many_one","0","indirect_first","0","NE06LA15","0","27","1","1","3","1","","0","1","0","null","","","<div style=""font-size:60px;"">+</div>","null","","","","","","","","","",""
"","html-keyboard-response","111","463080","0.0-8.0-1.5","xqkkl6heqo","many_one","0","indirect_first","0","NE06LA15","0","27","1","1","3","1","","0","1","0","null","","","<img src = 'category1/CS4.png' width = '100%;'>","null","","","","","","","","","",""
"","html-keyboard-response","112","463360","0.0-8.0-2.5","xqkkl6heqo","many_one","0","indirect_first","0","NE06LA15","0","27","1","1","3","1","","0","1","0","null","","","<img src = 'targets/23.png' width = '100%;'>","null","","","","","","","","","",""
"","html-keyboard-response","113","464435","0.0-8.0-3.5","xqkkl6heqo","many_one","0","indirect_first","0","NE06LA15","0","27","1","1","3","1","","0","1","0","1074","","","<img src = 'targets/mask.png' width = '100%;'>","75","neg","CS","CS","1","category1/CS4.png","targets/23.png","1","indirect","5",""
"","html-keyboard-response","114","465960","0.0-8.0-0.6","xqkkl6heqo","many_one","0","indirect_first","0","NE06LA15","0","27","1","1","3","1","","0","1","0","null","","","<div style=""font-size:60px;"">+</div>","null","","","","","","","","","",""
"","html-keyboard-response","115","466060","0.0-8.0-1.6","xqkkl6heqo","many_one","0","indirect_first","0","NE06LA15","0","27","1","1","3","1","","0","1","0","null","","","<img src = 'category3/CS8.png' width = '100%;'>","null","","","","","","","","","",""
"","html-keyboard-response","116","466340","0.0-8.0-2.6","xqkkl6heqo","many_one","0","indirect_first","0","NE06LA15","0","27","1","1","3","1","","0","1","0","null","","","<img src = 'targets/41.png' width = '100%;'>","null","","","","","","","","","",""
"","html-keyboard-response","117","466989","0.0-8.0-3.6","xqkkl6heqo","many_one","0","indirect_first","0","NE06LA15","0","27","1","1","3","1","","0","1","0","645","","","<img src = 'targets/mask.png' width = '100%;'>","68","neg","CS","CS","3","category3/CS8.png","targets/41.png","0","indirect","6",""
"","html-keyboard-response","118","468520","0.0-8.0-0.7","xqkkl6heqo","many_one","0","indirect_first","0","NE06LA15","0","27","1","1","3","1","","0","1","0","null","","","<div style=""font-size:60px;"">+</div>","null","","","","","","","","","",""
"","html-keyboard-response","119","468620","0.0-8.0-1.7","xqkkl6heqo","many_one","0","indirect_first","0","NE06LA15","0","27","1","1","3","1","","0","1","0","null","","","<img src = 'category1/CS3.png' width = '100%;'>","null","","","","","","","","","",""
"","html-keyboard-response","120","468900","0.0-8.0-2.7","xqkkl6heqo","many_one","0","indirect_first","0","NE06LA15","0","27","1","1","3","1","","0","1","0","null","","","<img src = 'targets/36.png' width = '100%;'>","null","","","","","","","","","",""
"","html-keyboard-response","121","469883","0.0-8.0-3.7","xqkkl6heqo","many_one","0","indirect_first","0","NE06LA15","0","27","1","1","3","1","","0","1","0","980","","","<img src = 'targets/mask.png' width = '100%;'>","75","neg","GS","GSold","1","category1/CS3.png","targets/36.png","1","indirect","7",""
"","html-keyboard-response","122","471421","0.0-8.0-0.8","xqkkl6heqo","many_one","0","indirect_first","0","NE06LA15","0","27","1","1","3","1","","0","1","0","null","","","<div style=""font-size:60px;"">+</div>","null","","","","","","","","","",""
"","html-keyboard-response","123","471520","0.0-8.0-1.8","xqkkl6heqo","many_one","0","indirect_first","0","NE06LA15","0","27","1","1","3","1","","0","1","0","null","","","<img src = 'category4/CS3.png' width = '100%;'>","null","","","","","","","","","",""
"","html-keyboard-response","124","471800","0.0-8.0-2.8","xqkkl6heqo","many_one","0","indirect_first","0","NE06LA15","0","27","1","1","3","1","","0","1","0","null","","","<img src = 'targets/39.png' width = '100%;'>","null","","","","","","","","","",""
"","html-keyboard-response","125","473478","0.0-8.0-3.8","xqkkl6heqo","many_one","0","indirect_first","0","NE06LA15","0","27","1","1","3","1","","0","1","0","1675","","","<img src = 'targets/mask.png' width = '100%;'>","68","pos","CS","CS","4","category4/CS3.png","targets/39.png","0","indirect","8",""
"","html-keyboard-response","126","474999","0.0-8.0-0.9","xqkkl6heqo","many_one","0","indirect_first","0","NE06LA15","0","27","1","1","3","1","","0","1","0","null","","","<div style=""font-size:60px;"">+</div>","null","","","","","","","","","",""
"","html-keyboard-response","127","475100","0.0-8.0-1.9","xqkkl6heqo","many_one","0","indirect_first","0","NE06LA15","0","27","1","1","3","1","","0","1","0","null","","","<img src = 'category1/CS6.png' width = '100%;'>","null","","","","","","","","","",""
"","html-keyboard-response","128","475380","0.0-8.0-2.9","xqkkl6heqo","many_one","0","indirect_first","0","NE06LA15","0","27","1","1","3","1","","0","1","0","null","","","<img src = 'targets/21.png' width = '100%;'>","null","","","","","","","","","",""
"","html-keyboard-response","129","476822","0.0-8.0-3.9","xqkkl6heqo","many_one","0","indirect_first","0","NE06LA15","0","27","1","1","3","1","","0","1","0","1440","","","<img src = 'targets/mask.png' width = '100%;'>","75","neg","CS","CS","1","category1/CS6.png","targets/21.png","1","indirect","9",""
"","html-keyboard-response","130","478360","0.0-8.0-0.10","xqkkl6heqo","many_one","0","indirect_first","0","NE06LA15","0","27","1","1","3","1","","0","1","0","null","","","<div style=""font-size:60px;"">+</div>","null","","","","","","","","","",""
"","html-keyboard-response","131","478460","0.0-8.0-1.10","xqkkl6heqo","many_one","0","indirect_first","0","NE06LA15","0","27","1","1","3","1","","0","1","0","null","","","<img src = 'category3/CS7.png' width = '100%;'>","null","","","","","","","","","",""
"","html-keyboard-response","132","478740","0.0-8.0-2.10","xqkkl6heqo","many_one","0","indirect_first","0","NE06LA15","0","27","1","1","3","1","","0","1","0","null","","","<img src = 'targets/2.png' width = '100%;'>","null","","","","","","","","","",""
"","html-keyboard-response","133","479805","0.0-8.0-3.10","xqkkl6heqo","many_one","0","indirect_first","0","NE06LA15","0","27","1","1","3","1","","0","1","0","1063","","","<img src = 'targets/mask.png' width = '100%;'>","75","neg","CS","CS","3","category3/CS7.png","targets/2.png","1","indirect","10",""
"","html-keyboard-response","134","481340","0.0-8.0-0.11","xqkkl6heqo","many_one","0","indirect_first","0","NE06LA15","0","27","1","1","3","1","","0","1","0","null","","","<div style=""font-size:60px;"">+</div>","null","","","","","","","","","",""
"","html-keyboard-response","135","481440","0.0-8.0-1.11","xqkkl6heqo","many_one","0","indirect_first","0","NE06LA15","0","27","1","1","3","1","","0","1","0","null","","","<img src = 'category4/CS8.png' width = '100%;'>","null","","","","","","","","","",""
"","html-keyboard-response","136","481720","0.0-8.0-2.11","xqkkl6heqo","many_one","0","indirect_first","0","NE06LA15","0","27","1","1","3","1","","0","1","0","null","","","<img src = 'targets/7.png' width = '100%;'>","null","","","","","","","","","",""
"","html-keyboard-response","137","483013","0.0-8.0-3.11","xqkkl6heqo","many_one","0","indirect_first","0","NE06LA15","0","27","1","1","3","1","","0","1","0","1291","","","<img src = 'targets/mask.png' width = '100%;'>","75","pos","GS","GSold","4","category4/CS8.png","targets/7.png","1","indirect","11",""
"","html-keyboard-response","138","484540","0.0-8.0-0.12","xqkkl6heqo","many_one","0","indirect_first","0","NE06LA15","0","27","1","1","3","1","","0","1","0","null","","","<div style=""font-size:60px;"">+</div>","null","","","","","","","","","",""
"","html-keyboard-response","139","484640","0.0-8.0-1.12","xqkkl6heqo","many_one","0","indirect_first","0","NE06LA15","0","27","1","1","3","1","","0","1","0","null","","","<img src = 'category4/CS1.png' width = '100%;'>","null","","","","","","","","","",""
"","html-keyboard-response","140","484920","0.0-8.0-2.12","xqkkl6heqo","many_one","0","indirect_first","0","NE06LA15","0","27","1","1","3","1","","0","1","0","null","","","<img src = 'targets/35.png' width = '100%;'>","null","","","","","","","","","",""
"","html-keyboard-response","141","485948","0.0-8.0-3.12","xqkkl6heqo","many_one","0","indirect_first","0","NE06LA15","0","27","1","1","3","1","","0","1","0","1027","","","<img src = 'targets/mask.png' width = '100%;'>","75","pos","CS","CS","4","category4/CS1.png","targets/35.png","1","indirect","12",""
"","html-keyboard-response","142","487480","0.0-8.0-0.13","xqkkl6heqo","many_one","0","indirect_first","0","NE06LA15","0","27","1","1","3","1","","0","1","0","null","","","<div style=""font-size:60px;"">+</div>","null","","","","","","","","","",""
"","html-keyboard-response","143","487580","0.0-8.0-1.13","xqkkl6heqo","many_one","0","indirect_first","0","NE06LA15","0","27","1","1","3","1","","0","1","0","null","","","<img src = 'category1/CS2.png' width = '100%;'>","null","","","","","","","","","",""
"","html-keyboard-response","144","487860","0.0-8.0-2.13","xqkkl6heqo","many_one","0","indirect_first","0","NE06LA15","0","27","1","1","3","1","","0","1","0","null","","","<img src = 'targets/32.png' width = '100%;'>","null","","","","","","","","","",""
"","html-keyboard-response","145","488664","0.0-8.0-3.13","xqkkl6heqo","many_one","0","indirect_first","0","NE06LA15","0","27","1","1","3","1","","0","1","0","803","","","<img src = 'targets/mask.png' width = '100%;'>","68","neg","GS","GSold","1","category1/CS2.png","targets/32.png","0","indirect","13",""
"","html-keyboard-response","146","490200","0.0-8.0-0.14","xqkkl6heqo","many_one","0","indirect_first","0","NE06LA15","0","27","1","1","3","1","","0","1","0","null","","","<div style=""font-size:60px;"">+</div>","null","","","","","","","","","",""
"","html-keyboard-response","147","490301","0.0-8.0-1.14","xqkkl6heqo","many_one","0","indirect_first","0","NE06LA15","0","27","1","1","3","1","","0","1","0","null","","","<img src = 'category4/CS9.png' width = '100%;'>","null","","","","","","","","","",""
"","html-keyboard-response","148","490580","0.0-8.0-2.14","xqkkl6heqo","many_one","0","indirect_first","0","NE06LA15","0","27","1","1","3","1","","0","1","0","null","","","<img src = 'targets/12.png' width = '100%;'>","null","","","","","","","","","",""
"","html-keyboard-response","149","491265","0.0-8.0-3.14","xqkkl6heqo","many_one","0","indirect_first","0","NE06LA15","0","27","1","1","3","1","","0","1","0","684","","","<img src = 'targets/mask.png' width = '100%;'>","75","pos","CS","CS","4","category4/CS9.png","targets/12.png","1","indirect","14",""
"","html-keyboard-response","150","492800","0.0-8.0-0.15","xqkkl6heqo","many_one","0","indirect_first","0","NE06LA15","0","27","1","1","3","1","","0","1","0","null","","","<div style=""font-size:60px;"">+</div>","null","","","","","","","","","",""
"","html-keyboard-response","151","492900","0.0-8.0-1.15","xqkkl6heqo","many_one","0","indirect_first","0","NE06LA15","0","27","1","1","3","1","","0","1","0","null","","","<img src = 'category1/CS10.png' width = '100%;'>","null","","","","","","","","","",""
"","html-keyboard-response","152","493180","0.0-8.0-2.15","xqkkl6heqo","many_one","0","indirect_first","0","NE06LA15","0","27","1","1","3","1","","0","1","0","null","","","<img src = 'targets/38.png' width = '100%;'>","null","","","","","","","","","",""
"","html-keyboard-response","153","494486","0.0-8.0-3.15","xqkkl6heqo","many_one","0","indirect_first","0","NE06LA15","0","27","1","1","3","1","","0","1","0","1302","","","<img src = 'targets/mask.png' width = '100%;'>","68","neg","CS","CS","1","category1/CS10.png","targets/38.png","0","indirect","15",""
"","html-keyboard-response","154","496021","0.0-8.0-0.16","xqkkl6heqo","many_one","0","indirect_first","0","NE06LA15","0","27","1","1","3","1","","0","1","0","null","","","<div style=""font-size:60px;"">+</div>","null","","","","","","","","","",""
"","html-keyboard-response","155","496120","0.0-8.0-1.16","xqkkl6heqo","many_one","0","indirect_first","0","NE06LA15","0","27","1","1","3","1","","0","1","0","null","","","<img src = 'category1/CS5.png' width = '100%;'>","null","","","","","","","","","",""
"","html-keyboard-response","156","496400","0.0-8.0-2.16","xqkkl6heqo","many_one","0","indirect_first","0","NE06LA15","0","27","1","1","3","1","","0","1","0","null","","","<img src = 'targets/42.png' width = '100%;'>","null","","","","","","","","","",""
"","html-keyboard-response","157","497436","0.0-8.0-3.16","xqkkl6heqo","many_one","0","indirect_first","0","NE06LA15","0","27","1","1","3","1","","0","1","0","1035","","","<img src = 'targets/mask.png' width = '100%;'>","68","neg","CS","CS","1","category1/CS5.png","targets/42.png","0","indirect","16",""
"","html-keyboard-response","158","498970","0.0-8.0-0.17","xqkkl6heqo","many_one","0","indirect_first","0","NE06LA15","0","27","1","1","3","1","","0","1","0","null","","","<div style=""font-size:60px;"">+</div>","null","","","","","","","","","",""
"","html-keyboard-response","159","499070","0.0-8.0-1.17","xqkkl6heqo","many_one","0","indirect_first","0","NE06LA15","0","27","1","1","3","1","","0","1","0","null","","","<img src = 'category2/CS3.png' width = '100%;'>","null","","","","","","","","","",""
"","html-keyboard-response","160","499351","0.0-8.0-2.17","xqkkl6heqo","many_one","0","indirect_first","0","NE06LA15","0","27","1","1","3","1","","0","1","0","null","","","<img src = 'targets/47.png' width = '100%;'>","null","","","","","","","","","",""
"","html-keyboard-response","161","501270","0.0-8.0-3.17","xqkkl6heqo","many_one","0","indirect_first","0","NE06LA15","0","27","1","1","3","1","","0","1","0","1916","","","<img src = 'targets/mask.png' width = '100%;'>","68","pos","CS","CS","2","category2/CS3.png","targets/47.png","0","indirect","17",""
"","html-keyboard-response","162","502799","0.0-8.0-0.18","xqkkl6heqo","many_one","0","indirect_first","0","NE06LA15","0","27","1","1","3","1","","0","1","0","null","","","<div style=""font-size:60px;"">+</div>","null","","","","","","","","","",""
"","html-keyboard-response","163","502900","0.0-8.0-1.18","xqkkl6heqo","many_one","0","indirect_first","0","NE06LA15","0","27","1","1","3","1","","0","1","0","null","","","<img src = 'category4/CS5.png' width = '100%;'>","null","","","","","","","","","",""
"","html-keyboard-response","164","503180","0.0-8.0-2.18","xqkkl6heqo","many_one","0","indirect_first","0","NE06LA15","0","27","1","1","3","1","","0","1","0","null","","","<img src = 'targets/33.png' width = '100%;'>","null","","","","","","","","","",""
"","html-keyboard-response","165","503819","0.0-8.0-3.18","xqkkl6heqo","many_one","0","indirect_first","0","NE06LA15","0","27","1","1","3","1","","0","1","0","638","","","<img src = 'targets/mask.png' width = '100%;'>","75","pos","CS","CS","4","category4/CS5.png","targets/33.png","1","indirect","18",""
"","html-keyboard-response","166","505351","0.0-8.0-0.19","xqkkl6heqo","many_one","0","indirect_first","0","NE06LA15","0","27","1","1","3","1","","0","1","0","null","","","<div style=""font-size:60px;"">+</div>","null","","","","","","","","","",""
"","html-keyboard-response","167","505450","0.0-8.0-1.19","xqkkl6heqo","many_one","0","indirect_first","0","NE06LA15","0","27","1","1","3","1","","0","1","0","null","","","<img src = 'category1/CS8.png' width = '100%;'>","null","","","","","","","","","",""
"","html-keyboard-response","168","505730","0.0-8.0-2.19","xqkkl6heqo","many_one","0","indirect_first","0","NE06LA15","0","27","1","1","3","1","","0","1","0","null","","","<img src = 'targets/8.png' width = '100%;'>","null","","","","","","","","","",""
"","html-keyboard-response","169","506570","0.0-8.0-3.19","xqkkl6heqo","many_one","0","indirect_first","0","NE06LA15","0","27","1","1","3","1","","0","1","0","839","","","<img src = 'targets/mask.png' width = '100%;'>","68","neg","GS","GSold","1","category1/CS8.png","targets/8.png","0","indirect","19",""
"","html-keyboard-response","170","508110","0.0-8.0-0.20","xqkkl6heqo","many_one","0","indirect_first","0","NE06LA15","0","27","1","1","3","1","","0","1","0","null","","","<div style=""font-size:60px;"">+</div>","null","","","","","","","","","",""
"","html-keyboard-response","171","508210","0.0-8.0-1.20","xqkkl6heqo","many_one","0","indirect_first","0","NE06LA15","0","27","1","1","3","1","","0","1","0","null","","","<img src = 'category3/CS6.png' width = '100%;'>","null","","","","","","","","","",""
"","html-keyboard-response","172","508490","0.0-8.0-2.20","xqkkl6heqo","many_one","0","indirect_first","0","NE06LA15","0","27","1","1","3","1","","0","1","0","null","","","<img src = 'targets/27.png' width = '100%;'>","null","","","","","","","","","",""
"","html-keyboard-response","173","509233","0.0-8.0-3.20","xqkkl6heqo","many_one","0","indirect_first","0","NE06LA15","0","27","1","1","3","1","","0","1","0","741","","","<img src = 'targets/mask.png' width = '100%;'>","75","neg","CS","CS","3","category3/CS6.png","targets/27.png","1","indirect","20",""
"","html-keyboard-response","174","510770","0.0-8.0-0.21","xqkkl6heqo","many_one","0","indirect_first","0","NE06LA15","0","27","1","1","3","1","","0","1","0","null","","","<div style=""font-size:60px;"">+</div>","null","","","","","","","","","",""
"","html-keyboard-response","175","510870","0.0-8.0-1.21","xqkkl6heqo","many_one","0","indirect_first","0","NE06LA15","0","27","1","1","3","1","","0","1","0","null","","","<img src = 'category2/CS5.png' width = '100%;'>","null","","","","","","","","","",""
"","html-keyboard-response","176","511150","0.0-8.0-2.21","xqkkl6heqo","many_one","0","indirect_first","0","NE06LA15","0","27","1","1","3","1","","0","1","0","null","","","<img src = 'targets/14.png' width = '100%;'>","null","","","","","","","","","",""
"","html-keyboard-response","177","511997","0.0-8.0-3.21","xqkkl6heqo","many_one","0","indirect_first","0","NE06LA15","0","27","1","1","3","1","","0","1","0","846","","","<img src = 'targets/mask.png' width = '100%;'>","75","pos","CS","CS","2","category2/CS5.png","targets/14.png","1","indirect","21",""
"","html-keyboard-response","178","513531","0.0-8.0-0.22","xqkkl6heqo","many_one","0","indirect_first","0","NE06LA15","0","27","1","1","3","1","","0","1","0","null","","","<div style=""font-size:60px;"">+</div>","null","","","","","","","","","",""
"","html-keyboard-response","179","513630","0.0-8.0-1.22","xqkkl6heqo","many_one","0","indirect_first","0","NE06LA15","0","27","1","1","3","1","","0","1","0","null","","","<img src = 'category3/CS10.png' width = '100%;'>","null","","","","","","","","","",""
"","html-keyboard-response","180","513910","0.0-8.0-2.22","xqkkl6heqo","many_one","0","indirect_first","0","NE06LA15","0","27","1","1","3","1","","0","1","0","null","","","<img src = 'targets/48.png' width = '100%;'>","null","","","","","","","","","",""
"","html-keyboard-response","181","514657","0.0-8.0-3.22","xqkkl6heqo","many_one","0","indirect_first","0","NE06LA15","0","27","1","1","3","1","","0","1","0","744","","","<img src = 'targets/mask.png' width = '100%;'>","75","neg","CS","CS","3","category3/CS10.png","targets/48.png","1","indirect","22",""
"","html-keyboard-response","182","516189","0.0-8.0-0.23","xqkkl6heqo","many_one","0","indirect_first","0","NE06LA15","0","27","1","1","3","1","","0","1","0","null","","","<div style=""font-size:60px;"">+</div>","null","","","","","","","","","",""
"","html-keyboard-response","183","516291","0.0-8.0-1.23","xqkkl6heqo","many_one","0","indirect_first","0","NE06LA15","0","27","1","1","3","1","","0","1","0","null","","","<img src = 'category1/CS1.png' width = '100%;'>","null","","","","","","","","","",""
"","html-keyboard-response","184","516570","0.0-8.0-2.23","xqkkl6heqo","many_one","0","indirect_first","0","NE06LA15","0","27","1","1","3","1","","0","1","0","null","","","<img src = 'targets/44.png' width = '100%;'>","null","","","","","","","","","",""
"","html-keyboard-response","185","517530","0.0-8.0-3.23","xqkkl6heqo","many_one","0","indirect_first","0","NE06LA15","0","27","1","1","3","1","","0","1","0","956","","","<img src = 'targets/mask.png' width = '100%;'>","75","neg","CS","CS","1","category1/CS1.png","targets/44.png","1","indirect","23",""
"","survey-html-form","186","521604","0.0-9.0","xqkkl6heqo","many_one","0","indirect_first","0","NE06LA15","0","27","1","1","3","1","","0","1","0","3566","","{}","","","","","","","","","","","",""
"","html-keyboard-response","187","524630","0.0-10.0-0.0","xqkkl6heqo","many_one","0","indirect_first","0","NE06LA15","0","27","1","1","3","1","","0","1","0","null","","","<div style=""font-size:60px;"">+</div>","null","","","","","","","","","",""
"","html-keyboard-response","188","524730","0.0-10.0-1.0","xqkkl6heqo","many_one","0","indirect_first","0","NE06LA15","0","27","1","1","3","1","","0","1","0","null","","","<img src = 'category3/GS1.png' width = '100%;'>","null","","","","","","","","","",""
"","html-keyboard-response","189","525011","0.0-10.0-2.0","xqkkl6heqo","many_one","0","indirect_first","0","NE06LA15","0","27","1","1","3","1","","0","1","0","null","","","<img src = 'targets/40.png' width = '100%;'>","null","","","","","","","","","",""
"","html-keyboard-response","190","526601","0.0-10.0-3.0","xqkkl6heqo","many_one","0","indirect_first","0","NE06LA15","0","27","1","1","3","1","","0","1","0","1586","","","<img src = 'targets/mask.png' width = '100%;'>","68","neg","GS","GSnew","3","category3/GS1.png","targets/40.png","0","indirect","24",""
"","html-keyboard-response","191","528130","0.0-10.0-0.1","xqkkl6heqo","many_one","0","indirect_first","0","NE06LA15","0","27","1","1","3","1","","0","1","0","null","","","<div style=""font-size:60px;"">+</div>","null","","","","","","","","","",""
"","html-keyboard-response","192","528230","0.0-10.0-1.1","xqkkl6heqo","many_one","0","indirect_first","0","NE06LA15","0","27","1","1","3","1","","0","1","0","null","","","<img src = 'category2/men.png' width = '100%;'>","null","","","","","","","","","",""
"","html-keyboard-response","193","528509","0.0-10.0-2.1","xqkkl6heqo","many_one","0","indirect_first","0","NE06LA15","0","27","1","1","3","1","","0","1","0","null","","","<img src = 'targets/34.png' width = '100%;'>","null","","","","","","","","","",""
"","html-keyboard-response","194","531388","0.0-10.0-3.1","xqkkl6heqo","many_one","0","indirect_first","0","NE06LA15","0","27","1","1","3","1","","0","1","0","2876","","","<img src = 'targets/mask.png' width = '100%;'>","75","pos","GS","abstract","2","category2/men.png","targets/34.png","1","indirect","25",""
"","html-keyboard-response","195","532900","0.0-10.0-0.2","xqkkl6heqo","many_one","0","indirect_first","0","NE06LA15","0","27","1","1","3","1","","0","1","0","null","","","<div style=""font-size:60px;"">+</div>","null","","","","","","","","","",""
"","html-keyboard-response","196","533000","0.0-10.0-1.2","xqkkl6heqo","many_one","0","indirect_first","0","NE06LA15","0","27","1","1","3","1","","0","1","0","null","","","<img src = 'category1/GS1.png' width = '100%;'>","null","","","","","","","","","",""
"","html-keyboard-response","197","533280","0.0-10.0-2.2","xqkkl6heqo","many_one","0","indirect_first","0","NE06LA15","0","27","1","1","3","1","","0","1","0","null","","","<img src = 'targets/18.png' width = '100%;'>","null","","","","","","","","","",""
"","html-keyboard-response","198","534119","0.0-10.0-3.2","xqkkl6heqo","many_one","0","indirect_first","0","NE06LA15","0","27","1","1","3","1","","0","1","0","835","","","<img src = 'targets/mask.png' width = '100%;'>","68","neg","GS","GSnew","1","category1/GS1.png","targets/18.png","0","indirect","26",""
"","html-keyboard-response","199","535640","0.0-10.0-0.3","xqkkl6heqo","many_one","0","indirect_first","0","NE06LA15","0","27","1","1","3","1","","0","1","0","null","","","<div style=""font-size:60px;"">+</div>","null","","","","","","","","","",""
"","html-keyboard-response","200","535740","0.0-10.0-1.3","xqkkl6heqo","many_one","0","indirect_first","0","NE06LA15","0","27","1","1","3","1","","0","1","0","null","","","<img src = 'category4/GS2.png' width = '100%;'>","null","","","","","","","","","",""
"","html-keyboard-response","201","536020","0.0-10.0-2.3","xqkkl6heqo","many_one","0","indirect_first","0","NE06LA15","0","27","1","1","3","1","","0","1","0","null","","","<img src = 'targets/46.png' width = '100%;'>","null","","","","","","","","","",""
"","html-keyboard-response","202","537299","0.0-10.0-3.3","xqkkl6heqo","many_one","0","indirect_first","0","NE06LA15","0","27","1","1","3","1","","0","1","0","1279","","","<img src = 'targets/mask.png' width = '100%;'>","68","pos","GS","GSnew","4","category4/GS2.png","targets/46.png","0","indirect","27",""
"","html-keyboard-response","203","538820","0.0-10.0-0.4","xqkkl6heqo","many_one","0","indirect_first","0","NE06LA15","0","27","1","1","3","1","","0","1","0","null","","","<div style=""font-size:60px;"">+</div>","null","","","","","","","","","",""
"","html-keyboard-response","204","538919","0.0-10.0-1.4","xqkkl6heqo","many_one","0","indirect_first","0","NE06LA15","0","27","1","1","3","1","","0","1","0","null","","","<img src = 'category2/GS3.png' width = '100%;'>","null","","","","","","","","","",""
"","html-keyboard-response","205","539190","0.0-10.0-2.4","xqkkl6heqo","many_one","0","indirect_first","0","NE06LA15","0","27","1","1","3","1","","0","1","0","null","","","<img src = 'targets/5.png' width = '100%;'>","null","","","","","","","","","",""
"","html-keyboard-response","206","540134","0.0-10.0-3.4","xqkkl6heqo","many_one","0","indirect_first","0","NE06LA15","0","27","1","1","3","1","","0","1","0","942","","","<img src = 'targets/mask.png' width = '100%;'>","68","pos","GS","GSnew","2","category2/GS3.png","targets/5.png","0","indirect","28",""
"","html-keyboard-response","207","541660","0.0-10.0-0.5","xqkkl6heqo","many_one","0","indirect_first","0","NE06LA15","0","27","1","1","3","1","","0","1","0","null","","","<div style=""font-size:60px;"">+</div>","null","","","","","","","","","",""
"","html-keyboard-response","208","541760","0.0-10.0-1.5","xqkkl6heqo","many_one","0","indirect_first","0","NE06LA15","0","27","1","1","3","1","","0","1","0","null","","","<img src = 'category1/GS2.png' width = '100%;'>","null","","","","","","","","","",""
"","html-keyboard-response","209","542040","0.0-10.0-2.5","xqkkl6heqo","many_one","0","indirect_first","0","NE06LA15","0","27","1","1","3","1","","0","1","0","null","","","<img src = 'targets/24.png' width = '100%;'>","null","","","","","","","","","",""
"","html-keyboard-response","210","543583","0.0-10.0-3.5","xqkkl6heqo","many_one","0","indirect_first","0","NE06LA15","0","27","1","1","3","1","","0","1","0","1540","","","<img src = 'targets/mask.png' width = '100%;'>","75","neg","GS","GSnew","1","category1/GS2.png","targets/24.png","1","indirect","29",""
"","html-keyboard-response","211","545111","0.0-10.0-0.6","xqkkl6heqo","many_one","0","indirect_first","0","NE06LA15","0","27","1","1","3","1","","0","1","0","null","","","<div style=""font-size:60px;"">+</div>","null","","","","","","","","","",""
"","html-keyboard-response","212","545220","0.0-10.0-1.6","xqkkl6heqo","many_one","0","indirect_first","0","NE06LA15","0","27","1","1","3","1","","0","1","0","null","","","<img src = 'category2/CS7.png' width = '100%;'>","null","","","","","","","","","",""
"","html-keyboard-response","213","545500","0.0-10.0-2.6","xqkkl6heqo","many_one","0","indirect_first","0","NE06LA15","0","27","1","1","3","1","","0","1","0","null","","","<img src = 'targets/1.png' width = '100%;'>","null","","","","","","","","","",""
"","html-keyboard-response","214","546317","0.0-10.0-3.6","xqkkl6heqo","many_one","0","indirect_first","0","NE06LA15","0","27","1","1","3","1","","0","1","0","816","","","<img src = 'targets/mask.png' width = '100%;'>","68","pos","GS","GSold","2","category2/CS7.png","targets/1.png","0","indirect","30",""
"","html-keyboard-response","215","547840","0.0-10.0-0.7","xqkkl6heqo","many_one","0","indirect_first","0","NE06LA15","0","27","1","1","3","1","","0","1","0","null","","","<div style=""font-size:60px;"">+</div>","null","","","","","","","","","",""
"","html-keyboard-response","216","547940","0.0-10.0-1.7","xqkkl6heqo","many_one","0","indirect_first","0","NE06LA15","0","27","1","1","3","1","","0","1","0","null","","","<img src = 'category3/CS9.png' width = '100%;'>","null","","","","","","","","","",""
"","html-keyboard-response","217","548220","0.0-10.0-2.7","xqkkl6heqo","many_one","0","indirect_first","0","NE06LA15","0","27","1","1","3","1","","0","1","0","null","","","<img src = 'targets/19.png' width = '100%;'>","null","","","","","","","","","",""
"","html-keyboard-response","218","549087","0.0-10.0-3.7","xqkkl6heqo","many_one","0","indirect_first","0","NE06LA15","0","27","1","1","3","1","","0","1","0","867","","","<img src = 'targets/mask.png' width = '100%;'>","75","neg","GS","GSold","3","category3/CS9.png","targets/19.png","1","indirect","31",""
"","html-keyboard-response","219","550620","0.0-10.0-0.8","xqkkl6heqo","many_one","0","indirect_first","0","NE06LA15","0","27","1","1","3","1","","0","1","0","null","","","<div style=""font-size:60px;"">+</div>","null","","","","","","","","","",""
"","html-keyboard-response","220","550720","0.0-10.0-1.8","xqkkl6heqo","many_one","0","indirect_first","0","NE06LA15","0","27","1","1","3","1","","0","1","0","null","","","<img src = 'category3/wang.png' width = '100%;'>","null","","","","","","","","","",""
"","html-keyboard-response","221","551000","0.0-10.0-2.8","xqkkl6heqo","many_one","0","indirect_first","0","NE06LA15","0","27","1","1","3","1","","0","1","0","null","","","<img src = 'targets/4.png' width = '100%;'>","null","","","","","","","","","",""
"","html-keyboard-response","222","553062","0.0-10.0-3.8","xqkkl6heqo","many_one","0","indirect_first","0","NE06LA15","0","27","1","1","3","1","","0","1","0","2058","","","<img src = 'targets/mask.png' width = '100%;'>","75","neg","GS","abstract","3","category3/wang.png","targets/4.png","1","indirect","32",""
"","html-keyboard-response","223","554600","0.0-10.0-0.9","xqkkl6heqo","many_one","0","indirect_first","0","NE06LA15","0","27","1","1","3","1","","0","1","0","null","","","<div style=""font-size:60px;"">+</div>","null","","","","","","","","","",""
"","html-keyboard-response","224","554700","0.0-10.0-1.9","xqkkl6heqo","many_one","0","indirect_first","0","NE06LA15","0","27","1","1","3","1","","0","1","0","null","","","<img src = 'category1/GS3.png' width = '100%;'>","null","","","","","","","","","",""
"","html-keyboard-response","225","554980","0.0-10.0-2.9","xqkkl6heqo","many_one","0","indirect_first","0","NE06LA15","0","27","1","1","3","1","","0","1","0","null","","","<img src = 'targets/20.png' width = '100%;'>","null","","","","","","","","","",""
"","html-keyboard-response","226","555676","0.0-10.0-3.9","xqkkl6heqo","many_one","0","indirect_first","0","NE06LA15","0","27","1","1","3","1","","0","1","0","694","","","<img src = 'targets/mask.png' width = '100%;'>","75","neg","GS","GSnew","1","category1/GS3.png","targets/20.png","1","indirect","33",""
"","html-keyboard-response","227","557201","0.0-10.0-0.10","xqkkl6heqo","many_one","0","indirect_first","0","NE06LA15","0","27","1","1","3","1","","0","1","0","null","","","<div style=""font-size:60px;"">+</div>","null","","","","","","","","","",""
"","html-keyboard-response","228","557300","0.0-10.0-1.10","xqkkl6heqo","many_one","0","indirect_first","0","NE06LA15","0","27","1","1","3","1","","0","1","0","null","","","<img src = 'category4/CS2.png' width = '100%;'>","null","","","","","","","","","",""
"","html-keyboard-response","229","557580","0.0-10.0-2.10","xqkkl6heqo","many_one","0","indirect_first","0","NE06LA15","0","27","1","1","3","1","","0","1","0","null","","","<img src = 'targets/45.png' width = '100%;'>","null","","","","","","","","","",""
"","html-keyboard-response","230","558239","0.0-10.0-3.10","xqkkl6heqo","many_one","0","indirect_first","0","NE06LA15","0","27","1","1","3","1","","0","1","0","655","","","<img src = 'targets/mask.png' width = '100%;'>","75","pos","GS","GSold","4","category4/CS2.png","targets/45.png","1","indirect","34",""
"","html-keyboard-response","231","559760","0.0-10.0-0.11","xqkkl6heqo","many_one","0","indirect_first","0","NE06LA15","0","27","1","1","3","1","","0","1","0","null","","","<div style=""font-size:60px;"">+</div>","null","","","","","","","","","",""
"","html-keyboard-response","232","559860","0.0-10.0-1.11","xqkkl6heqo","many_one","0","indirect_first","0","NE06LA15","0","27","1","1","3","1","","0","1","0","null","","","<img src = 'category1/ma.png' width = '100%;'>","null","","","","","","","","","",""
"","html-keyboard-response","233","560141","0.0-10.0-2.11","xqkkl6heqo","many_one","0","indirect_first","0","NE06LA15","0","27","1","1","3","1","","0","1","0","null","","","<img src = 'targets/28.png' width = '100%;'>","null","","","","","","","","","",""
"","html-keyboard-response","234","560906","0.0-10.0-3.11","xqkkl6heqo","many_one","0","indirect_first","0","NE06LA15","0","27","1","1","3","1","","0","1","0","763","","","<img src = 'targets/mask.png' width = '100%;'>","68","neg","GS","abstract","1","category1/ma.png","targets/28.png","0","indirect","35",""
"","html-keyboard-response","235","562440","0.0-10.0-0.12","xqkkl6heqo","many_one","0","indirect_first","0","NE06LA15","0","27","1","1","3","1","","0","1","0","null","","","<div style=""font-size:60px;"">+</div>","null","","","","","","","","","",""
"","html-keyboard-response","236","562540","0.0-10.0-1.12","xqkkl6heqo","many_one","0","indirect_first","0","NE06LA15","0","27","1","1","3","1","","0","1","0","null","","","<img src = 'category2/GS1.png' width = '100%;'>","null","","","","","","","","","",""
"","html-keyboard-response","237","562820","0.0-10.0-2.12","xqkkl6heqo","many_one","0","indirect_first","0","NE06LA15","0","27","1","1","3","1","","0","1","0","null","","","<img src = 'targets/9.png' width = '100%;'>","null","","","","","","","","","",""
"","html-keyboard-response","238","563494","0.0-10.0-3.12","xqkkl6heqo","many_one","0","indirect_first","0","NE06LA15","0","27","1","1","3","1","","0","1","0","671","","","<img src = 'targets/mask.png' width = '100%;'>","68","pos","GS","GSnew","2","category2/GS1.png","targets/9.png","0","indirect","36",""
"","html-keyboard-response","239","565020","0.0-10.0-0.13","xqkkl6heqo","many_one","0","indirect_first","0","NE06LA15","0","27","1","1","3","1","","0","1","0","null","","","<div style=""font-size:60px;"">+</div>","null","","","","","","","","","",""
"","html-keyboard-response","240","565115","0.0-10.0-1.13","xqkkl6heqo","many_one","0","indirect_first","0","NE06LA15","0","27","1","1","3","1","","0","1","0","null","","","<img src = 'category3/CS3.png' width = '100%;'>","null","","","","","","","","","",""
"","html-keyboard-response","241","565400","0.0-10.0-2.13","xqkkl6heqo","many_one","0","indirect_first","0","NE06LA15","0","27","1","1","3","1","","0","1","0","null","","","<img src = 'targets/11.png' width = '100%;'>","null","","","","","","","","","",""
"","html-keyboard-response","242","566212","0.0-10.0-3.13","xqkkl6heqo","many_one","0","indirect_first","0","NE06LA15","0","27","1","1","3","1","","0","1","0","812","","","<img src = 'targets/mask.png' width = '100%;'>","75","neg","GS","GSold","3","category3/CS3.png","targets/11.png","1","indirect","37",""
"","html-keyboard-response","243","567740","0.0-10.0-0.14","xqkkl6heqo","many_one","0","indirect_first","0","NE06LA15","0","27","1","1","3","1","","0","1","0","null","","","<div style=""font-size:60px;"">+</div>","null","","","","","","","","","",""
"","html-keyboard-response","244","567840","0.0-10.0-1.14","xqkkl6heqo","many_one","0","indirect_first","0","NE06LA15","0","27","1","1","3","1","","0","1","0","null","","","<img src = 'category2/CS10.png' width = '100%;'>","null","","","","","","","","","",""
"","html-keyboard-response","245","568120","0.0-10.0-2.14","xqkkl6heqo","many_one","0","indirect_first","0","NE06LA15","0","27","1","1","3","1","","0","1","0","null","","","<img src = 'targets/16.png' width = '100%;'>","null","","","","","","","","","",""
"","html-keyboard-response","246","569201","0.0-10.0-3.14","xqkkl6heqo","many_one","0","indirect_first","0","NE06LA15","0","27","1","1","3","1","","0","1","0","1080","","","<img src = 'targets/mask.png' width = '100%;'>","75","pos","GS","GSold","2","category2/CS10.png","targets/16.png","1","indirect","38",""
"","html-keyboard-response","247","570740","0.0-10.0-0.15","xqkkl6heqo","many_one","0","indirect_first","0","NE06LA15","0","27","1","1","3","1","","0","1","0","null","","","<div style=""font-size:60px;"">+</div>","null","","","","","","","","","",""
"","html-keyboard-response","248","570840","0.0-10.0-1.15","xqkkl6heqo","many_one","0","indirect_first","0","NE06LA15","0","27","1","1","3","1","","0","1","0","null","","","<img src = 'category4/lin.png' width = '100%;'>","null","","","","","","","","","",""
"","html-keyboard-response","249","571115","0.0-10.0-2.15","xqkkl6heqo","many_one","0","indirect_first","0","NE06LA15","0","27","1","1","3","1","","0","1","0","null","","","<img src = 'targets/13.png' width = '100%;'>","null","","","","","","","","","",""
"","html-keyboard-response","250","574736","0.0-10.0-3.15","xqkkl6heqo","many_one","0","indirect_first","0","NE06LA15","0","27","1","1","3","1","","0","1","0","3620","","","<img src = 'targets/mask.png' width = '100%;'>","75","pos","GS","abstract","4","category4/lin.png","targets/13.png","1","indirect","39",""
"","html-keyboard-response","251","576250","0.0-10.0-0.16","xqkkl6heqo","many_one","0","indirect_first","0","NE06LA15","0","27","1","1","3","1","","0","1","0","null","","","<div style=""font-size:60px;"">+</div>","null","","","","","","","","","",""
"","html-keyboard-response","252","576349","0.0-10.0-1.16","xqkkl6heqo","many_one","0","indirect_first","0","NE06LA15","0","27","1","1","3","1","","0","1","0","null","","","<img src = 'category3/CS5.png' width = '100%;'>","null","","","","","","","","","",""
"","html-keyboard-response","253","576630","0.0-10.0-2.16","xqkkl6heqo","many_one","0","indirect_first","0","NE06LA15","0","27","1","1","3","1","","0","1","0","null","","","<img src = 'targets/26.png' width = '100%;'>","null","","","","","","","","","",""
"","html-keyboard-response","254","577584","0.0-10.0-3.16","xqkkl6heqo","many_one","0","indirect_first","0","NE06LA15","0","27","1","1","3","1","","0","1","0","953","","","<img src = 'targets/mask.png' width = '100%;'>","75","neg","GS","GSold","3","category3/CS5.png","targets/26.png","1","indirect","40",""
"","html-keyboard-response","255","579110","0.0-10.0-0.17","xqkkl6heqo","many_one","0","indirect_first","0","NE06LA15","0","27","1","1","3","1","","0","1","0","null","","","<div style=""font-size:60px;"">+</div>","null","","","","","","","","","",""
"","html-keyboard-response","256","579210","0.0-10.0-1.17","xqkkl6heqo","many_one","0","indirect_first","0","NE06LA15","0","27","1","1","3","1","","0","1","0","null","","","<img src = 'category4/GS3.png' width = '100%;'>","null","","","","","","","","","",""
"","html-keyboard-response","257","579490","0.0-10.0-2.17","xqkkl6heqo","many_one","0","indirect_first","0","NE06LA15","0","27","1","1","3","1","","0","1","0","null","","","<img src = 'targets/17.png' width = '100%;'>","null","","","","","","","","","",""
"","html-keyboard-response","258","580734","0.0-10.0-3.17","xqkkl6heqo","many_one","0","indirect_first","0","NE06LA15","0","27","1","1","3","1","","0","1","0","1242","","","<img src = 'targets/mask.png' width = '100%;'>","68","pos","GS","GSnew","4","category4/GS3.png","targets/17.png","0","indirect","41",""
"","html-keyboard-response","259","582270","0.0-10.0-0.18","xqkkl6heqo","many_one","0","indirect_first","0","NE06LA15","0","27","1","1","3","1","","0","1","0","null","","","<div style=""font-size:60px;"">+</div>","null","","","","","","","","","",""
"","html-keyboard-response","260","582370","0.0-10.0-1.18","xqkkl6heqo","many_one","0","indirect_first","0","NE06LA15","0","27","1","1","3","1","","0","1","0","null","","","<img src = 'category2/CS4.png' width = '100%;'>","null","","","","","","","","","",""
"","html-keyboard-response","261","582649","0.0-10.0-2.18","xqkkl6heqo","many_one","0","indirect_first","0","NE06LA15","0","27","1","1","3","1","","0","1","0","null","","","<img src = 'targets/30.png' width = '100%;'>","null","","","","","","","","","",""
"","html-keyboard-response","262","583996","0.0-10.0-3.18","xqkkl6heqo","many_one","0","indirect_first","0","NE06LA15","0","27","1","1","3","1","","0","1","0","1345","","","<img src = 'targets/mask.png' width = '100%;'>","75","pos","GS","GSold","2","category2/CS4.png","targets/30.png","1","indirect","42",""
"","html-keyboard-response","263","585530","0.0-10.0-0.19","xqkkl6heqo","many_one","0","indirect_first","0","NE06LA15","0","27","1","1","3","1","","0","1","0","null","","","<div style=""font-size:60px;"">+</div>","null","","","","","","","","","",""
"","html-keyboard-response","264","585630","0.0-10.0-1.19","xqkkl6heqo","many_one","0","indirect_first","0","NE06LA15","0","27","1","1","3","1","","0","1","0","null","","","<img src = 'category3/GS2.png' width = '100%;'>","null","","","","","","","","","",""
"","html-keyboard-response","265","585910","0.0-10.0-2.19","xqkkl6heqo","many_one","0","indirect_first","0","NE06LA15","0","27","1","1","3","1","","0","1","0","null","","","<img src = 'targets/25.png' width = '100%;'>","null","","","","","","","","","",""
"","html-keyboard-response","266","586517","0.0-10.0-3.19","xqkkl6heqo","many_one","0","indirect_first","0","NE06LA15","0","27","1","1","3","1","","0","1","0","604","","","<img src = 'targets/mask.png' width = '100%;'>","68","neg","GS","GSnew","3","category3/GS2.png","targets/25.png","0","indirect","43",""
"","html-keyboard-response","267","588049","0.0-10.0-0.20","xqkkl6heqo","many_one","0","indirect_first","0","NE06LA15","0","27","1","1","3","1","","0","1","0","null","","","<div style=""font-size:60px;"">+</div>","null","","","","","","","","","",""
"","html-keyboard-response","268","588150","0.0-10.0-1.20","xqkkl6heqo","many_one","0","indirect_first","0","NE06LA15","0","27","1","1","3","1","","0","1","0","null","","","<img src = 'category4/GS1.png' width = '100%;'>","null","","","","","","","","","",""
"","html-keyboard-response","269","588430","0.0-10.0-2.20","xqkkl6heqo","many_one","0","indirect_first","0","NE06LA15","0","27","1","1","3","1","","0","1","0","null","","","<img src = 'targets/10.png' width = '100%;'>","null","","","","","","","","","",""
"","html-keyboard-response","270","589073","0.0-10.0-3.20","xqkkl6heqo","many_one","0","indirect_first","0","NE06LA15","0","27","1","1","3","1","","0","1","0","639","","","<img src = 'targets/mask.png' width = '100%;'>","75","pos","GS","GSnew","4","category4/GS1.png","targets/10.png","1","indirect","44",""
"","html-keyboard-response","271","590600","0.0-10.0-0.21","xqkkl6heqo","many_one","0","indirect_first","0","NE06LA15","0","27","1","1","3","1","","0","1","0","null","","","<div style=""font-size:60px;"">+</div>","null","","","","","","","","","",""
"","html-keyboard-response","272","590701","0.0-10.0-1.21","xqkkl6heqo","many_one","0","indirect_first","0","NE06LA15","0","27","1","1","3","1","","0","1","0","null","","","<img src = 'category4/CS7.png' width = '100%;'>","null","","","","","","","","","",""
"","html-keyboard-response","273","590980","0.0-10.0-2.21","xqkkl6heqo","many_one","0","indirect_first","0","NE06LA15","0","27","1","1","3","1","","0","1","0","null","","","<img src = 'targets/29.png' width = '100%;'>","null","","","","","","","","","",""
"","html-keyboard-response","274","591676","0.0-10.0-3.21","xqkkl6heqo","many_one","0","indirect_first","0","NE06LA15","0","27","1","1","3","1","","0","1","0","695","","","<img src = 'targets/mask.png' width = '100%;'>","75","pos","GS","GSold","4","category4/CS7.png","targets/29.png","1","indirect","45",""
"","html-keyboard-response","275","593190","0.0-10.0-0.22","xqkkl6heqo","many_one","0","indirect_first","0","NE06LA15","0","27","1","1","3","1","","0","1","0","null","","","<div style=""font-size:60px;"">+</div>","null","","","","","","","","","",""
"","html-keyboard-response","276","593290","0.0-10.0-1.22","xqkkl6heqo","many_one","0","indirect_first","0","NE06LA15","0","27","1","1","3","1","","0","1","0","null","","","<img src = 'category3/GS3.png' width = '100%;'>","null","","","","","","","","","",""
"","html-keyboard-response","277","593570","0.0-10.0-2.22","xqkkl6heqo","many_one","0","indirect_first","0","NE06LA15","0","27","1","1","3","1","","0","1","0","null","","","<img src = 'targets/31.png' width = '100%;'>","null","","","","","","","","","",""
"","html-keyboard-response","278","594724","0.0-10.0-3.22","xqkkl6heqo","many_one","0","indirect_first","0","NE06LA15","0","27","1","1","3","1","","0","1","0","1154","","","<img src = 'targets/mask.png' width = '100%;'>","68","neg","GS","GSnew","3","category3/GS3.png","targets/31.png","0","indirect","46",""
"","html-keyboard-response","279","596250","0.0-10.0-0.23","xqkkl6heqo","many_one","0","indirect_first","0","NE06LA15","0","27","1","1","3","1","","0","1","0","null","","","<div style=""font-size:60px;"">+</div>","null","","","","","","","","","",""
"","html-keyboard-response","280","596350","0.0-10.0-1.23","xqkkl6heqo","many_one","0","indirect_first","0","NE06LA15","0","27","1","1","3","1","","0","1","0","null","","","<img src = 'category2/GS2.png' width = '100%;'>","null","","","","","","","","","",""
"","html-keyboard-response","281","596630","0.0-10.0-2.23","xqkkl6heqo","many_one","0","indirect_first","0","NE06LA15","0","27","1","1","3","1","","0","1","0","null","","","<img src = 'targets/37.png' width = '100%;'>","null","","","","","","","","","",""
"","html-keyboard-response","282","597494","0.0-10.0-3.23","xqkkl6heqo","many_one","0","indirect_first","0","NE06LA15","0","27","1","1","3","1","","0","1","0","864","","","<img src = 'targets/mask.png' width = '100%;'>","68","pos","GS","GSnew","2","category2/GS2.png","targets/37.png","0","indirect","47",""
"","survey-html-form","283","601635","0.0-11.0","xqkkl6heqo","many_one","0","indirect_first","0","NE06LA15","0","27","1","1","3","1","","0","1","0","3624","","{}","","","","","","","","","","","",""
"","image-slider-response","284","615582","0.0-12.0-0.0","xqkkl6heqo","many_one","0","indirect_first","0","NE06LA15","0","27","1","1","3","1","","0","1","0","11925","","","","","pos","GS","GSnew","2","category2/GS3.png","targets/5.png","","direct","","32"
"","image-slider-response","285","621414","0.0-12.0-0.1","xqkkl6heqo","many_one","0","indirect_first","0","NE06LA15","0","27","1","1","3","1","","0","1","0","5826","","","","","neg","CS","CS","3","category3/CS7.png","targets/2.png","","direct","","44"
"","image-slider-response","286","626180","0.0-12.0-0.2","xqkkl6heqo","many_one","0","indirect_first","0","NE06LA15","0","27","1","1","3","1","","0","1","0","4760","","","","","neg","CS","CS","1","category1/CS10.png","targets/38.png","","direct","","-20"
"","image-slider-response","287","631483","0.0-12.0-0.3","xqkkl6heqo","many_one","0","indirect_first","0","NE06LA15","0","27","1","1","3","1","","0","1","0","5298","","","","","neg","CS","CS","3","category3/CS4.png","targets/3.png","","direct","","17"
"","image-slider-response","288","638293","0.0-12.0-0.4","xqkkl6heqo","many_one","0","indirect_first","0","NE06LA15","0","27","1","1","3","1","","0","1","0","6799","","","","","neg","GS","abstract","3","category3/wang.png","targets/4.png","","direct","","-15"
"","image-slider-response","289","642633","0.0-12.0-0.5","xqkkl6heqo","many_one","0","indirect_first","0","NE06LA15","0","27","1","1","3","1","","0","1","0","4335","","","","","neg","GS","GSnew","1","category1/GS2.png","targets/24.png","","direct","","9"
"","image-slider-response","290","645455","0.0-12.0-0.6","xqkkl6heqo","many_one","0","indirect_first","0","NE06LA15","0","27","1","1","3","1","","0","1","0","2819","","","","","neg","GS","GSold","1","category1/CS8.png","targets/8.png","","direct","","42"
"","image-slider-response","291","648922","0.0-12.0-0.7","xqkkl6heqo","many_one","0","indirect_first","0","NE06LA15","0","27","1","1","3","1","","0","1","0","3463","","","","","pos","CS","CS","4","category4/CS9.png","targets/12.png","","direct","","78"
"","image-slider-response","292","651742","0.0-12.0-0.8","xqkkl6heqo","many_one","0","indirect_first","0","NE06LA15","0","27","1","1","3","1","","0","1","0","2816","","","","","pos","GS","GSold","4","category4/CS2.png","targets/45.png","","direct","","74"
"","image-slider-response","293","656634","0.0-12.0-0.9","xqkkl6heqo","many_one","0","indirect_first","0","NE06LA15","0","27","1","1","3","1","","0","1","0","4887","","","","","pos","GS","GSnew","2","category2/GS1.png","targets/9.png","","direct","","20"
"","image-slider-response","294","659993","0.0-12.0-0.10","xqkkl6heqo","many_one","0","indirect_first","0","NE06LA15","0","27","1","1","3","1","","0","1","0","3355","","","","","pos","CS","CS","2","category2/CS2.png","targets/6.png","","direct","","13"
"","image-slider-response","295","664557","0.0-12.0-0.11","xqkkl6heqo","many_one","0","indirect_first","0","NE06LA15","0","27","1","1","3","1","","0","1","0","4561","","","","","neg","CS","CS","1","category1/CS5.png","targets/42.png","","direct","","-53"
"","image-slider-response","296","668813","0.0-12.0-0.12","xqkkl6heqo","many_one","0","indirect_first","0","NE06LA15","0","27","1","1","3","1","","0","1","0","4244","","","","","pos","CS","CS","4","category4/CS1.png","targets/35.png","","direct","","73"
"","image-slider-response","297","671702","0.0-12.0-0.13","xqkkl6heqo","many_one","0","indirect_first","0","NE06LA15","0","27","1","1","3","1","","0","1","0","2884","","","","","neg","GS","GSold","3","category3/CS5.png","targets/26.png","","direct","","16"
"","image-slider-response","298","674493","0.0-12.0-0.14","xqkkl6heqo","many_one","0","indirect_first","0","NE06LA15","0","27","1","1","3","1","","0","1","0","2787","","","","","pos","GS","abstract","4","category4/lin.png","targets/13.png","","direct","","15"
"","image-slider-response","299","679483","0.0-12.0-0.15","xqkkl6heqo","many_one","0","indirect_first","0","NE06LA15","0","27","1","1","3","1","","0","1","0","4987","","","","","pos","CS","CS","2","category2/CS9.png","targets/43.png","","direct","","29"
"","image-slider-response","300","683893","0.0-12.0-0.16","xqkkl6heqo","many_one","0","indirect_first","0","NE06LA15","0","27","1","1","3","1","","0","1","0","4404","","","","","neg","GS","GSold","1","category1/CS3.png","targets/36.png","","direct","","26"
"","image-slider-response","301","686808","0.0-12.0-0.17","xqkkl6heqo","many_one","0","indirect_first","0","NE06LA15","0","27","1","1","3","1","","0","1","0","2907","","","","","neg","CS","CS","3","category3/CS6.png","targets/27.png","","direct","","34"
"","image-slider-response","302","690423","0.0-12.0-0.18","xqkkl6heqo","many_one","0","indirect_first","0","NE06LA15","0","27","1","1","3","1","","0","1","0","3608","","","","","pos","CS","CS","2","category2/CS3.png","targets/47.png","","direct","","29"
"","image-slider-response","303","693834","0.0-12.0-0.19","xqkkl6heqo","many_one","0","indirect_first","0","NE06LA15","0","27","1","1","3","1","","0","1","0","3405","","","","","neg","GS","GSold","3","category3/CS9.png","targets/19.png","","direct","","15"
"","image-slider-response","304","697013","0.0-12.0-0.20","xqkkl6heqo","many_one","0","indirect_first","0","NE06LA15","0","27","1","1","3","1","","0","1","0","3175","","","","","pos","GS","GSnew","4","category4/GS3.png","targets/17.png","","direct","","-34"
"","image-slider-response","305","701703","0.0-12.0-0.21","xqkkl6heqo","many_one","0","indirect_first","0","NE06LA15","0","27","1","1","3","1","","0","1","0","4686","","","","","neg","GS","GSnew","3","category3/GS2.png","targets/25.png","","direct","","-58"
"","image-slider-response","306","704903","0.0-12.0-0.22","xqkkl6heqo","many_one","0","indirect_first","0","NE06LA15","0","27","1","1","3","1","","0","1","0","3197","","","","","pos","GS","GSnew","4","category4/GS2.png","targets/46.png","","direct","","14"
"","image-slider-response","307","709722","0.0-12.0-0.23","xqkkl6heqo","many_one","0","indirect_first","0","NE06LA15","0","27","1","1","3","1","","0","1","0","4815","","","","","pos","GS","abstract","2","category2/men.png","targets/34.png","","direct","","-10"
"","image-slider-response","308","713892","0.0-12.0-0.24","xqkkl6heqo","many_one","0","indirect_first","0","NE06LA15","0","27","1","1","3","1","","0","1","0","4167","","","","","pos","GS","GSold","2","category2/CS7.png","targets/1.png","","direct","","-32"
"","image-slider-response","309","718053","0.0-12.0-0.25","xqkkl6heqo","many_one","0","indirect_first","0","NE06LA15","0","27","1","1","3","1","","0","1","0","4158","","","","","pos","CS","CS","2","category2/CS5.png","targets/14.png","","direct","","-49"
"","image-slider-response","310","720693","0.0-12.0-0.26","xqkkl6heqo","many_one","0","indirect_first","0","NE06LA15","0","27","1","1","3","1","","0","1","0","2635","","","","","neg","GS","GSnew","1","category1/GS1.png","targets/18.png","","direct","","16"
"","image-slider-response","311","723823","0.0-12.0-0.27","xqkkl6heqo","many_one","0","indirect_first","0","NE06LA15","0","27","1","1","3","1","","0","1","0","3127","","","","","neg","GS","GSnew","3","category3/GS1.png","targets/40.png","","direct","","16"
"","image-slider-response","312","728702","0.0-12.0-0.28","xqkkl6heqo","many_one","0","indirect_first","0","NE06LA15","0","27","1","1","3","1","","0","1","0","4876","","","","","pos","CS","CS","2","category2/CS8.png","targets/15.png","","direct","","56"
"","image-slider-response","313","733434","0.0-12.0-0.29","xqkkl6heqo","many_one","0","indirect_first","0","NE06LA15","0","27","1","1","3","1","","0","1","0","4727","","","","","neg","CS","CS","1","category1/CS1.png","targets/44.png","","direct","","-37"
"","image-slider-response","314","736153","0.0-12.0-0.30","xqkkl6heqo","many_one","0","indirect_first","0","NE06LA15","0","27","1","1","3","1","","0","1","0","2714","","","","","neg","GS","GSold","3","category3/CS3.png","targets/11.png","","direct","","16"
"","image-slider-response","315","739729","0.0-12.0-0.31","xqkkl6heqo","many_one","0","indirect_first","0","NE06LA15","0","27","1","1","3","1","","0","1","0","3571","","","","","pos","CS","CS","4","category4/CS5.png","targets/33.png","","direct","","33"
"","image-slider-response","316","745812","0.0-12.0-0.32","xqkkl6heqo","many_one","0","indirect_first","0","NE06LA15","0","27","1","1","3","1","","0","1","0","6075","","","","","neg","CS","CS","3","category3/CS8.png","targets/41.png","","direct","","30"
"","image-slider-response","317","749572","0.0-12.0-0.33","xqkkl6heqo","many_one","0","indirect_first","0","NE06LA15","0","27","1","1","3","1","","0","1","0","3756","","","","","pos","GS","GSnew","2","category2/GS2.png","targets/37.png","","direct","","19"
"","image-slider-response","318","753383","0.0-12.0-0.34","xqkkl6heqo","many_one","0","indirect_first","0","NE06LA15","0","27","1","1","3","1","","0","1","0","3805","","","","","pos","GS","GSold","2","category2/CS4.png","targets/30.png","","direct","","34"
"","image-slider-response","319","756482","0.0-12.0-0.35","xqkkl6heqo","many_one","0","indirect_first","0","NE06LA15","0","27","1","1","3","1","","0","1","0","3096","","","","","pos","CS","CS","4","category4/CS3.png","targets/39.png","","direct","","57"
"","image-slider-response","320","759442","0.0-12.0-0.36","xqkkl6heqo","many_one","0","indirect_first","0","NE06LA15","0","27","1","1","3","1","","0","1","0","2955","","","","","pos","GS","GSold","4","category4/CS7.png","targets/29.png","","direct","","36"
"","image-slider-response","321","762322","0.0-12.0-0.37","xqkkl6heqo","many_one","0","indirect_first","0","NE06LA15","0","27","1","1","3","1","","0","1","0","2876","","","","","pos","CS","CS","4","category4/CS4.png","targets/22.png","","direct","","83"
"","image-slider-response","322","765731","0.0-12.0-0.38","xqkkl6heqo","many_one","0","indirect_first","0","NE06LA15","0","27","1","1","3","1","","0","1","0","3405","","","","","neg","GS","GSold","1","category1/CS2.png","targets/32.png","","direct","","-35"
"","image-slider-response","323","770522","0.0-12.0-0.39","xqkkl6heqo","many_one","0","indirect_first","0","NE06LA15","0","27","1","1","3","1","","0","1","0","4787","","","","","pos","GS","GSold","4","category4/CS8.png","targets/7.png","","direct","","11"
"","image-slider-response","324","773137","0.0-12.0-0.40","xqkkl6heqo","many_one","0","indirect_first","0","NE06LA15","0","27","1","1","3","1","","0","1","0","2610","","","","","neg","GS","GSnew","3","category3/GS3.png","targets/31.png","","direct","","20"
"","image-slider-response","325","776982","0.0-12.0-0.41","xqkkl6heqo","many_one","0","indirect_first","0","NE06LA15","0","27","1","1","3","1","","0","1","0","3841","","","","","neg","CS","CS","3","category3/CS10.png","targets/48.png","","direct","","-28"
"","image-slider-response","326","783232","0.0-12.0-0.42","xqkkl6heqo","many_one","0","indirect_first","0","NE06LA15","0","27","1","1","3","1","","0","1","0","6247","","","","","pos","GS","GSnew","4","category4/GS1.png","targets/10.png","","direct","","29"
"","image-slider-response","327","786312","0.0-12.0-0.43","xqkkl6heqo","many_one","0","indirect_first","0","NE06LA15","0","27","1","1","3","1","","0","1","0","3076","","","","","neg","GS","GSnew","1","category1/GS3.png","targets/20.png","","direct","","-55"
"","image-slider-response","328","790171","0.0-12.0-0.44","xqkkl6heqo","many_one","0","indirect_first","0","NE06LA15","0","27","1","1","3","1","","0","1","0","3855","","","","","neg","CS","CS","1","category1/CS4.png","targets/23.png","","direct","","-45"
"","image-slider-response","329","793312","0.0-12.0-0.45","xqkkl6heqo","many_one","0","indirect_first","0","NE06LA15","0","27","1","1","3","1","","0","1","0","3136","","","","","pos","GS","GSold","2","category2/CS10.png","targets/16.png","","direct","","27"
"","image-slider-response","330","796184","0.0-12.0-0.46","xqkkl6heqo","many_one","0","indirect_first","0","NE06LA15","0","27","1","1","3","1","","0","1","0","2868","","","","","neg","GS","abstract","1","category1/ma.png","targets/28.png","","direct","","-2"
