"success","trial_type","trial_index","time_elapsed","internal_node_id","subject","condition","condition_code","measure","measure_code","codeword","gender","age","education","chinese","fach","handedness","comment","hinschauen","ablenkung","gewissenhaft","rt","url","responses","stimulus","key_press","val","type","type_specific","category","cs_selected","response","target","task","indirect","nr_pres"
"true","fullscreen","0","99441","0.0-0.0","05j2327rvx","many_one","0","direct_first","1","ck05ar29","0","26","1","1","3","1","","0","1","0","","","","","","","","","","","","","","",""
"","external-html","1","132059","0.0-1.0","05j2327rvx","many_one","0","direct_first","1","ck05ar29","0","26","1","1","3","1","","0","1","0","32524","text/information.html","","","","","","","","","","","","",""
"","external-html","2","140836","0.0-2.0","05j2327rvx","many_one","0","direct_first","1","ck05ar29","0","26","1","1","3","1","","0","1","0","8705","text/consent.html","","","","","","","","","","","","",""
"","survey-html-form","3","172731","0.0-3.0","05j2327rvx","many_one","0","direct_first","1","ck05ar29","0","26","1","1","3","1","","0","1","0","31892.00000000003","","{""codeword_enter"":""ck05ar29""}","","","","","","","","","","","",""
"","survey-html-form","4","186161","0.0-4.0","05j2327rvx","many_one","0","direct_first","1","ck05ar29","0","26","1","1","3","1","","0","1","0","13428","","{""age"":""26"",""education"":""1"",""subject"":""3"",""gender"":""0"",""handedness"":""1"",""chinese"":""1""}","","","","","","","","","","","",""
"","survey-html-form","5","198171","0.0-5.0","05j2327rvx","many_one","0","direct_first","1","ck05ar29","0","26","1","1","3","1","","0","1","0","12008","","{}","","","","","","","","","","","",""
"","html-keyboard-response","6","202176","0.0-6.0-0.0-0.0","05j2327rvx","many_one","0","direct_first","1","ck05ar29","0","26","1","1","3","1","","0","1","0","null","","","<div class = 'row'><div class = 'column'><img src = 'uspos/8080.bmp' width = '100%;'></div><div class = 'column'><img src = 'category1/CS3.png' width = '70%;'></div></div>","null","pos","CS","CS","1","category1/CS3.png","","","","",""
"","html-keyboard-response","7","204683","0.0-6.0-0.0-0.1","05j2327rvx","many_one","0","direct_first","1","ck05ar29","0","26","1","1","3","1","","0","1","0","null","","","<div class = 'row'><div class = 'column'><img src = 'category1/CS2.png' width = '70%;'></div><div class = 'column'><img src = 'uspos/2057.bmp' width = '100%;'></div></div>","null","pos","CS","CS","1","category1/CS2.png","","","","",""
"","html-keyboard-response","8","207187","0.0-6.0-0.0-0.2","05j2327rvx","many_one","0","direct_first","1","ck05ar29","0","26","1","1","3","1","","0","1","0","null","","","<div class = 'row'><div class = 'column'><img src = 'category2/CS5.png' width = '70%;'></div><div class = 'column'><img src = 'usneg/7380.bmp' width = '100%;'></div></div>","null","neg","CS","CS","2","category2/CS5.png","","","","",""
"","html-keyboard-response","9","209689","0.0-6.0-0.0-0.3","05j2327rvx","many_one","0","direct_first","1","ck05ar29","0","26","1","1","3","1","","0","1","0","null","","","<div class = 'row'><div class = 'column'><img src = 'category3/CS3.png' width = '70%;'></div><div class = 'column'><img src = 'uspos/8540.bmp' width = '100%;'></div></div>","null","pos","CS","CS","3","category3/CS3.png","","","","",""
"","html-keyboard-response","10","212193","0.0-6.0-0.0-0.4","05j2327rvx","many_one","0","direct_first","1","ck05ar29","0","26","1","1","3","1","","0","1","0","null","","","<div class = 'row'><div class = 'column'><img src = 'uspos/8190.bmp' width = '100%;'></div><div class = 'column'><img src = 'category1/CS8.png' width = '70%;'></div></div>","null","pos","CS","CS","1","category1/CS8.png","","","","",""
"","html-keyboard-response","11","214698","0.0-6.0-0.0-0.5","05j2327rvx","many_one","0","direct_first","1","ck05ar29","0","26","1","1","3","1","","0","1","0","null","","","<div class = 'row'><div class = 'column'><img src = 'category3/CS8.png' width = '70%;'></div><div class = 'column'><img src = 'uspos/1460.bmp' width = '100%;'></div></div>","null","pos","CS","CS","3","category3/CS8.png","","","","",""
"","html-keyboard-response","12","217202","0.0-6.0-0.0-0.6","05j2327rvx","many_one","0","direct_first","1","ck05ar29","0","26","1","1","3","1","","0","1","0","null","","","<div class = 'row'><div class = 'column'><img src = 'category4/CS1.png' width = '70%;'></div><div class = 'column'><img src = 'usneg/9220.bmp' width = '100%;'></div></div>","null","neg","CS","CS","4","category4/CS1.png","","","","",""
"","html-keyboard-response","13","219704","0.0-6.0-0.0-0.7","05j2327rvx","many_one","0","direct_first","1","ck05ar29","0","26","1","1","3","1","","0","1","0","null","","","<div class = 'row'><div class = 'column'><img src = 'uspos/7580.bmp' width = '100%;'></div><div class = 'column'><img src = 'category1/CS7.png' width = '70%;'></div></div>","null","pos","CS","CS","1","category1/CS7.png","","","","",""
"","html-keyboard-response","14","222209","0.0-6.0-0.0-0.8","05j2327rvx","many_one","0","direct_first","1","ck05ar29","0","26","1","1","3","1","","0","1","0","null","","","<div class = 'row'><div class = 'column'><img src = 'category4/CS10.png' width = '70%;'></div><div class = 'column'><img src = 'usneg/9290.bmp' width = '100%;'></div></div>","null","neg","CS","CS","4","category4/CS10.png","","","","",""
"","html-keyboard-response","15","224713","0.0-6.0-0.0-0.9","05j2327rvx","many_one","0","direct_first","1","ck05ar29","0","26","1","1","3","1","","0","1","0","null","","","<div class = 'row'><div class = 'column'><img src = 'uspos/5600.bmp' width = '100%;'></div><div class = 'column'><img src = 'category3/CS2.png' width = '70%;'></div></div>","null","pos","CS","CS","3","category3/CS2.png","","","","",""
"","html-keyboard-response","16","227216","0.0-6.0-0.0-0.10","05j2327rvx","many_one","0","direct_first","1","ck05ar29","0","26","1","1","3","1","","0","1","0","null","","","<div class = 'row'><div class = 'column'><img src = 'usneg/6020.bmp' width = '100%;'></div><div class = 'column'><img src = 'category2/CS7.png' width = '70%;'></div></div>","null","neg","CS","CS","2","category2/CS7.png","","","","",""
"","html-keyboard-response","17","229719","0.0-6.0-0.0-0.11","05j2327rvx","many_one","0","direct_first","1","ck05ar29","0","26","1","1","3","1","","0","1","0","null","","","<div class = 'row'><div class = 'column'><img src = 'usneg/8485.bmp' width = '100%;'></div><div class = 'column'><img src = 'category4/CS9.png' width = '70%;'></div></div>","null","neg","CS","CS","4","category4/CS9.png","","","","",""
"","html-keyboard-response","18","232223","0.0-6.0-0.0-0.12","05j2327rvx","many_one","0","direct_first","1","ck05ar29","0","26","1","1","3","1","","0","1","0","null","","","<div class = 'row'><div class = 'column'><img src = 'category3/CS1.png' width = '70%;'></div><div class = 'column'><img src = 'uspos/2900.2.bmp' width = '100%;'></div></div>","null","pos","CS","CS","3","category3/CS1.png","","","","",""
"","html-keyboard-response","19","234731","0.0-6.0-0.0-0.13","05j2327rvx","many_one","0","direct_first","1","ck05ar29","0","26","1","1","3","1","","0","1","0","null","","","<div class = 'row'><div class = 'column'><img src = 'usneg/9342.bmp' width = '100%;'></div><div class = 'column'><img src = 'category4/CS2.png' width = '70%;'></div></div>","null","neg","CS","CS","4","category4/CS2.png","","","","",""
"","html-keyboard-response","20","237235","0.0-6.0-0.0-0.14","05j2327rvx","many_one","0","direct_first","1","ck05ar29","0","26","1","1","3","1","","0","1","0","null","","","<div class = 'row'><div class = 'column'><img src = 'category3/CS5.png' width = '70%;'></div><div class = 'column'><img src = 'uspos/2341.bmp' width = '100%;'></div></div>","null","pos","CS","CS","3","category3/CS5.png","","","","",""
"","html-keyboard-response","21","239739","0.0-6.0-0.0-0.15","05j2327rvx","many_one","0","direct_first","1","ck05ar29","0","26","1","1","3","1","","0","1","0","null","","","<div class = 'row'><div class = 'column'><img src = 'category2/CS2.png' width = '70%;'></div><div class = 'column'><img src = 'usneg/9435.bmp' width = '100%;'></div></div>","null","neg","CS","CS","2","category2/CS2.png","","","","",""
"","html-keyboard-response","22","242244","0.0-6.0-0.0-0.16","05j2327rvx","many_one","0","direct_first","1","ck05ar29","0","26","1","1","3","1","","0","1","0","null","","","<div class = 'row'><div class = 'column'><img src = 'usneg/9415.bmp' width = '100%;'></div><div class = 'column'><img src = 'category2/CS10.png' width = '70%;'></div></div>","null","neg","CS","CS","2","category2/CS10.png","","","","",""
"","html-keyboard-response","23","244751","0.0-6.0-0.0-0.17","05j2327rvx","many_one","0","direct_first","1","ck05ar29","0","26","1","1","3","1","","0","1","0","null","","","<div class = 'row'><div class = 'column'><img src = 'category4/CS5.png' width = '70%;'></div><div class = 'column'><img src = 'usneg/3300.bmp' width = '100%;'></div></div>","null","neg","CS","CS","4","category4/CS5.png","","","","",""
"","html-keyboard-response","24","247256","0.0-6.0-0.0-0.18","05j2327rvx","many_one","0","direct_first","1","ck05ar29","0","26","1","1","3","1","","0","1","0","null","","","<div class = 'row'><div class = 'column'><img src = 'category2/CS8.png' width = '70%;'></div><div class = 'column'><img src = 'usneg/9050.bmp' width = '100%;'></div></div>","null","neg","CS","CS","2","category2/CS8.png","","","","",""
"","html-keyboard-response","25","249763","0.0-6.0-0.0-0.19","05j2327rvx","many_one","0","direct_first","1","ck05ar29","0","26","1","1","3","1","","0","1","0","null","","","<div class = 'row'><div class = 'column'><img src = 'category1/CS5.png' width = '70%;'></div><div class = 'column'><img src = 'uspos/4599.bmp' width = '100%;'></div></div>","null","pos","CS","CS","1","category1/CS5.png","","","","",""
"","survey-html-form","26","253802","0.0-6.0-1.0","05j2327rvx","many_one","0","direct_first","1","ck05ar29","0","26","1","1","3","1","","0","1","0","3537","","{}","","","","","","","","","","","",""
"","html-keyboard-response","27","257807","0.0-6.0-2.0-0.0","05j2327rvx","many_one","0","direct_first","1","ck05ar29","0","26","1","1","3","1","","0","1","0","null","","","<div class = 'row'><div class = 'column'><img src = 'category4/CS1.png' width = '70%;'></div><div class = 'column'><img src = 'usneg/9220.bmp' width = '100%;'></div></div>","null","neg","CS","CS","4","category4/CS1.png","","","","",""
"","html-keyboard-response","28","260313","0.0-6.0-2.0-0.1","05j2327rvx","many_one","0","direct_first","1","ck05ar29","0","26","1","1","3","1","","0","1","0","null","","","<div class = 'row'><div class = 'column'><img src = 'category3/CS1.png' width = '70%;'></div><div class = 'column'><img src = 'uspos/2900.2.bmp' width = '100%;'></div></div>","null","pos","CS","CS","3","category3/CS1.png","","","","",""
"","html-keyboard-response","29","262817","0.0-6.0-2.0-0.2","05j2327rvx","many_one","0","direct_first","1","ck05ar29","0","26","1","1","3","1","","0","1","0","null","","","<div class = 'row'><div class = 'column'><img src = 'usneg/9290.bmp' width = '100%;'></div><div class = 'column'><img src = 'category4/CS10.png' width = '70%;'></div></div>","null","neg","CS","CS","4","category4/CS10.png","","","","",""
"","html-keyboard-response","30","265322","0.0-6.0-2.0-0.3","05j2327rvx","many_one","0","direct_first","1","ck05ar29","0","26","1","1","3","1","","0","1","0","null","","","<div class = 'row'><div class = 'column'><img src = 'uspos/4599.bmp' width = '100%;'></div><div class = 'column'><img src = 'category1/CS5.png' width = '70%;'></div></div>","null","pos","CS","CS","1","category1/CS5.png","","","","",""
"","html-keyboard-response","31","267827","0.0-6.0-2.0-0.4","05j2327rvx","many_one","0","direct_first","1","ck05ar29","0","26","1","1","3","1","","0","1","0","null","","","<div class = 'row'><div class = 'column'><img src = 'category2/CS2.png' width = '70%;'></div><div class = 'column'><img src = 'usneg/9435.bmp' width = '100%;'></div></div>","null","neg","CS","CS","2","category2/CS2.png","","","","",""
"","html-keyboard-response","32","270331","0.0-6.0-2.0-0.5","05j2327rvx","many_one","0","direct_first","1","ck05ar29","0","26","1","1","3","1","","0","1","0","null","","","<div class = 'row'><div class = 'column'><img src = 'category3/CS3.png' width = '70%;'></div><div class = 'column'><img src = 'uspos/8540.bmp' width = '100%;'></div></div>","null","pos","CS","CS","3","category3/CS3.png","","","","",""
"","html-keyboard-response","33","272837","0.0-6.0-2.0-0.6","05j2327rvx","many_one","0","direct_first","1","ck05ar29","0","26","1","1","3","1","","0","1","0","null","","","<div class = 'row'><div class = 'column'><img src = 'category1/CS7.png' width = '70%;'></div><div class = 'column'><img src = 'uspos/7580.bmp' width = '100%;'></div></div>","null","pos","CS","CS","1","category1/CS7.png","","","","",""
"","html-keyboard-response","34","275342","0.0-6.0-2.0-0.7","05j2327rvx","many_one","0","direct_first","1","ck05ar29","0","26","1","1","3","1","","0","1","0","null","","","<div class = 'row'><div class = 'column'><img src = 'uspos/5600.bmp' width = '100%;'></div><div class = 'column'><img src = 'category3/CS2.png' width = '70%;'></div></div>","null","pos","CS","CS","3","category3/CS2.png","","","","",""
"","html-keyboard-response","35","277846","0.0-6.0-2.0-0.8","05j2327rvx","many_one","0","direct_first","1","ck05ar29","0","26","1","1","3","1","","0","1","0","null","","","<div class = 'row'><div class = 'column'><img src = 'category4/CS9.png' width = '70%;'></div><div class = 'column'><img src = 'usneg/8485.bmp' width = '100%;'></div></div>","null","neg","CS","CS","4","category4/CS9.png","","","","",""
"","html-keyboard-response","36","280351","0.0-6.0-2.0-0.9","05j2327rvx","many_one","0","direct_first","1","ck05ar29","0","26","1","1","3","1","","0","1","0","null","","","<div class = 'row'><div class = 'column'><img src = 'usneg/7380.bmp' width = '100%;'></div><div class = 'column'><img src = 'category2/CS5.png' width = '70%;'></div></div>","null","neg","CS","CS","2","category2/CS5.png","","","","",""
"","html-keyboard-response","37","282855","0.0-6.0-2.0-0.10","05j2327rvx","many_one","0","direct_first","1","ck05ar29","0","26","1","1","3","1","","0","1","0","null","","","<div class = 'row'><div class = 'column'><img src = 'category4/CS5.png' width = '70%;'></div><div class = 'column'><img src = 'usneg/3300.bmp' width = '100%;'></div></div>","null","neg","CS","CS","4","category4/CS5.png","","","","",""
"","html-keyboard-response","38","285359","0.0-6.0-2.0-0.11","05j2327rvx","many_one","0","direct_first","1","ck05ar29","0","26","1","1","3","1","","0","1","0","null","","","<div class = 'row'><div class = 'column'><img src = 'usneg/9415.bmp' width = '100%;'></div><div class = 'column'><img src = 'category2/CS10.png' width = '70%;'></div></div>","null","neg","CS","CS","2","category2/CS10.png","","","","",""
"","html-keyboard-response","39","287865","0.0-6.0-2.0-0.12","05j2327rvx","many_one","0","direct_first","1","ck05ar29","0","26","1","1","3","1","","0","1","0","null","","","<div class = 'row'><div class = 'column'><img src = 'category2/CS8.png' width = '70%;'></div><div class = 'column'><img src = 'usneg/9050.bmp' width = '100%;'></div></div>","null","neg","CS","CS","2","category2/CS8.png","","","","",""
"","html-keyboard-response","40","290370","0.0-6.0-2.0-0.13","05j2327rvx","many_one","0","direct_first","1","ck05ar29","0","26","1","1","3","1","","0","1","0","null","","","<div class = 'row'><div class = 'column'><img src = 'uspos/8190.bmp' width = '100%;'></div><div class = 'column'><img src = 'category1/CS8.png' width = '70%;'></div></div>","null","pos","CS","CS","1","category1/CS8.png","","","","",""
"","html-keyboard-response","41","292874","0.0-6.0-2.0-0.14","05j2327rvx","many_one","0","direct_first","1","ck05ar29","0","26","1","1","3","1","","0","1","0","null","","","<div class = 'row'><div class = 'column'><img src = 'uspos/8080.bmp' width = '100%;'></div><div class = 'column'><img src = 'category1/CS3.png' width = '70%;'></div></div>","null","pos","CS","CS","1","category1/CS3.png","","","","",""
"","html-keyboard-response","42","295378","0.0-6.0-2.0-0.15","05j2327rvx","many_one","0","direct_first","1","ck05ar29","0","26","1","1","3","1","","0","1","0","null","","","<div class = 'row'><div class = 'column'><img src = 'uspos/1460.bmp' width = '100%;'></div><div class = 'column'><img src = 'category3/CS8.png' width = '70%;'></div></div>","null","pos","CS","CS","3","category3/CS8.png","","","","",""
"","html-keyboard-response","43","297883","0.0-6.0-2.0-0.16","05j2327rvx","many_one","0","direct_first","1","ck05ar29","0","26","1","1","3","1","","0","1","0","null","","","<div class = 'row'><div class = 'column'><img src = 'category4/CS2.png' width = '70%;'></div><div class = 'column'><img src = 'usneg/9342.bmp' width = '100%;'></div></div>","null","neg","CS","CS","4","category4/CS2.png","","","","",""
"","html-keyboard-response","44","300387","0.0-6.0-2.0-0.17","05j2327rvx","many_one","0","direct_first","1","ck05ar29","0","26","1","1","3","1","","0","1","0","null","","","<div class = 'row'><div class = 'column'><img src = 'uspos/2057.bmp' width = '100%;'></div><div class = 'column'><img src = 'category1/CS2.png' width = '70%;'></div></div>","null","pos","CS","CS","1","category1/CS2.png","","","","",""
"","html-keyboard-response","45","302891","0.0-6.0-2.0-0.18","05j2327rvx","many_one","0","direct_first","1","ck05ar29","0","26","1","1","3","1","","0","1","0","null","","","<div class = 'row'><div class = 'column'><img src = 'usneg/6020.bmp' width = '100%;'></div><div class = 'column'><img src = 'category2/CS7.png' width = '70%;'></div></div>","null","neg","CS","CS","2","category2/CS7.png","","","","",""
"","html-keyboard-response","46","305397","0.0-6.0-2.0-0.19","05j2327rvx","many_one","0","direct_first","1","ck05ar29","0","26","1","1","3","1","","0","1","0","null","","","<div class = 'row'><div class = 'column'><img src = 'category3/CS5.png' width = '70%;'></div><div class = 'column'><img src = 'uspos/2341.bmp' width = '100%;'></div></div>","null","pos","CS","CS","3","category3/CS5.png","","","","",""
"","survey-html-form","47","308010","0.0-6.0-3.0","05j2327rvx","many_one","0","direct_first","1","ck05ar29","0","26","1","1","3","1","","0","1","0","2110","","{}","","","","","","","","","","","",""
"","html-keyboard-response","48","312014","0.0-6.0-4.0-0.0","05j2327rvx","many_one","0","direct_first","1","ck05ar29","0","26","1","1","3","1","","0","1","0","null","","","<div class = 'row'><div class = 'column'><img src = 'category3/CS8.png' width = '70%;'></div><div class = 'column'><img src = 'uspos/1460.bmp' width = '100%;'></div></div>","null","pos","CS","CS","3","category3/CS8.png","","","","",""
"","html-keyboard-response","49","314519","0.0-6.0-4.0-0.1","05j2327rvx","many_one","0","direct_first","1","ck05ar29","0","26","1","1","3","1","","0","1","0","null","","","<div class = 'row'><div class = 'column'><img src = 'category4/CS9.png' width = '70%;'></div><div class = 'column'><img src = 'usneg/8485.bmp' width = '100%;'></div></div>","null","neg","CS","CS","4","category4/CS9.png","","","","",""
"","html-keyboard-response","50","317024","0.0-6.0-4.0-0.2","05j2327rvx","many_one","0","direct_first","1","ck05ar29","0","26","1","1","3","1","","0","1","0","null","","","<div class = 'row'><div class = 'column'><img src = 'usneg/9342.bmp' width = '100%;'></div><div class = 'column'><img src = 'category4/CS2.png' width = '70%;'></div></div>","null","neg","CS","CS","4","category4/CS2.png","","","","",""
"","html-keyboard-response","51","319528","0.0-6.0-4.0-0.3","05j2327rvx","many_one","0","direct_first","1","ck05ar29","0","26","1","1","3","1","","0","1","0","null","","","<div class = 'row'><div class = 'column'><img src = 'uspos/8190.bmp' width = '100%;'></div><div class = 'column'><img src = 'category1/CS8.png' width = '70%;'></div></div>","null","pos","CS","CS","1","category1/CS8.png","","","","",""
"","html-keyboard-response","52","322035","0.0-6.0-4.0-0.4","05j2327rvx","many_one","0","direct_first","1","ck05ar29","0","26","1","1","3","1","","0","1","0","null","","","<div class = 'row'><div class = 'column'><img src = 'category3/CS3.png' width = '70%;'></div><div class = 'column'><img src = 'uspos/8540.bmp' width = '100%;'></div></div>","null","pos","CS","CS","3","category3/CS3.png","","","","",""
"","html-keyboard-response","53","324540","0.0-6.0-4.0-0.5","05j2327rvx","many_one","0","direct_first","1","ck05ar29","0","26","1","1","3","1","","0","1","0","null","","","<div class = 'row'><div class = 'column'><img src = 'category2/CS5.png' width = '70%;'></div><div class = 'column'><img src = 'usneg/7380.bmp' width = '100%;'></div></div>","null","neg","CS","CS","2","category2/CS5.png","","","","",""
"","html-keyboard-response","54","327044","0.0-6.0-4.0-0.6","05j2327rvx","many_one","0","direct_first","1","ck05ar29","0","26","1","1","3","1","","0","1","0","null","","","<div class = 'row'><div class = 'column'><img src = 'uspos/2341.bmp' width = '100%;'></div><div class = 'column'><img src = 'category3/CS5.png' width = '70%;'></div></div>","null","pos","CS","CS","3","category3/CS5.png","","","","",""
"","html-keyboard-response","55","329549","0.0-6.0-4.0-0.7","05j2327rvx","many_one","0","direct_first","1","ck05ar29","0","26","1","1","3","1","","0","1","0","null","","","<div class = 'row'><div class = 'column'><img src = 'uspos/5600.bmp' width = '100%;'></div><div class = 'column'><img src = 'category3/CS2.png' width = '70%;'></div></div>","null","pos","CS","CS","3","category3/CS2.png","","","","",""
"","html-keyboard-response","56","332054","0.0-6.0-4.0-0.8","05j2327rvx","many_one","0","direct_first","1","ck05ar29","0","26","1","1","3","1","","0","1","0","null","","","<div class = 'row'><div class = 'column'><img src = 'usneg/9290.bmp' width = '100%;'></div><div class = 'column'><img src = 'category4/CS10.png' width = '70%;'></div></div>","null","neg","CS","CS","4","category4/CS10.png","","","","",""
"","html-keyboard-response","57","334558","0.0-6.0-4.0-0.9","05j2327rvx","many_one","0","direct_first","1","ck05ar29","0","26","1","1","3","1","","0","1","0","null","","","<div class = 'row'><div class = 'column'><img src = 'uspos/4599.bmp' width = '100%;'></div><div class = 'column'><img src = 'category1/CS5.png' width = '70%;'></div></div>","null","pos","CS","CS","1","category1/CS5.png","","","","",""
"","html-keyboard-response","58","337062","0.0-6.0-4.0-0.10","05j2327rvx","many_one","0","direct_first","1","ck05ar29","0","26","1","1","3","1","","0","1","0","null","","","<div class = 'row'><div class = 'column'><img src = 'category2/CS10.png' width = '70%;'></div><div class = 'column'><img src = 'usneg/9415.bmp' width = '100%;'></div></div>","null","neg","CS","CS","2","category2/CS10.png","","","","",""
"","html-keyboard-response","59","339570","0.0-6.0-4.0-0.11","05j2327rvx","many_one","0","direct_first","1","ck05ar29","0","26","1","1","3","1","","0","1","0","null","","","<div class = 'row'><div class = 'column'><img src = 'uspos/8080.bmp' width = '100%;'></div><div class = 'column'><img src = 'category1/CS3.png' width = '70%;'></div></div>","null","pos","CS","CS","1","category1/CS3.png","","","","",""
"","html-keyboard-response","60","342074","0.0-6.0-4.0-0.12","05j2327rvx","many_one","0","direct_first","1","ck05ar29","0","26","1","1","3","1","","0","1","0","null","","","<div class = 'row'><div class = 'column'><img src = 'category2/CS8.png' width = '70%;'></div><div class = 'column'><img src = 'usneg/9050.bmp' width = '100%;'></div></div>","null","neg","CS","CS","2","category2/CS8.png","","","","",""
"","html-keyboard-response","61","344579","0.0-6.0-4.0-0.13","05j2327rvx","many_one","0","direct_first","1","ck05ar29","0","26","1","1","3","1","","0","1","0","null","","","<div class = 'row'><div class = 'column'><img src = 'uspos/2057.bmp' width = '100%;'></div><div class = 'column'><img src = 'category1/CS2.png' width = '70%;'></div></div>","null","pos","CS","CS","1","category1/CS2.png","","","","",""
"","html-keyboard-response","62","347083","0.0-6.0-4.0-0.14","05j2327rvx","many_one","0","direct_first","1","ck05ar29","0","26","1","1","3","1","","0","1","0","null","","","<div class = 'row'><div class = 'column'><img src = 'category1/CS7.png' width = '70%;'></div><div class = 'column'><img src = 'uspos/7580.bmp' width = '100%;'></div></div>","null","pos","CS","CS","1","category1/CS7.png","","","","",""
"","html-keyboard-response","63","349588","0.0-6.0-4.0-0.15","05j2327rvx","many_one","0","direct_first","1","ck05ar29","0","26","1","1","3","1","","0","1","0","null","","","<div class = 'row'><div class = 'column'><img src = 'usneg/9435.bmp' width = '100%;'></div><div class = 'column'><img src = 'category2/CS2.png' width = '70%;'></div></div>","null","neg","CS","CS","2","category2/CS2.png","","","","",""
"","html-keyboard-response","64","352092","0.0-6.0-4.0-0.16","05j2327rvx","many_one","0","direct_first","1","ck05ar29","0","26","1","1","3","1","","0","1","0","null","","","<div class = 'row'><div class = 'column'><img src = 'category3/CS1.png' width = '70%;'></div><div class = 'column'><img src = 'uspos/2900.2.bmp' width = '100%;'></div></div>","null","pos","CS","CS","3","category3/CS1.png","","","","",""
"","html-keyboard-response","65","354597","0.0-6.0-4.0-0.17","05j2327rvx","many_one","0","direct_first","1","ck05ar29","0","26","1","1","3","1","","0","1","0","null","","","<div class = 'row'><div class = 'column'><img src = 'usneg/9220.bmp' width = '100%;'></div><div class = 'column'><img src = 'category4/CS1.png' width = '70%;'></div></div>","null","neg","CS","CS","4","category4/CS1.png","","","","",""
"","html-keyboard-response","66","357099","0.0-6.0-4.0-0.18","05j2327rvx","many_one","0","direct_first","1","ck05ar29","0","26","1","1","3","1","","0","1","0","null","","","<div class = 'row'><div class = 'column'><img src = 'category2/CS7.png' width = '70%;'></div><div class = 'column'><img src = 'usneg/6020.bmp' width = '100%;'></div></div>","null","neg","CS","CS","2","category2/CS7.png","","","","",""
"","html-keyboard-response","67","359604","0.0-6.0-4.0-0.19","05j2327rvx","many_one","0","direct_first","1","ck05ar29","0","26","1","1","3","1","","0","1","0","null","","","<div class = 'row'><div class = 'column'><img src = 'category4/CS5.png' width = '70%;'></div><div class = 'column'><img src = 'usneg/3300.bmp' width = '100%;'></div></div>","null","neg","CS","CS","4","category4/CS5.png","","","","",""
"","survey-html-form","68","372870","0.0-6.0-5.0","05j2327rvx","many_one","0","direct_first","1","ck05ar29","0","26","1","1","3","1","","0","1","0","12764","","{}","","","","","","","","","","","",""
"","html-keyboard-response","69","376875","0.0-6.0-6.0-0.0","05j2327rvx","many_one","0","direct_first","1","ck05ar29","0","26","1","1","3","1","","0","1","0","null","","","<div class = 'row'><div class = 'column'><img src = 'uspos/8080.bmp' width = '100%;'></div><div class = 'column'><img src = 'category1/CS3.png' width = '70%;'></div></div>","null","pos","CS","CS","1","category1/CS3.png","","","","",""
"","html-keyboard-response","70","379379","0.0-6.0-6.0-0.1","05j2327rvx","many_one","0","direct_first","1","ck05ar29","0","26","1","1","3","1","","0","1","0","null","","","<div class = 'row'><div class = 'column'><img src = 'usneg/8485.bmp' width = '100%;'></div><div class = 'column'><img src = 'category4/CS9.png' width = '70%;'></div></div>","null","neg","CS","CS","4","category4/CS9.png","","","","",""
"","html-keyboard-response","71","381884","0.0-6.0-6.0-0.2","05j2327rvx","many_one","0","direct_first","1","ck05ar29","0","26","1","1","3","1","","0","1","0","null","","","<div class = 'row'><div class = 'column'><img src = 'category2/CS8.png' width = '70%;'></div><div class = 'column'><img src = 'usneg/9050.bmp' width = '100%;'></div></div>","null","neg","CS","CS","2","category2/CS8.png","","","","",""
"","html-keyboard-response","72","384390","0.0-6.0-6.0-0.3","05j2327rvx","many_one","0","direct_first","1","ck05ar29","0","26","1","1","3","1","","0","1","0","null","","","<div class = 'row'><div class = 'column'><img src = 'usneg/7380.bmp' width = '100%;'></div><div class = 'column'><img src = 'category2/CS5.png' width = '70%;'></div></div>","null","neg","CS","CS","2","category2/CS5.png","","","","",""
"","html-keyboard-response","73","386895","0.0-6.0-6.0-0.4","05j2327rvx","many_one","0","direct_first","1","ck05ar29","0","26","1","1","3","1","","0","1","0","null","","","<div class = 'row'><div class = 'column'><img src = 'category4/CS10.png' width = '70%;'></div><div class = 'column'><img src = 'usneg/9290.bmp' width = '100%;'></div></div>","null","neg","CS","CS","4","category4/CS10.png","","","","",""
"","html-keyboard-response","74","389400","0.0-6.0-6.0-0.5","05j2327rvx","many_one","0","direct_first","1","ck05ar29","0","26","1","1","3","1","","0","1","0","null","","","<div class = 'row'><div class = 'column'><img src = 'category1/CS7.png' width = '70%;'></div><div class = 'column'><img src = 'uspos/7580.bmp' width = '100%;'></div></div>","null","pos","CS","CS","1","category1/CS7.png","","","","",""
"","html-keyboard-response","75","391906","0.0-6.0-6.0-0.6","05j2327rvx","many_one","0","direct_first","1","ck05ar29","0","26","1","1","3","1","","0","1","0","null","","","<div class = 'row'><div class = 'column'><img src = 'uspos/4599.bmp' width = '100%;'></div><div class = 'column'><img src = 'category1/CS5.png' width = '70%;'></div></div>","null","pos","CS","CS","1","category1/CS5.png","","","","",""
"","html-keyboard-response","76","394409","0.0-6.0-6.0-0.7","05j2327rvx","many_one","0","direct_first","1","ck05ar29","0","26","1","1","3","1","","0","1","0","null","","","<div class = 'row'><div class = 'column'><img src = 'category1/CS8.png' width = '70%;'></div><div class = 'column'><img src = 'uspos/8190.bmp' width = '100%;'></div></div>","null","pos","CS","CS","1","category1/CS8.png","","","","",""
"","html-keyboard-response","77","396914","0.0-6.0-6.0-0.8","05j2327rvx","many_one","0","direct_first","1","ck05ar29","0","26","1","1","3","1","","0","1","0","null","","","<div class = 'row'><div class = 'column'><img src = 'uspos/2341.bmp' width = '100%;'></div><div class = 'column'><img src = 'category3/CS5.png' width = '70%;'></div></div>","null","pos","CS","CS","3","category3/CS5.png","","","","",""
"","html-keyboard-response","78","399418","0.0-6.0-6.0-0.9","05j2327rvx","many_one","0","direct_first","1","ck05ar29","0","26","1","1","3","1","","0","1","0","null","","","<div class = 'row'><div class = 'column'><img src = 'category4/CS1.png' width = '70%;'></div><div class = 'column'><img src = 'usneg/9220.bmp' width = '100%;'></div></div>","null","neg","CS","CS","4","category4/CS1.png","","","","",""
"","html-keyboard-response","79","401923","0.0-6.0-6.0-0.10","05j2327rvx","many_one","0","direct_first","1","ck05ar29","0","26","1","1","3","1","","0","1","0","null","","","<div class = 'row'><div class = 'column'><img src = 'category3/CS2.png' width = '70%;'></div><div class = 'column'><img src = 'uspos/5600.bmp' width = '100%;'></div></div>","null","pos","CS","CS","3","category3/CS2.png","","","","",""
"","html-keyboard-response","80","404428","0.0-6.0-6.0-0.11","05j2327rvx","many_one","0","direct_first","1","ck05ar29","0","26","1","1","3","1","","0","1","0","null","","","<div class = 'row'><div class = 'column'><img src = 'uspos/2900.2.bmp' width = '100%;'></div><div class = 'column'><img src = 'category3/CS1.png' width = '70%;'></div></div>","null","pos","CS","CS","3","category3/CS1.png","","","","",""
"","html-keyboard-response","81","406932","0.0-6.0-6.0-0.12","05j2327rvx","many_one","0","direct_first","1","ck05ar29","0","26","1","1","3","1","","0","1","0","null","","","<div class = 'row'><div class = 'column'><img src = 'uspos/2057.bmp' width = '100%;'></div><div class = 'column'><img src = 'category1/CS2.png' width = '70%;'></div></div>","null","pos","CS","CS","1","category1/CS2.png","","","","",""
"","html-keyboard-response","82","409439","0.0-6.0-6.0-0.13","05j2327rvx","many_one","0","direct_first","1","ck05ar29","0","26","1","1","3","1","","0","1","0","null","","","<div class = 'row'><div class = 'column'><img src = 'category4/CS5.png' width = '70%;'></div><div class = 'column'><img src = 'usneg/3300.bmp' width = '100%;'></div></div>","null","neg","CS","CS","4","category4/CS5.png","","","","",""
"","html-keyboard-response","83","411943","0.0-6.0-6.0-0.14","05j2327rvx","many_one","0","direct_first","1","ck05ar29","0","26","1","1","3","1","","0","1","0","null","","","<div class = 'row'><div class = 'column'><img src = 'category2/CS10.png' width = '70%;'></div><div class = 'column'><img src = 'usneg/9415.bmp' width = '100%;'></div></div>","null","neg","CS","CS","2","category2/CS10.png","","","","",""
"","html-keyboard-response","84","414450","0.0-6.0-6.0-0.15","05j2327rvx","many_one","0","direct_first","1","ck05ar29","0","26","1","1","3","1","","0","1","0","null","","","<div class = 'row'><div class = 'column'><img src = 'category2/CS2.png' width = '70%;'></div><div class = 'column'><img src = 'usneg/9435.bmp' width = '100%;'></div></div>","null","neg","CS","CS","2","category2/CS2.png","","","","",""
"","html-keyboard-response","85","416954","0.0-6.0-6.0-0.16","05j2327rvx","many_one","0","direct_first","1","ck05ar29","0","26","1","1","3","1","","0","1","0","null","","","<div class = 'row'><div class = 'column'><img src = 'category3/CS3.png' width = '70%;'></div><div class = 'column'><img src = 'uspos/8540.bmp' width = '100%;'></div></div>","null","pos","CS","CS","3","category3/CS3.png","","","","",""
"","html-keyboard-response","86","419459","0.0-6.0-6.0-0.17","05j2327rvx","many_one","0","direct_first","1","ck05ar29","0","26","1","1","3","1","","0","1","0","null","","","<div class = 'row'><div class = 'column'><img src = 'category2/CS7.png' width = '70%;'></div><div class = 'column'><img src = 'usneg/6020.bmp' width = '100%;'></div></div>","null","neg","CS","CS","2","category2/CS7.png","","","","",""
"","html-keyboard-response","87","421964","0.0-6.0-6.0-0.18","05j2327rvx","many_one","0","direct_first","1","ck05ar29","0","26","1","1","3","1","","0","1","0","null","","","<div class = 'row'><div class = 'column'><img src = 'category4/CS2.png' width = '70%;'></div><div class = 'column'><img src = 'usneg/9342.bmp' width = '100%;'></div></div>","null","neg","CS","CS","4","category4/CS2.png","","","","",""
"","html-keyboard-response","88","424468","0.0-6.0-6.0-0.19","05j2327rvx","many_one","0","direct_first","1","ck05ar29","0","26","1","1","3","1","","0","1","0","null","","","<div class = 'row'><div class = 'column'><img src = 'uspos/1460.bmp' width = '100%;'></div><div class = 'column'><img src = 'category3/CS8.png' width = '70%;'></div></div>","null","pos","CS","CS","3","category3/CS8.png","","","","",""
"","survey-html-form","89","429236","0.0-7.0","05j2327rvx","many_one","0","direct_first","1","ck05ar29","0","26","1","1","3","1","","0","1","0","4264.000000000058","","{}","","","","","","","","","","","",""
"","image-slider-response","90","436438","0.0-8.0-0.0","05j2327rvx","many_one","0","direct_first","1","ck05ar29","0","26","1","1","3","1","","0","1","0","5198","","","","","neg","GS","GSnew","4","category4/GS1.png","-49","targets/13.png","direct","",""
"","image-slider-response","91","438837","0.0-8.0-0.1","05j2327rvx","many_one","0","direct_first","1","ck05ar29","0","26","1","1","3","1","","0","1","0","2397","","","","","neg","GS","abstract","4","category4/lin.png","-59","targets/23.png","direct","",""
"","image-slider-response","92","442595","0.0-8.0-0.2","05j2327rvx","many_one","0","direct_first","1","ck05ar29","0","26","1","1","3","1","","0","1","0","3757.999999999942","","","","","neg","CS","CS","2","category2/CS2.png","-90","targets/41.png","direct","",""
"","image-slider-response","93","445191","0.0-8.0-0.3","05j2327rvx","many_one","0","direct_first","1","ck05ar29","0","26","1","1","3","1","","0","1","0","2594","","","","","pos","CS","CS","3","category3/CS8.png","100","targets/17.png","direct","",""
"","image-slider-response","94","449471","0.0-8.0-0.4","05j2327rvx","many_one","0","direct_first","1","ck05ar29","0","26","1","1","3","1","","0","1","0","4280","","","","","pos","CS","CS","1","category1/CS3.png","19","targets/20.png","direct","",""
"","image-slider-response","95","456678","0.0-8.0-0.5","05j2327rvx","many_one","0","direct_first","1","ck05ar29","0","26","1","1","3","1","","0","1","0","7206","","","","","neg","GS","GSnew","2","category2/GS1.png","-5","targets/45.png","direct","",""
"","image-slider-response","96","458965","0.0-8.0-0.6","05j2327rvx","many_one","0","direct_first","1","ck05ar29","0","26","1","1","3","1","","0","1","0","2285","","","","","neg","CS","CS","4","category4/CS2.png","-75","targets/25.png","direct","",""
"","image-slider-response","97","462643","0.0-8.0-0.7","05j2327rvx","many_one","0","direct_first","1","ck05ar29","0","26","1","1","3","1","","0","1","0","3677","","","","","pos","GS","GSold","1","category1/CS4.png","-19","targets/36.png","direct","",""
"","image-slider-response","98","465254","0.0-8.0-0.8","05j2327rvx","many_one","0","direct_first","1","ck05ar29","0","26","1","1","3","1","","0","1","0","2610.000000000058","","","","","neg","GS","GSold","4","category4/CS8.png","-39","targets/12.png","direct","",""
"","image-slider-response","99","467443","0.0-8.0-0.9","05j2327rvx","many_one","0","direct_first","1","ck05ar29","0","26","1","1","3","1","","0","1","0","2188","","","","","neg","CS","CS","4","category4/CS10.png","-42","targets/40.png","direct","",""
"","image-slider-response","100","471194","0.0-8.0-0.10","05j2327rvx","many_one","0","direct_first","1","ck05ar29","0","26","1","1","3","1","","0","1","0","3750","","","","","pos","CS","CS","1","category1/CS2.png","40","targets/11.png","direct","",""
"","image-slider-response","101","475238","0.0-8.0-0.11","05j2327rvx","many_one","0","direct_first","1","ck05ar29","0","26","1","1","3","1","","0","1","0","4043","","","","","neg","GS","GSold","4","category4/CS6.png","-69","targets/32.png","direct","",""
"","image-slider-response","102","477492","0.0-8.0-0.12","05j2327rvx","many_one","0","direct_first","1","ck05ar29","0","26","1","1","3","1","","0","1","0","2253.000000000058","","","","","neg","GS","GSold","2","category2/CS4.png","-81","targets/43.png","direct","",""
"","image-slider-response","103","479900","0.0-8.0-0.13","05j2327rvx","many_one","0","direct_first","1","ck05ar29","0","26","1","1","3","1","","0","1","0","2406","","","","","neg","GS","GSold","4","category4/CS3.png","-75","targets/34.png","direct","",""
"","image-slider-response","104","482503","0.0-8.0-0.14","05j2327rvx","many_one","0","direct_first","1","ck05ar29","0","26","1","1","3","1","","0","1","0","2602","","","","","pos","GS","GSold","3","category3/CS7.png","87","targets/14.png","direct","",""
"","image-slider-response","105","485132","0.0-8.0-0.15","05j2327rvx","many_one","0","direct_first","1","ck05ar29","0","26","1","1","3","1","","0","1","0","2626.999999999942","","","","","neg","CS","CS","4","category4/CS1.png","-100","targets/35.png","direct","",""
"","image-slider-response","106","487458","0.0-8.0-0.16","05j2327rvx","many_one","0","direct_first","1","ck05ar29","0","26","1","1","3","1","","0","1","0","2325","","","","","neg","GS","GSnew","2","category2/GS2.png","-45","targets/46.png","direct","",""
"","image-slider-response","107","490395","0.0-8.0-0.17","05j2327rvx","many_one","0","direct_first","1","ck05ar29","0","26","1","1","3","1","","0","1","0","2936.000000000058","","","","","pos","CS","CS","1","category1/CS8.png","58","targets/33.png","direct","",""
"","image-slider-response","108","495911","0.0-8.0-0.18","05j2327rvx","many_one","0","direct_first","1","ck05ar29","0","26","1","1","3","1","","0","1","0","5514.000000000058","","","","","pos","GS","GSold","1","category1/CS9.png","-3","targets/42.png","direct","",""
"","image-slider-response","109","498458","0.0-8.0-0.19","05j2327rvx","many_one","0","direct_first","1","ck05ar29","0","26","1","1","3","1","","0","1","0","2546.000000000058","","","","","pos","GS","GSnew","1","category1/GS1.png","-8","targets/2.png","direct","",""
"","image-slider-response","110","502078","0.0-8.0-0.20","05j2327rvx","many_one","0","direct_first","1","ck05ar29","0","26","1","1","3","1","","0","1","0","3619","","","","","neg","CS","CS","2","category2/CS5.png","-85","targets/22.png","direct","",""
"","image-slider-response","111","504820","0.0-8.0-0.21","05j2327rvx","many_one","0","direct_first","1","ck05ar29","0","26","1","1","3","1","","0","1","0","2741","","","","","pos","GS","GSnew","1","category1/GS3.png","-21","targets/44.png","direct","",""
"","image-slider-response","112","511035","0.0-8.0-0.22","05j2327rvx","many_one","0","direct_first","1","ck05ar29","0","26","1","1","3","1","","0","1","0","6213.999999999884","","","","","pos","GS","GSnew","3","category3/GS1.png","10","targets/10.png","direct","",""
"","image-slider-response","113","513646","0.0-8.0-0.23","05j2327rvx","many_one","0","direct_first","1","ck05ar29","0","26","1","1","3","1","","0","1","0","2610","","","","","neg","GS","GSold","2","category2/CS3.png","-61","targets/47.png","direct","",""
"","image-slider-response","114","516707","0.0-8.0-0.24","05j2327rvx","many_one","0","direct_first","1","ck05ar29","0","26","1","1","3","1","","0","1","0","3059","","","","","pos","GS","GSnew","3","category3/GS2.png","14","targets/19.png","direct","",""
"","image-slider-response","115","519309","0.0-8.0-0.25","05j2327rvx","many_one","0","direct_first","1","ck05ar29","0","26","1","1","3","1","","0","1","0","2602","","","","","neg","CS","CS","2","category2/CS7.png","-16","targets/5.png","direct","",""
"","image-slider-response","116","521783","0.0-8.0-0.26","05j2327rvx","many_one","0","direct_first","1","ck05ar29","0","26","1","1","3","1","","0","1","0","2472","","","","","pos","GS","abstract","3","category3/wang.png","48","targets/24.png","direct","",""
"","image-slider-response","117","524679","0.0-8.0-0.27","05j2327rvx","many_one","0","direct_first","1","ck05ar29","0","26","1","1","3","1","","0","1","0","2896","","","","","neg","CS","CS","2","category2/CS10.png","-53","targets/18.png","direct","",""
"","image-slider-response","118","528292","0.0-8.0-0.28","05j2327rvx","many_one","0","direct_first","1","ck05ar29","0","26","1","1","3","1","","0","1","0","3612.0000000001164","","","","","pos","CS","CS","1","category1/CS5.png","-51","targets/9.png","direct","",""
"","image-slider-response","119","531018","0.0-8.0-0.29","05j2327rvx","many_one","0","direct_first","1","ck05ar29","0","26","1","1","3","1","","0","1","0","2724","","","","","pos","CS","CS","3","category3/CS1.png","75","targets/16.png","direct","",""
"","image-slider-response","120","533312","0.0-8.0-0.30","05j2327rvx","many_one","0","direct_first","1","ck05ar29","0","26","1","1","3","1","","0","1","0","2291","","","","","pos","GS","GSold","3","category3/CS4.png","44","targets/39.png","direct","",""
"","image-slider-response","121","535338","0.0-8.0-0.31","05j2327rvx","many_one","0","direct_first","1","ck05ar29","0","26","1","1","3","1","","0","1","0","2024","","","","","pos","CS","CS","3","category3/CS3.png","60","targets/31.png","direct","",""
"","image-slider-response","122","537421","0.0-8.0-0.32","05j2327rvx","many_one","0","direct_first","1","ck05ar29","0","26","1","1","3","1","","0","1","0","2082","","","","","pos","GS","GSnew","1","category1/GS2.png","-49","targets/26.png","direct","",""
"","image-slider-response","123","539585","0.0-8.0-0.33","05j2327rvx","many_one","0","direct_first","1","ck05ar29","0","26","1","1","3","1","","0","1","0","2163","","","","","neg","GS","abstract","2","category2/men.png","-68","targets/8.png","direct","",""
"","image-slider-response","124","541872","0.0-8.0-0.34","05j2327rvx","many_one","0","direct_first","1","ck05ar29","0","26","1","1","3","1","","0","1","0","2285","","","","","neg","GS","GSnew","4","category4/GS3.png","-66","targets/7.png","direct","",""
"","image-slider-response","125","543808","0.0-8.0-0.35","05j2327rvx","many_one","0","direct_first","1","ck05ar29","0","26","1","1","3","1","","0","1","0","1935","","","","","pos","CS","CS","3","category3/CS5.png","47","targets/4.png","direct","",""
"","image-slider-response","126","545842","0.0-8.0-0.36","05j2327rvx","many_one","0","direct_first","1","ck05ar29","0","26","1","1","3","1","","0","1","0","2033","","","","","pos","CS","CS","3","category3/CS2.png","66","targets/6.png","direct","",""
"","image-slider-response","127","548250","0.0-8.0-0.37","05j2327rvx","many_one","0","direct_first","1","ck05ar29","0","26","1","1","3","1","","0","1","0","2407","","","","","neg","CS","CS","2","category2/CS8.png","-72","targets/3.png","direct","",""
"","image-slider-response","128","550520","0.0-8.0-0.38","05j2327rvx","many_one","0","direct_first","1","ck05ar29","0","26","1","1","3","1","","0","1","0","2268.0000000001164","","","","","pos","GS","GSold","1","category1/CS1.png","-36","targets/1.png","direct","",""
"","image-slider-response","129","553391","0.0-8.0-0.39","05j2327rvx","many_one","0","direct_first","1","ck05ar29","0","26","1","1","3","1","","0","1","0","2870","","","","","neg","GS","GSnew","2","category2/GS3.png","-56","targets/30.png","direct","",""
"","image-slider-response","130","555946","0.0-8.0-0.40","05j2327rvx","many_one","0","direct_first","1","ck05ar29","0","26","1","1","3","1","","0","1","0","2554","","","","","neg","GS","GSnew","4","category4/GS2.png","-2","targets/48.png","direct","",""
"","image-slider-response","131","561121","0.0-8.0-0.41","05j2327rvx","many_one","0","direct_first","1","ck05ar29","0","26","1","1","3","1","","0","1","0","5173","","","","","pos","GS","GSnew","3","category3/GS3.png","2","targets/15.png","direct","",""
"","image-slider-response","132","563871","0.0-8.0-0.42","05j2327rvx","many_one","0","direct_first","1","ck05ar29","0","26","1","1","3","1","","0","1","0","2749.0000000001164","","","","","neg","CS","CS","4","category4/CS9.png","-40","targets/38.png","direct","",""
"","image-slider-response","133","566019","0.0-8.0-0.43","05j2327rvx","many_one","0","direct_first","1","ck05ar29","0","26","1","1","3","1","","0","1","0","2147","","","","","pos","GS","GSold","3","category3/CS9.png","31","targets/37.png","direct","",""
"","image-slider-response","134","568451","0.0-8.0-0.44","05j2327rvx","many_one","0","direct_first","1","ck05ar29","0","26","1","1","3","1","","0","1","0","2430","","","","","neg","GS","GSold","2","category2/CS9.png","-67","targets/21.png","direct","",""
"","image-slider-response","135","570501","0.0-8.0-0.45","05j2327rvx","many_one","0","direct_first","1","ck05ar29","0","26","1","1","3","1","","0","1","0","2048","","","","","pos","GS","abstract","1","category1/ma.png","-39","targets/29.png","direct","",""
"","image-slider-response","136","573780","0.0-8.0-0.46","05j2327rvx","many_one","0","direct_first","1","ck05ar29","0","26","1","1","3","1","","0","1","0","3276","","","","","pos","CS","CS","1","category1/CS7.png","-23","targets/27.png","direct","",""
"","image-slider-response","137","580061","0.0-8.0-0.47","05j2327rvx","many_one","0","direct_first","1","ck05ar29","0","26","1","1","3","1","","0","1","0","6280","","","","","neg","CS","CS","4","category4/CS5.png","-86","targets/28.png","direct","",""
"","html-keyboard-response","138","595396","0.0-9.0","05j2327rvx","many_one","0","direct_first","1","ck05ar29","0","26","1","1","3","1","","0","1","0","15334","","","<p>Sie sehen nun die chinesischen Zeichen nur ganz kurz. Danach sehen Sie die jeweilige Aussprache der Zeichen als Silbe auf dem Bildschrim. Ihre Aufgabe ist es, für jede Silbe anzugeben, ob diese etwas angenehmes, oder unangenehmes bedeuten könnte. Verlassen Sie sich hier vor allem auf Ihre Intuition.<br><br>Die Zeichen werden nur zur Orientierung dargestellt, beachten Sie sie deshalb nicht. Konzentrieren Sie sich vor allem auf die Silben. <br>Reagieren Sie mit folgenden zwei Tasten: <br><br><b>'D' </b> wenn die Silbe etwas <b>unangenehmes</b> bedeuten könnte. <br><b>'K'</b> wenn die Silbe etwas <b>angenehmes</b> bedeuten könnte. <br><br>Bitte legen Sie nun den Zeigefinger der linken Hand auf die Taste 'D' und den Zeigefinger der rechten Hand auf die Taste 'K'. <br>Reagieren Sie auf jede Silbe so schnell wie möglich. Uns interessiert Ihre spontane Reaktion. <br> <br> <br>Drücken Sie 'D' oder 'K', um die nächste Aufgabe zu starten. </p>","75","","","","","","","","","",""
"","html-keyboard-response","139","598400","0.0-10.0-0.0","05j2327rvx","many_one","0","direct_first","1","ck05ar29","0","26","1","1","3","1","","0","1","0","null","","","<div style=""font-size:60px;"">+</div>","null","","","","","","","","","",""
"","html-keyboard-response","140","598492","0.0-10.0-1.0","05j2327rvx","many_one","0","direct_first","1","ck05ar29","0","26","1","1","3","1","","0","1","0","null","","","<img src = 'category2/CS7.png' width = '100%;'>","null","","","","","","","","","",""
"","html-keyboard-response","141","598746","0.0-10.0-2.0","05j2327rvx","many_one","0","direct_first","1","ck05ar29","0","26","1","1","3","1","","0","1","0","null","","","<img src = 'targets/5.png' width = '100%;'>","null","","","","","","","","","",""
"","html-keyboard-response","142","602673","0.0-10.0-3.0","05j2327rvx","many_one","0","direct_first","1","ck05ar29","0","26","1","1","3","1","","0","1","0","3926.9999999998836","","","<img src = 'targets/mask.png' width = '100%;'>","68","neg","CS","CS","2","category2/CS7.png","","targets/5.png","indirect","0","0"
"","html-keyboard-response","143","604178","0.0-10.0-0.1","05j2327rvx","many_one","0","direct_first","1","ck05ar29","0","26","1","1","3","1","","0","1","0","null","","","<div style=""font-size:60px;"">+</div>","null","","","","","","","","","",""
"","html-keyboard-response","144","604270","0.0-10.0-1.1","05j2327rvx","many_one","0","direct_first","1","ck05ar29","0","26","1","1","3","1","","0","1","0","null","","","<img src = 'category3/CS7.png' width = '100%;'>","null","","","","","","","","","",""
"","html-keyboard-response","145","604523","0.0-10.0-2.1","05j2327rvx","many_one","0","direct_first","1","ck05ar29","0","26","1","1","3","1","","0","1","0","null","","","<img src = 'targets/14.png' width = '100%;'>","null","","","","","","","","","",""
"","html-keyboard-response","146","604947","0.0-10.0-3.1","05j2327rvx","many_one","0","direct_first","1","ck05ar29","0","26","1","1","3","1","","0","1","0","422","","","<img src = 'targets/mask.png' width = '100%;'>","75","pos","GS","GSold","3","category3/CS7.png","","targets/14.png","indirect","1","1"
"","html-keyboard-response","147","606451","0.0-10.0-0.2","05j2327rvx","many_one","0","direct_first","1","ck05ar29","0","26","1","1","3","1","","0","1","0","null","","","<div style=""font-size:60px;"">+</div>","null","","","","","","","","","",""
"","html-keyboard-response","148","606542","0.0-10.0-1.2","05j2327rvx","many_one","0","direct_first","1","ck05ar29","0","26","1","1","3","1","","0","1","0","null","","","<img src = 'category1/CS7.png' width = '100%;'>","null","","","","","","","","","",""
"","html-keyboard-response","149","606797","0.0-10.0-2.2","05j2327rvx","many_one","0","direct_first","1","ck05ar29","0","26","1","1","3","1","","0","1","0","null","","","<img src = 'targets/27.png' width = '100%;'>","null","","","","","","","","","",""
"","html-keyboard-response","150","608909","0.0-10.0-3.2","05j2327rvx","many_one","0","direct_first","1","ck05ar29","0","26","1","1","3","1","","0","1","0","2111","","","<img src = 'targets/mask.png' width = '100%;'>","75","pos","CS","CS","1","category1/CS7.png","","targets/27.png","indirect","1","2"
"","html-keyboard-response","151","610413","0.0-10.0-0.3","05j2327rvx","many_one","0","direct_first","1","ck05ar29","0","26","1","1","3","1","","0","1","0","null","","","<div style=""font-size:60px;"">+</div>","null","","","","","","","","","",""
"","html-keyboard-response","152","610505","0.0-10.0-1.3","05j2327rvx","many_one","0","direct_first","1","ck05ar29","0","26","1","1","3","1","","0","1","0","null","","","<img src = 'category2/CS10.png' width = '100%;'>","null","","","","","","","","","",""
"","html-keyboard-response","153","610758","0.0-10.0-2.3","05j2327rvx","many_one","0","direct_first","1","ck05ar29","0","26","1","1","3","1","","0","1","0","null","","","<img src = 'targets/18.png' width = '100%;'>","null","","","","","","","","","",""
"","html-keyboard-response","154","611332","0.0-10.0-3.3","05j2327rvx","many_one","0","direct_first","1","ck05ar29","0","26","1","1","3","1","","0","1","0","574","","","<img src = 'targets/mask.png' width = '100%;'>","68","neg","CS","CS","2","category2/CS10.png","","targets/18.png","indirect","0","3"
"","html-keyboard-response","155","612837","0.0-10.0-0.4","05j2327rvx","many_one","0","direct_first","1","ck05ar29","0","26","1","1","3","1","","0","1","0","null","","","<div style=""font-size:60px;"">+</div>","null","","","","","","","","","",""
"","html-keyboard-response","156","612929","0.0-10.0-1.4","05j2327rvx","many_one","0","direct_first","1","ck05ar29","0","26","1","1","3","1","","0","1","0","null","","","<img src = 'category3/CS1.png' width = '100%;'>","null","","","","","","","","","",""
"","html-keyboard-response","157","613183","0.0-10.0-2.4","05j2327rvx","many_one","0","direct_first","1","ck05ar29","0","26","1","1","3","1","","0","1","0","null","","","<img src = 'targets/16.png' width = '100%;'>","null","","","","","","","","","",""
"","html-keyboard-response","158","613520","0.0-10.0-3.4","05j2327rvx","many_one","0","direct_first","1","ck05ar29","0","26","1","1","3","1","","0","1","0","336","","","<img src = 'targets/mask.png' width = '100%;'>","75","pos","CS","CS","3","category3/CS1.png","","targets/16.png","indirect","1","4"
"","html-keyboard-response","159","615025","0.0-10.0-0.5","05j2327rvx","many_one","0","direct_first","1","ck05ar29","0","26","1","1","3","1","","0","1","0","null","","","<div style=""font-size:60px;"">+</div>","null","","","","","","","","","",""
"","html-keyboard-response","160","615117","0.0-10.0-1.5","05j2327rvx","many_one","0","direct_first","1","ck05ar29","0","26","1","1","3","1","","0","1","0","null","","","<img src = 'category2/CS8.png' width = '100%;'>","null","","","","","","","","","",""
"","html-keyboard-response","161","615370","0.0-10.0-2.5","05j2327rvx","many_one","0","direct_first","1","ck05ar29","0","26","1","1","3","1","","0","1","0","null","","","<img src = 'targets/3.png' width = '100%;'>","null","","","","","","","","","",""
"","html-keyboard-response","162","615711","0.0-10.0-3.5","05j2327rvx","many_one","0","direct_first","1","ck05ar29","0","26","1","1","3","1","","0","1","0","340","","","<img src = 'targets/mask.png' width = '100%;'>","68","neg","CS","CS","2","category2/CS8.png","","targets/3.png","indirect","0","5"
"","html-keyboard-response","163","617216","0.0-10.0-0.6","05j2327rvx","many_one","0","direct_first","1","ck05ar29","0","26","1","1","3","1","","0","1","0","null","","","<div style=""font-size:60px;"">+</div>","null","","","","","","","","","",""
"","html-keyboard-response","164","617308","0.0-10.0-1.6","05j2327rvx","many_one","0","direct_first","1","ck05ar29","0","26","1","1","3","1","","0","1","0","null","","","<img src = 'category4/CS5.png' width = '100%;'>","null","","","","","","","","","",""
"","html-keyboard-response","165","617562","0.0-10.0-2.6","05j2327rvx","many_one","0","direct_first","1","ck05ar29","0","26","1","1","3","1","","0","1","0","null","","","<img src = 'targets/28.png' width = '100%;'>","null","","","","","","","","","",""
"","html-keyboard-response","166","618114","0.0-10.0-3.6","05j2327rvx","many_one","0","direct_first","1","ck05ar29","0","26","1","1","3","1","","0","1","0","551","","","<img src = 'targets/mask.png' width = '100%;'>","68","neg","CS","CS","4","category4/CS5.png","","targets/28.png","indirect","0","6"
"","html-keyboard-response","167","619617","0.0-10.0-0.7","05j2327rvx","many_one","0","direct_first","1","ck05ar29","0","26","1","1","3","1","","0","1","0","null","","","<div style=""font-size:60px;"">+</div>","null","","","","","","","","","",""
"","html-keyboard-response","168","619710","0.0-10.0-1.7","05j2327rvx","many_one","0","direct_first","1","ck05ar29","0","26","1","1","3","1","","0","1","0","null","","","<img src = 'category2/CS4.png' width = '100%;'>","null","","","","","","","","","",""
"","html-keyboard-response","169","619963","0.0-10.0-2.7","05j2327rvx","many_one","0","direct_first","1","ck05ar29","0","26","1","1","3","1","","0","1","0","null","","","<img src = 'targets/43.png' width = '100%;'>","null","","","","","","","","","",""
"","html-keyboard-response","170","620438","0.0-10.0-3.7","05j2327rvx","many_one","0","direct_first","1","ck05ar29","0","26","1","1","3","1","","0","1","0","473","","","<img src = 'targets/mask.png' width = '100%;'>","68","neg","GS","GSold","2","category2/CS4.png","","targets/43.png","indirect","0","7"
"","html-keyboard-response","171","621942","0.0-10.0-0.8","05j2327rvx","many_one","0","direct_first","1","ck05ar29","0","26","1","1","3","1","","0","1","0","null","","","<div style=""font-size:60px;"">+</div>","null","","","","","","","","","",""
"","html-keyboard-response","172","622033","0.0-10.0-1.8","05j2327rvx","many_one","0","direct_first","1","ck05ar29","0","26","1","1","3","1","","0","1","0","null","","","<img src = 'category2/CS5.png' width = '100%;'>","null","","","","","","","","","",""
"","html-keyboard-response","173","622286","0.0-10.0-2.8","05j2327rvx","many_one","0","direct_first","1","ck05ar29","0","26","1","1","3","1","","0","1","0","null","","","<img src = 'targets/22.png' width = '100%;'>","null","","","","","","","","","",""
"","html-keyboard-response","174","622808","0.0-10.0-3.8","05j2327rvx","many_one","0","direct_first","1","ck05ar29","0","26","1","1","3","1","","0","1","0","521","","","<img src = 'targets/mask.png' width = '100%;'>","68","neg","CS","CS","2","category2/CS5.png","","targets/22.png","indirect","0","8"
"","html-keyboard-response","175","624313","0.0-10.0-0.9","05j2327rvx","many_one","0","direct_first","1","ck05ar29","0","26","1","1","3","1","","0","1","0","null","","","<div style=""font-size:60px;"">+</div>","null","","","","","","","","","",""
"","html-keyboard-response","176","624405","0.0-10.0-1.9","05j2327rvx","many_one","0","direct_first","1","ck05ar29","0","26","1","1","3","1","","0","1","0","null","","","<img src = 'category2/CS2.png' width = '100%;'>","null","","","","","","","","","",""
"","html-keyboard-response","177","624660","0.0-10.0-2.9","05j2327rvx","many_one","0","direct_first","1","ck05ar29","0","26","1","1","3","1","","0","1","0","null","","","<img src = 'targets/41.png' width = '100%;'>","null","","","","","","","","","",""
"","html-keyboard-response","178","625122","0.0-10.0-3.9","05j2327rvx","many_one","0","direct_first","1","ck05ar29","0","26","1","1","3","1","","0","1","0","460","","","<img src = 'targets/mask.png' width = '100%;'>","68","neg","CS","CS","2","category2/CS2.png","","targets/41.png","indirect","0","9"
"","html-keyboard-response","179","626625","0.0-10.0-0.10","05j2327rvx","many_one","0","direct_first","1","ck05ar29","0","26","1","1","3","1","","0","1","0","null","","","<div style=""font-size:60px;"">+</div>","null","","","","","","","","","",""
"","html-keyboard-response","180","626718","0.0-10.0-1.10","05j2327rvx","many_one","0","direct_first","1","ck05ar29","0","26","1","1","3","1","","0","1","0","null","","","<img src = 'category4/CS9.png' width = '100%;'>","null","","","","","","","","","",""
"","html-keyboard-response","181","626972","0.0-10.0-2.10","05j2327rvx","many_one","0","direct_first","1","ck05ar29","0","26","1","1","3","1","","0","1","0","null","","","<img src = 'targets/38.png' width = '100%;'>","null","","","","","","","","","",""
"","html-keyboard-response","182","628641","0.0-10.0-3.10","05j2327rvx","many_one","0","direct_first","1","ck05ar29","0","26","1","1","3","1","","0","1","0","1668","","","<img src = 'targets/mask.png' width = '100%;'>","75","neg","CS","CS","4","category4/CS9.png","","targets/38.png","indirect","1","10"
"","html-keyboard-response","183","630145","0.0-10.0-0.11","05j2327rvx","many_one","0","direct_first","1","ck05ar29","0","26","1","1","3","1","","0","1","0","null","","","<div style=""font-size:60px;"">+</div>","null","","","","","","","","","",""
"","html-keyboard-response","184","630237","0.0-10.0-1.11","05j2327rvx","many_one","0","direct_first","1","ck05ar29","0","26","1","1","3","1","","0","1","0","null","","","<img src = 'category2/CS3.png' width = '100%;'>","null","","","","","","","","","",""
"","html-keyboard-response","185","630491","0.0-10.0-2.11","05j2327rvx","many_one","0","direct_first","1","ck05ar29","0","26","1","1","3","1","","0","1","0","null","","","<img src = 'targets/47.png' width = '100%;'>","null","","","","","","","","","",""
"","html-keyboard-response","186","630816","0.0-10.0-3.11","05j2327rvx","many_one","0","direct_first","1","ck05ar29","0","26","1","1","3","1","","0","1","0","324","","","<img src = 'targets/mask.png' width = '100%;'>","68","neg","GS","GSold","2","category2/CS3.png","","targets/47.png","indirect","0","11"
"","html-keyboard-response","187","632319","0.0-10.0-0.12","05j2327rvx","many_one","0","direct_first","1","ck05ar29","0","26","1","1","3","1","","0","1","0","null","","","<div style=""font-size:60px;"">+</div>","null","","","","","","","","","",""
"","html-keyboard-response","188","632411","0.0-10.0-1.12","05j2327rvx","many_one","0","direct_first","1","ck05ar29","0","26","1","1","3","1","","0","1","0","null","","","<img src = 'category1/CS5.png' width = '100%;'>","null","","","","","","","","","",""
"","html-keyboard-response","189","632665","0.0-10.0-2.12","05j2327rvx","many_one","0","direct_first","1","ck05ar29","0","26","1","1","3","1","","0","1","0","null","","","<img src = 'targets/9.png' width = '100%;'>","null","","","","","","","","","",""
"","html-keyboard-response","190","633296","0.0-10.0-3.12","05j2327rvx","many_one","0","direct_first","1","ck05ar29","0","26","1","1","3","1","","0","1","0","630","","","<img src = 'targets/mask.png' width = '100%;'>","68","pos","CS","CS","1","category1/CS5.png","","targets/9.png","indirect","0","12"
"","html-keyboard-response","191","634800","0.0-10.0-0.13","05j2327rvx","many_one","0","direct_first","1","ck05ar29","0","26","1","1","3","1","","0","1","0","null","","","<div style=""font-size:60px;"">+</div>","null","","","","","","","","","",""
"","html-keyboard-response","192","634892","0.0-10.0-1.13","05j2327rvx","many_one","0","direct_first","1","ck05ar29","0","26","1","1","3","1","","0","1","0","null","","","<img src = 'category4/CS1.png' width = '100%;'>","null","","","","","","","","","",""
"","html-keyboard-response","193","635145","0.0-10.0-2.13","05j2327rvx","many_one","0","direct_first","1","ck05ar29","0","26","1","1","3","1","","0","1","0","null","","","<img src = 'targets/35.png' width = '100%;'>","null","","","","","","","","","",""
"","html-keyboard-response","194","635511","0.0-10.0-3.13","05j2327rvx","many_one","0","direct_first","1","ck05ar29","0","26","1","1","3","1","","0","1","0","366","","","<img src = 'targets/mask.png' width = '100%;'>","68","neg","CS","CS","4","category4/CS1.png","","targets/35.png","indirect","0","13"
"","html-keyboard-response","195","637015","0.0-10.0-0.14","05j2327rvx","many_one","0","direct_first","1","ck05ar29","0","26","1","1","3","1","","0","1","0","null","","","<div style=""font-size:60px;"">+</div>","null","","","","","","","","","",""
"","html-keyboard-response","196","637107","0.0-10.0-1.14","05j2327rvx","many_one","0","direct_first","1","ck05ar29","0","26","1","1","3","1","","0","1","0","null","","","<img src = 'category1/CS8.png' width = '100%;'>","null","","","","","","","","","",""
"","html-keyboard-response","197","637361","0.0-10.0-2.14","05j2327rvx","many_one","0","direct_first","1","ck05ar29","0","26","1","1","3","1","","0","1","0","null","","","<img src = 'targets/33.png' width = '100%;'>","null","","","","","","","","","",""
"","html-keyboard-response","198","637689","0.0-10.0-3.14","05j2327rvx","many_one","0","direct_first","1","ck05ar29","0","26","1","1","3","1","","0","1","0","326","","","<img src = 'targets/mask.png' width = '100%;'>","68","pos","CS","CS","1","category1/CS8.png","","targets/33.png","indirect","0","14"
"","html-keyboard-response","199","639193","0.0-10.0-0.15","05j2327rvx","many_one","0","direct_first","1","ck05ar29","0","26","1","1","3","1","","0","1","0","null","","","<div style=""font-size:60px;"">+</div>","null","","","","","","","","","",""
"","html-keyboard-response","200","639287","0.0-10.0-1.15","05j2327rvx","many_one","0","direct_first","1","ck05ar29","0","26","1","1","3","1","","0","1","0","null","","","<img src = 'category3/CS3.png' width = '100%;'>","null","","","","","","","","","",""
"","html-keyboard-response","201","639541","0.0-10.0-2.15","05j2327rvx","many_one","0","direct_first","1","ck05ar29","0","26","1","1","3","1","","0","1","0","null","","","<img src = 'targets/31.png' width = '100%;'>","null","","","","","","","","","",""
"","html-keyboard-response","202","639897","0.0-10.0-3.15","05j2327rvx","many_one","0","direct_first","1","ck05ar29","0","26","1","1","3","1","","0","1","0","354.0000000001164","","","<img src = 'targets/mask.png' width = '100%;'>","75","pos","CS","CS","3","category3/CS3.png","","targets/31.png","indirect","1","15"
"","html-keyboard-response","203","641399","0.0-10.0-0.16","05j2327rvx","many_one","0","direct_first","1","ck05ar29","0","26","1","1","3","1","","0","1","0","null","","","<div style=""font-size:60px;"">+</div>","null","","","","","","","","","",""
"","html-keyboard-response","204","641491","0.0-10.0-1.16","05j2327rvx","many_one","0","direct_first","1","ck05ar29","0","26","1","1","3","1","","0","1","0","null","","","<img src = 'category2/CS9.png' width = '100%;'>","null","","","","","","","","","",""
"","html-keyboard-response","205","641745","0.0-10.0-2.16","05j2327rvx","many_one","0","direct_first","1","ck05ar29","0","26","1","1","3","1","","0","1","0","null","","","<img src = 'targets/21.png' width = '100%;'>","null","","","","","","","","","",""
"","html-keyboard-response","206","642268","0.0-10.0-3.16","05j2327rvx","many_one","0","direct_first","1","ck05ar29","0","26","1","1","3","1","","0","1","0","522","","","<img src = 'targets/mask.png' width = '100%;'>","68","neg","GS","GSold","2","category2/CS9.png","","targets/21.png","indirect","0","16"
"","html-keyboard-response","207","643772","0.0-10.0-0.17","05j2327rvx","many_one","0","direct_first","1","ck05ar29","0","26","1","1","3","1","","0","1","0","null","","","<div style=""font-size:60px;"">+</div>","null","","","","","","","","","",""
"","html-keyboard-response","208","643864","0.0-10.0-1.17","05j2327rvx","many_one","0","direct_first","1","ck05ar29","0","26","1","1","3","1","","0","1","0","null","","","<img src = 'category3/CS5.png' width = '100%;'>","null","","","","","","","","","",""
"","html-keyboard-response","209","644118","0.0-10.0-2.17","05j2327rvx","many_one","0","direct_first","1","ck05ar29","0","26","1","1","3","1","","0","1","0","null","","","<img src = 'targets/4.png' width = '100%;'>","null","","","","","","","","","",""
"","html-keyboard-response","210","644600","0.0-10.0-3.17","05j2327rvx","many_one","0","direct_first","1","ck05ar29","0","26","1","1","3","1","","0","1","0","481","","","<img src = 'targets/mask.png' width = '100%;'>","75","pos","CS","CS","3","category3/CS5.png","","targets/4.png","indirect","1","17"
"","html-keyboard-response","211","646105","0.0-10.0-0.18","05j2327rvx","many_one","0","direct_first","1","ck05ar29","0","26","1","1","3","1","","0","1","0","null","","","<div style=""font-size:60px;"">+</div>","null","","","","","","","","","",""
"","html-keyboard-response","212","646197","0.0-10.0-1.18","05j2327rvx","many_one","0","direct_first","1","ck05ar29","0","26","1","1","3","1","","0","1","0","null","","","<img src = 'category3/CS8.png' width = '100%;'>","null","","","","","","","","","",""
"","html-keyboard-response","213","646451","0.0-10.0-2.18","05j2327rvx","many_one","0","direct_first","1","ck05ar29","0","26","1","1","3","1","","0","1","0","null","","","<img src = 'targets/17.png' width = '100%;'>","null","","","","","","","","","",""
"","html-keyboard-response","214","646652","0.0-10.0-3.18","05j2327rvx","many_one","0","direct_first","1","ck05ar29","0","26","1","1","3","1","","0","1","0","200.00000000011642","","","<img src = 'targets/mask.png' width = '100%;'>","75","pos","CS","CS","3","category3/CS8.png","","targets/17.png","indirect","1","18"
"","html-keyboard-response","215","648155","0.0-10.0-0.19","05j2327rvx","many_one","0","direct_first","1","ck05ar29","0","26","1","1","3","1","","0","1","0","null","","","<div style=""font-size:60px;"">+</div>","null","","","","","","","","","",""
"","html-keyboard-response","216","648248","0.0-10.0-1.19","05j2327rvx","many_one","0","direct_first","1","ck05ar29","0","26","1","1","3","1","","0","1","0","null","","","<img src = 'category1/CS2.png' width = '100%;'>","null","","","","","","","","","",""
"","html-keyboard-response","217","648502","0.0-10.0-2.19","05j2327rvx","many_one","0","direct_first","1","ck05ar29","0","26","1","1","3","1","","0","1","0","null","","","<img src = 'targets/11.png' width = '100%;'>","null","","","","","","","","","",""
"","html-keyboard-response","218","649096","0.0-10.0-3.19","05j2327rvx","many_one","0","direct_first","1","ck05ar29","0","26","1","1","3","1","","0","1","0","593","","","<img src = 'targets/mask.png' width = '100%;'>","68","pos","CS","CS","1","category1/CS2.png","","targets/11.png","indirect","0","19"
"","html-keyboard-response","219","650600","0.0-10.0-0.20","05j2327rvx","many_one","0","direct_first","1","ck05ar29","0","26","1","1","3","1","","0","1","0","null","","","<div style=""font-size:60px;"">+</div>","null","","","","","","","","","",""
"","html-keyboard-response","220","650692","0.0-10.0-1.20","05j2327rvx","many_one","0","direct_first","1","ck05ar29","0","26","1","1","3","1","","0","1","0","null","","","<img src = 'category1/CS3.png' width = '100%;'>","null","","","","","","","","","",""
"","html-keyboard-response","221","650946","0.0-10.0-2.20","05j2327rvx","many_one","0","direct_first","1","ck05ar29","0","26","1","1","3","1","","0","1","0","null","","","<img src = 'targets/20.png' width = '100%;'>","null","","","","","","","","","",""
"","html-keyboard-response","222","652426","0.0-10.0-3.20","05j2327rvx","many_one","0","direct_first","1","ck05ar29","0","26","1","1","3","1","","0","1","0","1479.0000000001164","","","<img src = 'targets/mask.png' width = '100%;'>","75","pos","CS","CS","1","category1/CS3.png","","targets/20.png","indirect","1","20"
"","html-keyboard-response","223","653930","0.0-10.0-0.21","05j2327rvx","many_one","0","direct_first","1","ck05ar29","0","26","1","1","3","1","","0","1","0","null","","","<div style=""font-size:60px;"">+</div>","null","","","","","","","","","",""
"","html-keyboard-response","224","654023","0.0-10.0-1.21","05j2327rvx","many_one","0","direct_first","1","ck05ar29","0","26","1","1","3","1","","0","1","0","null","","","<img src = 'category4/CS2.png' width = '100%;'>","null","","","","","","","","","",""
"","html-keyboard-response","225","654276","0.0-10.0-2.21","05j2327rvx","many_one","0","direct_first","1","ck05ar29","0","26","1","1","3","1","","0","1","0","null","","","<img src = 'targets/25.png' width = '100%;'>","null","","","","","","","","","",""
"","html-keyboard-response","226","654617","0.0-10.0-3.21","05j2327rvx","many_one","0","direct_first","1","ck05ar29","0","26","1","1","3","1","","0","1","0","338.9999999998836","","","<img src = 'targets/mask.png' width = '100%;'>","68","neg","CS","CS","4","category4/CS2.png","","targets/25.png","indirect","0","21"
"","html-keyboard-response","227","656121","0.0-10.0-0.22","05j2327rvx","many_one","0","direct_first","1","ck05ar29","0","26","1","1","3","1","","0","1","0","null","","","<div style=""font-size:60px;"">+</div>","null","","","","","","","","","",""
"","html-keyboard-response","228","656213","0.0-10.0-1.22","05j2327rvx","many_one","0","direct_first","1","ck05ar29","0","26","1","1","3","1","","0","1","0","null","","","<img src = 'category3/CS2.png' width = '100%;'>","null","","","","","","","","","",""
"","html-keyboard-response","229","656467","0.0-10.0-2.22","05j2327rvx","many_one","0","direct_first","1","ck05ar29","0","26","1","1","3","1","","0","1","0","null","","","<img src = 'targets/6.png' width = '100%;'>","null","","","","","","","","","",""
"","html-keyboard-response","230","656939","0.0-10.0-3.22","05j2327rvx","many_one","0","direct_first","1","ck05ar29","0","26","1","1","3","1","","0","1","0","470","","","<img src = 'targets/mask.png' width = '100%;'>","75","pos","CS","CS","3","category3/CS2.png","","targets/6.png","indirect","1","22"
"","html-keyboard-response","231","658443","0.0-10.0-0.23","05j2327rvx","many_one","0","direct_first","1","ck05ar29","0","26","1","1","3","1","","0","1","0","null","","","<div style=""font-size:60px;"">+</div>","null","","","","","","","","","",""
"","html-keyboard-response","232","658537","0.0-10.0-1.23","05j2327rvx","many_one","0","direct_first","1","ck05ar29","0","26","1","1","3","1","","0","1","0","null","","","<img src = 'category4/CS10.png' width = '100%;'>","null","","","","","","","","","",""
"","html-keyboard-response","233","658791","0.0-10.0-2.23","05j2327rvx","many_one","0","direct_first","1","ck05ar29","0","26","1","1","3","1","","0","1","0","null","","","<img src = 'targets/40.png' width = '100%;'>","null","","","","","","","","","",""
"","html-keyboard-response","234","659097","0.0-10.0-3.23","05j2327rvx","many_one","0","direct_first","1","ck05ar29","0","26","1","1","3","1","","0","1","0","305","","","<img src = 'targets/mask.png' width = '100%;'>","68","neg","CS","CS","4","category4/CS10.png","","targets/40.png","indirect","0","23"
"","survey-html-form","235","664035","0.0-11.0","05j2327rvx","many_one","0","direct_first","1","ck05ar29","0","26","1","1","3","1","","0","1","0","4434","","{}","","","","","","","","","","","",""
"","html-keyboard-response","236","667038","0.0-12.0-0.0","05j2327rvx","many_one","0","direct_first","1","ck05ar29","0","26","1","1","3","1","","0","1","0","null","","","<div style=""font-size:60px;"">+</div>","null","","","","","","","","","",""
"","html-keyboard-response","237","667130","0.0-12.0-1.0","05j2327rvx","many_one","0","direct_first","1","ck05ar29","0","26","1","1","3","1","","0","1","0","null","","","<img src = 'category3/GS3.png' width = '100%;'>","null","","","","","","","","","",""
"","html-keyboard-response","238","667385","0.0-12.0-2.0","05j2327rvx","many_one","0","direct_first","1","ck05ar29","0","26","1","1","3","1","","0","1","0","null","","","<img src = 'targets/15.png' width = '100%;'>","null","","","","","","","","","",""
"","html-keyboard-response","239","669431","0.0-12.0-3.0","05j2327rvx","many_one","0","direct_first","1","ck05ar29","0","26","1","1","3","1","","0","1","0","2046","","","<img src = 'targets/mask.png' width = '100%;'>","68","pos","GS","GSnew","3","category3/GS3.png","","targets/15.png","indirect","0","24"
"","html-keyboard-response","240","670935","0.0-12.0-0.1","05j2327rvx","many_one","0","direct_first","1","ck05ar29","0","26","1","1","3","1","","0","1","0","null","","","<div style=""font-size:60px;"">+</div>","null","","","","","","","","","",""
"","html-keyboard-response","241","671028","0.0-12.0-1.1","05j2327rvx","many_one","0","direct_first","1","ck05ar29","0","26","1","1","3","1","","0","1","0","null","","","<img src = 'category4/CS6.png' width = '100%;'>","null","","","","","","","","","",""
"","html-keyboard-response","242","671281","0.0-12.0-2.1","05j2327rvx","many_one","0","direct_first","1","ck05ar29","0","26","1","1","3","1","","0","1","0","null","","","<img src = 'targets/32.png' width = '100%;'>","null","","","","","","","","","",""
"","html-keyboard-response","243","671456","0.0-12.0-3.1","05j2327rvx","many_one","0","direct_first","1","ck05ar29","0","26","1","1","3","1","","0","1","0","174","","","<img src = 'targets/mask.png' width = '100%;'>","68","neg","GS","GSold","4","category4/CS6.png","","targets/32.png","indirect","0","25"
"","html-keyboard-response","244","672960","0.0-12.0-0.2","05j2327rvx","many_one","0","direct_first","1","ck05ar29","0","26","1","1","3","1","","0","1","0","null","","","<div style=""font-size:60px;"">+</div>","null","","","","","","","","","",""
"","html-keyboard-response","245","673052","0.0-12.0-1.2","05j2327rvx","many_one","0","direct_first","1","ck05ar29","0","26","1","1","3","1","","0","1","0","null","","","<img src = 'category4/GS3.png' width = '100%;'>","null","","","","","","","","","",""
"","html-keyboard-response","246","673306","0.0-12.0-2.2","05j2327rvx","many_one","0","direct_first","1","ck05ar29","0","26","1","1","3","1","","0","1","0","null","","","<img src = 'targets/7.png' width = '100%;'>","null","","","","","","","","","",""
"","html-keyboard-response","247","673624","0.0-12.0-3.2","05j2327rvx","many_one","0","direct_first","1","ck05ar29","0","26","1","1","3","1","","0","1","0","318","","","<img src = 'targets/mask.png' width = '100%;'>","68","neg","GS","GSnew","4","category4/GS3.png","","targets/7.png","indirect","0","26"
"","html-keyboard-response","248","675129","0.0-12.0-0.3","05j2327rvx","many_one","0","direct_first","1","ck05ar29","0","26","1","1","3","1","","0","1","0","null","","","<div style=""font-size:60px;"">+</div>","null","","","","","","","","","",""
"","html-keyboard-response","249","675221","0.0-12.0-1.3","05j2327rvx","many_one","0","direct_first","1","ck05ar29","0","26","1","1","3","1","","0","1","0","null","","","<img src = 'category4/GS1.png' width = '100%;'>","null","","","","","","","","","",""
"","html-keyboard-response","250","675475","0.0-12.0-2.3","05j2327rvx","many_one","0","direct_first","1","ck05ar29","0","26","1","1","3","1","","0","1","0","null","","","<img src = 'targets/13.png' width = '100%;'>","null","","","","","","","","","",""
"","html-keyboard-response","251","675623","0.0-12.0-3.3","05j2327rvx","many_one","0","direct_first","1","ck05ar29","0","26","1","1","3","1","","0","1","0","148.00000000011642","","","<img src = 'targets/mask.png' width = '100%;'>","68","neg","GS","GSnew","4","category4/GS1.png","","targets/13.png","indirect","0","27"
"","html-keyboard-response","252","677128","0.0-12.0-0.4","05j2327rvx","many_one","0","direct_first","1","ck05ar29","0","26","1","1","3","1","","0","1","0","null","","","<div style=""font-size:60px;"">+</div>","null","","","","","","","","","",""
"","html-keyboard-response","253","677220","0.0-12.0-1.4","05j2327rvx","many_one","0","direct_first","1","ck05ar29","0","26","1","1","3","1","","0","1","0","null","","","<img src = 'category3/GS2.png' width = '100%;'>","null","","","","","","","","","",""
"","html-keyboard-response","254","677474","0.0-12.0-2.4","05j2327rvx","many_one","0","direct_first","1","ck05ar29","0","26","1","1","3","1","","0","1","0","null","","","<img src = 'targets/19.png' width = '100%;'>","null","","","","","","","","","",""
"","html-keyboard-response","255","677955","0.0-12.0-3.4","05j2327rvx","many_one","0","direct_first","1","ck05ar29","0","26","1","1","3","1","","0","1","0","479","","","<img src = 'targets/mask.png' width = '100%;'>","68","pos","GS","GSnew","3","category3/GS2.png","","targets/19.png","indirect","0","28"
"","html-keyboard-response","256","679460","0.0-12.0-0.5","05j2327rvx","many_one","0","direct_first","1","ck05ar29","0","26","1","1","3","1","","0","1","0","null","","","<div style=""font-size:60px;"">+</div>","null","","","","","","","","","",""
"","html-keyboard-response","257","679553","0.0-12.0-1.5","05j2327rvx","many_one","0","direct_first","1","ck05ar29","0","26","1","1","3","1","","0","1","0","null","","","<img src = 'category2/men.png' width = '100%;'>","null","","","","","","","","","",""
"","html-keyboard-response","258","679806","0.0-12.0-2.5","05j2327rvx","many_one","0","direct_first","1","ck05ar29","0","26","1","1","3","1","","0","1","0","null","","","<img src = 'targets/8.png' width = '100%;'>","null","","","","","","","","","",""
"","html-keyboard-response","259","679934","0.0-12.0-3.5","05j2327rvx","many_one","0","direct_first","1","ck05ar29","0","26","1","1","3","1","","0","1","0","127","","","<img src = 'targets/mask.png' width = '100%;'>","68","neg","GS","abstract","2","category2/men.png","","targets/8.png","indirect","0","29"
"","html-keyboard-response","260","681438","0.0-12.0-0.6","05j2327rvx","many_one","0","direct_first","1","ck05ar29","0","26","1","1","3","1","","0","1","0","null","","","<div style=""font-size:60px;"">+</div>","null","","","","","","","","","",""
"","html-keyboard-response","261","681531","0.0-12.0-1.6","05j2327rvx","many_one","0","direct_first","1","ck05ar29","0","26","1","1","3","1","","0","1","0","null","","","<img src = 'category1/GS1.png' width = '100%;'>","null","","","","","","","","","",""
"","html-keyboard-response","262","681784","0.0-12.0-2.6","05j2327rvx","many_one","0","direct_first","1","ck05ar29","0","26","1","1","3","1","","0","1","0","null","","","<img src = 'targets/2.png' width = '100%;'>","null","","","","","","","","","",""
"","html-keyboard-response","263","681956","0.0-12.0-3.6","05j2327rvx","many_one","0","direct_first","1","ck05ar29","0","26","1","1","3","1","","0","1","0","171","","","<img src = 'targets/mask.png' width = '100%;'>","68","pos","GS","GSnew","1","category1/GS1.png","","targets/2.png","indirect","0","30"
"","html-keyboard-response","264","683460","0.0-12.0-0.7","05j2327rvx","many_one","0","direct_first","1","ck05ar29","0","26","1","1","3","1","","0","1","0","null","","","<div style=""font-size:60px;"">+</div>","null","","","","","","","","","",""
"","html-keyboard-response","265","683552","0.0-12.0-1.7","05j2327rvx","many_one","0","direct_first","1","ck05ar29","0","26","1","1","3","1","","0","1","0","null","","","<img src = 'category4/lin.png' width = '100%;'>","null","","","","","","","","","",""
"","html-keyboard-response","266","683806","0.0-12.0-2.7","05j2327rvx","many_one","0","direct_first","1","ck05ar29","0","26","1","1","3","1","","0","1","0","null","","","<img src = 'targets/23.png' width = '100%;'>","null","","","","","","","","","",""
"","html-keyboard-response","267","683912","0.0-12.0-3.7","05j2327rvx","many_one","0","direct_first","1","ck05ar29","0","26","1","1","3","1","","0","1","0","104","","","<img src = 'targets/mask.png' width = '100%;'>","68","neg","GS","abstract","4","category4/lin.png","","targets/23.png","indirect","0","31"
"","html-keyboard-response","268","685416","0.0-12.0-0.8","05j2327rvx","many_one","0","direct_first","1","ck05ar29","0","26","1","1","3","1","","0","1","0","null","","","<div style=""font-size:60px;"">+</div>","null","","","","","","","","","",""
"","html-keyboard-response","269","685508","0.0-12.0-1.8","05j2327rvx","many_one","0","direct_first","1","ck05ar29","0","26","1","1","3","1","","0","1","0","null","","","<img src = 'category2/GS2.png' width = '100%;'>","null","","","","","","","","","",""
"","html-keyboard-response","270","685762","0.0-12.0-2.8","05j2327rvx","many_one","0","direct_first","1","ck05ar29","0","26","1","1","3","1","","0","1","0","null","","","<img src = 'targets/46.png' width = '100%;'>","null","","","","","","","","","",""
"","html-keyboard-response","271","686783","0.0-12.0-3.8","05j2327rvx","many_one","0","direct_first","1","ck05ar29","0","26","1","1","3","1","","0","1","0","1020","","","<img src = 'targets/mask.png' width = '100%;'>","68","neg","GS","GSnew","2","category2/GS2.png","","targets/46.png","indirect","0","32"
"","html-keyboard-response","272","688287","0.0-12.0-0.9","05j2327rvx","many_one","0","direct_first","1","ck05ar29","0","26","1","1","3","1","","0","1","0","null","","","<div style=""font-size:60px;"">+</div>","null","","","","","","","","","",""
"","html-keyboard-response","273","688378","0.0-12.0-1.9","05j2327rvx","many_one","0","direct_first","1","ck05ar29","0","26","1","1","3","1","","0","1","0","null","","","<img src = 'category3/CS4.png' width = '100%;'>","null","","","","","","","","","",""
"","html-keyboard-response","274","688632","0.0-12.0-2.9","05j2327rvx","many_one","0","direct_first","1","ck05ar29","0","26","1","1","3","1","","0","1","0","null","","","<img src = 'targets/39.png' width = '100%;'>","null","","","","","","","","","",""
"","html-keyboard-response","275","689223","0.0-12.0-3.9","05j2327rvx","many_one","0","direct_first","1","ck05ar29","0","26","1","1","3","1","","0","1","0","591","","","<img src = 'targets/mask.png' width = '100%;'>","75","pos","GS","GSold","3","category3/CS4.png","","targets/39.png","indirect","1","33"
"","html-keyboard-response","276","690728","0.0-12.0-0.10","05j2327rvx","many_one","0","direct_first","1","ck05ar29","0","26","1","1","3","1","","0","1","0","null","","","<div style=""font-size:60px;"">+</div>","null","","","","","","","","","",""
"","html-keyboard-response","277","690820","0.0-12.0-1.10","05j2327rvx","many_one","0","direct_first","1","ck05ar29","0","26","1","1","3","1","","0","1","0","null","","","<img src = 'category4/CS8.png' width = '100%;'>","null","","","","","","","","","",""
"","html-keyboard-response","278","691072","0.0-12.0-2.10","05j2327rvx","many_one","0","direct_first","1","ck05ar29","0","26","1","1","3","1","","0","1","0","null","","","<img src = 'targets/12.png' width = '100%;'>","null","","","","","","","","","",""
"","html-keyboard-response","279","691358","0.0-12.0-3.10","05j2327rvx","many_one","0","direct_first","1","ck05ar29","0","26","1","1","3","1","","0","1","0","285","","","<img src = 'targets/mask.png' width = '100%;'>","68","neg","GS","GSold","4","category4/CS8.png","","targets/12.png","indirect","0","34"
"","html-keyboard-response","280","692862","0.0-12.0-0.11","05j2327rvx","many_one","0","direct_first","1","ck05ar29","0","26","1","1","3","1","","0","1","0","null","","","<div style=""font-size:60px;"">+</div>","null","","","","","","","","","",""
"","html-keyboard-response","281","692955","0.0-12.0-1.11","05j2327rvx","many_one","0","direct_first","1","ck05ar29","0","26","1","1","3","1","","0","1","0","null","","","<img src = 'category1/CS1.png' width = '100%;'>","null","","","","","","","","","",""
"","html-keyboard-response","282","693209","0.0-12.0-2.11","05j2327rvx","many_one","0","direct_first","1","ck05ar29","0","26","1","1","3","1","","0","1","0","null","","","<img src = 'targets/1.png' width = '100%;'>","null","","","","","","","","","",""
"","html-keyboard-response","283","693286","0.0-12.0-3.11","05j2327rvx","many_one","0","direct_first","1","ck05ar29","0","26","1","1","3","1","","0","1","0","75","","","<img src = 'targets/mask.png' width = '100%;'>","68","pos","GS","GSold","1","category1/CS1.png","","targets/1.png","indirect","0","35"
"","html-keyboard-response","284","694790","0.0-12.0-0.12","05j2327rvx","many_one","0","direct_first","1","ck05ar29","0","26","1","1","3","1","","0","1","0","null","","","<div style=""font-size:60px;"">+</div>","null","","","","","","","","","",""
"","html-keyboard-response","285","694883","0.0-12.0-1.12","05j2327rvx","many_one","0","direct_first","1","ck05ar29","0","26","1","1","3","1","","0","1","0","null","","","<img src = 'category3/wang.png' width = '100%;'>","null","","","","","","","","","",""
"","html-keyboard-response","286","695137","0.0-12.0-2.12","05j2327rvx","many_one","0","direct_first","1","ck05ar29","0","26","1","1","3","1","","0","1","0","null","","","<img src = 'targets/24.png' width = '100%;'>","null","","","","","","","","","",""
"","html-keyboard-response","287","695404","0.0-12.0-3.12","05j2327rvx","many_one","0","direct_first","1","ck05ar29","0","26","1","1","3","1","","0","1","0","266","","","<img src = 'targets/mask.png' width = '100%;'>","75","pos","GS","abstract","3","category3/wang.png","","targets/24.png","indirect","1","36"
"","html-keyboard-response","288","696908","0.0-12.0-0.13","05j2327rvx","many_one","0","direct_first","1","ck05ar29","0","26","1","1","3","1","","0","1","0","null","","","<div style=""font-size:60px;"">+</div>","null","","","","","","","","","",""
"","html-keyboard-response","289","696999","0.0-12.0-1.13","05j2327rvx","many_one","0","direct_first","1","ck05ar29","0","26","1","1","3","1","","0","1","0","null","","","<img src = 'category1/CS9.png' width = '100%;'>","null","","","","","","","","","",""
"","html-keyboard-response","290","697252","0.0-12.0-2.13","05j2327rvx","many_one","0","direct_first","1","ck05ar29","0","26","1","1","3","1","","0","1","0","null","","","<img src = 'targets/42.png' width = '100%;'>","null","","","","","","","","","",""
"","html-keyboard-response","291","697492","0.0-12.0-3.13","05j2327rvx","many_one","0","direct_first","1","ck05ar29","0","26","1","1","3","1","","0","1","0","239","","","<img src = 'targets/mask.png' width = '100%;'>","68","pos","GS","GSold","1","category1/CS9.png","","targets/42.png","indirect","0","37"
"","html-keyboard-response","292","698997","0.0-12.0-0.14","05j2327rvx","many_one","0","direct_first","1","ck05ar29","0","26","1","1","3","1","","0","1","0","null","","","<div style=""font-size:60px;"">+</div>","null","","","","","","","","","",""
"","html-keyboard-response","293","699089","0.0-12.0-1.14","05j2327rvx","many_one","0","direct_first","1","ck05ar29","0","26","1","1","3","1","","0","1","0","null","","","<img src = 'category1/GS2.png' width = '100%;'>","null","","","","","","","","","",""
"","html-keyboard-response","294","699343","0.0-12.0-2.14","05j2327rvx","many_one","0","direct_first","1","ck05ar29","0","26","1","1","3","1","","0","1","0","null","","","<img src = 'targets/26.png' width = '100%;'>","null","","","","","","","","","",""
"","html-keyboard-response","295","699604","0.0-12.0-3.14","05j2327rvx","many_one","0","direct_first","1","ck05ar29","0","26","1","1","3","1","","0","1","0","260","","","<img src = 'targets/mask.png' width = '100%;'>","68","pos","GS","GSnew","1","category1/GS2.png","","targets/26.png","indirect","0","38"
"","html-keyboard-response","296","701108","0.0-12.0-0.15","05j2327rvx","many_one","0","direct_first","1","ck05ar29","0","26","1","1","3","1","","0","1","0","null","","","<div style=""font-size:60px;"">+</div>","null","","","","","","","","","",""
"","html-keyboard-response","297","701200","0.0-12.0-1.15","05j2327rvx","many_one","0","direct_first","1","ck05ar29","0","26","1","1","3","1","","0","1","0","null","","","<img src = 'category2/GS1.png' width = '100%;'>","null","","","","","","","","","",""
"","html-keyboard-response","298","701454","0.0-12.0-2.15","05j2327rvx","many_one","0","direct_first","1","ck05ar29","0","26","1","1","3","1","","0","1","0","null","","","<img src = 'targets/45.png' width = '100%;'>","null","","","","","","","","","",""
"","html-keyboard-response","299","701530","0.0-12.0-3.15","05j2327rvx","many_one","0","direct_first","1","ck05ar29","0","26","1","1","3","1","","0","1","0","75","","","<img src = 'targets/mask.png' width = '100%;'>","68","neg","GS","GSnew","2","category2/GS1.png","","targets/45.png","indirect","0","39"
"","html-keyboard-response","300","703034","0.0-12.0-0.16","05j2327rvx","many_one","0","direct_first","1","ck05ar29","0","26","1","1","3","1","","0","1","0","null","","","<div style=""font-size:60px;"">+</div>","null","","","","","","","","","",""
"","html-keyboard-response","301","703127","0.0-12.0-1.16","05j2327rvx","many_one","0","direct_first","1","ck05ar29","0","26","1","1","3","1","","0","1","0","null","","","<img src = 'category3/GS1.png' width = '100%;'>","null","","","","","","","","","",""
"","html-keyboard-response","302","703380","0.0-12.0-2.16","05j2327rvx","many_one","0","direct_first","1","ck05ar29","0","26","1","1","3","1","","0","1","0","null","","","<img src = 'targets/10.png' width = '100%;'>","null","","","","","","","","","",""
"","html-keyboard-response","303","703530","0.0-12.0-3.16","05j2327rvx","many_one","0","direct_first","1","ck05ar29","0","26","1","1","3","1","","0","1","0","148","","","<img src = 'targets/mask.png' width = '100%;'>","68","pos","GS","GSnew","3","category3/GS1.png","","targets/10.png","indirect","0","40"
"","html-keyboard-response","304","705033","0.0-12.0-0.17","05j2327rvx","many_one","0","direct_first","1","ck05ar29","0","26","1","1","3","1","","0","1","0","null","","","<div style=""font-size:60px;"">+</div>","null","","","","","","","","","",""
"","html-keyboard-response","305","705125","0.0-12.0-1.17","05j2327rvx","many_one","0","direct_first","1","ck05ar29","0","26","1","1","3","1","","0","1","0","null","","","<img src = 'category1/CS4.png' width = '100%;'>","null","","","","","","","","","",""
"","html-keyboard-response","306","705379","0.0-12.0-2.17","05j2327rvx","many_one","0","direct_first","1","ck05ar29","0","26","1","1","3","1","","0","1","0","null","","","<img src = 'targets/36.png' width = '100%;'>","null","","","","","","","","","",""
"","html-keyboard-response","307","705596","0.0-12.0-3.17","05j2327rvx","many_one","0","direct_first","1","ck05ar29","0","26","1","1","3","1","","0","1","0","217","","","<img src = 'targets/mask.png' width = '100%;'>","68","pos","GS","GSold","1","category1/CS4.png","","targets/36.png","indirect","0","41"
"","html-keyboard-response","308","707100","0.0-12.0-0.18","05j2327rvx","many_one","0","direct_first","1","ck05ar29","0","26","1","1","3","1","","0","1","0","null","","","<div style=""font-size:60px;"">+</div>","null","","","","","","","","","",""
"","html-keyboard-response","309","707192","0.0-12.0-1.18","05j2327rvx","many_one","0","direct_first","1","ck05ar29","0","26","1","1","3","1","","0","1","0","null","","","<img src = 'category4/GS2.png' width = '100%;'>","null","","","","","","","","","",""
"","html-keyboard-response","310","707447","0.0-12.0-2.18","05j2327rvx","many_one","0","direct_first","1","ck05ar29","0","26","1","1","3","1","","0","1","0","null","","","<img src = 'targets/48.png' width = '100%;'>","null","","","","","","","","","",""
"","html-keyboard-response","311","708060","0.0-12.0-3.18","05j2327rvx","many_one","0","direct_first","1","ck05ar29","0","26","1","1","3","1","","0","1","0","611","","","<img src = 'targets/mask.png' width = '100%;'>","68","neg","GS","GSnew","4","category4/GS2.png","","targets/48.png","indirect","0","42"
"","html-keyboard-response","312","709565","0.0-12.0-0.19","05j2327rvx","many_one","0","direct_first","1","ck05ar29","0","26","1","1","3","1","","0","1","0","null","","","<div style=""font-size:60px;"">+</div>","null","","","","","","","","","",""
"","html-keyboard-response","313","709657","0.0-12.0-1.19","05j2327rvx","many_one","0","direct_first","1","ck05ar29","0","26","1","1","3","1","","0","1","0","null","","","<img src = 'category4/CS3.png' width = '100%;'>","null","","","","","","","","","",""
"","html-keyboard-response","314","709911","0.0-12.0-2.19","05j2327rvx","many_one","0","direct_first","1","ck05ar29","0","26","1","1","3","1","","0","1","0","null","","","<img src = 'targets/34.png' width = '100%;'>","null","","","","","","","","","",""
"","html-keyboard-response","315","710026","0.0-12.0-3.19","05j2327rvx","many_one","0","direct_first","1","ck05ar29","0","26","1","1","3","1","","0","1","0","113","","","<img src = 'targets/mask.png' width = '100%;'>","68","neg","GS","GSold","4","category4/CS3.png","","targets/34.png","indirect","0","43"
"","html-keyboard-response","316","711530","0.0-12.0-0.20","05j2327rvx","many_one","0","direct_first","1","ck05ar29","0","26","1","1","3","1","","0","1","0","null","","","<div style=""font-size:60px;"">+</div>","null","","","","","","","","","",""
"","html-keyboard-response","317","711622","0.0-12.0-1.20","05j2327rvx","many_one","0","direct_first","1","ck05ar29","0","26","1","1","3","1","","0","1","0","null","","","<img src = 'category2/GS3.png' width = '100%;'>","null","","","","","","","","","",""
"","html-keyboard-response","318","711876","0.0-12.0-2.20","05j2327rvx","many_one","0","direct_first","1","ck05ar29","0","26","1","1","3","1","","0","1","0","null","","","<img src = 'targets/30.png' width = '100%;'>","null","","","","","","","","","",""
"","html-keyboard-response","319","712425","0.0-12.0-3.20","05j2327rvx","many_one","0","direct_first","1","ck05ar29","0","26","1","1","3","1","","0","1","0","547","","","<img src = 'targets/mask.png' width = '100%;'>","68","neg","GS","GSnew","2","category2/GS3.png","","targets/30.png","indirect","0","44"
"","html-keyboard-response","320","713928","0.0-12.0-0.21","05j2327rvx","many_one","0","direct_first","1","ck05ar29","0","26","1","1","3","1","","0","1","0","null","","","<div style=""font-size:60px;"">+</div>","null","","","","","","","","","",""
"","html-keyboard-response","321","714021","0.0-12.0-1.21","05j2327rvx","many_one","0","direct_first","1","ck05ar29","0","26","1","1","3","1","","0","1","0","null","","","<img src = 'category1/ma.png' width = '100%;'>","null","","","","","","","","","",""
"","html-keyboard-response","322","714275","0.0-12.0-2.21","05j2327rvx","many_one","0","direct_first","1","ck05ar29","0","26","1","1","3","1","","0","1","0","null","","","<img src = 'targets/29.png' width = '100%;'>","null","","","","","","","","","",""
"","html-keyboard-response","323","714560","0.0-12.0-3.21","05j2327rvx","many_one","0","direct_first","1","ck05ar29","0","26","1","1","3","1","","0","1","0","284","","","<img src = 'targets/mask.png' width = '100%;'>","68","pos","GS","abstract","1","category1/ma.png","","targets/29.png","indirect","0","45"
"","html-keyboard-response","324","716064","0.0-12.0-0.22","05j2327rvx","many_one","0","direct_first","1","ck05ar29","0","26","1","1","3","1","","0","1","0","null","","","<div style=""font-size:60px;"">+</div>","null","","","","","","","","","",""
"","html-keyboard-response","325","716156","0.0-12.0-1.22","05j2327rvx","many_one","0","direct_first","1","ck05ar29","0","26","1","1","3","1","","0","1","0","null","","","<img src = 'category1/GS3.png' width = '100%;'>","null","","","","","","","","","",""
"","html-keyboard-response","326","716410","0.0-12.0-2.22","05j2327rvx","many_one","0","direct_first","1","ck05ar29","0","26","1","1","3","1","","0","1","0","null","","","<img src = 'targets/44.png' width = '100%;'>","null","","","","","","","","","",""
"","html-keyboard-response","327","716473","0.0-12.0-3.22","05j2327rvx","many_one","0","direct_first","1","ck05ar29","0","26","1","1","3","1","","0","1","0","62","","","<img src = 'targets/mask.png' width = '100%;'>","68","pos","GS","GSnew","1","category1/GS3.png","","targets/44.png","indirect","0","46"
"","html-keyboard-response","328","717977","0.0-12.0-0.23","05j2327rvx","many_one","0","direct_first","1","ck05ar29","0","26","1","1","3","1","","0","1","0","null","","","<div style=""font-size:60px;"">+</div>","null","","","","","","","","","",""
"","html-keyboard-response","329","718068","0.0-12.0-1.23","05j2327rvx","many_one","0","direct_first","1","ck05ar29","0","26","1","1","3","1","","0","1","0","null","","","<img src = 'category3/CS9.png' width = '100%;'>","null","","","","","","","","","",""
"","html-keyboard-response","330","718322","0.0-12.0-2.23","05j2327rvx","many_one","0","direct_first","1","ck05ar29","0","26","1","1","3","1","","0","1","0","null","","","<img src = 'targets/37.png' width = '100%;'>","null","","","","","","","","","",""
"","html-keyboard-response","331","718861","0.0-12.0-3.23","05j2327rvx","many_one","0","direct_first","1","ck05ar29","0","26","1","1","3","1","","0","1","0","538","","","<img src = 'targets/mask.png' width = '100%;'>","75","pos","GS","GSold","3","category3/CS9.png","","targets/37.png","indirect","1","47"
