"success","trial_type","trial_index","time_elapsed","internal_node_id","subject","condition","condition_code","measure","measure_code","codeword","gender","age","education","chinese","fach","handedness","rt","url","responses","stimulus","key_press","val","type","type_specific","category","cs_selected","target","indirect","task","nr_pres","response"
"true","fullscreen","0","59168","0.0-0.0","byep0at443","one_one","1","indirect_first","0","ch03er21","0","18","1","1","3","1","","","","","","","","","","","","","","",""
"","external-html","1","66565","0.0-1.0","byep0at443","one_one","1","indirect_first","0","ch03er21","0","18","1","1","3","1","7388","text/information.html","","","","","","","","","","","","",""
"","external-html","2","72532","0.0-2.0","byep0at443","one_one","1","indirect_first","0","ch03er21","0","18","1","1","3","1","5962","text/consent.html","","","","","","","","","","","","",""
"","survey-html-form","3","135003","0.0-3.0","byep0at443","one_one","1","indirect_first","0","ch03er21","0","18","1","1","3","1","62470","","{""codeword_enter"":""ch03er21""}","","","","","","","","","","","",""
"","survey-html-form","4","161341","0.0-4.0","byep0at443","one_one","1","indirect_first","0","ch03er21","0","18","1","1","3","1","26336","","{""age"":""18"",""education"":""1"",""subject"":""3"",""gender"":""0"",""handedness"":""1"",""chinese"":""1""}","","","","","","","","","","","",""
"","survey-html-form","5","185692","0.0-5.0","byep0at443","one_one","1","indirect_first","0","ch03er21","0","18","1","1","3","1","24350","","{}","","","","","","","","","","","",""
"","html-keyboard-response","6","189729","0.0-6.0-0.0-0.0","byep0at443","one_one","1","indirect_first","0","ch03er21","0","18","1","1","3","1","null","","","<div class = 'row'><div class = 'column'><img src = 'category2/CS1.png' width = '70%;'></div><div class = 'column'><img src = 'uspos/2340.bmp' width = '100%;'></div></div>","null","pos","CS","CS","2","category2/CS1.png","","","","",""
"","html-keyboard-response","7","192267","0.0-6.0-0.0-0.1","byep0at443","one_one","1","indirect_first","0","ch03er21","0","18","1","1","3","1","null","","","<div class = 'row'><div class = 'column'><img src = 'usneg/9435.bmp' width = '100%;'></div><div class = 'column'><img src = 'category3/CS2.png' width = '70%;'></div></div>","null","neg","CS","CS","3","category3/CS2.png","","","","",""
"","html-keyboard-response","8","194808","0.0-6.0-0.0-0.2","byep0at443","one_one","1","indirect_first","0","ch03er21","0","18","1","1","3","1","null","","","<div class = 'row'><div class = 'column'><img src = 'category4/CS1.png' width = '70%;'></div><div class = 'column'><img src = 'uspos/1460.bmp' width = '100%;'></div></div>","null","pos","CS","CS","4","category4/CS1.png","","","","",""
"","html-keyboard-response","9","197347","0.0-6.0-0.0-0.3","byep0at443","one_one","1","indirect_first","0","ch03er21","0","18","1","1","3","1","null","","","<div class = 'row'><div class = 'column'><img src = 'category1/CS9.png' width = '70%;'></div><div class = 'column'><img src = 'usneg/9280.bmp' width = '100%;'></div></div>","null","neg","CS","CS","1","category1/CS9.png","","","","",""
"","html-keyboard-response","10","199887","0.0-6.0-0.0-0.4","byep0at443","one_one","1","indirect_first","0","ch03er21","0","18","1","1","3","1","null","","","<div class = 'row'><div class = 'column'><img src = 'uspos/1460.bmp' width = '100%;'></div><div class = 'column'><img src = 'category4/CS1.png' width = '70%;'></div></div>","null","pos","CS","CS","4","category4/CS1.png","","","","",""
"","html-keyboard-response","11","202427","0.0-6.0-0.0-0.5","byep0at443","one_one","1","indirect_first","0","ch03er21","0","18","1","1","3","1","null","","","<div class = 'row'><div class = 'column'><img src = 'usneg/9280.bmp' width = '100%;'></div><div class = 'column'><img src = 'category1/CS9.png' width = '70%;'></div></div>","null","neg","CS","CS","1","category1/CS9.png","","","","",""
"","html-keyboard-response","12","204967","0.0-6.0-0.0-0.6","byep0at443","one_one","1","indirect_first","0","ch03er21","0","18","1","1","3","1","null","","","<div class = 'row'><div class = 'column'><img src = 'category3/CS2.png' width = '70%;'></div><div class = 'column'><img src = 'usneg/9435.bmp' width = '100%;'></div></div>","null","neg","CS","CS","3","category3/CS2.png","","","","",""
"","html-keyboard-response","13","207507","0.0-6.0-0.0-0.7","byep0at443","one_one","1","indirect_first","0","ch03er21","0","18","1","1","3","1","null","","","<div class = 'row'><div class = 'column'><img src = 'category1/CS9.png' width = '70%;'></div><div class = 'column'><img src = 'usneg/9280.bmp' width = '100%;'></div></div>","null","neg","CS","CS","1","category1/CS9.png","","","","",""
"","html-keyboard-response","14","210047","0.0-6.0-0.0-0.8","byep0at443","one_one","1","indirect_first","0","ch03er21","0","18","1","1","3","1","null","","","<div class = 'row'><div class = 'column'><img src = 'category4/CS1.png' width = '70%;'></div><div class = 'column'><img src = 'uspos/1460.bmp' width = '100%;'></div></div>","null","pos","CS","CS","4","category4/CS1.png","","","","",""
"","html-keyboard-response","15","212577","0.0-6.0-0.0-0.9","byep0at443","one_one","1","indirect_first","0","ch03er21","0","18","1","1","3","1","null","","","<div class = 'row'><div class = 'column'><img src = 'category3/CS2.png' width = '70%;'></div><div class = 'column'><img src = 'usneg/9435.bmp' width = '100%;'></div></div>","null","neg","CS","CS","3","category3/CS2.png","","","","",""
"","html-keyboard-response","16","215117","0.0-6.0-0.0-0.10","byep0at443","one_one","1","indirect_first","0","ch03er21","0","18","1","1","3","1","null","","","<div class = 'row'><div class = 'column'><img src = 'category2/CS1.png' width = '70%;'></div><div class = 'column'><img src = 'uspos/2340.bmp' width = '100%;'></div></div>","null","pos","CS","CS","2","category2/CS1.png","","","","",""
"","html-keyboard-response","17","217656","0.0-6.0-0.0-0.11","byep0at443","one_one","1","indirect_first","0","ch03er21","0","18","1","1","3","1","null","","","<div class = 'row'><div class = 'column'><img src = 'usneg/9280.bmp' width = '100%;'></div><div class = 'column'><img src = 'category1/CS9.png' width = '70%;'></div></div>","null","neg","CS","CS","1","category1/CS9.png","","","","",""
"","html-keyboard-response","18","220197","0.0-6.0-0.0-0.12","byep0at443","one_one","1","indirect_first","0","ch03er21","0","18","1","1","3","1","null","","","<div class = 'row'><div class = 'column'><img src = 'uspos/2340.bmp' width = '100%;'></div><div class = 'column'><img src = 'category2/CS1.png' width = '70%;'></div></div>","null","pos","CS","CS","2","category2/CS1.png","","","","",""
"","html-keyboard-response","19","222716","0.0-6.0-0.0-0.13","byep0at443","one_one","1","indirect_first","0","ch03er21","0","18","1","1","3","1","null","","","<div class = 'row'><div class = 'column'><img src = 'uspos/1460.bmp' width = '100%;'></div><div class = 'column'><img src = 'category4/CS1.png' width = '70%;'></div></div>","null","pos","CS","CS","4","category4/CS1.png","","","","",""
"","html-keyboard-response","20","225256","0.0-6.0-0.0-0.14","byep0at443","one_one","1","indirect_first","0","ch03er21","0","18","1","1","3","1","null","","","<div class = 'row'><div class = 'column'><img src = 'category3/CS2.png' width = '70%;'></div><div class = 'column'><img src = 'usneg/9435.bmp' width = '100%;'></div></div>","null","neg","CS","CS","3","category3/CS2.png","","","","",""
"","html-keyboard-response","21","227797","0.0-6.0-0.0-0.15","byep0at443","one_one","1","indirect_first","0","ch03er21","0","18","1","1","3","1","null","","","<div class = 'row'><div class = 'column'><img src = 'uspos/2340.bmp' width = '100%;'></div><div class = 'column'><img src = 'category2/CS1.png' width = '70%;'></div></div>","null","pos","CS","CS","2","category2/CS1.png","","","","",""
"","html-keyboard-response","22","230327","0.0-6.0-0.0-0.16","byep0at443","one_one","1","indirect_first","0","ch03er21","0","18","1","1","3","1","null","","","<div class = 'row'><div class = 'column'><img src = 'uspos/1460.bmp' width = '100%;'></div><div class = 'column'><img src = 'category4/CS1.png' width = '70%;'></div></div>","null","pos","CS","CS","4","category4/CS1.png","","","","",""
"","html-keyboard-response","23","232867","0.0-6.0-0.0-0.17","byep0at443","one_one","1","indirect_first","0","ch03er21","0","18","1","1","3","1","null","","","<div class = 'row'><div class = 'column'><img src = 'category3/CS2.png' width = '70%;'></div><div class = 'column'><img src = 'usneg/9435.bmp' width = '100%;'></div></div>","null","neg","CS","CS","3","category3/CS2.png","","","","",""
"","html-keyboard-response","24","235407","0.0-6.0-0.0-0.18","byep0at443","one_one","1","indirect_first","0","ch03er21","0","18","1","1","3","1","null","","","<div class = 'row'><div class = 'column'><img src = 'uspos/2340.bmp' width = '100%;'></div><div class = 'column'><img src = 'category2/CS1.png' width = '70%;'></div></div>","null","pos","CS","CS","2","category2/CS1.png","","","","",""
"","html-keyboard-response","25","237947","0.0-6.0-0.0-0.19","byep0at443","one_one","1","indirect_first","0","ch03er21","0","18","1","1","3","1","null","","","<div class = 'row'><div class = 'column'><img src = 'category1/CS9.png' width = '70%;'></div><div class = 'column'><img src = 'usneg/9280.bmp' width = '100%;'></div></div>","null","neg","CS","CS","1","category1/CS9.png","","","","",""
"","survey-html-form","26","245203","0.0-6.0-1.0","byep0at443","one_one","1","indirect_first","0","ch03er21","0","18","1","1","3","1","6736","","{}","","","","","","","","","","","",""
"","html-keyboard-response","27","249217","0.0-6.0-2.0-0.0","byep0at443","one_one","1","indirect_first","0","ch03er21","0","18","1","1","3","1","null","","","<div class = 'row'><div class = 'column'><img src = 'category4/CS1.png' width = '70%;'></div><div class = 'column'><img src = 'uspos/1460.bmp' width = '100%;'></div></div>","null","pos","CS","CS","4","category4/CS1.png","","","","",""
"","html-keyboard-response","28","251756","0.0-6.0-2.0-0.1","byep0at443","one_one","1","indirect_first","0","ch03er21","0","18","1","1","3","1","null","","","<div class = 'row'><div class = 'column'><img src = 'category2/CS1.png' width = '70%;'></div><div class = 'column'><img src = 'uspos/2340.bmp' width = '100%;'></div></div>","null","pos","CS","CS","2","category2/CS1.png","","","","",""
"","html-keyboard-response","29","254296","0.0-6.0-2.0-0.2","byep0at443","one_one","1","indirect_first","0","ch03er21","0","18","1","1","3","1","null","","","<div class = 'row'><div class = 'column'><img src = 'uspos/1460.bmp' width = '100%;'></div><div class = 'column'><img src = 'category4/CS1.png' width = '70%;'></div></div>","null","pos","CS","CS","4","category4/CS1.png","","","","",""
"","html-keyboard-response","30","256836","0.0-6.0-2.0-0.3","byep0at443","one_one","1","indirect_first","0","ch03er21","0","18","1","1","3","1","null","","","<div class = 'row'><div class = 'column'><img src = 'usneg/9435.bmp' width = '100%;'></div><div class = 'column'><img src = 'category3/CS2.png' width = '70%;'></div></div>","null","neg","CS","CS","3","category3/CS2.png","","","","",""
"","html-keyboard-response","31","259377","0.0-6.0-2.0-0.4","byep0at443","one_one","1","indirect_first","0","ch03er21","0","18","1","1","3","1","null","","","<div class = 'row'><div class = 'column'><img src = 'usneg/9280.bmp' width = '100%;'></div><div class = 'column'><img src = 'category1/CS9.png' width = '70%;'></div></div>","null","neg","CS","CS","1","category1/CS9.png","","","","",""
"","html-keyboard-response","32","261906","0.0-6.0-2.0-0.5","byep0at443","one_one","1","indirect_first","0","ch03er21","0","18","1","1","3","1","null","","","<div class = 'row'><div class = 'column'><img src = 'usneg/9435.bmp' width = '100%;'></div><div class = 'column'><img src = 'category3/CS2.png' width = '70%;'></div></div>","null","neg","CS","CS","3","category3/CS2.png","","","","",""
"","html-keyboard-response","33","264446","0.0-6.0-2.0-0.6","byep0at443","one_one","1","indirect_first","0","ch03er21","0","18","1","1","3","1","null","","","<div class = 'row'><div class = 'column'><img src = 'category4/CS1.png' width = '70%;'></div><div class = 'column'><img src = 'uspos/1460.bmp' width = '100%;'></div></div>","null","pos","CS","CS","4","category4/CS1.png","","","","",""
"","html-keyboard-response","34","266986","0.0-6.0-2.0-0.7","byep0at443","one_one","1","indirect_first","0","ch03er21","0","18","1","1","3","1","null","","","<div class = 'row'><div class = 'column'><img src = 'category1/CS9.png' width = '70%;'></div><div class = 'column'><img src = 'usneg/9280.bmp' width = '100%;'></div></div>","null","neg","CS","CS","1","category1/CS9.png","","","","",""
"","html-keyboard-response","35","269506","0.0-6.0-2.0-0.8","byep0at443","one_one","1","indirect_first","0","ch03er21","0","18","1","1","3","1","null","","","<div class = 'row'><div class = 'column'><img src = 'uspos/1460.bmp' width = '100%;'></div><div class = 'column'><img src = 'category4/CS1.png' width = '70%;'></div></div>","null","pos","CS","CS","4","category4/CS1.png","","","","",""
"","html-keyboard-response","36","272046","0.0-6.0-2.0-0.9","byep0at443","one_one","1","indirect_first","0","ch03er21","0","18","1","1","3","1","null","","","<div class = 'row'><div class = 'column'><img src = 'category3/CS2.png' width = '70%;'></div><div class = 'column'><img src = 'usneg/9435.bmp' width = '100%;'></div></div>","null","neg","CS","CS","3","category3/CS2.png","","","","",""
"","html-keyboard-response","37","274565","0.0-6.0-2.0-0.10","byep0at443","one_one","1","indirect_first","0","ch03er21","0","18","1","1","3","1","null","","","<div class = 'row'><div class = 'column'><img src = 'category2/CS1.png' width = '70%;'></div><div class = 'column'><img src = 'uspos/2340.bmp' width = '100%;'></div></div>","null","pos","CS","CS","2","category2/CS1.png","","","","",""
"","html-keyboard-response","38","277087","0.0-6.0-2.0-0.11","byep0at443","one_one","1","indirect_first","0","ch03er21","0","18","1","1","3","1","null","","","<div class = 'row'><div class = 'column'><img src = 'usneg/9280.bmp' width = '100%;'></div><div class = 'column'><img src = 'category1/CS9.png' width = '70%;'></div></div>","null","neg","CS","CS","1","category1/CS9.png","","","","",""
"","html-keyboard-response","39","279626","0.0-6.0-2.0-0.12","byep0at443","one_one","1","indirect_first","0","ch03er21","0","18","1","1","3","1","null","","","<div class = 'row'><div class = 'column'><img src = 'category4/CS1.png' width = '70%;'></div><div class = 'column'><img src = 'uspos/1460.bmp' width = '100%;'></div></div>","null","pos","CS","CS","4","category4/CS1.png","","","","",""
"","html-keyboard-response","40","282166","0.0-6.0-2.0-0.13","byep0at443","one_one","1","indirect_first","0","ch03er21","0","18","1","1","3","1","null","","","<div class = 'row'><div class = 'column'><img src = 'category3/CS2.png' width = '70%;'></div><div class = 'column'><img src = 'usneg/9435.bmp' width = '100%;'></div></div>","null","neg","CS","CS","3","category3/CS2.png","","","","",""
"","html-keyboard-response","41","284686","0.0-6.0-2.0-0.14","byep0at443","one_one","1","indirect_first","0","ch03er21","0","18","1","1","3","1","null","","","<div class = 'row'><div class = 'column'><img src = 'category1/CS9.png' width = '70%;'></div><div class = 'column'><img src = 'usneg/9280.bmp' width = '100%;'></div></div>","null","neg","CS","CS","1","category1/CS9.png","","","","",""
"","html-keyboard-response","42","287226","0.0-6.0-2.0-0.15","byep0at443","one_one","1","indirect_first","0","ch03er21","0","18","1","1","3","1","null","","","<div class = 'row'><div class = 'column'><img src = 'uspos/2340.bmp' width = '100%;'></div><div class = 'column'><img src = 'category2/CS1.png' width = '70%;'></div></div>","null","pos","CS","CS","2","category2/CS1.png","","","","",""
"","html-keyboard-response","43","289766","0.0-6.0-2.0-0.16","byep0at443","one_one","1","indirect_first","0","ch03er21","0","18","1","1","3","1","null","","","<div class = 'row'><div class = 'column'><img src = 'usneg/9280.bmp' width = '100%;'></div><div class = 'column'><img src = 'category1/CS9.png' width = '70%;'></div></div>","null","neg","CS","CS","1","category1/CS9.png","","","","",""
"","html-keyboard-response","44","292305","0.0-6.0-2.0-0.17","byep0at443","one_one","1","indirect_first","0","ch03er21","0","18","1","1","3","1","null","","","<div class = 'row'><div class = 'column'><img src = 'uspos/2340.bmp' width = '100%;'></div><div class = 'column'><img src = 'category2/CS1.png' width = '70%;'></div></div>","null","pos","CS","CS","2","category2/CS1.png","","","","",""
"","html-keyboard-response","45","294821","0.0-6.0-2.0-0.18","byep0at443","one_one","1","indirect_first","0","ch03er21","0","18","1","1","3","1","null","","","<div class = 'row'><div class = 'column'><img src = 'usneg/9435.bmp' width = '100%;'></div><div class = 'column'><img src = 'category3/CS2.png' width = '70%;'></div></div>","null","neg","CS","CS","3","category3/CS2.png","","","","",""
"","html-keyboard-response","46","297323","0.0-6.0-2.0-0.19","byep0at443","one_one","1","indirect_first","0","ch03er21","0","18","1","1","3","1","null","","","<div class = 'row'><div class = 'column'><img src = 'uspos/2340.bmp' width = '100%;'></div><div class = 'column'><img src = 'category2/CS1.png' width = '70%;'></div></div>","null","pos","CS","CS","2","category2/CS1.png","","","","",""
"","survey-html-form","47","313195","0.0-6.0-3.0","byep0at443","one_one","1","indirect_first","0","ch03er21","0","18","1","1","3","1","15368","","{}","","","","","","","","","","","",""
"","html-keyboard-response","48","317226","0.0-6.0-4.0-0.0","byep0at443","one_one","1","indirect_first","0","ch03er21","0","18","1","1","3","1","null","","","<div class = 'row'><div class = 'column'><img src = 'uspos/1460.bmp' width = '100%;'></div><div class = 'column'><img src = 'category4/CS1.png' width = '70%;'></div></div>","null","pos","CS","CS","4","category4/CS1.png","","","","",""
"","html-keyboard-response","49","319766","0.0-6.0-4.0-0.1","byep0at443","one_one","1","indirect_first","0","ch03er21","0","18","1","1","3","1","null","","","<div class = 'row'><div class = 'column'><img src = 'uspos/2340.bmp' width = '100%;'></div><div class = 'column'><img src = 'category2/CS1.png' width = '70%;'></div></div>","null","pos","CS","CS","2","category2/CS1.png","","","","",""
"","html-keyboard-response","50","322285","0.0-6.0-4.0-0.2","byep0at443","one_one","1","indirect_first","0","ch03er21","0","18","1","1","3","1","null","","","<div class = 'row'><div class = 'column'><img src = 'category3/CS2.png' width = '70%;'></div><div class = 'column'><img src = 'usneg/9435.bmp' width = '100%;'></div></div>","null","neg","CS","CS","3","category3/CS2.png","","","","",""
"","html-keyboard-response","51","324805","0.0-6.0-4.0-0.3","byep0at443","one_one","1","indirect_first","0","ch03er21","0","18","1","1","3","1","null","","","<div class = 'row'><div class = 'column'><img src = 'usneg/9280.bmp' width = '100%;'></div><div class = 'column'><img src = 'category1/CS9.png' width = '70%;'></div></div>","null","neg","CS","CS","1","category1/CS9.png","","","","",""
"","html-keyboard-response","52","327346","0.0-6.0-4.0-0.4","byep0at443","one_one","1","indirect_first","0","ch03er21","0","18","1","1","3","1","null","","","<div class = 'row'><div class = 'column'><img src = 'category2/CS1.png' width = '70%;'></div><div class = 'column'><img src = 'uspos/2340.bmp' width = '100%;'></div></div>","null","pos","CS","CS","2","category2/CS1.png","","","","",""
"","html-keyboard-response","53","329885","0.0-6.0-4.0-0.5","byep0at443","one_one","1","indirect_first","0","ch03er21","0","18","1","1","3","1","null","","","<div class = 'row'><div class = 'column'><img src = 'usneg/9435.bmp' width = '100%;'></div><div class = 'column'><img src = 'category3/CS2.png' width = '70%;'></div></div>","null","neg","CS","CS","3","category3/CS2.png","","","","",""
"","html-keyboard-response","54","332425","0.0-6.0-4.0-0.6","byep0at443","one_one","1","indirect_first","0","ch03er21","0","18","1","1","3","1","null","","","<div class = 'row'><div class = 'column'><img src = 'uspos/1460.bmp' width = '100%;'></div><div class = 'column'><img src = 'category4/CS1.png' width = '70%;'></div></div>","null","pos","CS","CS","4","category4/CS1.png","","","","",""
"","html-keyboard-response","55","334956","0.0-6.0-4.0-0.7","byep0at443","one_one","1","indirect_first","0","ch03er21","0","18","1","1","3","1","null","","","<div class = 'row'><div class = 'column'><img src = 'usneg/9435.bmp' width = '100%;'></div><div class = 'column'><img src = 'category3/CS2.png' width = '70%;'></div></div>","null","neg","CS","CS","3","category3/CS2.png","","","","",""
"","html-keyboard-response","56","337495","0.0-6.0-4.0-0.8","byep0at443","one_one","1","indirect_first","0","ch03er21","0","18","1","1","3","1","null","","","<div class = 'row'><div class = 'column'><img src = 'uspos/2340.bmp' width = '100%;'></div><div class = 'column'><img src = 'category2/CS1.png' width = '70%;'></div></div>","null","pos","CS","CS","2","category2/CS1.png","","","","",""
"","html-keyboard-response","57","340035","0.0-6.0-4.0-0.9","byep0at443","one_one","1","indirect_first","0","ch03er21","0","18","1","1","3","1","null","","","<div class = 'row'><div class = 'column'><img src = 'category3/CS2.png' width = '70%;'></div><div class = 'column'><img src = 'usneg/9435.bmp' width = '100%;'></div></div>","null","neg","CS","CS","3","category3/CS2.png","","","","",""
"","html-keyboard-response","58","342555","0.0-6.0-4.0-0.10","byep0at443","one_one","1","indirect_first","0","ch03er21","0","18","1","1","3","1","null","","","<div class = 'row'><div class = 'column'><img src = 'category4/CS1.png' width = '70%;'></div><div class = 'column'><img src = 'uspos/1460.bmp' width = '100%;'></div></div>","null","pos","CS","CS","4","category4/CS1.png","","","","",""
"","html-keyboard-response","59","345096","0.0-6.0-4.0-0.11","byep0at443","one_one","1","indirect_first","0","ch03er21","0","18","1","1","3","1","null","","","<div class = 'row'><div class = 'column'><img src = 'category1/CS9.png' width = '70%;'></div><div class = 'column'><img src = 'usneg/9280.bmp' width = '100%;'></div></div>","null","neg","CS","CS","1","category1/CS9.png","","","","",""
"","html-keyboard-response","60","347635","0.0-6.0-4.0-0.12","byep0at443","one_one","1","indirect_first","0","ch03er21","0","18","1","1","3","1","null","","","<div class = 'row'><div class = 'column'><img src = 'category4/CS1.png' width = '70%;'></div><div class = 'column'><img src = 'uspos/1460.bmp' width = '100%;'></div></div>","null","pos","CS","CS","4","category4/CS1.png","","","","",""
"","html-keyboard-response","61","350175","0.0-6.0-4.0-0.13","byep0at443","one_one","1","indirect_first","0","ch03er21","0","18","1","1","3","1","null","","","<div class = 'row'><div class = 'column'><img src = 'category1/CS9.png' width = '70%;'></div><div class = 'column'><img src = 'usneg/9280.bmp' width = '100%;'></div></div>","null","neg","CS","CS","1","category1/CS9.png","","","","",""
"","html-keyboard-response","62","352716","0.0-6.0-4.0-0.14","byep0at443","one_one","1","indirect_first","0","ch03er21","0","18","1","1","3","1","null","","","<div class = 'row'><div class = 'column'><img src = 'uspos/1460.bmp' width = '100%;'></div><div class = 'column'><img src = 'category4/CS1.png' width = '70%;'></div></div>","null","pos","CS","CS","4","category4/CS1.png","","","","",""
"","html-keyboard-response","63","355255","0.0-6.0-4.0-0.15","byep0at443","one_one","1","indirect_first","0","ch03er21","0","18","1","1","3","1","null","","","<div class = 'row'><div class = 'column'><img src = 'uspos/2340.bmp' width = '100%;'></div><div class = 'column'><img src = 'category2/CS1.png' width = '70%;'></div></div>","null","pos","CS","CS","2","category2/CS1.png","","","","",""
"","html-keyboard-response","64","357767","0.0-6.0-4.0-0.16","byep0at443","one_one","1","indirect_first","0","ch03er21","0","18","1","1","3","1","null","","","<div class = 'row'><div class = 'column'><img src = 'category1/CS9.png' width = '70%;'></div><div class = 'column'><img src = 'usneg/9280.bmp' width = '100%;'></div></div>","null","neg","CS","CS","1","category1/CS9.png","","","","",""
"","html-keyboard-response","65","360284","0.0-6.0-4.0-0.17","byep0at443","one_one","1","indirect_first","0","ch03er21","0","18","1","1","3","1","null","","","<div class = 'row'><div class = 'column'><img src = 'category2/CS1.png' width = '70%;'></div><div class = 'column'><img src = 'uspos/2340.bmp' width = '100%;'></div></div>","null","pos","CS","CS","2","category2/CS1.png","","","","",""
"","html-keyboard-response","66","362802","0.0-6.0-4.0-0.18","byep0at443","one_one","1","indirect_first","0","ch03er21","0","18","1","1","3","1","null","","","<div class = 'row'><div class = 'column'><img src = 'category3/CS2.png' width = '70%;'></div><div class = 'column'><img src = 'usneg/9435.bmp' width = '100%;'></div></div>","null","neg","CS","CS","3","category3/CS2.png","","","","",""
"","html-keyboard-response","67","365325","0.0-6.0-4.0-0.19","byep0at443","one_one","1","indirect_first","0","ch03er21","0","18","1","1","3","1","null","","","<div class = 'row'><div class = 'column'><img src = 'usneg/9280.bmp' width = '100%;'></div><div class = 'column'><img src = 'category1/CS9.png' width = '70%;'></div></div>","null","neg","CS","CS","1","category1/CS9.png","","","","",""
"","survey-html-form","68","371162","0.0-6.0-5.0","byep0at443","one_one","1","indirect_first","0","ch03er21","0","18","1","1","3","1","5316","","{}","","","","","","","","","","","",""
"","html-keyboard-response","69","375185","0.0-6.0-6.0-0.0","byep0at443","one_one","1","indirect_first","0","ch03er21","0","18","1","1","3","1","null","","","<div class = 'row'><div class = 'column'><img src = 'category3/CS2.png' width = '70%;'></div><div class = 'column'><img src = 'usneg/9435.bmp' width = '100%;'></div></div>","null","neg","CS","CS","3","category3/CS2.png","","","","",""
"","html-keyboard-response","70","377726","0.0-6.0-6.0-0.1","byep0at443","one_one","1","indirect_first","0","ch03er21","0","18","1","1","3","1","null","","","<div class = 'row'><div class = 'column'><img src = 'category4/CS1.png' width = '70%;'></div><div class = 'column'><img src = 'uspos/1460.bmp' width = '100%;'></div></div>","null","pos","CS","CS","4","category4/CS1.png","","","","",""
"","html-keyboard-response","71","380255","0.0-6.0-6.0-0.2","byep0at443","one_one","1","indirect_first","0","ch03er21","0","18","1","1","3","1","null","","","<div class = 'row'><div class = 'column'><img src = 'uspos/2340.bmp' width = '100%;'></div><div class = 'column'><img src = 'category2/CS1.png' width = '70%;'></div></div>","null","pos","CS","CS","2","category2/CS1.png","","","","",""
"","html-keyboard-response","72","382785","0.0-6.0-6.0-0.3","byep0at443","one_one","1","indirect_first","0","ch03er21","0","18","1","1","3","1","null","","","<div class = 'row'><div class = 'column'><img src = 'category1/CS9.png' width = '70%;'></div><div class = 'column'><img src = 'usneg/9280.bmp' width = '100%;'></div></div>","null","neg","CS","CS","1","category1/CS9.png","","","","",""
"","html-keyboard-response","73","385326","0.0-6.0-6.0-0.4","byep0at443","one_one","1","indirect_first","0","ch03er21","0","18","1","1","3","1","null","","","<div class = 'row'><div class = 'column'><img src = 'usneg/9435.bmp' width = '100%;'></div><div class = 'column'><img src = 'category3/CS2.png' width = '70%;'></div></div>","null","neg","CS","CS","3","category3/CS2.png","","","","",""
"","html-keyboard-response","74","387865","0.0-6.0-6.0-0.5","byep0at443","one_one","1","indirect_first","0","ch03er21","0","18","1","1","3","1","null","","","<div class = 'row'><div class = 'column'><img src = 'category4/CS1.png' width = '70%;'></div><div class = 'column'><img src = 'uspos/1460.bmp' width = '100%;'></div></div>","null","pos","CS","CS","4","category4/CS1.png","","","","",""
"","html-keyboard-response","75","390405","0.0-6.0-6.0-0.6","byep0at443","one_one","1","indirect_first","0","ch03er21","0","18","1","1","3","1","null","","","<div class = 'row'><div class = 'column'><img src = 'category1/CS9.png' width = '70%;'></div><div class = 'column'><img src = 'usneg/9280.bmp' width = '100%;'></div></div>","null","neg","CS","CS","1","category1/CS9.png","","","","",""
"","html-keyboard-response","76","392945","0.0-6.0-6.0-0.7","byep0at443","one_one","1","indirect_first","0","ch03er21","0","18","1","1","3","1","null","","","<div class = 'row'><div class = 'column'><img src = 'category2/CS1.png' width = '70%;'></div><div class = 'column'><img src = 'uspos/2340.bmp' width = '100%;'></div></div>","null","pos","CS","CS","2","category2/CS1.png","","","","",""
"","html-keyboard-response","77","395485","0.0-6.0-6.0-0.8","byep0at443","one_one","1","indirect_first","0","ch03er21","0","18","1","1","3","1","null","","","<div class = 'row'><div class = 'column'><img src = 'category1/CS9.png' width = '70%;'></div><div class = 'column'><img src = 'usneg/9280.bmp' width = '100%;'></div></div>","null","neg","CS","CS","1","category1/CS9.png","","","","",""
"","html-keyboard-response","78","398025","0.0-6.0-6.0-0.9","byep0at443","one_one","1","indirect_first","0","ch03er21","0","18","1","1","3","1","null","","","<div class = 'row'><div class = 'column'><img src = 'category2/CS1.png' width = '70%;'></div><div class = 'column'><img src = 'uspos/2340.bmp' width = '100%;'></div></div>","null","pos","CS","CS","2","category2/CS1.png","","","","",""
"","html-keyboard-response","79","400555","0.0-6.0-6.0-0.10","byep0at443","one_one","1","indirect_first","0","ch03er21","0","18","1","1","3","1","null","","","<div class = 'row'><div class = 'column'><img src = 'category3/CS2.png' width = '70%;'></div><div class = 'column'><img src = 'usneg/9435.bmp' width = '100%;'></div></div>","null","neg","CS","CS","3","category3/CS2.png","","","","",""
"","html-keyboard-response","80","403075","0.0-6.0-6.0-0.11","byep0at443","one_one","1","indirect_first","0","ch03er21","0","18","1","1","3","1","null","","","<div class = 'row'><div class = 'column'><img src = 'category4/CS1.png' width = '70%;'></div><div class = 'column'><img src = 'uspos/1460.bmp' width = '100%;'></div></div>","null","pos","CS","CS","4","category4/CS1.png","","","","",""
"","html-keyboard-response","81","405615","0.0-6.0-6.0-0.12","byep0at443","one_one","1","indirect_first","0","ch03er21","0","18","1","1","3","1","null","","","<div class = 'row'><div class = 'column'><img src = 'category3/CS2.png' width = '70%;'></div><div class = 'column'><img src = 'usneg/9435.bmp' width = '100%;'></div></div>","null","neg","CS","CS","3","category3/CS2.png","","","","",""
"","html-keyboard-response","82","408155","0.0-6.0-6.0-0.13","byep0at443","one_one","1","indirect_first","0","ch03er21","0","18","1","1","3","1","null","","","<div class = 'row'><div class = 'column'><img src = 'category1/CS9.png' width = '70%;'></div><div class = 'column'><img src = 'usneg/9280.bmp' width = '100%;'></div></div>","null","neg","CS","CS","1","category1/CS9.png","","","","",""
"","html-keyboard-response","83","410695","0.0-6.0-6.0-0.14","byep0at443","one_one","1","indirect_first","0","ch03er21","0","18","1","1","3","1","null","","","<div class = 'row'><div class = 'column'><img src = 'category2/CS1.png' width = '70%;'></div><div class = 'column'><img src = 'uspos/2340.bmp' width = '100%;'></div></div>","null","pos","CS","CS","2","category2/CS1.png","","","","",""
"","html-keyboard-response","84","413233","0.0-6.0-6.0-0.15","byep0at443","one_one","1","indirect_first","0","ch03er21","0","18","1","1","3","1","null","","","<div class = 'row'><div class = 'column'><img src = 'category4/CS1.png' width = '70%;'></div><div class = 'column'><img src = 'uspos/1460.bmp' width = '100%;'></div></div>","null","pos","CS","CS","4","category4/CS1.png","","","","",""
"","html-keyboard-response","85","415735","0.0-6.0-6.0-0.16","byep0at443","one_one","1","indirect_first","0","ch03er21","0","18","1","1","3","1","null","","","<div class = 'row'><div class = 'column'><img src = 'category3/CS2.png' width = '70%;'></div><div class = 'column'><img src = 'usneg/9435.bmp' width = '100%;'></div></div>","null","neg","CS","CS","3","category3/CS2.png","","","","",""
"","html-keyboard-response","86","418275","0.0-6.0-6.0-0.17","byep0at443","one_one","1","indirect_first","0","ch03er21","0","18","1","1","3","1","null","","","<div class = 'row'><div class = 'column'><img src = 'category2/CS1.png' width = '70%;'></div><div class = 'column'><img src = 'uspos/2340.bmp' width = '100%;'></div></div>","null","pos","CS","CS","2","category2/CS1.png","","","","",""
"","html-keyboard-response","87","420815","0.0-6.0-6.0-0.18","byep0at443","one_one","1","indirect_first","0","ch03er21","0","18","1","1","3","1","null","","","<div class = 'row'><div class = 'column'><img src = 'uspos/1460.bmp' width = '100%;'></div><div class = 'column'><img src = 'category4/CS1.png' width = '70%;'></div></div>","null","pos","CS","CS","4","category4/CS1.png","","","","",""
"","html-keyboard-response","88","423345","0.0-6.0-6.0-0.19","byep0at443","one_one","1","indirect_first","0","ch03er21","0","18","1","1","3","1","null","","","<div class = 'row'><div class = 'column'><img src = 'category1/CS9.png' width = '70%;'></div><div class = 'column'><img src = 'usneg/9280.bmp' width = '100%;'></div></div>","null","neg","CS","CS","1","category1/CS9.png","","","","",""
"","html-keyboard-response","89","476956","0.0-7.0","byep0at443","one_one","1","indirect_first","0","ch03er21","0","18","1","1","3","1","53090","","","<p>Sie sehen nun die chinesischen Zeichen nur ganz kurz. Danach sehen Sie die jeweilige Aussprache der Zeichen als Silbe auf dem Bildschrim. Ihre Aufgabe ist es, für jede Silbe anzugeben, ob diese etwas angenehmes, oder unangenehmes bedeuten könnte. Verlassen Sie sich hier vor allem auf Ihre Intuition.<br><br>Die Zeichen werden nur zur Orientierung dargestellt, beachten Sie sie deshalb nicht. Konzentrieren Sie sich vor allem auf die Silben. <br>Reagieren Sie mit folgenden zwei Tasten: <br><br><b>'D' </b> wenn die Silbe etwas <b>unangenehmes</b> bedeuten könnte. <br><b>'K'</b> wenn die Silbe etwas <b>angenehmes</b> bedeuten könnte. <br><br>Bitte legen Sie nun den Zeigefinger der linken Hand auf die Taste 'D' und den Zeigefinger der rechten Hand auf die Taste 'K'. <br>Reagieren Sie auf jede Silbe so schnell wie möglich. Uns interessiert Ihre spontane Reaktion. <br> <br> <br>Drücken Sie 'D' oder 'K', um die nächste Aufgabe zu starten. </p>","68","","","","","","","","","",""
"","html-keyboard-response","90","479995","0.0-8.0-0.0","byep0at443","one_one","1","indirect_first","0","ch03er21","0","18","1","1","3","1","null","","","<div style=""font-size:60px;"">+</div>","null","","","","","","","","","",""
"","html-keyboard-response","91","480094","0.0-8.0-1.0","byep0at443","one_one","1","indirect_first","0","ch03er21","0","18","1","1","3","1","null","","","<img src = 'category2/CS10.png' width = '100%;'>","null","","","","","","","","","",""
"","html-keyboard-response","92","480375","0.0-8.0-2.0","byep0at443","one_one","1","indirect_first","0","ch03er21","0","18","1","1","3","1","null","","","<img src = 'targets/6.png' width = '100%;'>","null","","","","","","","","","",""
"","html-keyboard-response","93","481354","0.0-8.0-3.0","byep0at443","one_one","1","indirect_first","0","ch03er21","0","18","1","1","3","1","977","","","<img src = 'targets/mask.png' width = '100%;'>","68","pos","GS","GSold","2","category2/CS10.png","targets/6.png","0","indirect","0",""
"","html-keyboard-response","94","482885","0.0-8.0-0.1","byep0at443","one_one","1","indirect_first","0","ch03er21","0","18","1","1","3","1","null","","","<div style=""font-size:60px;"">+</div>","null","","","","","","","","","",""
"","html-keyboard-response","95","482985","0.0-8.0-1.1","byep0at443","one_one","1","indirect_first","0","ch03er21","0","18","1","1","3","1","null","","","<img src = 'category1/CS9.png' width = '100%;'>","null","","","","","","","","","",""
"","html-keyboard-response","96","483265","0.0-8.0-2.1","byep0at443","one_one","1","indirect_first","0","ch03er21","0","18","1","1","3","1","null","","","<img src = 'targets/22.png' width = '100%;'>","null","","","","","","","","","",""
"","html-keyboard-response","97","486362","0.0-8.0-3.1","byep0at443","one_one","1","indirect_first","0","ch03er21","0","18","1","1","3","1","3097","","","<img src = 'targets/mask.png' width = '100%;'>","75","neg","CS","CS","1","category1/CS9.png","targets/22.png","1","indirect","1",""
"","html-keyboard-response","98","487874","0.0-8.0-0.2","byep0at443","one_one","1","indirect_first","0","ch03er21","0","18","1","1","3","1","null","","","<div style=""font-size:60px;"">+</div>","null","","","","","","","","","",""
"","html-keyboard-response","99","487975","0.0-8.0-1.2","byep0at443","one_one","1","indirect_first","0","ch03er21","0","18","1","1","3","1","null","","","<img src = 'category1/CS4.png' width = '100%;'>","null","","","","","","","","","",""
"","html-keyboard-response","100","488255","0.0-8.0-2.2","byep0at443","one_one","1","indirect_first","0","ch03er21","0","18","1","1","3","1","null","","","<img src = 'targets/45.png' width = '100%;'>","null","","","","","","","","","",""
"","html-keyboard-response","101","489570","0.0-8.0-3.2","byep0at443","one_one","1","indirect_first","0","ch03er21","0","18","1","1","3","1","1314","","","<img src = 'targets/mask.png' width = '100%;'>","68","neg","GS","GSold","1","category1/CS4.png","targets/45.png","0","indirect","2",""
"","html-keyboard-response","102","491095","0.0-8.0-0.3","byep0at443","one_one","1","indirect_first","0","ch03er21","0","18","1","1","3","1","null","","","<div style=""font-size:60px;"">+</div>","null","","","","","","","","","",""
"","html-keyboard-response","103","491195","0.0-8.0-1.3","byep0at443","one_one","1","indirect_first","0","ch03er21","0","18","1","1","3","1","null","","","<img src = 'category4/CS7.png' width = '100%;'>","null","","","","","","","","","",""
"","html-keyboard-response","104","491474","0.0-8.0-2.3","byep0at443","one_one","1","indirect_first","0","ch03er21","0","18","1","1","3","1","null","","","<img src = 'targets/38.png' width = '100%;'>","null","","","","","","","","","",""
"","html-keyboard-response","105","492545","0.0-8.0-3.3","byep0at443","one_one","1","indirect_first","0","ch03er21","0","18","1","1","3","1","1070","","","<img src = 'targets/mask.png' width = '100%;'>","75","pos","GS","GSold","4","category4/CS7.png","targets/38.png","1","indirect","3",""
"","html-keyboard-response","106","494055","0.0-8.0-0.4","byep0at443","one_one","1","indirect_first","0","ch03er21","0","18","1","1","3","1","null","","","<div style=""font-size:60px;"">+</div>","null","","","","","","","","","",""
"","html-keyboard-response","107","494155","0.0-8.0-1.4","byep0at443","one_one","1","indirect_first","0","ch03er21","0","18","1","1","3","1","null","","","<img src = 'category3/CS6.png' width = '100%;'>","null","","","","","","","","","",""
"","html-keyboard-response","108","494435","0.0-8.0-2.4","byep0at443","one_one","1","indirect_first","0","ch03er21","0","18","1","1","3","1","null","","","<img src = 'targets/9.png' width = '100%;'>","null","","","","","","","","","",""
"","html-keyboard-response","109","495690","0.0-8.0-3.4","byep0at443","one_one","1","indirect_first","0","ch03er21","0","18","1","1","3","1","1255","","","<img src = 'targets/mask.png' width = '100%;'>","68","neg","GS","GSold","3","category3/CS6.png","targets/9.png","0","indirect","4",""
"","html-keyboard-response","110","497214","0.0-8.0-0.5","byep0at443","one_one","1","indirect_first","0","ch03er21","0","18","1","1","3","1","null","","","<div style=""font-size:60px;"">+</div>","null","","","","","","","","","",""
"","html-keyboard-response","111","497315","0.0-8.0-1.5","byep0at443","one_one","1","indirect_first","0","ch03er21","0","18","1","1","3","1","null","","","<img src = 'category4/CS9.png' width = '100%;'>","null","","","","","","","","","",""
"","html-keyboard-response","112","497594","0.0-8.0-2.5","byep0at443","one_one","1","indirect_first","0","ch03er21","0","18","1","1","3","1","null","","","<img src = 'targets/29.png' width = '100%;'>","null","","","","","","","","","",""
"","html-keyboard-response","113","498457","0.0-8.0-3.5","byep0at443","one_one","1","indirect_first","0","ch03er21","0","18","1","1","3","1","862","","","<img src = 'targets/mask.png' width = '100%;'>","75","pos","GS","GSold","4","category4/CS9.png","targets/29.png","1","indirect","5",""
"","html-keyboard-response","114","499994","0.0-8.0-0.6","byep0at443","one_one","1","indirect_first","0","ch03er21","0","18","1","1","3","1","null","","","<div style=""font-size:60px;"">+</div>","null","","","","","","","","","",""
"","html-keyboard-response","115","500095","0.0-8.0-1.6","byep0at443","one_one","1","indirect_first","0","ch03er21","0","18","1","1","3","1","null","","","<img src = 'category4/CS8.png' width = '100%;'>","null","","","","","","","","","",""
"","html-keyboard-response","116","500374","0.0-8.0-2.6","byep0at443","one_one","1","indirect_first","0","ch03er21","0","18","1","1","3","1","null","","","<img src = 'targets/25.png' width = '100%;'>","null","","","","","","","","","",""
"","html-keyboard-response","117","500929","0.0-8.0-3.6","byep0at443","one_one","1","indirect_first","0","ch03er21","0","18","1","1","3","1","554","","","<img src = 'targets/mask.png' width = '100%;'>","75","pos","GS","GSold","4","category4/CS8.png","targets/25.png","1","indirect","6",""
"","html-keyboard-response","118","502435","0.0-8.0-0.7","byep0at443","one_one","1","indirect_first","0","ch03er21","0","18","1","1","3","1","null","","","<div style=""font-size:60px;"">+</div>","null","","","","","","","","","",""
"","html-keyboard-response","119","502535","0.0-8.0-1.7","byep0at443","one_one","1","indirect_first","0","ch03er21","0","18","1","1","3","1","null","","","<img src = 'category3/CS4.png' width = '100%;'>","null","","","","","","","","","",""
"","html-keyboard-response","120","502815","0.0-8.0-2.7","byep0at443","one_one","1","indirect_first","0","ch03er21","0","18","1","1","3","1","null","","","<img src = 'targets/5.png' width = '100%;'>","null","","","","","","","","","",""
"","html-keyboard-response","121","503330","0.0-8.0-3.7","byep0at443","one_one","1","indirect_first","0","ch03er21","0","18","1","1","3","1","514","","","<img src = 'targets/mask.png' width = '100%;'>","68","neg","GS","GSold","3","category3/CS4.png","targets/5.png","0","indirect","7",""
"","html-keyboard-response","122","504855","0.0-8.0-0.8","byep0at443","one_one","1","indirect_first","0","ch03er21","0","18","1","1","3","1","null","","","<div style=""font-size:60px;"">+</div>","null","","","","","","","","","",""
"","html-keyboard-response","123","504954","0.0-8.0-1.8","byep0at443","one_one","1","indirect_first","0","ch03er21","0","18","1","1","3","1","null","","","<img src = 'category2/CS1.png' width = '100%;'>","null","","","","","","","","","",""
"","html-keyboard-response","124","505225","0.0-8.0-2.8","byep0at443","one_one","1","indirect_first","0","ch03er21","0","18","1","1","3","1","null","","","<img src = 'targets/14.png' width = '100%;'>","null","","","","","","","","","",""
"","html-keyboard-response","125","506481","0.0-8.0-3.8","byep0at443","one_one","1","indirect_first","0","ch03er21","0","18","1","1","3","1","1255","","","<img src = 'targets/mask.png' width = '100%;'>","68","pos","CS","CS","2","category2/CS1.png","targets/14.png","0","indirect","8",""
"","html-keyboard-response","126","508015","0.0-8.0-0.9","byep0at443","one_one","1","indirect_first","0","ch03er21","0","18","1","1","3","1","null","","","<div style=""font-size:60px;"">+</div>","null","","","","","","","","","",""
"","html-keyboard-response","127","508114","0.0-8.0-1.9","byep0at443","one_one","1","indirect_first","0","ch03er21","0","18","1","1","3","1","null","","","<img src = 'category3/CS3.png' width = '100%;'>","null","","","","","","","","","",""
"","html-keyboard-response","128","508394","0.0-8.0-2.9","byep0at443","one_one","1","indirect_first","0","ch03er21","0","18","1","1","3","1","null","","","<img src = 'targets/28.png' width = '100%;'>","null","","","","","","","","","",""
"","html-keyboard-response","129","508977","0.0-8.0-3.9","byep0at443","one_one","1","indirect_first","0","ch03er21","0","18","1","1","3","1","581","","","<img src = 'targets/mask.png' width = '100%;'>","75","neg","GS","GSold","3","category3/CS3.png","targets/28.png","1","indirect","9",""
"","html-keyboard-response","130","510514","0.0-8.0-0.10","byep0at443","one_one","1","indirect_first","0","ch03er21","0","18","1","1","3","1","null","","","<div style=""font-size:60px;"">+</div>","null","","","","","","","","","",""
"","html-keyboard-response","131","510614","0.0-8.0-1.10","byep0at443","one_one","1","indirect_first","0","ch03er21","0","18","1","1","3","1","null","","","<img src = 'category1/CS5.png' width = '100%;'>","null","","","","","","","","","",""
"","html-keyboard-response","132","510895","0.0-8.0-2.10","byep0at443","one_one","1","indirect_first","0","ch03er21","0","18","1","1","3","1","null","","","<img src = 'targets/4.png' width = '100%;'>","null","","","","","","","","","",""
"","html-keyboard-response","133","512097","0.0-8.0-3.10","byep0at443","one_one","1","indirect_first","0","ch03er21","0","18","1","1","3","1","1201","","","<img src = 'targets/mask.png' width = '100%;'>","68","neg","GS","GSold","1","category1/CS5.png","targets/4.png","0","indirect","10",""
"","html-keyboard-response","134","513634","0.0-8.0-0.11","byep0at443","one_one","1","indirect_first","0","ch03er21","0","18","1","1","3","1","null","","","<div style=""font-size:60px;"">+</div>","null","","","","","","","","","",""
"","html-keyboard-response","135","513734","0.0-8.0-1.11","byep0at443","one_one","1","indirect_first","0","ch03er21","0","18","1","1","3","1","null","","","<img src = 'category1/CS7.png' width = '100%;'>","null","","","","","","","","","",""
"","html-keyboard-response","136","514014","0.0-8.0-2.11","byep0at443","one_one","1","indirect_first","0","ch03er21","0","18","1","1","3","1","null","","","<img src = 'targets/35.png' width = '100%;'>","null","","","","","","","","","",""
"","html-keyboard-response","137","515033","0.0-8.0-3.11","byep0at443","one_one","1","indirect_first","0","ch03er21","0","18","1","1","3","1","1017","","","<img src = 'targets/mask.png' width = '100%;'>","75","neg","GS","GSold","1","category1/CS7.png","targets/35.png","1","indirect","11",""
"","html-keyboard-response","138","516574","0.0-8.0-0.12","byep0at443","one_one","1","indirect_first","0","ch03er21","0","18","1","1","3","1","null","","","<div style=""font-size:60px;"">+</div>","null","","","","","","","","","",""
"","html-keyboard-response","139","516675","0.0-8.0-1.12","byep0at443","one_one","1","indirect_first","0","ch03er21","0","18","1","1","3","1","null","","","<img src = 'category2/CS4.png' width = '100%;'>","null","","","","","","","","","",""
"","html-keyboard-response","140","516955","0.0-8.0-2.12","byep0at443","one_one","1","indirect_first","0","ch03er21","0","18","1","1","3","1","null","","","<img src = 'targets/34.png' width = '100%;'>","null","","","","","","","","","",""
"","html-keyboard-response","141","518082","0.0-8.0-3.12","byep0at443","one_one","1","indirect_first","0","ch03er21","0","18","1","1","3","1","1126","","","<img src = 'targets/mask.png' width = '100%;'>","75","pos","GS","GSold","2","category2/CS4.png","targets/34.png","1","indirect","12",""
"","html-keyboard-response","142","519614","0.0-8.0-0.13","byep0at443","one_one","1","indirect_first","0","ch03er21","0","18","1","1","3","1","null","","","<div style=""font-size:60px;"">+</div>","null","","","","","","","","","",""
"","html-keyboard-response","143","519715","0.0-8.0-1.13","byep0at443","one_one","1","indirect_first","0","ch03er21","0","18","1","1","3","1","null","","","<img src = 'category4/CS1.png' width = '100%;'>","null","","","","","","","","","",""
"","html-keyboard-response","144","519994","0.0-8.0-2.13","byep0at443","one_one","1","indirect_first","0","ch03er21","0","18","1","1","3","1","null","","","<img src = 'targets/37.png' width = '100%;'>","null","","","","","","","","","",""
"","html-keyboard-response","145","522218","0.0-8.0-3.13","byep0at443","one_one","1","indirect_first","0","ch03er21","0","18","1","1","3","1","2222","","","<img src = 'targets/mask.png' width = '100%;'>","68","pos","CS","CS","4","category4/CS1.png","targets/37.png","0","indirect","13",""
"","html-keyboard-response","146","523754","0.0-8.0-0.14","byep0at443","one_one","1","indirect_first","0","ch03er21","0","18","1","1","3","1","null","","","<div style=""font-size:60px;"">+</div>","null","","","","","","","","","",""
"","html-keyboard-response","147","523854","0.0-8.0-1.14","byep0at443","one_one","1","indirect_first","0","ch03er21","0","18","1","1","3","1","null","","","<img src = 'category2/CS9.png' width = '100%;'>","null","","","","","","","","","",""
"","html-keyboard-response","148","524134","0.0-8.0-2.14","byep0at443","one_one","1","indirect_first","0","ch03er21","0","18","1","1","3","1","null","","","<img src = 'targets/16.png' width = '100%;'>","null","","","","","","","","","",""
"","html-keyboard-response","149","524946","0.0-8.0-3.14","byep0at443","one_one","1","indirect_first","0","ch03er21","0","18","1","1","3","1","810","","","<img src = 'targets/mask.png' width = '100%;'>","75","pos","GS","GSold","2","category2/CS9.png","targets/16.png","1","indirect","14",""
"","html-keyboard-response","150","526470","0.0-8.0-0.15","byep0at443","one_one","1","indirect_first","0","ch03er21","0","18","1","1","3","1","null","","","<div style=""font-size:60px;"">+</div>","null","","","","","","","","","",""
"","html-keyboard-response","151","526569","0.0-8.0-1.15","byep0at443","one_one","1","indirect_first","0","ch03er21","0","18","1","1","3","1","null","","","<img src = 'category3/CS2.png' width = '100%;'>","null","","","","","","","","","",""
"","html-keyboard-response","152","526854","0.0-8.0-2.15","byep0at443","one_one","1","indirect_first","0","ch03er21","0","18","1","1","3","1","null","","","<img src = 'targets/48.png' width = '100%;'>","null","","","","","","","","","",""
"","html-keyboard-response","153","527833","0.0-8.0-3.15","byep0at443","one_one","1","indirect_first","0","ch03er21","0","18","1","1","3","1","978","","","<img src = 'targets/mask.png' width = '100%;'>","75","neg","CS","CS","3","category3/CS2.png","targets/48.png","1","indirect","15",""
"","survey-html-form","154","533913","0.0-9.0","byep0at443","one_one","1","indirect_first","0","ch03er21","0","18","1","1","3","1","5558","","{}","","","","","","","","","","","",""
"","html-keyboard-response","155","536944","0.0-10.0-0.0","byep0at443","one_one","1","indirect_first","0","ch03er21","0","18","1","1","3","1","null","","","<div style=""font-size:60px;"">+</div>","null","","","","","","","","","",""
"","html-keyboard-response","156","537044","0.0-10.0-1.0","byep0at443","one_one","1","indirect_first","0","ch03er21","0","18","1","1","3","1","null","","","<img src = 'category2/men.png' width = '100%;'>","null","","","","","","","","","",""
"","html-keyboard-response","157","537324","0.0-10.0-2.0","byep0at443","one_one","1","indirect_first","0","ch03er21","0","18","1","1","3","1","null","","","<img src = 'targets/21.png' width = '100%;'>","null","","","","","","","","","",""
"","html-keyboard-response","158","538265","0.0-10.0-3.0","byep0at443","one_one","1","indirect_first","0","ch03er21","0","18","1","1","3","1","939","","","<img src = 'targets/mask.png' width = '100%;'>","68","pos","GS","abstract","2","category2/men.png","targets/21.png","0","indirect","16",""
"","html-keyboard-response","159","539794","0.0-10.0-0.1","byep0at443","one_one","1","indirect_first","0","ch03er21","0","18","1","1","3","1","null","","","<div style=""font-size:60px;"">+</div>","null","","","","","","","","","",""
"","html-keyboard-response","160","539894","0.0-10.0-1.1","byep0at443","one_one","1","indirect_first","0","ch03er21","0","18","1","1","3","1","null","","","<img src = 'category2/GS3.png' width = '100%;'>","null","","","","","","","","","",""
"","html-keyboard-response","161","540174","0.0-10.0-2.1","byep0at443","one_one","1","indirect_first","0","ch03er21","0","18","1","1","3","1","null","","","<img src = 'targets/47.png' width = '100%;'>","null","","","","","","","","","",""
"","html-keyboard-response","162","540802","0.0-10.0-3.1","byep0at443","one_one","1","indirect_first","0","ch03er21","0","18","1","1","3","1","625","","","<img src = 'targets/mask.png' width = '100%;'>","75","pos","GS","GSnew","2","category2/GS3.png","targets/47.png","1","indirect","17",""
"","html-keyboard-response","163","542316","0.0-10.0-0.2","byep0at443","one_one","1","indirect_first","0","ch03er21","0","18","1","1","3","1","null","","","<div style=""font-size:60px;"">+</div>","null","","","","","","","","","",""
"","html-keyboard-response","164","542408","0.0-10.0-1.2","byep0at443","one_one","1","indirect_first","0","ch03er21","0","18","1","1","3","1","null","","","<img src = 'category4/GS3.png' width = '100%;'>","null","","","","","","","","","",""
"","html-keyboard-response","165","542675","0.0-10.0-2.2","byep0at443","one_one","1","indirect_first","0","ch03er21","0","18","1","1","3","1","null","","","<img src = 'targets/7.png' width = '100%;'>","null","","","","","","","","","",""
"","html-keyboard-response","166","543193","0.0-10.0-3.2","byep0at443","one_one","1","indirect_first","0","ch03er21","0","18","1","1","3","1","517","","","<img src = 'targets/mask.png' width = '100%;'>","68","pos","GS","GSnew","4","category4/GS3.png","targets/7.png","0","indirect","18",""
"","html-keyboard-response","167","544714","0.0-10.0-0.3","byep0at443","one_one","1","indirect_first","0","ch03er21","0","18","1","1","3","1","null","","","<div style=""font-size:60px;"">+</div>","null","","","","","","","","","",""
"","html-keyboard-response","168","544815","0.0-10.0-1.3","byep0at443","one_one","1","indirect_first","0","ch03er21","0","18","1","1","3","1","null","","","<img src = 'category4/GS1.png' width = '100%;'>","null","","","","","","","","","",""
"","html-keyboard-response","169","545095","0.0-10.0-2.3","byep0at443","one_one","1","indirect_first","0","ch03er21","0","18","1","1","3","1","null","","","<img src = 'targets/10.png' width = '100%;'>","null","","","","","","","","","",""
"","html-keyboard-response","170","545945","0.0-10.0-3.3","byep0at443","one_one","1","indirect_first","0","ch03er21","0","18","1","1","3","1","850","","","<img src = 'targets/mask.png' width = '100%;'>","75","pos","GS","GSnew","4","category4/GS1.png","targets/10.png","1","indirect","19",""
"","html-keyboard-response","171","547474","0.0-10.0-0.4","byep0at443","one_one","1","indirect_first","0","ch03er21","0","18","1","1","3","1","null","","","<div style=""font-size:60px;"">+</div>","null","","","","","","","","","",""
"","html-keyboard-response","172","547575","0.0-10.0-1.4","byep0at443","one_one","1","indirect_first","0","ch03er21","0","18","1","1","3","1","null","","","<img src = 'category3/GS2.png' width = '100%;'>","null","","","","","","","","","",""
"","html-keyboard-response","173","547854","0.0-10.0-2.4","byep0at443","one_one","1","indirect_first","0","ch03er21","0","18","1","1","3","1","null","","","<img src = 'targets/3.png' width = '100%;'>","null","","","","","","","","","",""
"","html-keyboard-response","174","548713","0.0-10.0-3.4","byep0at443","one_one","1","indirect_first","0","ch03er21","0","18","1","1","3","1","857","","","<img src = 'targets/mask.png' width = '100%;'>","75","neg","GS","GSnew","3","category3/GS2.png","targets/3.png","1","indirect","20",""
"","html-keyboard-response","175","550234","0.0-10.0-0.5","byep0at443","one_one","1","indirect_first","0","ch03er21","0","18","1","1","3","1","null","","","<div style=""font-size:60px;"">+</div>","null","","","","","","","","","",""
"","html-keyboard-response","176","550335","0.0-10.0-1.5","byep0at443","one_one","1","indirect_first","0","ch03er21","0","18","1","1","3","1","null","","","<img src = 'category1/ma.png' width = '100%;'>","null","","","","","","","","","",""
"","html-keyboard-response","177","550615","0.0-10.0-2.5","byep0at443","one_one","1","indirect_first","0","ch03er21","0","18","1","1","3","1","null","","","<img src = 'targets/8.png' width = '100%;'>","null","","","","","","","","","",""
"","html-keyboard-response","178","551201","0.0-10.0-3.5","byep0at443","one_one","1","indirect_first","0","ch03er21","0","18","1","1","3","1","586","","","<img src = 'targets/mask.png' width = '100%;'>","75","neg","GS","abstract","1","category1/ma.png","targets/8.png","1","indirect","21",""
"","html-keyboard-response","179","552713","0.0-10.0-0.6","byep0at443","one_one","1","indirect_first","0","ch03er21","0","18","1","1","3","1","null","","","<div style=""font-size:60px;"">+</div>","null","","","","","","","","","",""
"","html-keyboard-response","180","552814","0.0-10.0-1.6","byep0at443","one_one","1","indirect_first","0","ch03er21","0","18","1","1","3","1","null","","","<img src = 'category3/wang.png' width = '100%;'>","null","","","","","","","","","",""
"","html-keyboard-response","181","553094","0.0-10.0-2.6","byep0at443","one_one","1","indirect_first","0","ch03er21","0","18","1","1","3","1","null","","","<img src = 'targets/23.png' width = '100%;'>","null","","","","","","","","","",""
"","html-keyboard-response","182","553801","0.0-10.0-3.6","byep0at443","one_one","1","indirect_first","0","ch03er21","0","18","1","1","3","1","706","","","<img src = 'targets/mask.png' width = '100%;'>","68","neg","GS","abstract","3","category3/wang.png","targets/23.png","0","indirect","22",""
"","html-keyboard-response","183","555334","0.0-10.0-0.7","byep0at443","one_one","1","indirect_first","0","ch03er21","0","18","1","1","3","1","null","","","<div style=""font-size:60px;"">+</div>","null","","","","","","","","","",""
"","html-keyboard-response","184","555434","0.0-10.0-1.7","byep0at443","one_one","1","indirect_first","0","ch03er21","0","18","1","1","3","1","null","","","<img src = 'category3/GS3.png' width = '100%;'>","null","","","","","","","","","",""
"","html-keyboard-response","185","555714","0.0-10.0-2.7","byep0at443","one_one","1","indirect_first","0","ch03er21","0","18","1","1","3","1","null","","","<img src = 'targets/20.png' width = '100%;'>","null","","","","","","","","","",""
"","html-keyboard-response","186","556313","0.0-10.0-3.7","byep0at443","one_one","1","indirect_first","0","ch03er21","0","18","1","1","3","1","597","","","<img src = 'targets/mask.png' width = '100%;'>","75","neg","GS","GSnew","3","category3/GS3.png","targets/20.png","1","indirect","23",""
"","html-keyboard-response","187","557854","0.0-10.0-0.8","byep0at443","one_one","1","indirect_first","0","ch03er21","0","18","1","1","3","1","null","","","<div style=""font-size:60px;"">+</div>","null","","","","","","","","","",""
"","html-keyboard-response","188","557954","0.0-10.0-1.8","byep0at443","one_one","1","indirect_first","0","ch03er21","0","18","1","1","3","1","null","","","<img src = 'category3/GS1.png' width = '100%;'>","null","","","","","","","","","",""
"","html-keyboard-response","189","558234","0.0-10.0-2.8","byep0at443","one_one","1","indirect_first","0","ch03er21","0","18","1","1","3","1","null","","","<img src = 'targets/13.png' width = '100%;'>","null","","","","","","","","","",""
"","html-keyboard-response","190","558857","0.0-10.0-3.8","byep0at443","one_one","1","indirect_first","0","ch03er21","0","18","1","1","3","1","622","","","<img src = 'targets/mask.png' width = '100%;'>","68","neg","GS","GSnew","3","category3/GS1.png","targets/13.png","0","indirect","24",""
"","html-keyboard-response","191","560393","0.0-10.0-0.9","byep0at443","one_one","1","indirect_first","0","ch03er21","0","18","1","1","3","1","null","","","<div style=""font-size:60px;"">+</div>","null","","","","","","","","","",""
"","html-keyboard-response","192","560494","0.0-10.0-1.9","byep0at443","one_one","1","indirect_first","0","ch03er21","0","18","1","1","3","1","null","","","<img src = 'category1/GS2.png' width = '100%;'>","null","","","","","","","","","",""
"","html-keyboard-response","193","560773","0.0-10.0-2.9","byep0at443","one_one","1","indirect_first","0","ch03er21","0","18","1","1","3","1","null","","","<img src = 'targets/19.png' width = '100%;'>","null","","","","","","","","","",""
"","html-keyboard-response","194","561273","0.0-10.0-3.9","byep0at443","one_one","1","indirect_first","0","ch03er21","0","18","1","1","3","1","498","","","<img src = 'targets/mask.png' width = '100%;'>","68","neg","GS","GSnew","1","category1/GS2.png","targets/19.png","0","indirect","25",""
"","html-keyboard-response","195","562814","0.0-10.0-0.10","byep0at443","one_one","1","indirect_first","0","ch03er21","0","18","1","1","3","1","null","","","<div style=""font-size:60px;"">+</div>","null","","","","","","","","","",""
"","html-keyboard-response","196","562914","0.0-10.0-1.10","byep0at443","one_one","1","indirect_first","0","ch03er21","0","18","1","1","3","1","null","","","<img src = 'category4/lin.png' width = '100%;'>","null","","","","","","","","","",""
"","html-keyboard-response","197","563174","0.0-10.0-2.10","byep0at443","one_one","1","indirect_first","0","ch03er21","0","18","1","1","3","1","null","","","<img src = 'targets/18.png' width = '100%;'>","null","","","","","","","","","",""
"","html-keyboard-response","198","564145","0.0-10.0-3.10","byep0at443","one_one","1","indirect_first","0","ch03er21","0","18","1","1","3","1","970","","","<img src = 'targets/mask.png' width = '100%;'>","68","pos","GS","abstract","4","category4/lin.png","targets/18.png","0","indirect","26",""
"","html-keyboard-response","199","565674","0.0-10.0-0.11","byep0at443","one_one","1","indirect_first","0","ch03er21","0","18","1","1","3","1","null","","","<div style=""font-size:60px;"">+</div>","null","","","","","","","","","",""
"","html-keyboard-response","200","565774","0.0-10.0-1.11","byep0at443","one_one","1","indirect_first","0","ch03er21","0","18","1","1","3","1","null","","","<img src = 'category4/GS2.png' width = '100%;'>","null","","","","","","","","","",""
"","html-keyboard-response","201","566053","0.0-10.0-2.11","byep0at443","one_one","1","indirect_first","0","ch03er21","0","18","1","1","3","1","null","","","<img src = 'targets/17.png' width = '100%;'>","null","","","","","","","","","",""
"","html-keyboard-response","202","566879","0.0-10.0-3.11","byep0at443","one_one","1","indirect_first","0","ch03er21","0","18","1","1","3","1","825","","","<img src = 'targets/mask.png' width = '100%;'>","75","pos","GS","GSnew","4","category4/GS2.png","targets/17.png","1","indirect","27",""
"","html-keyboard-response","203","568413","0.0-10.0-0.12","byep0at443","one_one","1","indirect_first","0","ch03er21","0","18","1","1","3","1","null","","","<div style=""font-size:60px;"">+</div>","null","","","","","","","","","",""
"","html-keyboard-response","204","568513","0.0-10.0-1.12","byep0at443","one_one","1","indirect_first","0","ch03er21","0","18","1","1","3","1","null","","","<img src = 'category2/GS1.png' width = '100%;'>","null","","","","","","","","","",""
"","html-keyboard-response","205","568794","0.0-10.0-2.12","byep0at443","one_one","1","indirect_first","0","ch03er21","0","18","1","1","3","1","null","","","<img src = 'targets/46.png' width = '100%;'>","null","","","","","","","","","",""
"","html-keyboard-response","206","569313","0.0-10.0-3.12","byep0at443","one_one","1","indirect_first","0","ch03er21","0","18","1","1","3","1","517","","","<img src = 'targets/mask.png' width = '100%;'>","75","pos","GS","GSnew","2","category2/GS1.png","targets/46.png","1","indirect","28",""
"","html-keyboard-response","207","570824","0.0-10.0-0.13","byep0at443","one_one","1","indirect_first","0","ch03er21","0","18","1","1","3","1","null","","","<div style=""font-size:60px;"">+</div>","null","","","","","","","","","",""
"","html-keyboard-response","208","570924","0.0-10.0-1.13","byep0at443","one_one","1","indirect_first","0","ch03er21","0","18","1","1","3","1","null","","","<img src = 'category1/GS3.png' width = '100%;'>","null","","","","","","","","","",""
"","html-keyboard-response","209","571192","0.0-10.0-2.13","byep0at443","one_one","1","indirect_first","0","ch03er21","0","18","1","1","3","1","null","","","<img src = 'targets/33.png' width = '100%;'>","null","","","","","","","","","",""
"","html-keyboard-response","210","571785","0.0-10.0-3.13","byep0at443","one_one","1","indirect_first","0","ch03er21","0","18","1","1","3","1","591","","","<img src = 'targets/mask.png' width = '100%;'>","68","neg","GS","GSnew","1","category1/GS3.png","targets/33.png","0","indirect","29",""
"","html-keyboard-response","211","573324","0.0-10.0-0.14","byep0at443","one_one","1","indirect_first","0","ch03er21","0","18","1","1","3","1","null","","","<div style=""font-size:60px;"">+</div>","null","","","","","","","","","",""
"","html-keyboard-response","212","573424","0.0-10.0-1.14","byep0at443","one_one","1","indirect_first","0","ch03er21","0","18","1","1","3","1","null","","","<img src = 'category2/GS2.png' width = '100%;'>","null","","","","","","","","","",""
"","html-keyboard-response","213","573704","0.0-10.0-2.14","byep0at443","one_one","1","indirect_first","0","ch03er21","0","18","1","1","3","1","null","","","<img src = 'targets/43.png' width = '100%;'>","null","","","","","","","","","",""
"","html-keyboard-response","214","574537","0.0-10.0-3.14","byep0at443","one_one","1","indirect_first","0","ch03er21","0","18","1","1","3","1","832","","","<img src = 'targets/mask.png' width = '100%;'>","75","pos","GS","GSnew","2","category2/GS2.png","targets/43.png","1","indirect","30",""
"","html-keyboard-response","215","576044","0.0-10.0-0.15","byep0at443","one_one","1","indirect_first","0","ch03er21","0","18","1","1","3","1","null","","","<div style=""font-size:60px;"">+</div>","null","","","","","","","","","",""
"","html-keyboard-response","216","576144","0.0-10.0-1.15","byep0at443","one_one","1","indirect_first","0","ch03er21","0","18","1","1","3","1","null","","","<img src = 'category1/GS1.png' width = '100%;'>","null","","","","","","","","","",""
"","html-keyboard-response","217","576423","0.0-10.0-2.15","byep0at443","one_one","1","indirect_first","0","ch03er21","0","18","1","1","3","1","null","","","<img src = 'targets/11.png' width = '100%;'>","null","","","","","","","","","",""
"","html-keyboard-response","218","577201","0.0-10.0-3.15","byep0at443","one_one","1","indirect_first","0","ch03er21","0","18","1","1","3","1","777","","","<img src = 'targets/mask.png' width = '100%;'>","75","neg","GS","GSnew","1","category1/GS1.png","targets/11.png","1","indirect","31",""
"","survey-html-form","219","592576","0.0-11.0","byep0at443","one_one","1","indirect_first","0","ch03er21","0","18","1","1","3","1","14873","","{}","","","","","","","","","","","",""
"","image-slider-response","220","603192","0.0-12.0-0.0","byep0at443","one_one","1","indirect_first","0","ch03er21","0","18","1","1","3","1","8604","","","","","pos","GS","GSnew","2","category2/GS1.png","targets/46.png","","direct","","-57"
"","image-slider-response","221","609959","0.0-12.0-0.1","byep0at443","one_one","1","indirect_first","0","ch03er21","0","18","1","1","3","1","6766","","","","","pos","GS","abstract","4","category4/lin.png","targets/18.png","","direct","","100"
"","image-slider-response","222","613487","0.0-12.0-0.2","byep0at443","one_one","1","indirect_first","0","ch03er21","0","18","1","1","3","1","3527","","","","","pos","GS","GSold","4","category4/CS8.png","targets/25.png","","direct","","-50"
"","image-slider-response","223","617135","0.0-12.0-0.3","byep0at443","one_one","1","indirect_first","0","ch03er21","0","18","1","1","3","1","3647","","","","","neg","GS","GSnew","3","category3/GS1.png","targets/13.png","","direct","","62"
"","image-slider-response","224","620399","0.0-12.0-0.4","byep0at443","one_one","1","indirect_first","0","ch03er21","0","18","1","1","3","1","3263","","","","","pos","GS","GSnew","4","category4/GS1.png","targets/10.png","","direct","","83"
"","image-slider-response","225","625871","0.0-12.0-0.5","byep0at443","one_one","1","indirect_first","0","ch03er21","0","18","1","1","3","1","5470","","","","","neg","GS","GSnew","1","category1/GS2.png","targets/19.png","","direct","","-67"
"","image-slider-response","226","631167","0.0-12.0-0.6","byep0at443","one_one","1","indirect_first","0","ch03er21","0","18","1","1","3","1","5294","","","","","pos","GS","GSold","4","category4/CS7.png","targets/38.png","","direct","","74"
"","image-slider-response","227","635215","0.0-12.0-0.7","byep0at443","one_one","1","indirect_first","0","ch03er21","0","18","1","1","3","1","4047","","","","","neg","GS","GSnew","1","category1/GS3.png","targets/33.png","","direct","","-51"
"","image-slider-response","228","638775","0.0-12.0-0.8","byep0at443","one_one","1","indirect_first","0","ch03er21","0","18","1","1","3","1","3559","","","","","neg","GS","GSold","3","category3/CS4.png","targets/5.png","","direct","","-65"
"","image-slider-response","229","642719","0.0-12.0-0.9","byep0at443","one_one","1","indirect_first","0","ch03er21","0","18","1","1","3","1","3943","","","","","pos","CS","CS","4","category4/CS1.png","targets/37.png","","direct","","100"
"","image-slider-response","230","650999","0.0-12.0-0.10","byep0at443","one_one","1","indirect_first","0","ch03er21","0","18","1","1","3","1","8279","","","","","pos","GS","GSnew","2","category2/GS2.png","targets/43.png","","direct","","-34"
"","image-slider-response","231","655408","0.0-12.0-0.11","byep0at443","one_one","1","indirect_first","0","ch03er21","0","18","1","1","3","1","4407","","","","","neg","GS","GSold","3","category3/CS3.png","targets/28.png","","direct","","72"
"","image-slider-response","232","660640","0.0-12.0-0.12","byep0at443","one_one","1","indirect_first","0","ch03er21","0","18","1","1","3","1","5230","","","","","pos","GS","GSnew","4","category4/GS3.png","targets/7.png","","direct","","-38"
"","image-slider-response","233","664392","0.0-12.0-0.13","byep0at443","one_one","1","indirect_first","0","ch03er21","0","18","1","1","3","1","3752","","","","","neg","CS","CS","1","category1/CS9.png","targets/22.png","","direct","","23"
"","image-slider-response","234","668112","0.0-12.0-0.14","byep0at443","one_one","1","indirect_first","0","ch03er21","0","18","1","1","3","1","3719","","","","","neg","GS","GSold","1","category1/CS7.png","targets/35.png","","direct","","-37"
"","image-slider-response","235","673895","0.0-12.0-0.15","byep0at443","one_one","1","indirect_first","0","ch03er21","0","18","1","1","3","1","5783","","","","","neg","GS","GSold","1","category1/CS5.png","targets/4.png","","direct","","-30"
"","image-slider-response","236","677568","0.0-12.0-0.16","byep0at443","one_one","1","indirect_first","0","ch03er21","0","18","1","1","3","1","3670","","","","","neg","GS","GSnew","3","category3/GS3.png","targets/20.png","","direct","","45"
"","image-slider-response","237","682591","0.0-12.0-0.17","byep0at443","one_one","1","indirect_first","0","ch03er21","0","18","1","1","3","1","5024","","","","","neg","GS","GSold","3","category3/CS6.png","targets/9.png","","direct","","36"
"","image-slider-response","238","688824","0.0-12.0-0.18","byep0at443","one_one","1","indirect_first","0","ch03er21","0","18","1","1","3","1","6230","","","","","neg","GS","abstract","1","category1/ma.png","targets/8.png","","direct","","-57"
"","image-slider-response","239","704503","0.0-12.0-0.19","byep0at443","one_one","1","indirect_first","0","ch03er21","0","18","1","1","3","1","15679","","","","","neg","GS","abstract","3","category3/wang.png","targets/23.png","","direct","","10"
"","image-slider-response","240","713327","0.0-12.0-0.20","byep0at443","one_one","1","indirect_first","0","ch03er21","0","18","1","1","3","1","8823","","","","","pos","GS","GSnew","4","category4/GS2.png","targets/17.png","","direct","","29"
"","image-slider-response","241","717527","0.0-12.0-0.21","byep0at443","one_one","1","indirect_first","0","ch03er21","0","18","1","1","3","1","4200","","","","","pos","GS","GSold","4","category4/CS9.png","targets/29.png","","direct","","33"
"","image-slider-response","242","721095","0.0-12.0-0.22","byep0at443","one_one","1","indirect_first","0","ch03er21","0","18","1","1","3","1","3567","","","","","pos","GS","GSnew","2","category2/GS3.png","targets/47.png","","direct","","-43"
"","image-slider-response","243","726823","0.0-12.0-0.23","byep0at443","one_one","1","indirect_first","0","ch03er21","0","18","1","1","3","1","5727","","","","","neg","CS","CS","3","category3/CS2.png","targets/48.png","","direct","","-46"
"","image-slider-response","244","737919","0.0-12.0-0.24","byep0at443","one_one","1","indirect_first","0","ch03er21","0","18","1","1","3","1","11095","","","","","pos","CS","CS","2","category2/CS1.png","targets/14.png","","direct","","-31"
"","image-slider-response","245","743094","0.0-12.0-0.25","byep0at443","one_one","1","indirect_first","0","ch03er21","0","18","1","1","3","1","5175","","","","","pos","GS","abstract","2","category2/men.png","targets/21.png","","direct","","-37"
"","image-slider-response","246","749838","0.0-12.0-0.26","byep0at443","one_one","1","indirect_first","0","ch03er21","0","18","1","1","3","1","6743","","","","","pos","GS","GSold","2","category2/CS10.png","targets/6.png","","direct","","-36"
"","image-slider-response","247","757734","0.0-12.0-0.27","byep0at443","one_one","1","indirect_first","0","ch03er21","0","18","1","1","3","1","7895","","","","","neg","GS","GSnew","3","category3/GS2.png","targets/3.png","","direct","","-100"
"","image-slider-response","248","767159","0.0-12.0-0.28","byep0at443","one_one","1","indirect_first","0","ch03er21","0","18","1","1","3","1","9422","","","","","neg","GS","GSnew","1","category1/GS1.png","targets/11.png","","direct","","-29"
"","image-slider-response","249","770295","0.0-12.0-0.29","byep0at443","one_one","1","indirect_first","0","ch03er21","0","18","1","1","3","1","3135","","","","","pos","GS","GSold","2","category2/CS4.png","targets/34.png","","direct","","35"
"","image-slider-response","250","773671","0.0-12.0-0.30","byep0at443","one_one","1","indirect_first","0","ch03er21","0","18","1","1","3","1","3375","","","","","neg","GS","GSold","1","category1/CS4.png","targets/45.png","","direct","","-35"
"","image-slider-response","251","780711","0.0-12.0-0.31","byep0at443","one_one","1","indirect_first","0","ch03er21","0","18","1","1","3","1","7039","","","","","pos","GS","GSold","2","category2/CS9.png","targets/16.png","","direct","","-50"
"","survey-html-form","252","789207","0.0-13.0","byep0at443","one_one","1","indirect_first","0","ch03er21","0","18","1","1","3","1","8496","","{}","","","","","","","","","","","",""
"","image-slider-response","253","797543","0.0-14.0-0.0","byep0at443","one_one","1","indirect_first","0","ch03er21","0","18","1","1","3","1","7318","","","","","pos","All","all","4","category4/lin_all.png","","","all","","-68"
"","image-slider-response","254","802783","0.0-14.0-0.1","byep0at443","one_one","1","indirect_first","0","ch03er21","0","18","1","1","3","1","5239","","","","","neg","All","all","3","category3/wang_all.png","","","all","","36"
"","image-slider-response","255","809927","0.0-14.0-0.2","byep0at443","one_one","1","indirect_first","0","ch03er21","0","18","1","1","3","1","7142","","","","","pos","All","all","2","category2/men_all.png","","","all","","-33"
"","image-slider-response","256","814230","0.0-14.0-0.3","byep0at443","one_one","1","indirect_first","0","ch03er21","0","18","1","1","3","1","4302","","","","","neg","All","all","1","category1/ma_all.png","","","all","","-70"
"","survey-text","257","983383","0.0-15.0","byep0at443","one_one","1","indirect_first","0","ch03er21","0","18","1","1","3","1","169150","","{""Q0"":""Die Bilder und Zeichen waren manchmal vertauscht. Es war sehr schwer den Klang der Silben auf ein Gefühl zu übertragen. Ich fand es insgesamt relativ schwer die Schriftzeichen nach meinem Gefühl einzuordnen.""}","","","","","","","","","","","",""
