"success","trial_type","trial_index","time_elapsed","internal_node_id","subject","condition","condition_code","measure","measure_code","codeword","gender","age","education","chinese","fach","handedness","comment","hinschauen","ablenkung","gewissenhaft","rt","url","responses","stimulus","key_press","val","type","type_specific","category","cs_selected","target","indirect","task","nr_pres","response"
"true","fullscreen","0","7566","0.0-0.0","llyz70t28f","many_one","0","indirect_first","0","af06el20","0","18","1","1","3","1","","0","1","0","","","","","","","","","","","","","","",""
"","external-html","1","61588","0.0-1.0","llyz70t28f","many_one","0","indirect_first","0","af06el20","0","18","1","1","3","1","","0","1","0","53983.12000001897","text/information.html","","","","","","","","","","","","",""
"","external-html","2","122950","0.0-2.0","llyz70t28f","many_one","0","indirect_first","0","af06el20","0","18","1","1","3","1","","0","1","0","61291.794999997364","text/consent.html","","","","","","","","","","","","",""
"","survey-html-form","3","194386","0.0-3.0","llyz70t28f","many_one","0","indirect_first","0","af06el20","0","18","1","1","3","1","","0","1","0","71433.12000000151","","{""codeword_enter"":""af06el20""}","","","","","","","","","","","",""
"","survey-html-form","4","216891","0.0-4.0","llyz70t28f","many_one","0","indirect_first","0","af06el20","0","18","1","1","3","1","","0","1","0","22501.54499997734","","{""age"":""18"",""education"":""1"",""subject"":""3"",""gender"":""0"",""handedness"":""1"",""chinese"":""1""}","","","","","","","","","","","",""
"","survey-html-form","5","231880","0.0-5.0","llyz70t28f","many_one","0","indirect_first","0","af06el20","0","18","1","1","3","1","","0","1","0","14986.04499999783","","{}","","","","","","","","","","","",""
"","html-keyboard-response","6","235895","0.0-6.0-0.0-0.0","llyz70t28f","many_one","0","indirect_first","0","af06el20","0","18","1","1","3","1","","0","1","0","null","","","<div class = 'row'><div class = 'column'><img src = 'usneg/2900.bmp' width = '100%;'></div><div class = 'column'><img src = 'category4/CS5.png' width = '70%;'></div></div>","null","neg","CS","CS","4","category4/CS5.png","","","","",""
"","html-keyboard-response","7","238405","0.0-6.0-0.0-0.1","llyz70t28f","many_one","0","indirect_first","0","af06el20","0","18","1","1","3","1","","0","1","0","null","","","<div class = 'row'><div class = 'column'><img src = 'category3/CS5.png' width = '70%;'></div><div class = 'column'><img src = 'uspos/4599.bmp' width = '100%;'></div></div>","null","pos","CS","CS","3","category3/CS5.png","","","","",""
"","html-keyboard-response","8","240920","0.0-6.0-0.0-0.2","llyz70t28f","many_one","0","indirect_first","0","af06el20","0","18","1","1","3","1","","0","1","0","null","","","<div class = 'row'><div class = 'column'><img src = 'usneg/9920.bmp' width = '100%;'></div><div class = 'column'><img src = 'category2/CS2.png' width = '70%;'></div></div>","null","neg","CS","CS","2","category2/CS2.png","","","","",""
"","html-keyboard-response","9","243429","0.0-6.0-0.0-0.3","llyz70t28f","many_one","0","indirect_first","0","af06el20","0","18","1","1","3","1","","0","1","0","null","","","<div class = 'row'><div class = 'column'><img src = 'usneg/9280.bmp' width = '100%;'></div><div class = 'column'><img src = 'category4/CS8.png' width = '70%;'></div></div>","null","neg","CS","CS","4","category4/CS8.png","","","","",""
"","html-keyboard-response","10","245955","0.0-6.0-0.0-0.4","llyz70t28f","many_one","0","indirect_first","0","af06el20","0","18","1","1","3","1","","0","1","0","null","","","<div class = 'row'><div class = 'column'><img src = 'category2/CS1.png' width = '70%;'></div><div class = 'column'><img src = 'usneg/9830.bmp' width = '100%;'></div></div>","null","neg","CS","CS","2","category2/CS1.png","","","","",""
"","html-keyboard-response","11","248482","0.0-6.0-0.0-0.5","llyz70t28f","many_one","0","indirect_first","0","af06el20","0","18","1","1","3","1","","0","1","0","null","","","<div class = 'row'><div class = 'column'><img src = 'category4/CS7.png' width = '70%;'></div><div class = 'column'><img src = 'usneg/9421.bmp' width = '100%;'></div></div>","null","neg","CS","CS","4","category4/CS7.png","","","","",""
"","html-keyboard-response","12","250999","0.0-6.0-0.0-0.6","llyz70t28f","many_one","0","indirect_first","0","af06el20","0","18","1","1","3","1","","0","1","0","null","","","<div class = 'row'><div class = 'column'><img src = 'usneg/9340.bmp' width = '100%;'></div><div class = 'column'><img src = 'category2/CS8.png' width = '70%;'></div></div>","null","neg","CS","CS","2","category2/CS8.png","","","","",""
"","html-keyboard-response","13","253516","0.0-6.0-0.0-0.7","llyz70t28f","many_one","0","indirect_first","0","af06el20","0","18","1","1","3","1","","0","1","0","null","","","<div class = 'row'><div class = 'column'><img src = 'uspos/5830.bmp' width = '100%;'></div><div class = 'column'><img src = 'category1/CS8.png' width = '70%;'></div></div>","null","pos","CS","CS","1","category1/CS8.png","","","","",""
"","html-keyboard-response","14","256024","0.0-6.0-0.0-0.8","llyz70t28f","many_one","0","indirect_first","0","af06el20","0","18","1","1","3","1","","0","1","0","null","","","<div class = 'row'><div class = 'column'><img src = 'category3/CS8.png' width = '70%;'></div><div class = 'column'><img src = 'uspos/2530.bmp' width = '100%;'></div></div>","null","pos","CS","CS","3","category3/CS8.png","","","","",""
"","html-keyboard-response","15","258535","0.0-6.0-0.0-0.9","llyz70t28f","many_one","0","indirect_first","0","af06el20","0","18","1","1","3","1","","0","1","0","null","","","<div class = 'row'><div class = 'column'><img src = 'uspos/1440.bmp' width = '100%;'></div><div class = 'column'><img src = 'category1/CS1.png' width = '70%;'></div></div>","null","pos","CS","CS","1","category1/CS1.png","","","","",""
"","html-keyboard-response","16","261052","0.0-6.0-0.0-0.10","llyz70t28f","many_one","0","indirect_first","0","af06el20","0","18","1","1","3","1","","0","1","0","null","","","<div class = 'row'><div class = 'column'><img src = 'usneg/9050.bmp' width = '100%;'></div><div class = 'column'><img src = 'category2/CS10.png' width = '70%;'></div></div>","null","neg","CS","CS","2","category2/CS10.png","","","","",""
"","html-keyboard-response","17","263569","0.0-6.0-0.0-0.11","llyz70t28f","many_one","0","indirect_first","0","af06el20","0","18","1","1","3","1","","0","1","0","null","","","<div class = 'row'><div class = 'column'><img src = 'uspos/5700.bmp' width = '100%;'></div><div class = 'column'><img src = 'category3/CS1.png' width = '70%;'></div></div>","null","pos","CS","CS","3","category3/CS1.png","","","","",""
"","html-keyboard-response","18","266081","0.0-6.0-0.0-0.12","llyz70t28f","many_one","0","indirect_first","0","af06el20","0","18","1","1","3","1","","0","1","0","null","","","<div class = 'row'><div class = 'column'><img src = 'uspos/8490.bmp' width = '100%;'></div><div class = 'column'><img src = 'category3/CS4.png' width = '70%;'></div></div>","null","pos","CS","CS","3","category3/CS4.png","","","","",""
"","html-keyboard-response","19","268600","0.0-6.0-0.0-0.13","llyz70t28f","many_one","0","indirect_first","0","af06el20","0","18","1","1","3","1","","0","1","0","null","","","<div class = 'row'><div class = 'column'><img src = 'usneg/6570.1.bmp' width = '100%;'></div><div class = 'column'><img src = 'category2/CS5.png' width = '70%;'></div></div>","null","neg","CS","CS","2","category2/CS5.png","","","","",""
"","html-keyboard-response","20","271116","0.0-6.0-0.0-0.14","llyz70t28f","many_one","0","indirect_first","0","af06el20","0","18","1","1","3","1","","0","1","0","null","","","<div class = 'row'><div class = 'column'><img src = 'uspos/2340.bmp' width = '100%;'></div><div class = 'column'><img src = 'category3/CS7.png' width = '70%;'></div></div>","null","pos","CS","CS","3","category3/CS7.png","","","","",""
"","html-keyboard-response","21","273630","0.0-6.0-0.0-0.15","llyz70t28f","many_one","0","indirect_first","0","af06el20","0","18","1","1","3","1","","0","1","0","null","","","<div class = 'row'><div class = 'column'><img src = 'category1/CS4.png' width = '70%;'></div><div class = 'column'><img src = 'uspos/5831.bmp' width = '100%;'></div></div>","null","pos","CS","CS","1","category1/CS4.png","","","","",""
"","html-keyboard-response","22","276140","0.0-6.0-0.0-0.16","llyz70t28f","many_one","0","indirect_first","0","af06el20","0","18","1","1","3","1","","0","1","0","null","","","<div class = 'row'><div class = 'column'><img src = 'category1/CS2.png' width = '70%;'></div><div class = 'column'><img src = 'uspos/7325.bmp' width = '100%;'></div></div>","null","pos","CS","CS","1","category1/CS2.png","","","","",""
"","html-keyboard-response","23","278653","0.0-6.0-0.0-0.17","llyz70t28f","many_one","0","indirect_first","0","af06el20","0","18","1","1","3","1","","0","1","0","null","","","<div class = 'row'><div class = 'column'><img src = 'category4/CS9.png' width = '70%;'></div><div class = 'column'><img src = 'usneg/6838.bmp' width = '100%;'></div></div>","null","neg","CS","CS","4","category4/CS9.png","","","","",""
"","html-keyboard-response","24","281166","0.0-6.0-0.0-0.18","llyz70t28f","many_one","0","indirect_first","0","af06el20","0","18","1","1","3","1","","0","1","0","null","","","<div class = 'row'><div class = 'column'><img src = 'category4/CS10.png' width = '70%;'></div><div class = 'column'><img src = 'usneg/6020.bmp' width = '100%;'></div></div>","null","neg","CS","CS","4","category4/CS10.png","","","","",""
"","html-keyboard-response","25","283692","0.0-6.0-0.0-0.19","llyz70t28f","many_one","0","indirect_first","0","af06el20","0","18","1","1","3","1","","0","1","0","null","","","<div class = 'row'><div class = 'column'><img src = 'uspos/8190.bmp' width = '100%;'></div><div class = 'column'><img src = 'category1/CS9.png' width = '70%;'></div></div>","null","pos","CS","CS","1","category1/CS9.png","","","","",""
"","survey-html-form","26","288003","0.0-6.0-1.0","llyz70t28f","many_one","0","indirect_first","0","af06el20","0","18","1","1","3","1","","0","1","0","3805.850000004284","","{}","","","","","","","","","","","",""
"","html-keyboard-response","27","292021","0.0-6.0-2.0-0.0","llyz70t28f","many_one","0","indirect_first","0","af06el20","0","18","1","1","3","1","","0","1","0","null","","","<div class = 'row'><div class = 'column'><img src = 'category1/CS1.png' width = '70%;'></div><div class = 'column'><img src = 'uspos/1440.bmp' width = '100%;'></div></div>","null","pos","CS","CS","1","category1/CS1.png","","","","",""
"","html-keyboard-response","28","294536","0.0-6.0-2.0-0.1","llyz70t28f","many_one","0","indirect_first","0","af06el20","0","18","1","1","3","1","","0","1","0","null","","","<div class = 'row'><div class = 'column'><img src = 'category3/CS4.png' width = '70%;'></div><div class = 'column'><img src = 'uspos/8490.bmp' width = '100%;'></div></div>","null","pos","CS","CS","3","category3/CS4.png","","","","",""
"","html-keyboard-response","29","297042","0.0-6.0-2.0-0.2","llyz70t28f","many_one","0","indirect_first","0","af06el20","0","18","1","1","3","1","","0","1","0","null","","","<div class = 'row'><div class = 'column'><img src = 'category3/CS1.png' width = '70%;'></div><div class = 'column'><img src = 'uspos/5700.bmp' width = '100%;'></div></div>","null","pos","CS","CS","3","category3/CS1.png","","","","",""
"","html-keyboard-response","30","299555","0.0-6.0-2.0-0.3","llyz70t28f","many_one","0","indirect_first","0","af06el20","0","18","1","1","3","1","","0","1","0","null","","","<div class = 'row'><div class = 'column'><img src = 'category4/CS9.png' width = '70%;'></div><div class = 'column'><img src = 'usneg/6838.bmp' width = '100%;'></div></div>","null","neg","CS","CS","4","category4/CS9.png","","","","",""
"","html-keyboard-response","31","302072","0.0-6.0-2.0-0.4","llyz70t28f","many_one","0","indirect_first","0","af06el20","0","18","1","1","3","1","","0","1","0","null","","","<div class = 'row'><div class = 'column'><img src = 'uspos/4599.bmp' width = '100%;'></div><div class = 'column'><img src = 'category3/CS5.png' width = '70%;'></div></div>","null","pos","CS","CS","3","category3/CS5.png","","","","",""
"","html-keyboard-response","32","304580","0.0-6.0-2.0-0.5","llyz70t28f","many_one","0","indirect_first","0","af06el20","0","18","1","1","3","1","","0","1","0","null","","","<div class = 'row'><div class = 'column'><img src = 'usneg/2900.bmp' width = '100%;'></div><div class = 'column'><img src = 'category4/CS5.png' width = '70%;'></div></div>","null","neg","CS","CS","4","category4/CS5.png","","","","",""
"","html-keyboard-response","33","307095","0.0-6.0-2.0-0.6","llyz70t28f","many_one","0","indirect_first","0","af06el20","0","18","1","1","3","1","","0","1","0","null","","","<div class = 'row'><div class = 'column'><img src = 'category1/CS9.png' width = '70%;'></div><div class = 'column'><img src = 'uspos/8190.bmp' width = '100%;'></div></div>","null","pos","CS","CS","1","category1/CS9.png","","","","",""
"","html-keyboard-response","34","309617","0.0-6.0-2.0-0.7","llyz70t28f","many_one","0","indirect_first","0","af06el20","0","18","1","1","3","1","","0","1","0","null","","","<div class = 'row'><div class = 'column'><img src = 'category2/CS1.png' width = '70%;'></div><div class = 'column'><img src = 'usneg/9830.bmp' width = '100%;'></div></div>","null","neg","CS","CS","2","category2/CS1.png","","","","",""
"","html-keyboard-response","35","312131","0.0-6.0-2.0-0.8","llyz70t28f","many_one","0","indirect_first","0","af06el20","0","18","1","1","3","1","","0","1","0","null","","","<div class = 'row'><div class = 'column'><img src = 'usneg/9050.bmp' width = '100%;'></div><div class = 'column'><img src = 'category2/CS10.png' width = '70%;'></div></div>","null","neg","CS","CS","2","category2/CS10.png","","","","",""
"","html-keyboard-response","36","314641","0.0-6.0-2.0-0.9","llyz70t28f","many_one","0","indirect_first","0","af06el20","0","18","1","1","3","1","","0","1","0","null","","","<div class = 'row'><div class = 'column'><img src = 'category2/CS8.png' width = '70%;'></div><div class = 'column'><img src = 'usneg/9340.bmp' width = '100%;'></div></div>","null","neg","CS","CS","2","category2/CS8.png","","","","",""
"","html-keyboard-response","37","317156","0.0-6.0-2.0-0.10","llyz70t28f","many_one","0","indirect_first","0","af06el20","0","18","1","1","3","1","","0","1","0","null","","","<div class = 'row'><div class = 'column'><img src = 'uspos/2530.bmp' width = '100%;'></div><div class = 'column'><img src = 'category3/CS8.png' width = '70%;'></div></div>","null","pos","CS","CS","3","category3/CS8.png","","","","",""
"","html-keyboard-response","38","319684","0.0-6.0-2.0-0.11","llyz70t28f","many_one","0","indirect_first","0","af06el20","0","18","1","1","3","1","","0","1","0","null","","","<div class = 'row'><div class = 'column'><img src = 'category4/CS7.png' width = '70%;'></div><div class = 'column'><img src = 'usneg/9421.bmp' width = '100%;'></div></div>","null","neg","CS","CS","4","category4/CS7.png","","","","",""
"","html-keyboard-response","39","322200","0.0-6.0-2.0-0.12","llyz70t28f","many_one","0","indirect_first","0","af06el20","0","18","1","1","3","1","","0","1","0","null","","","<div class = 'row'><div class = 'column'><img src = 'category1/CS4.png' width = '70%;'></div><div class = 'column'><img src = 'uspos/5831.bmp' width = '100%;'></div></div>","null","pos","CS","CS","1","category1/CS4.png","","","","",""
"","html-keyboard-response","40","324718","0.0-6.0-2.0-0.13","llyz70t28f","many_one","0","indirect_first","0","af06el20","0","18","1","1","3","1","","0","1","0","null","","","<div class = 'row'><div class = 'column'><img src = 'category2/CS5.png' width = '70%;'></div><div class = 'column'><img src = 'usneg/6570.1.bmp' width = '100%;'></div></div>","null","neg","CS","CS","2","category2/CS5.png","","","","",""
"","html-keyboard-response","41","327239","0.0-6.0-2.0-0.14","llyz70t28f","many_one","0","indirect_first","0","af06el20","0","18","1","1","3","1","","0","1","0","null","","","<div class = 'row'><div class = 'column'><img src = 'uspos/5830.bmp' width = '100%;'></div><div class = 'column'><img src = 'category1/CS8.png' width = '70%;'></div></div>","null","pos","CS","CS","1","category1/CS8.png","","","","",""
"","html-keyboard-response","42","329753","0.0-6.0-2.0-0.15","llyz70t28f","many_one","0","indirect_first","0","af06el20","0","18","1","1","3","1","","0","1","0","null","","","<div class = 'row'><div class = 'column'><img src = 'category4/CS10.png' width = '70%;'></div><div class = 'column'><img src = 'usneg/6020.bmp' width = '100%;'></div></div>","null","neg","CS","CS","4","category4/CS10.png","","","","",""
"","html-keyboard-response","43","332274","0.0-6.0-2.0-0.16","llyz70t28f","many_one","0","indirect_first","0","af06el20","0","18","1","1","3","1","","0","1","0","null","","","<div class = 'row'><div class = 'column'><img src = 'usneg/9280.bmp' width = '100%;'></div><div class = 'column'><img src = 'category4/CS8.png' width = '70%;'></div></div>","null","neg","CS","CS","4","category4/CS8.png","","","","",""
"","html-keyboard-response","44","334786","0.0-6.0-2.0-0.17","llyz70t28f","many_one","0","indirect_first","0","af06el20","0","18","1","1","3","1","","0","1","0","null","","","<div class = 'row'><div class = 'column'><img src = 'category1/CS2.png' width = '70%;'></div><div class = 'column'><img src = 'uspos/7325.bmp' width = '100%;'></div></div>","null","pos","CS","CS","1","category1/CS2.png","","","","",""
"","html-keyboard-response","45","337297","0.0-6.0-2.0-0.18","llyz70t28f","many_one","0","indirect_first","0","af06el20","0","18","1","1","3","1","","0","1","0","null","","","<div class = 'row'><div class = 'column'><img src = 'category3/CS7.png' width = '70%;'></div><div class = 'column'><img src = 'uspos/2340.bmp' width = '100%;'></div></div>","null","pos","CS","CS","3","category3/CS7.png","","","","",""
"","html-keyboard-response","46","339812","0.0-6.0-2.0-0.19","llyz70t28f","many_one","0","indirect_first","0","af06el20","0","18","1","1","3","1","","0","1","0","null","","","<div class = 'row'><div class = 'column'><img src = 'usneg/9920.bmp' width = '100%;'></div><div class = 'column'><img src = 'category2/CS2.png' width = '70%;'></div></div>","null","neg","CS","CS","2","category2/CS2.png","","","","",""
"","survey-html-form","47","341245","0.0-6.0-3.0","llyz70t28f","many_one","0","indirect_first","0","af06el20","0","18","1","1","3","1","","0","1","0","930.160000018077","","{}","","","","","","","","","","","",""
"","html-keyboard-response","48","345257","0.0-6.0-4.0-0.0","llyz70t28f","many_one","0","indirect_first","0","af06el20","0","18","1","1","3","1","","0","1","0","null","","","<div class = 'row'><div class = 'column'><img src = 'category3/CS8.png' width = '70%;'></div><div class = 'column'><img src = 'uspos/2530.bmp' width = '100%;'></div></div>","null","pos","CS","CS","3","category3/CS8.png","","","","",""
"","html-keyboard-response","49","347770","0.0-6.0-4.0-0.1","llyz70t28f","many_one","0","indirect_first","0","af06el20","0","18","1","1","3","1","","0","1","0","null","","","<div class = 'row'><div class = 'column'><img src = 'category2/CS5.png' width = '70%;'></div><div class = 'column'><img src = 'usneg/6570.1.bmp' width = '100%;'></div></div>","null","neg","CS","CS","2","category2/CS5.png","","","","",""
"","html-keyboard-response","50","350289","0.0-6.0-4.0-0.2","llyz70t28f","many_one","0","indirect_first","0","af06el20","0","18","1","1","3","1","","0","1","0","null","","","<div class = 'row'><div class = 'column'><img src = 'usneg/6020.bmp' width = '100%;'></div><div class = 'column'><img src = 'category4/CS10.png' width = '70%;'></div></div>","null","neg","CS","CS","4","category4/CS10.png","","","","",""
"","html-keyboard-response","51","352799","0.0-6.0-4.0-0.3","llyz70t28f","many_one","0","indirect_first","0","af06el20","0","18","1","1","3","1","","0","1","0","null","","","<div class = 'row'><div class = 'column'><img src = 'category1/CS8.png' width = '70%;'></div><div class = 'column'><img src = 'uspos/5830.bmp' width = '100%;'></div></div>","null","pos","CS","CS","1","category1/CS8.png","","","","",""
"","html-keyboard-response","52","355311","0.0-6.0-4.0-0.4","llyz70t28f","many_one","0","indirect_first","0","af06el20","0","18","1","1","3","1","","0","1","0","null","","","<div class = 'row'><div class = 'column'><img src = 'usneg/9280.bmp' width = '100%;'></div><div class = 'column'><img src = 'category4/CS8.png' width = '70%;'></div></div>","null","neg","CS","CS","4","category4/CS8.png","","","","",""
"","html-keyboard-response","53","357828","0.0-6.0-4.0-0.5","llyz70t28f","many_one","0","indirect_first","0","af06el20","0","18","1","1","3","1","","0","1","0","null","","","<div class = 'row'><div class = 'column'><img src = 'category3/CS4.png' width = '70%;'></div><div class = 'column'><img src = 'uspos/8490.bmp' width = '100%;'></div></div>","null","pos","CS","CS","3","category3/CS4.png","","","","",""
"","html-keyboard-response","54","360348","0.0-6.0-4.0-0.6","llyz70t28f","many_one","0","indirect_first","0","af06el20","0","18","1","1","3","1","","0","1","0","null","","","<div class = 'row'><div class = 'column'><img src = 'uspos/1440.bmp' width = '100%;'></div><div class = 'column'><img src = 'category1/CS1.png' width = '70%;'></div></div>","null","pos","CS","CS","1","category1/CS1.png","","","","",""
"","html-keyboard-response","55","362873","0.0-6.0-4.0-0.7","llyz70t28f","many_one","0","indirect_first","0","af06el20","0","18","1","1","3","1","","0","1","0","null","","","<div class = 'row'><div class = 'column'><img src = 'usneg/9340.bmp' width = '100%;'></div><div class = 'column'><img src = 'category2/CS8.png' width = '70%;'></div></div>","null","neg","CS","CS","2","category2/CS8.png","","","","",""
"","html-keyboard-response","56","365386","0.0-6.0-4.0-0.8","llyz70t28f","many_one","0","indirect_first","0","af06el20","0","18","1","1","3","1","","0","1","0","null","","","<div class = 'row'><div class = 'column'><img src = 'usneg/6838.bmp' width = '100%;'></div><div class = 'column'><img src = 'category4/CS9.png' width = '70%;'></div></div>","null","neg","CS","CS","4","category4/CS9.png","","","","",""
"","html-keyboard-response","57","367901","0.0-6.0-4.0-0.9","llyz70t28f","many_one","0","indirect_first","0","af06el20","0","18","1","1","3","1","","0","1","0","null","","","<div class = 'row'><div class = 'column'><img src = 'uspos/7325.bmp' width = '100%;'></div><div class = 'column'><img src = 'category1/CS2.png' width = '70%;'></div></div>","null","pos","CS","CS","1","category1/CS2.png","","","","",""
"","html-keyboard-response","58","370416","0.0-6.0-4.0-0.10","llyz70t28f","many_one","0","indirect_first","0","af06el20","0","18","1","1","3","1","","0","1","0","null","","","<div class = 'row'><div class = 'column'><img src = 'category2/CS1.png' width = '70%;'></div><div class = 'column'><img src = 'usneg/9830.bmp' width = '100%;'></div></div>","null","neg","CS","CS","2","category2/CS1.png","","","","",""
"","html-keyboard-response","59","372939","0.0-6.0-4.0-0.11","llyz70t28f","many_one","0","indirect_first","0","af06el20","0","18","1","1","3","1","","0","1","0","null","","","<div class = 'row'><div class = 'column'><img src = 'category3/CS5.png' width = '70%;'></div><div class = 'column'><img src = 'uspos/4599.bmp' width = '100%;'></div></div>","null","pos","CS","CS","3","category3/CS5.png","","","","",""
"","html-keyboard-response","60","375461","0.0-6.0-4.0-0.12","llyz70t28f","many_one","0","indirect_first","0","af06el20","0","18","1","1","3","1","","0","1","0","null","","","<div class = 'row'><div class = 'column'><img src = 'category4/CS5.png' width = '70%;'></div><div class = 'column'><img src = 'usneg/2900.bmp' width = '100%;'></div></div>","null","neg","CS","CS","4","category4/CS5.png","","","","",""
"","html-keyboard-response","61","377980","0.0-6.0-4.0-0.13","llyz70t28f","many_one","0","indirect_first","0","af06el20","0","18","1","1","3","1","","0","1","0","null","","","<div class = 'row'><div class = 'column'><img src = 'category4/CS7.png' width = '70%;'></div><div class = 'column'><img src = 'usneg/9421.bmp' width = '100%;'></div></div>","null","neg","CS","CS","4","category4/CS7.png","","","","",""
"","html-keyboard-response","62","380493","0.0-6.0-4.0-0.14","llyz70t28f","many_one","0","indirect_first","0","af06el20","0","18","1","1","3","1","","0","1","0","null","","","<div class = 'row'><div class = 'column'><img src = 'category1/CS4.png' width = '70%;'></div><div class = 'column'><img src = 'uspos/5831.bmp' width = '100%;'></div></div>","null","pos","CS","CS","1","category1/CS4.png","","","","",""
"","html-keyboard-response","63","382998","0.0-6.0-4.0-0.15","llyz70t28f","many_one","0","indirect_first","0","af06el20","0","18","1","1","3","1","","0","1","0","null","","","<div class = 'row'><div class = 'column'><img src = 'usneg/9920.bmp' width = '100%;'></div><div class = 'column'><img src = 'category2/CS2.png' width = '70%;'></div></div>","null","neg","CS","CS","2","category2/CS2.png","","","","",""
"","html-keyboard-response","64","385511","0.0-6.0-4.0-0.16","llyz70t28f","many_one","0","indirect_first","0","af06el20","0","18","1","1","3","1","","0","1","0","null","","","<div class = 'row'><div class = 'column'><img src = 'uspos/5700.bmp' width = '100%;'></div><div class = 'column'><img src = 'category3/CS1.png' width = '70%;'></div></div>","null","pos","CS","CS","3","category3/CS1.png","","","","",""
"","html-keyboard-response","65","388021","0.0-6.0-4.0-0.17","llyz70t28f","many_one","0","indirect_first","0","af06el20","0","18","1","1","3","1","","0","1","0","null","","","<div class = 'row'><div class = 'column'><img src = 'category3/CS7.png' width = '70%;'></div><div class = 'column'><img src = 'uspos/2340.bmp' width = '100%;'></div></div>","null","pos","CS","CS","3","category3/CS7.png","","","","",""
"","html-keyboard-response","66","390532","0.0-6.0-4.0-0.18","llyz70t28f","many_one","0","indirect_first","0","af06el20","0","18","1","1","3","1","","0","1","0","null","","","<div class = 'row'><div class = 'column'><img src = 'usneg/9050.bmp' width = '100%;'></div><div class = 'column'><img src = 'category2/CS10.png' width = '70%;'></div></div>","null","neg","CS","CS","2","category2/CS10.png","","","","",""
"","html-keyboard-response","67","393041","0.0-6.0-4.0-0.19","llyz70t28f","many_one","0","indirect_first","0","af06el20","0","18","1","1","3","1","","0","1","0","null","","","<div class = 'row'><div class = 'column'><img src = 'uspos/8190.bmp' width = '100%;'></div><div class = 'column'><img src = 'category1/CS9.png' width = '70%;'></div></div>","null","pos","CS","CS","1","category1/CS9.png","","","","",""
"","survey-html-form","68","394861","0.0-6.0-5.0","llyz70t28f","many_one","0","indirect_first","0","af06el20","0","18","1","1","3","1","","0","1","0","1317.4050000088755","","{}","","","","","","","","","","","",""
"","html-keyboard-response","69","398877","0.0-6.0-6.0-0.0","llyz70t28f","many_one","0","indirect_first","0","af06el20","0","18","1","1","3","1","","0","1","0","null","","","<div class = 'row'><div class = 'column'><img src = 'category3/CS8.png' width = '70%;'></div><div class = 'column'><img src = 'uspos/2530.bmp' width = '100%;'></div></div>","null","pos","CS","CS","3","category3/CS8.png","","","","",""
"","html-keyboard-response","70","401392","0.0-6.0-6.0-0.1","llyz70t28f","many_one","0","indirect_first","0","af06el20","0","18","1","1","3","1","","0","1","0","null","","","<div class = 'row'><div class = 'column'><img src = 'uspos/5830.bmp' width = '100%;'></div><div class = 'column'><img src = 'category1/CS8.png' width = '70%;'></div></div>","null","pos","CS","CS","1","category1/CS8.png","","","","",""
"","html-keyboard-response","71","403919","0.0-6.0-6.0-0.2","llyz70t28f","many_one","0","indirect_first","0","af06el20","0","18","1","1","3","1","","0","1","0","null","","","<div class = 'row'><div class = 'column'><img src = 'category3/CS4.png' width = '70%;'></div><div class = 'column'><img src = 'uspos/8490.bmp' width = '100%;'></div></div>","null","pos","CS","CS","3","category3/CS4.png","","","","",""
"","html-keyboard-response","72","406425","0.0-6.0-6.0-0.3","llyz70t28f","many_one","0","indirect_first","0","af06el20","0","18","1","1","3","1","","0","1","0","null","","","<div class = 'row'><div class = 'column'><img src = 'usneg/6020.bmp' width = '100%;'></div><div class = 'column'><img src = 'category4/CS10.png' width = '70%;'></div></div>","null","neg","CS","CS","4","category4/CS10.png","","","","",""
"","html-keyboard-response","73","408942","0.0-6.0-6.0-0.4","llyz70t28f","many_one","0","indirect_first","0","af06el20","0","18","1","1","3","1","","0","1","0","null","","","<div class = 'row'><div class = 'column'><img src = 'category2/CS5.png' width = '70%;'></div><div class = 'column'><img src = 'usneg/6570.1.bmp' width = '100%;'></div></div>","null","neg","CS","CS","2","category2/CS5.png","","","","",""
"","html-keyboard-response","74","411463","0.0-6.0-6.0-0.5","llyz70t28f","many_one","0","indirect_first","0","af06el20","0","18","1","1","3","1","","0","1","0","null","","","<div class = 'row'><div class = 'column'><img src = 'category4/CS9.png' width = '70%;'></div><div class = 'column'><img src = 'usneg/6838.bmp' width = '100%;'></div></div>","null","neg","CS","CS","4","category4/CS9.png","","","","",""
"","html-keyboard-response","75","413978","0.0-6.0-6.0-0.6","llyz70t28f","many_one","0","indirect_first","0","af06el20","0","18","1","1","3","1","","0","1","0","null","","","<div class = 'row'><div class = 'column'><img src = 'category3/CS1.png' width = '70%;'></div><div class = 'column'><img src = 'uspos/5700.bmp' width = '100%;'></div></div>","null","pos","CS","CS","3","category3/CS1.png","","","","",""
"","html-keyboard-response","76","416491","0.0-6.0-6.0-0.7","llyz70t28f","many_one","0","indirect_first","0","af06el20","0","18","1","1","3","1","","0","1","0","null","","","<div class = 'row'><div class = 'column'><img src = 'category2/CS8.png' width = '70%;'></div><div class = 'column'><img src = 'usneg/9340.bmp' width = '100%;'></div></div>","null","neg","CS","CS","2","category2/CS8.png","","","","",""
"","html-keyboard-response","77","418995","0.0-6.0-6.0-0.8","llyz70t28f","many_one","0","indirect_first","0","af06el20","0","18","1","1","3","1","","0","1","0","null","","","<div class = 'row'><div class = 'column'><img src = 'category1/CS1.png' width = '70%;'></div><div class = 'column'><img src = 'uspos/1440.bmp' width = '100%;'></div></div>","null","pos","CS","CS","1","category1/CS1.png","","","","",""
"","html-keyboard-response","78","421513","0.0-6.0-6.0-0.9","llyz70t28f","many_one","0","indirect_first","0","af06el20","0","18","1","1","3","1","","0","1","0","null","","","<div class = 'row'><div class = 'column'><img src = 'category4/CS5.png' width = '70%;'></div><div class = 'column'><img src = 'usneg/2900.bmp' width = '100%;'></div></div>","null","neg","CS","CS","4","category4/CS5.png","","","","",""
"","html-keyboard-response","79","424023","0.0-6.0-6.0-0.10","llyz70t28f","many_one","0","indirect_first","0","af06el20","0","18","1","1","3","1","","0","1","0","null","","","<div class = 'row'><div class = 'column'><img src = 'category1/CS9.png' width = '70%;'></div><div class = 'column'><img src = 'uspos/8190.bmp' width = '100%;'></div></div>","null","pos","CS","CS","1","category1/CS9.png","","","","",""
"","html-keyboard-response","80","426539","0.0-6.0-6.0-0.11","llyz70t28f","many_one","0","indirect_first","0","af06el20","0","18","1","1","3","1","","0","1","0","null","","","<div class = 'row'><div class = 'column'><img src = 'category3/CS7.png' width = '70%;'></div><div class = 'column'><img src = 'uspos/2340.bmp' width = '100%;'></div></div>","null","pos","CS","CS","3","category3/CS7.png","","","","",""
"","html-keyboard-response","81","429050","0.0-6.0-6.0-0.12","llyz70t28f","many_one","0","indirect_first","0","af06el20","0","18","1","1","3","1","","0","1","0","null","","","<div class = 'row'><div class = 'column'><img src = 'category1/CS4.png' width = '70%;'></div><div class = 'column'><img src = 'uspos/5831.bmp' width = '100%;'></div></div>","null","pos","CS","CS","1","category1/CS4.png","","","","",""
"","html-keyboard-response","82","431566","0.0-6.0-6.0-0.13","llyz70t28f","many_one","0","indirect_first","0","af06el20","0","18","1","1","3","1","","0","1","0","null","","","<div class = 'row'><div class = 'column'><img src = 'category1/CS2.png' width = '70%;'></div><div class = 'column'><img src = 'uspos/7325.bmp' width = '100%;'></div></div>","null","pos","CS","CS","1","category1/CS2.png","","","","",""
"","html-keyboard-response","83","434078","0.0-6.0-6.0-0.14","llyz70t28f","many_one","0","indirect_first","0","af06el20","0","18","1","1","3","1","","0","1","0","null","","","<div class = 'row'><div class = 'column'><img src = 'usneg/9050.bmp' width = '100%;'></div><div class = 'column'><img src = 'category2/CS10.png' width = '70%;'></div></div>","null","neg","CS","CS","2","category2/CS10.png","","","","",""
"","html-keyboard-response","84","436596","0.0-6.0-6.0-0.15","llyz70t28f","many_one","0","indirect_first","0","af06el20","0","18","1","1","3","1","","0","1","0","null","","","<div class = 'row'><div class = 'column'><img src = 'uspos/4599.bmp' width = '100%;'></div><div class = 'column'><img src = 'category3/CS5.png' width = '70%;'></div></div>","null","pos","CS","CS","3","category3/CS5.png","","","","",""
"","html-keyboard-response","85","439110","0.0-6.0-6.0-0.16","llyz70t28f","many_one","0","indirect_first","0","af06el20","0","18","1","1","3","1","","0","1","0","null","","","<div class = 'row'><div class = 'column'><img src = 'usneg/9421.bmp' width = '100%;'></div><div class = 'column'><img src = 'category4/CS7.png' width = '70%;'></div></div>","null","neg","CS","CS","4","category4/CS7.png","","","","",""
"","html-keyboard-response","86","441619","0.0-6.0-6.0-0.17","llyz70t28f","many_one","0","indirect_first","0","af06el20","0","18","1","1","3","1","","0","1","0","null","","","<div class = 'row'><div class = 'column'><img src = 'usneg/9920.bmp' width = '100%;'></div><div class = 'column'><img src = 'category2/CS2.png' width = '70%;'></div></div>","null","neg","CS","CS","2","category2/CS2.png","","","","",""
"","html-keyboard-response","87","444149","0.0-6.0-6.0-0.18","llyz70t28f","many_one","0","indirect_first","0","af06el20","0","18","1","1","3","1","","0","1","0","null","","","<div class = 'row'><div class = 'column'><img src = 'usneg/9830.bmp' width = '100%;'></div><div class = 'column'><img src = 'category2/CS1.png' width = '70%;'></div></div>","null","neg","CS","CS","2","category2/CS1.png","","","","",""
"","html-keyboard-response","88","446666","0.0-6.0-6.0-0.19","llyz70t28f","many_one","0","indirect_first","0","af06el20","0","18","1","1","3","1","","0","1","0","null","","","<div class = 'row'><div class = 'column'><img src = 'category4/CS8.png' width = '70%;'></div><div class = 'column'><img src = 'usneg/9280.bmp' width = '100%;'></div></div>","null","neg","CS","CS","4","category4/CS8.png","","","","",""
"","html-keyboard-response","89","517487","0.0-7.0","llyz70t28f","many_one","0","indirect_first","0","af06el20","0","18","1","1","3","1","","0","1","0","70319.45000000997","","","<p>Sie sehen nun die chinesischen Zeichen nur ganz kurz. Danach sehen Sie die jeweilige Aussprache der Zeichen als Silbe auf dem Bildschrim. Ihre Aufgabe ist es, für jede Silbe anzugeben, ob diese etwas angenehmes, oder unangenehmes bedeuten könnte. Verlassen Sie sich hier vor allem auf Ihre Intuition.<br><br>Die Zeichen werden nur zur Orientierung dargestellt, beachten Sie sie deshalb nicht. Konzentrieren Sie sich vor allem auf die Silben. <br>Reagieren Sie mit folgenden zwei Tasten: <br><br><b>'D' </b> wenn die Silbe etwas <b>unangenehmes</b> bedeuten könnte. <br><b>'K'</b> wenn die Silbe etwas <b>angenehmes</b> bedeuten könnte. <br><br>Bitte legen Sie nun den Zeigefinger der linken Hand auf die Taste 'D' und den Zeigefinger der rechten Hand auf die Taste 'K'. <br>Reagieren Sie auf jede Silbe so schnell wie möglich. Uns interessiert Ihre spontane Reaktion. <br> <br> <br>Drücken Sie 'D' oder 'K', um die nächste Aufgabe zu starten. </p>","75","","","","","","","","","",""
"","html-keyboard-response","90","520498","0.0-8.0-0.0","llyz70t28f","many_one","0","indirect_first","0","af06el20","0","18","1","1","3","1","","0","1","0","null","","","<div style=""font-size:60px;"">+</div>","null","","","","","","","","","",""
"","html-keyboard-response","91","520590","0.0-8.0-1.0","llyz70t28f","many_one","0","indirect_first","0","af06el20","0","18","1","1","3","1","","0","1","0","null","","","<img src = 'category2/CS6.png' width = '100%;'>","null","","","","","","","","","",""
"","html-keyboard-response","92","520843","0.0-8.0-2.0","llyz70t28f","many_one","0","indirect_first","0","af06el20","0","18","1","1","3","1","","0","1","0","null","","","<img src = 'targets/41.png' width = '100%;'>","null","","","","","","","","","",""
"","html-keyboard-response","93","526021","0.0-8.0-3.0","llyz70t28f","many_one","0","indirect_first","0","af06el20","0","18","1","1","3","1","","0","1","0","5176.8149999843445","","","<img src = 'targets/mask.png' width = '100%;'>","68","neg","GS","GSold","2","category2/CS6.png","targets/41.png","0","indirect","0",""
"","html-keyboard-response","94","527542","0.0-8.0-0.1","llyz70t28f","many_one","0","indirect_first","0","af06el20","0","18","1","1","3","1","","0","1","0","null","","","<div style=""font-size:60px;"">+</div>","null","","","","","","","","","",""
"","html-keyboard-response","95","527634","0.0-8.0-1.1","llyz70t28f","many_one","0","indirect_first","0","af06el20","0","18","1","1","3","1","","0","1","0","null","","","<img src = 'category3/CS7.png' width = '100%;'>","null","","","","","","","","","",""
"","html-keyboard-response","96","527912","0.0-8.0-2.1","llyz70t28f","many_one","0","indirect_first","0","af06el20","0","18","1","1","3","1","","0","1","0","null","","","<img src = 'targets/19.png' width = '100%;'>","null","","","","","","","","","",""
"","html-keyboard-response","97","530689","0.0-8.0-3.1","llyz70t28f","many_one","0","indirect_first","0","af06el20","0","18","1","1","3","1","","0","1","0","2775.7350000028964","","","<img src = 'targets/mask.png' width = '100%;'>","75","pos","CS","CS","3","category3/CS7.png","targets/19.png","1","indirect","1",""
"","html-keyboard-response","98","532197","0.0-8.0-0.2","llyz70t28f","many_one","0","indirect_first","0","af06el20","0","18","1","1","3","1","","0","1","0","null","","","<div style=""font-size:60px;"">+</div>","null","","","","","","","","","",""
"","html-keyboard-response","99","532288","0.0-8.0-1.2","llyz70t28f","many_one","0","indirect_first","0","af06el20","0","18","1","1","3","1","","0","1","0","null","","","<img src = 'category2/CS8.png' width = '100%;'>","null","","","","","","","","","",""
"","html-keyboard-response","100","532554","0.0-8.0-2.2","llyz70t28f","many_one","0","indirect_first","0","af06el20","0","18","1","1","3","1","","0","1","0","null","","","<img src = 'targets/15.png' width = '100%;'>","null","","","","","","","","","",""
"","html-keyboard-response","101","535539","0.0-8.0-3.2","llyz70t28f","many_one","0","indirect_first","0","af06el20","0","18","1","1","3","1","","0","1","0","2983.349999994971","","","<img src = 'targets/mask.png' width = '100%;'>","75","neg","CS","CS","2","category2/CS8.png","targets/15.png","1","indirect","2",""
"","html-keyboard-response","102","537062","0.0-8.0-0.3","llyz70t28f","many_one","0","indirect_first","0","af06el20","0","18","1","1","3","1","","0","1","0","null","","","<div style=""font-size:60px;"">+</div>","null","","","","","","","","","",""
"","html-keyboard-response","103","537154","0.0-8.0-1.3","llyz70t28f","many_one","0","indirect_first","0","af06el20","0","18","1","1","3","1","","0","1","0","null","","","<img src = 'category4/CS7.png' width = '100%;'>","null","","","","","","","","","",""
"","html-keyboard-response","104","537418","0.0-8.0-2.3","llyz70t28f","many_one","0","indirect_first","0","af06el20","0","18","1","1","3","1","","0","1","0","null","","","<img src = 'targets/34.png' width = '100%;'>","null","","","","","","","","","",""
"","html-keyboard-response","105","539600","0.0-8.0-3.3","llyz70t28f","many_one","0","indirect_first","0","af06el20","0","18","1","1","3","1","","0","1","0","2180.7100000150967","","","<img src = 'targets/mask.png' width = '100%;'>","68","neg","CS","CS","4","category4/CS7.png","targets/34.png","0","indirect","3",""
"","html-keyboard-response","106","541122","0.0-8.0-0.4","llyz70t28f","many_one","0","indirect_first","0","af06el20","0","18","1","1","3","1","","0","1","0","null","","","<div style=""font-size:60px;"">+</div>","null","","","","","","","","","",""
"","html-keyboard-response","107","541214","0.0-8.0-1.4","llyz70t28f","many_one","0","indirect_first","0","af06el20","0","18","1","1","3","1","","0","1","0","null","","","<img src = 'category4/CS5.png' width = '100%;'>","null","","","","","","","","","",""
"","html-keyboard-response","108","541482","0.0-8.0-2.4","llyz70t28f","many_one","0","indirect_first","0","af06el20","0","18","1","1","3","1","","0","1","0","null","","","<img src = 'targets/3.png' width = '100%;'>","null","","","","","","","","","",""
"","html-keyboard-response","109","542174","0.0-8.0-3.4","llyz70t28f","many_one","0","indirect_first","0","af06el20","0","18","1","1","3","1","","0","1","0","690.725000022212","","","<img src = 'targets/mask.png' width = '100%;'>","68","neg","CS","CS","4","category4/CS5.png","targets/3.png","0","indirect","4",""
"","html-keyboard-response","110","543690","0.0-8.0-0.5","llyz70t28f","many_one","0","indirect_first","0","af06el20","0","18","1","1","3","1","","0","1","0","null","","","<div style=""font-size:60px;"">+</div>","null","","","","","","","","","",""
"","html-keyboard-response","111","543782","0.0-8.0-1.5","llyz70t28f","many_one","0","indirect_first","0","af06el20","0","18","1","1","3","1","","0","1","0","null","","","<img src = 'category1/CS4.png' width = '100%;'>","null","","","","","","","","","",""
"","html-keyboard-response","112","544047","0.0-8.0-2.5","llyz70t28f","many_one","0","indirect_first","0","af06el20","0","18","1","1","3","1","","0","1","0","null","","","<img src = 'targets/23.png' width = '100%;'>","null","","","","","","","","","",""
"","html-keyboard-response","113","544697","0.0-8.0-3.5","llyz70t28f","many_one","0","indirect_first","0","af06el20","0","18","1","1","3","1","","0","1","0","649.1099999984726","","","<img src = 'targets/mask.png' width = '100%;'>","75","pos","CS","CS","1","category1/CS4.png","targets/23.png","1","indirect","5",""
"","html-keyboard-response","114","546214","0.0-8.0-0.6","llyz70t28f","many_one","0","indirect_first","0","af06el20","0","18","1","1","3","1","","0","1","0","null","","","<div style=""font-size:60px;"">+</div>","null","","","","","","","","","",""
"","html-keyboard-response","115","546305","0.0-8.0-1.6","llyz70t28f","many_one","0","indirect_first","0","af06el20","0","18","1","1","3","1","","0","1","0","null","","","<img src = 'category1/CS1.png' width = '100%;'>","null","","","","","","","","","",""
"","html-keyboard-response","116","546570","0.0-8.0-2.6","llyz70t28f","many_one","0","indirect_first","0","af06el20","0","18","1","1","3","1","","0","1","0","null","","","<img src = 'targets/13.png' width = '100%;'>","null","","","","","","","","","",""
"","html-keyboard-response","117","548939","0.0-8.0-3.6","llyz70t28f","many_one","0","indirect_first","0","af06el20","0","18","1","1","3","1","","0","1","0","2367.4250000040047","","","<img src = 'targets/mask.png' width = '100%;'>","75","pos","CS","CS","1","category1/CS1.png","targets/13.png","1","indirect","6",""
"","html-keyboard-response","118","550447","0.0-8.0-0.7","llyz70t28f","many_one","0","indirect_first","0","af06el20","0","18","1","1","3","1","","0","1","0","null","","","<div style=""font-size:60px;"">+</div>","null","","","","","","","","","",""
"","html-keyboard-response","119","550538","0.0-8.0-1.7","llyz70t28f","many_one","0","indirect_first","0","af06el20","0","18","1","1","3","1","","0","1","0","null","","","<img src = 'category3/CS8.png' width = '100%;'>","null","","","","","","","","","",""
"","html-keyboard-response","120","550802","0.0-8.0-2.7","llyz70t28f","many_one","0","indirect_first","0","af06el20","0","18","1","1","3","1","","0","1","0","null","","","<img src = 'targets/48.png' width = '100%;'>","null","","","","","","","","","",""
"","html-keyboard-response","121","551374","0.0-8.0-3.7","llyz70t28f","many_one","0","indirect_first","0","af06el20","0","18","1","1","3","1","","0","1","0","570.4949999926612","","","<img src = 'targets/mask.png' width = '100%;'>","75","pos","CS","CS","3","category3/CS8.png","targets/48.png","1","indirect","7",""
"","html-keyboard-response","122","552889","0.0-8.0-0.8","llyz70t28f","many_one","0","indirect_first","0","af06el20","0","18","1","1","3","1","","0","1","0","null","","","<div style=""font-size:60px;"">+</div>","null","","","","","","","","","",""
"","html-keyboard-response","123","552982","0.0-8.0-1.8","llyz70t28f","many_one","0","indirect_first","0","af06el20","0","18","1","1","3","1","","0","1","0","null","","","<img src = 'category4/CS10.png' width = '100%;'>","null","","","","","","","","","",""
"","html-keyboard-response","124","553247","0.0-8.0-2.8","llyz70t28f","many_one","0","indirect_first","0","af06el20","0","18","1","1","3","1","","0","1","0","null","","","<img src = 'targets/17.png' width = '100%;'>","null","","","","","","","","","",""
"","html-keyboard-response","125","553982","0.0-8.0-3.8","llyz70t28f","many_one","0","indirect_first","0","af06el20","0","18","1","1","3","1","","0","1","0","733.780000009574","","","<img src = 'targets/mask.png' width = '100%;'>","68","neg","CS","CS","4","category4/CS10.png","targets/17.png","0","indirect","8",""
"","html-keyboard-response","126","555493","0.0-8.0-0.9","llyz70t28f","many_one","0","indirect_first","0","af06el20","0","18","1","1","3","1","","0","1","0","null","","","<div style=""font-size:60px;"">+</div>","null","","","","","","","","","",""
"","html-keyboard-response","127","555584","0.0-8.0-1.9","llyz70t28f","many_one","0","indirect_first","0","af06el20","0","18","1","1","3","1","","0","1","0","null","","","<img src = 'category3/CS5.png' width = '100%;'>","null","","","","","","","","","",""
"","html-keyboard-response","128","555837","0.0-8.0-2.9","llyz70t28f","many_one","0","indirect_first","0","af06el20","0","18","1","1","3","1","","0","1","0","null","","","<img src = 'targets/16.png' width = '100%;'>","null","","","","","","","","","",""
"","html-keyboard-response","129","556254","0.0-8.0-3.9","llyz70t28f","many_one","0","indirect_first","0","af06el20","0","18","1","1","3","1","","0","1","0","415.44000001158565","","","<img src = 'targets/mask.png' width = '100%;'>","75","pos","CS","CS","3","category3/CS5.png","targets/16.png","1","indirect","9",""
"","html-keyboard-response","130","557776","0.0-8.0-0.10","llyz70t28f","many_one","0","indirect_first","0","af06el20","0","18","1","1","3","1","","0","1","0","null","","","<div style=""font-size:60px;"">+</div>","null","","","","","","","","","",""
"","html-keyboard-response","131","557868","0.0-8.0-1.10","llyz70t28f","many_one","0","indirect_first","0","af06el20","0","18","1","1","3","1","","0","1","0","null","","","<img src = 'category2/CS2.png' width = '100%;'>","null","","","","","","","","","",""
"","html-keyboard-response","132","558132","0.0-8.0-2.10","llyz70t28f","many_one","0","indirect_first","0","af06el20","0","18","1","1","3","1","","0","1","0","null","","","<img src = 'targets/47.png' width = '100%;'>","null","","","","","","","","","",""
"","html-keyboard-response","133","560015","0.0-8.0-3.10","llyz70t28f","many_one","0","indirect_first","0","af06el20","0","18","1","1","3","1","","0","1","0","1882.1849999949336","","","<img src = 'targets/mask.png' width = '100%;'>","68","neg","CS","CS","2","category2/CS2.png","targets/47.png","0","indirect","10",""
"","html-keyboard-response","134","561527","0.0-8.0-0.11","llyz70t28f","many_one","0","indirect_first","0","af06el20","0","18","1","1","3","1","","0","1","0","null","","","<div style=""font-size:60px;"">+</div>","null","","","","","","","","","",""
"","html-keyboard-response","135","561620","0.0-8.0-1.11","llyz70t28f","many_one","0","indirect_first","0","af06el20","0","18","1","1","3","1","","0","1","0","null","","","<img src = 'category2/CS10.png' width = '100%;'>","null","","","","","","","","","",""
"","html-keyboard-response","136","561884","0.0-8.0-2.11","llyz70t28f","many_one","0","indirect_first","0","af06el20","0","18","1","1","3","1","","0","1","0","null","","","<img src = 'targets/40.png' width = '100%;'>","null","","","","","","","","","",""
"","html-keyboard-response","137","562855","0.0-8.0-3.11","llyz70t28f","many_one","0","indirect_first","0","af06el20","0","18","1","1","3","1","","0","1","0","968.6600000131875","","","<img src = 'targets/mask.png' width = '100%;'>","68","neg","CS","CS","2","category2/CS10.png","targets/40.png","0","indirect","11",""
"","html-keyboard-response","138","564379","0.0-8.0-0.12","llyz70t28f","many_one","0","indirect_first","0","af06el20","0","18","1","1","3","1","","0","1","0","null","","","<div style=""font-size:60px;"">+</div>","null","","","","","","","","","",""
"","html-keyboard-response","139","564471","0.0-8.0-1.12","llyz70t28f","many_one","0","indirect_first","0","af06el20","0","18","1","1","3","1","","0","1","0","null","","","<img src = 'category2/CS5.png' width = '100%;'>","null","","","","","","","","","",""
"","html-keyboard-response","140","564738","0.0-8.0-2.12","llyz70t28f","many_one","0","indirect_first","0","af06el20","0","18","1","1","3","1","","0","1","0","null","","","<img src = 'targets/31.png' width = '100%;'>","null","","","","","","","","","",""
"","html-keyboard-response","141","565804","0.0-8.0-3.12","llyz70t28f","many_one","0","indirect_first","0","af06el20","0","18","1","1","3","1","","0","1","0","1064.4150000007357","","","<img src = 'targets/mask.png' width = '100%;'>","68","neg","CS","CS","2","category2/CS5.png","targets/31.png","0","indirect","12",""
"","html-keyboard-response","142","567316","0.0-8.0-0.13","llyz70t28f","many_one","0","indirect_first","0","af06el20","0","18","1","1","3","1","","0","1","0","null","","","<div style=""font-size:60px;"">+</div>","null","","","","","","","","","",""
"","html-keyboard-response","143","567410","0.0-8.0-1.13","llyz70t28f","many_one","0","indirect_first","0","af06el20","0","18","1","1","3","1","","0","1","0","null","","","<img src = 'category4/CS8.png' width = '100%;'>","null","","","","","","","","","",""
"","html-keyboard-response","144","567686","0.0-8.0-2.13","llyz70t28f","many_one","0","indirect_first","0","af06el20","0","18","1","1","3","1","","0","1","0","null","","","<img src = 'targets/10.png' width = '100%;'>","null","","","","","","","","","",""
"","html-keyboard-response","145","568462","0.0-8.0-3.13","llyz70t28f","many_one","0","indirect_first","0","af06el20","0","18","1","1","3","1","","0","1","0","774.4349999993574","","","<img src = 'targets/mask.png' width = '100%;'>","68","neg","CS","CS","4","category4/CS8.png","targets/10.png","0","indirect","13",""
"","html-keyboard-response","146","569981","0.0-8.0-0.14","llyz70t28f","many_one","0","indirect_first","0","af06el20","0","18","1","1","3","1","","0","1","0","null","","","<div style=""font-size:60px;"">+</div>","null","","","","","","","","","",""
"","html-keyboard-response","147","570074","0.0-8.0-1.14","llyz70t28f","many_one","0","indirect_first","0","af06el20","0","18","1","1","3","1","","0","1","0","null","","","<img src = 'category1/CS8.png' width = '100%;'>","null","","","","","","","","","",""
"","html-keyboard-response","148","570340","0.0-8.0-2.14","llyz70t28f","many_one","0","indirect_first","0","af06el20","0","18","1","1","3","1","","0","1","0","null","","","<img src = 'targets/42.png' width = '100%;'>","null","","","","","","","","","",""
"","html-keyboard-response","149","571348","0.0-8.0-3.14","llyz70t28f","many_one","0","indirect_first","0","af06el20","0","18","1","1","3","1","","0","1","0","1005.8649999846239","","","<img src = 'targets/mask.png' width = '100%;'>","68","pos","CS","CS","1","category1/CS8.png","targets/42.png","0","indirect","14",""
"","html-keyboard-response","150","572853","0.0-8.0-0.15","llyz70t28f","many_one","0","indirect_first","0","af06el20","0","18","1","1","3","1","","0","1","0","null","","","<div style=""font-size:60px;"">+</div>","null","","","","","","","","","",""
"","html-keyboard-response","151","572947","0.0-8.0-1.15","llyz70t28f","many_one","0","indirect_first","0","af06el20","0","18","1","1","3","1","","0","1","0","null","","","<img src = 'category1/CS2.png' width = '100%;'>","null","","","","","","","","","",""
"","html-keyboard-response","152","573210","0.0-8.0-2.15","llyz70t28f","many_one","0","indirect_first","0","af06el20","0","18","1","1","3","1","","0","1","0","null","","","<img src = 'targets/1.png' width = '100%;'>","null","","","","","","","","","",""
"","html-keyboard-response","153","573731","0.0-8.0-3.15","llyz70t28f","many_one","0","indirect_first","0","af06el20","0","18","1","1","3","1","","0","1","0","518.96499999566","","","<img src = 'targets/mask.png' width = '100%;'>","75","pos","CS","CS","1","category1/CS2.png","targets/1.png","1","indirect","15",""
"","html-keyboard-response","154","575244","0.0-8.0-0.16","llyz70t28f","many_one","0","indirect_first","0","af06el20","0","18","1","1","3","1","","0","1","0","null","","","<div style=""font-size:60px;"">+</div>","null","","","","","","","","","",""
"","html-keyboard-response","155","575336","0.0-8.0-1.16","llyz70t28f","many_one","0","indirect_first","0","af06el20","0","18","1","1","3","1","","0","1","0","null","","","<img src = 'category2/CS4.png' width = '100%;'>","null","","","","","","","","","",""
"","html-keyboard-response","156","575589","0.0-8.0-2.16","llyz70t28f","many_one","0","indirect_first","0","af06el20","0","18","1","1","3","1","","0","1","0","null","","","<img src = 'targets/45.png' width = '100%;'>","null","","","","","","","","","",""
"","html-keyboard-response","157","576170","0.0-8.0-3.16","llyz70t28f","many_one","0","indirect_first","0","af06el20","0","18","1","1","3","1","","0","1","0","579.5650000218302","","","<img src = 'targets/mask.png' width = '100%;'>","68","neg","GS","GSold","2","category2/CS4.png","targets/45.png","0","indirect","16",""
"","html-keyboard-response","158","577680","0.0-8.0-0.17","llyz70t28f","many_one","0","indirect_first","0","af06el20","0","18","1","1","3","1","","0","1","0","null","","","<div style=""font-size:60px;"">+</div>","null","","","","","","","","","",""
"","html-keyboard-response","159","577771","0.0-8.0-1.17","llyz70t28f","many_one","0","indirect_first","0","af06el20","0","18","1","1","3","1","","0","1","0","null","","","<img src = 'category3/CS4.png' width = '100%;'>","null","","","","","","","","","",""
"","html-keyboard-response","160","578050","0.0-8.0-2.17","llyz70t28f","many_one","0","indirect_first","0","af06el20","0","18","1","1","3","1","","0","1","0","null","","","<img src = 'targets/43.png' width = '100%;'>","null","","","","","","","","","",""
"","html-keyboard-response","161","578355","0.0-8.0-3.17","llyz70t28f","many_one","0","indirect_first","0","af06el20","0","18","1","1","3","1","","0","1","0","303.7299999850802","","","<img src = 'targets/mask.png' width = '100%;'>","75","pos","CS","CS","3","category3/CS4.png","targets/43.png","1","indirect","17",""
"","html-keyboard-response","162","579865","0.0-8.0-0.18","llyz70t28f","many_one","0","indirect_first","0","af06el20","0","18","1","1","3","1","","0","1","0","null","","","<div style=""font-size:60px;"">+</div>","null","","","","","","","","","",""
"","html-keyboard-response","163","579956","0.0-8.0-1.18","llyz70t28f","many_one","0","indirect_first","0","af06el20","0","18","1","1","3","1","","0","1","0","null","","","<img src = 'category3/CS1.png' width = '100%;'>","null","","","","","","","","","",""
"","html-keyboard-response","164","580221","0.0-8.0-2.18","llyz70t28f","many_one","0","indirect_first","0","af06el20","0","18","1","1","3","1","","0","1","0","null","","","<img src = 'targets/46.png' width = '100%;'>","null","","","","","","","","","",""
"","html-keyboard-response","165","580518","0.0-8.0-3.18","llyz70t28f","many_one","0","indirect_first","0","af06el20","0","18","1","1","3","1","","0","1","0","295.7600000081584","","","<img src = 'targets/mask.png' width = '100%;'>","75","pos","CS","CS","3","category3/CS1.png","targets/46.png","1","indirect","18",""
"","html-keyboard-response","166","582036","0.0-8.0-0.19","llyz70t28f","many_one","0","indirect_first","0","af06el20","0","18","1","1","3","1","","0","1","0","null","","","<div style=""font-size:60px;"">+</div>","null","","","","","","","","","",""
"","html-keyboard-response","167","582127","0.0-8.0-1.19","llyz70t28f","many_one","0","indirect_first","0","af06el20","0","18","1","1","3","1","","0","1","0","null","","","<img src = 'category2/CS1.png' width = '100%;'>","null","","","","","","","","","",""
"","html-keyboard-response","168","582392","0.0-8.0-2.19","llyz70t28f","many_one","0","indirect_first","0","af06el20","0","18","1","1","3","1","","0","1","0","null","","","<img src = 'targets/26.png' width = '100%;'>","null","","","","","","","","","",""
"","html-keyboard-response","169","584476","0.0-8.0-3.19","llyz70t28f","many_one","0","indirect_first","0","af06el20","0","18","1","1","3","1","","0","1","0","2082.3249999957625","","","<img src = 'targets/mask.png' width = '100%;'>","68","neg","CS","CS","2","category2/CS1.png","targets/26.png","0","indirect","19",""
"","html-keyboard-response","170","585996","0.0-8.0-0.20","llyz70t28f","many_one","0","indirect_first","0","af06el20","0","18","1","1","3","1","","0","1","0","null","","","<div style=""font-size:60px;"">+</div>","null","","","","","","","","","",""
"","html-keyboard-response","171","586089","0.0-8.0-1.20","llyz70t28f","many_one","0","indirect_first","0","af06el20","0","18","1","1","3","1","","0","1","0","null","","","<img src = 'category4/CS9.png' width = '100%;'>","null","","","","","","","","","",""
"","html-keyboard-response","172","586353","0.0-8.0-2.20","llyz70t28f","many_one","0","indirect_first","0","af06el20","0","18","1","1","3","1","","0","1","0","null","","","<img src = 'targets/28.png' width = '100%;'>","null","","","","","","","","","",""
"","html-keyboard-response","173","587016","0.0-8.0-3.20","llyz70t28f","many_one","0","indirect_first","0","af06el20","0","18","1","1","3","1","","0","1","0","661.034999997355","","","<img src = 'targets/mask.png' width = '100%;'>","75","neg","CS","CS","4","category4/CS9.png","targets/28.png","1","indirect","20",""
"","html-keyboard-response","174","588536","0.0-8.0-0.21","llyz70t28f","many_one","0","indirect_first","0","af06el20","0","18","1","1","3","1","","0","1","0","null","","","<div style=""font-size:60px;"">+</div>","null","","","","","","","","","",""
"","html-keyboard-response","175","588628","0.0-8.0-1.21","llyz70t28f","many_one","0","indirect_first","0","af06el20","0","18","1","1","3","1","","0","1","0","null","","","<img src = 'category2/CS3.png' width = '100%;'>","null","","","","","","","","","",""
"","html-keyboard-response","176","588881","0.0-8.0-2.21","llyz70t28f","many_one","0","indirect_first","0","af06el20","0","18","1","1","3","1","","0","1","0","null","","","<img src = 'targets/2.png' width = '100%;'>","null","","","","","","","","","",""
"","html-keyboard-response","177","589966","0.0-8.0-3.21","llyz70t28f","many_one","0","indirect_first","0","af06el20","0","18","1","1","3","1","","0","1","0","1084.8150000092573","","","<img src = 'targets/mask.png' width = '100%;'>","68","neg","GS","GSold","2","category2/CS3.png","targets/2.png","0","indirect","21",""
"","html-keyboard-response","178","591482","0.0-8.0-0.22","llyz70t28f","many_one","0","indirect_first","0","af06el20","0","18","1","1","3","1","","0","1","0","null","","","<div style=""font-size:60px;"">+</div>","null","","","","","","","","","",""
"","html-keyboard-response","179","591575","0.0-8.0-1.22","llyz70t28f","many_one","0","indirect_first","0","af06el20","0","18","1","1","3","1","","0","1","0","null","","","<img src = 'category1/CS6.png' width = '100%;'>","null","","","","","","","","","",""
"","html-keyboard-response","180","591856","0.0-8.0-2.22","llyz70t28f","many_one","0","indirect_first","0","af06el20","0","18","1","1","3","1","","0","1","0","null","","","<img src = 'targets/5.png' width = '100%;'>","null","","","","","","","","","",""
"","html-keyboard-response","181","592550","0.0-8.0-3.22","llyz70t28f","many_one","0","indirect_first","0","af06el20","0","18","1","1","3","1","","0","1","0","691.7649999959394","","","<img src = 'targets/mask.png' width = '100%;'>","75","pos","GS","GSold","1","category1/CS6.png","targets/5.png","1","indirect","22",""
"","html-keyboard-response","182","594071","0.0-8.0-0.23","llyz70t28f","many_one","0","indirect_first","0","af06el20","0","18","1","1","3","1","","0","1","0","null","","","<div style=""font-size:60px;"">+</div>","null","","","","","","","","","",""
"","html-keyboard-response","183","594165","0.0-8.0-1.23","llyz70t28f","many_one","0","indirect_first","0","af06el20","0","18","1","1","3","1","","0","1","0","null","","","<img src = 'category1/CS9.png' width = '100%;'>","null","","","","","","","","","",""
"","html-keyboard-response","184","594418","0.0-8.0-2.23","llyz70t28f","many_one","0","indirect_first","0","af06el20","0","18","1","1","3","1","","0","1","0","null","","","<img src = 'targets/37.png' width = '100%;'>","null","","","","","","","","","",""
"","html-keyboard-response","185","595057","0.0-8.0-3.23","llyz70t28f","many_one","0","indirect_first","0","af06el20","0","18","1","1","3","1","","0","1","0","638.5099999897648","","","<img src = 'targets/mask.png' width = '100%;'>","75","pos","CS","CS","1","category1/CS9.png","targets/37.png","1","indirect","23",""
"","survey-html-form","186","601173","0.0-9.0","llyz70t28f","many_one","0","indirect_first","0","af06el20","0","18","1","1","3","1","","0","1","0","5600.974999979371","","{}","","","","","","","","","","","",""
"","html-keyboard-response","187","604193","0.0-10.0-0.0","llyz70t28f","many_one","0","indirect_first","0","af06el20","0","18","1","1","3","1","","0","1","0","null","","","<div style=""font-size:60px;"">+</div>","null","","","","","","","","","",""
"","html-keyboard-response","188","604286","0.0-10.0-1.0","llyz70t28f","many_one","0","indirect_first","0","af06el20","0","18","1","1","3","1","","0","1","0","null","","","<img src = 'category3/CS2.png' width = '100%;'>","null","","","","","","","","","",""
"","html-keyboard-response","189","604553","0.0-10.0-2.0","llyz70t28f","many_one","0","indirect_first","0","af06el20","0","18","1","1","3","1","","0","1","0","null","","","<img src = 'targets/38.png' width = '100%;'>","null","","","","","","","","","",""
"","html-keyboard-response","190","604876","0.0-10.0-3.0","llyz70t28f","many_one","0","indirect_first","0","af06el20","0","18","1","1","3","1","","0","1","0","321.1850000079721","","","<img src = 'targets/mask.png' width = '100%;'>","75","pos","GS","GSold","3","category3/CS2.png","targets/38.png","1","indirect","24",""
"","html-keyboard-response","191","606393","0.0-10.0-0.1","llyz70t28f","many_one","0","indirect_first","0","af06el20","0","18","1","1","3","1","","0","1","0","null","","","<div style=""font-size:60px;"">+</div>","null","","","","","","","","","",""
"","html-keyboard-response","192","606484","0.0-10.0-1.1","llyz70t28f","many_one","0","indirect_first","0","af06el20","0","18","1","1","3","1","","0","1","0","null","","","<img src = 'category3/GS2.png' width = '100%;'>","null","","","","","","","","","",""
"","html-keyboard-response","193","606765","0.0-10.0-2.1","llyz70t28f","many_one","0","indirect_first","0","af06el20","0","18","1","1","3","1","","0","1","0","null","","","<img src = 'targets/7.png' width = '100%;'>","null","","","","","","","","","",""
"","html-keyboard-response","194","607208","0.0-10.0-3.1","llyz70t28f","many_one","0","indirect_first","0","af06el20","0","18","1","1","3","1","","0","1","0","442.45499998214655","","","<img src = 'targets/mask.png' width = '100%;'>","75","pos","GS","GSnew","3","category3/GS2.png","targets/7.png","1","indirect","25",""
"","html-keyboard-response","195","608736","0.0-10.0-0.2","llyz70t28f","many_one","0","indirect_first","0","af06el20","0","18","1","1","3","1","","0","1","0","null","","","<div style=""font-size:60px;"">+</div>","null","","","","","","","","","",""
"","html-keyboard-response","196","608829","0.0-10.0-1.2","llyz70t28f","many_one","0","indirect_first","0","af06el20","0","18","1","1","3","1","","0","1","0","null","","","<img src = 'category2/GS3.png' width = '100%;'>","null","","","","","","","","","",""
"","html-keyboard-response","197","609110","0.0-10.0-2.2","llyz70t28f","many_one","0","indirect_first","0","af06el20","0","18","1","1","3","1","","0","1","0","null","","","<img src = 'targets/35.png' width = '100%;'>","null","","","","","","","","","",""
"","html-keyboard-response","198","609686","0.0-10.0-3.2","llyz70t28f","many_one","0","indirect_first","0","af06el20","0","18","1","1","3","1","","0","1","0","575.2949999878183","","","<img src = 'targets/mask.png' width = '100%;'>","68","neg","GS","GSnew","2","category2/GS3.png","targets/35.png","0","indirect","26",""
"","html-keyboard-response","199","611210","0.0-10.0-0.3","llyz70t28f","many_one","0","indirect_first","0","af06el20","0","18","1","1","3","1","","0","1","0","null","","","<div style=""font-size:60px;"">+</div>","null","","","","","","","","","",""
"","html-keyboard-response","200","611302","0.0-10.0-1.3","llyz70t28f","many_one","0","indirect_first","0","af06el20","0","18","1","1","3","1","","0","1","0","null","","","<img src = 'category1/GS2.png' width = '100%;'>","null","","","","","","","","","",""
"","html-keyboard-response","201","611581","0.0-10.0-2.3","llyz70t28f","many_one","0","indirect_first","0","af06el20","0","18","1","1","3","1","","0","1","0","null","","","<img src = 'targets/22.png' width = '100%;'>","null","","","","","","","","","",""
"","html-keyboard-response","202","612205","0.0-10.0-3.3","llyz70t28f","many_one","0","indirect_first","0","af06el20","0","18","1","1","3","1","","0","1","0","622.6099999912549","","","<img src = 'targets/mask.png' width = '100%;'>","75","pos","GS","GSnew","1","category1/GS2.png","targets/22.png","1","indirect","27",""
"","html-keyboard-response","203","613722","0.0-10.0-0.4","llyz70t28f","many_one","0","indirect_first","0","af06el20","0","18","1","1","3","1","","0","1","0","null","","","<div style=""font-size:60px;"">+</div>","null","","","","","","","","","",""
"","html-keyboard-response","204","613815","0.0-10.0-1.4","llyz70t28f","many_one","0","indirect_first","0","af06el20","0","18","1","1","3","1","","0","1","0","null","","","<img src = 'category3/GS3.png' width = '100%;'>","null","","","","","","","","","",""
"","html-keyboard-response","205","614094","0.0-10.0-2.4","llyz70t28f","many_one","0","indirect_first","0","af06el20","0","18","1","1","3","1","","0","1","0","null","","","<img src = 'targets/21.png' width = '100%;'>","null","","","","","","","","","",""
"","html-keyboard-response","206","614689","0.0-10.0-3.4","llyz70t28f","many_one","0","indirect_first","0","af06el20","0","18","1","1","3","1","","0","1","0","593.155000009574","","","<img src = 'targets/mask.png' width = '100%;'>","75","pos","GS","GSnew","3","category3/GS3.png","targets/21.png","1","indirect","28",""
"","html-keyboard-response","207","616196","0.0-10.0-0.5","llyz70t28f","many_one","0","indirect_first","0","af06el20","0","18","1","1","3","1","","0","1","0","null","","","<div style=""font-size:60px;"">+</div>","null","","","","","","","","","",""
"","html-keyboard-response","208","616288","0.0-10.0-1.5","llyz70t28f","many_one","0","indirect_first","0","af06el20","0","18","1","1","3","1","","0","1","0","null","","","<img src = 'category4/GS3.png' width = '100%;'>","null","","","","","","","","","",""
"","html-keyboard-response","209","616541","0.0-10.0-2.5","llyz70t28f","many_one","0","indirect_first","0","af06el20","0","18","1","1","3","1","","0","1","0","null","","","<img src = 'targets/14.png' width = '100%;'>","null","","","","","","","","","",""
"","html-keyboard-response","210","617041","0.0-10.0-3.5","llyz70t28f","many_one","0","indirect_first","0","af06el20","0","18","1","1","3","1","","0","1","0","499.3850000028033","","","<img src = 'targets/mask.png' width = '100%;'>","68","neg","GS","GSnew","4","category4/GS3.png","targets/14.png","0","indirect","29",""
"","html-keyboard-response","211","618558","0.0-10.0-0.6","llyz70t28f","many_one","0","indirect_first","0","af06el20","0","18","1","1","3","1","","0","1","0","null","","","<div style=""font-size:60px;"">+</div>","null","","","","","","","","","",""
"","html-keyboard-response","212","618651","0.0-10.0-1.6","llyz70t28f","many_one","0","indirect_first","0","af06el20","0","18","1","1","3","1","","0","1","0","null","","","<img src = 'category2/GS1.png' width = '100%;'>","null","","","","","","","","","",""
"","html-keyboard-response","213","618931","0.0-10.0-2.6","llyz70t28f","many_one","0","indirect_first","0","af06el20","0","18","1","1","3","1","","0","1","0","null","","","<img src = 'targets/39.png' width = '100%;'>","null","","","","","","","","","",""
"","html-keyboard-response","214","619917","0.0-10.0-3.6","llyz70t28f","many_one","0","indirect_first","0","af06el20","0","18","1","1","3","1","","0","1","0","984.0600000170525","","","<img src = 'targets/mask.png' width = '100%;'>","75","neg","GS","GSnew","2","category2/GS1.png","targets/39.png","1","indirect","30",""
"","html-keyboard-response","215","621441","0.0-10.0-0.7","llyz70t28f","many_one","0","indirect_first","0","af06el20","0","18","1","1","3","1","","0","1","0","null","","","<div style=""font-size:60px;"">+</div>","null","","","","","","","","","",""
"","html-keyboard-response","216","621533","0.0-10.0-1.7","llyz70t28f","many_one","0","indirect_first","0","af06el20","0","18","1","1","3","1","","0","1","0","null","","","<img src = 'category3/CS10.png' width = '100%;'>","null","","","","","","","","","",""
"","html-keyboard-response","217","621798","0.0-10.0-2.7","llyz70t28f","many_one","0","indirect_first","0","af06el20","0","18","1","1","3","1","","0","1","0","null","","","<img src = 'targets/6.png' width = '100%;'>","null","","","","","","","","","",""
"","html-keyboard-response","218","622053","0.0-10.0-3.7","llyz70t28f","many_one","0","indirect_first","0","af06el20","0","18","1","1","3","1","","0","1","0","254.08000001334585","","","<img src = 'targets/mask.png' width = '100%;'>","75","pos","GS","GSold","3","category3/CS10.png","targets/6.png","1","indirect","31",""
"","html-keyboard-response","219","623572","0.0-10.0-0.8","llyz70t28f","many_one","0","indirect_first","0","af06el20","0","18","1","1","3","1","","0","1","0","null","","","<div style=""font-size:60px;"">+</div>","null","","","","","","","","","",""
"","html-keyboard-response","220","623664","0.0-10.0-1.8","llyz70t28f","many_one","0","indirect_first","0","af06el20","0","18","1","1","3","1","","0","1","0","null","","","<img src = 'category1/GS3.png' width = '100%;'>","null","","","","","","","","","",""
"","html-keyboard-response","221","623916","0.0-10.0-2.8","llyz70t28f","many_one","0","indirect_first","0","af06el20","0","18","1","1","3","1","","0","1","0","null","","","<img src = 'targets/32.png' width = '100%;'>","null","","","","","","","","","",""
"","html-keyboard-response","222","624969","0.0-10.0-3.8","llyz70t28f","many_one","0","indirect_first","0","af06el20","0","18","1","1","3","1","","0","1","0","1051.3949999876786","","","<img src = 'targets/mask.png' width = '100%;'>","75","pos","GS","GSnew","1","category1/GS3.png","targets/32.png","1","indirect","32",""
"","html-keyboard-response","223","626482","0.0-10.0-0.9","llyz70t28f","many_one","0","indirect_first","0","af06el20","0","18","1","1","3","1","","0","1","0","null","","","<div style=""font-size:60px;"">+</div>","null","","","","","","","","","",""
"","html-keyboard-response","224","626573","0.0-10.0-1.9","llyz70t28f","many_one","0","indirect_first","0","af06el20","0","18","1","1","3","1","","0","1","0","null","","","<img src = 'category3/wang.png' width = '100%;'>","null","","","","","","","","","",""
"","html-keyboard-response","225","626826","0.0-10.0-2.9","llyz70t28f","many_one","0","indirect_first","0","af06el20","0","18","1","1","3","1","","0","1","0","null","","","<img src = 'targets/33.png' width = '100%;'>","null","","","","","","","","","",""
"","html-keyboard-response","226","627511","0.0-10.0-3.9","llyz70t28f","many_one","0","indirect_first","0","af06el20","0","18","1","1","3","1","","0","1","0","683.4300000045914","","","<img src = 'targets/mask.png' width = '100%;'>","75","pos","GS","abstract","3","category3/wang.png","targets/33.png","1","indirect","33",""
"","html-keyboard-response","227","629017","0.0-10.0-0.10","llyz70t28f","many_one","0","indirect_first","0","af06el20","0","18","1","1","3","1","","0","1","0","null","","","<div style=""font-size:60px;"">+</div>","null","","","","","","","","","",""
"","html-keyboard-response","228","629109","0.0-10.0-1.10","llyz70t28f","many_one","0","indirect_first","0","af06el20","0","18","1","1","3","1","","0","1","0","null","","","<img src = 'category2/GS2.png' width = '100%;'>","null","","","","","","","","","",""
"","html-keyboard-response","229","629373","0.0-10.0-2.10","llyz70t28f","many_one","0","indirect_first","0","af06el20","0","18","1","1","3","1","","0","1","0","null","","","<img src = 'targets/24.png' width = '100%;'>","null","","","","","","","","","",""
"","html-keyboard-response","230","630932","0.0-10.0-3.10","llyz70t28f","many_one","0","indirect_first","0","af06el20","0","18","1","1","3","1","","0","1","0","1557.6749999891035","","","<img src = 'targets/mask.png' width = '100%;'>","68","neg","GS","GSnew","2","category2/GS2.png","targets/24.png","0","indirect","34",""
"","html-keyboard-response","231","632456","0.0-10.0-0.11","llyz70t28f","many_one","0","indirect_first","0","af06el20","0","18","1","1","3","1","","0","1","0","null","","","<div style=""font-size:60px;"">+</div>","null","","","","","","","","","",""
"","html-keyboard-response","232","632549","0.0-10.0-1.11","llyz70t28f","many_one","0","indirect_first","0","af06el20","0","18","1","1","3","1","","0","1","0","null","","","<img src = 'category4/GS2.png' width = '100%;'>","null","","","","","","","","","",""
"","html-keyboard-response","233","632814","0.0-10.0-2.11","llyz70t28f","many_one","0","indirect_first","0","af06el20","0","18","1","1","3","1","","0","1","0","null","","","<img src = 'targets/30.png' width = '100%;'>","null","","","","","","","","","",""
"","html-keyboard-response","234","633214","0.0-10.0-3.11","llyz70t28f","many_one","0","indirect_first","0","af06el20","0","18","1","1","3","1","","0","1","0","398.8249999820255","","","<img src = 'targets/mask.png' width = '100%;'>","68","neg","GS","GSnew","4","category4/GS2.png","targets/30.png","0","indirect","35",""
"","html-keyboard-response","235","634729","0.0-10.0-0.12","llyz70t28f","many_one","0","indirect_first","0","af06el20","0","18","1","1","3","1","","0","1","0","null","","","<div style=""font-size:60px;"">+</div>","null","","","","","","","","","",""
"","html-keyboard-response","236","634821","0.0-10.0-1.12","llyz70t28f","many_one","0","indirect_first","0","af06el20","0","18","1","1","3","1","","0","1","0","null","","","<img src = 'category2/men.png' width = '100%;'>","null","","","","","","","","","",""
"","html-keyboard-response","237","635085","0.0-10.0-2.12","llyz70t28f","many_one","0","indirect_first","0","af06el20","0","18","1","1","3","1","","0","1","0","null","","","<img src = 'targets/8.png' width = '100%;'>","null","","","","","","","","","",""
"","html-keyboard-response","238","636109","0.0-10.0-3.12","llyz70t28f","many_one","0","indirect_first","0","af06el20","0","18","1","1","3","1","","0","1","0","1022.6149999944028","","","<img src = 'targets/mask.png' width = '100%;'>","68","neg","GS","abstract","2","category2/men.png","targets/8.png","0","indirect","36",""
"","html-keyboard-response","239","637620","0.0-10.0-0.13","llyz70t28f","many_one","0","indirect_first","0","af06el20","0","18","1","1","3","1","","0","1","0","null","","","<div style=""font-size:60px;"">+</div>","null","","","","","","","","","",""
"","html-keyboard-response","240","637714","0.0-10.0-1.13","llyz70t28f","many_one","0","indirect_first","0","af06el20","0","18","1","1","3","1","","0","1","0","null","","","<img src = 'category1/CS7.png' width = '100%;'>","null","","","","","","","","","",""
"","html-keyboard-response","241","637966","0.0-10.0-2.13","llyz70t28f","many_one","0","indirect_first","0","af06el20","0","18","1","1","3","1","","0","1","0","null","","","<img src = 'targets/27.png' width = '100%;'>","null","","","","","","","","","",""
"","html-keyboard-response","242","638590","0.0-10.0-3.13","llyz70t28f","many_one","0","indirect_first","0","af06el20","0","18","1","1","3","1","","0","1","0","622.994999983348","","","<img src = 'targets/mask.png' width = '100%;'>","75","pos","GS","GSold","1","category1/CS7.png","targets/27.png","1","indirect","37",""
"","html-keyboard-response","243","640096","0.0-10.0-0.14","llyz70t28f","many_one","0","indirect_first","0","af06el20","0","18","1","1","3","1","","0","1","0","null","","","<div style=""font-size:60px;"">+</div>","null","","","","","","","","","",""
"","html-keyboard-response","244","640187","0.0-10.0-1.14","llyz70t28f","many_one","0","indirect_first","0","af06el20","0","18","1","1","3","1","","0","1","0","null","","","<img src = 'category4/CS2.png' width = '100%;'>","null","","","","","","","","","",""
"","html-keyboard-response","245","640453","0.0-10.0-2.14","llyz70t28f","many_one","0","indirect_first","0","af06el20","0","18","1","1","3","1","","0","1","0","null","","","<img src = 'targets/20.png' width = '100%;'>","null","","","","","","","","","",""
"","html-keyboard-response","246","641007","0.0-10.0-3.14","llyz70t28f","many_one","0","indirect_first","0","af06el20","0","18","1","1","3","1","","0","1","0","552.6600000157487","","","<img src = 'targets/mask.png' width = '100%;'>","68","neg","GS","GSold","4","category4/CS2.png","targets/20.png","0","indirect","38",""
"","html-keyboard-response","247","642520","0.0-10.0-0.15","llyz70t28f","many_one","0","indirect_first","0","af06el20","0","18","1","1","3","1","","0","1","0","null","","","<div style=""font-size:60px;"">+</div>","null","","","","","","","","","",""
"","html-keyboard-response","248","642613","0.0-10.0-1.15","llyz70t28f","many_one","0","indirect_first","0","af06el20","0","18","1","1","3","1","","0","1","0","null","","","<img src = 'category3/GS1.png' width = '100%;'>","null","","","","","","","","","",""
"","html-keyboard-response","249","642891","0.0-10.0-2.15","llyz70t28f","many_one","0","indirect_first","0","af06el20","0","18","1","1","3","1","","0","1","0","null","","","<img src = 'targets/12.png' width = '100%;'>","null","","","","","","","","","",""
"","html-keyboard-response","250","644151","0.0-10.0-3.15","llyz70t28f","many_one","0","indirect_first","0","af06el20","0","18","1","1","3","1","","0","1","0","1258.9649999863468","","","<img src = 'targets/mask.png' width = '100%;'>","75","pos","GS","GSnew","3","category3/GS1.png","targets/12.png","1","indirect","39",""
"","html-keyboard-response","251","645672","0.0-10.0-0.16","llyz70t28f","many_one","0","indirect_first","0","af06el20","0","18","1","1","3","1","","0","1","0","null","","","<div style=""font-size:60px;"">+</div>","null","","","","","","","","","",""
"","html-keyboard-response","252","645764","0.0-10.0-1.16","llyz70t28f","many_one","0","indirect_first","0","af06el20","0","18","1","1","3","1","","0","1","0","null","","","<img src = 'category3/CS3.png' width = '100%;'>","null","","","","","","","","","",""
"","html-keyboard-response","253","646018","0.0-10.0-2.16","llyz70t28f","many_one","0","indirect_first","0","af06el20","0","18","1","1","3","1","","0","1","0","null","","","<img src = 'targets/36.png' width = '100%;'>","null","","","","","","","","","",""
"","html-keyboard-response","254","646396","0.0-10.0-3.16","llyz70t28f","many_one","0","indirect_first","0","af06el20","0","18","1","1","3","1","","0","1","0","377.00500001665205","","","<img src = 'targets/mask.png' width = '100%;'>","75","pos","GS","GSold","3","category3/CS3.png","targets/36.png","1","indirect","40",""
"","html-keyboard-response","255","647904","0.0-10.0-0.17","llyz70t28f","many_one","0","indirect_first","0","af06el20","0","18","1","1","3","1","","0","1","0","null","","","<div style=""font-size:60px;"">+</div>","null","","","","","","","","","",""
"","html-keyboard-response","256","647997","0.0-10.0-1.17","llyz70t28f","many_one","0","indirect_first","0","af06el20","0","18","1","1","3","1","","0","1","0","null","","","<img src = 'category1/CS10.png' width = '100%;'>","null","","","","","","","","","",""
"","html-keyboard-response","257","648277","0.0-10.0-2.17","llyz70t28f","many_one","0","indirect_first","0","af06el20","0","18","1","1","3","1","","0","1","0","null","","","<img src = 'targets/18.png' width = '100%;'>","null","","","","","","","","","",""
"","html-keyboard-response","258","649235","0.0-10.0-3.17","llyz70t28f","many_one","0","indirect_first","0","af06el20","0","18","1","1","3","1","","0","1","0","957.2150000021793","","","<img src = 'targets/mask.png' width = '100%;'>","75","pos","GS","GSold","1","category1/CS10.png","targets/18.png","1","indirect","41",""
"","html-keyboard-response","259","650741","0.0-10.0-0.18","llyz70t28f","many_one","0","indirect_first","0","af06el20","0","18","1","1","3","1","","0","1","0","null","","","<div style=""font-size:60px;"">+</div>","null","","","","","","","","","",""
"","html-keyboard-response","260","650833","0.0-10.0-1.18","llyz70t28f","many_one","0","indirect_first","0","af06el20","0","18","1","1","3","1","","0","1","0","null","","","<img src = 'category4/CS6.png' width = '100%;'>","null","","","","","","","","","",""
"","html-keyboard-response","261","651100","0.0-10.0-2.18","llyz70t28f","many_one","0","indirect_first","0","af06el20","0","18","1","1","3","1","","0","1","0","null","","","<img src = 'targets/29.png' width = '100%;'>","null","","","","","","","","","",""
"","html-keyboard-response","262","653163","0.0-10.0-3.18","llyz70t28f","many_one","0","indirect_first","0","af06el20","0","18","1","1","3","1","","0","1","0","2061.260000016773","","","<img src = 'targets/mask.png' width = '100%;'>","75","neg","GS","GSold","4","category4/CS6.png","targets/29.png","1","indirect","42",""
"","html-keyboard-response","263","654682","0.0-10.0-0.19","llyz70t28f","many_one","0","indirect_first","0","af06el20","0","18","1","1","3","1","","0","1","0","null","","","<div style=""font-size:60px;"">+</div>","null","","","","","","","","","",""
"","html-keyboard-response","264","654774","0.0-10.0-1.19","llyz70t28f","many_one","0","indirect_first","0","af06el20","0","18","1","1","3","1","","0","1","0","null","","","<img src = 'category4/lin.png' width = '100%;'>","null","","","","","","","","","",""
"","html-keyboard-response","265","655026","0.0-10.0-2.19","llyz70t28f","many_one","0","indirect_first","0","af06el20","0","18","1","1","3","1","","0","1","0","null","","","<img src = 'targets/9.png' width = '100%;'>","null","","","","","","","","","",""
"","html-keyboard-response","266","656165","0.0-10.0-3.19","llyz70t28f","many_one","0","indirect_first","0","af06el20","0","18","1","1","3","1","","0","1","0","1137.8400000103284","","","<img src = 'targets/mask.png' width = '100%;'>","68","neg","GS","abstract","4","category4/lin.png","targets/9.png","0","indirect","43",""
"","html-keyboard-response","267","657678","0.0-10.0-0.20","llyz70t28f","many_one","0","indirect_first","0","af06el20","0","18","1","1","3","1","","0","1","0","null","","","<div style=""font-size:60px;"">+</div>","null","","","","","","","","","",""
"","html-keyboard-response","268","657769","0.0-10.0-1.20","llyz70t28f","many_one","0","indirect_first","0","af06el20","0","18","1","1","3","1","","0","1","0","null","","","<img src = 'category1/ma.png' width = '100%;'>","null","","","","","","","","","",""
"","html-keyboard-response","269","658022","0.0-10.0-2.20","llyz70t28f","many_one","0","indirect_first","0","af06el20","0","18","1","1","3","1","","0","1","0","null","","","<img src = 'targets/11.png' width = '100%;'>","null","","","","","","","","","",""
"","html-keyboard-response","270","659289","0.0-10.0-3.20","llyz70t28f","many_one","0","indirect_first","0","af06el20","0","18","1","1","3","1","","0","1","0","1265.7100000069477","","","<img src = 'targets/mask.png' width = '100%;'>","75","pos","GS","abstract","1","category1/ma.png","targets/11.png","1","indirect","44",""
"","html-keyboard-response","271","660812","0.0-10.0-0.21","llyz70t28f","many_one","0","indirect_first","0","af06el20","0","18","1","1","3","1","","0","1","0","null","","","<div style=""font-size:60px;"">+</div>","null","","","","","","","","","",""
"","html-keyboard-response","272","660905","0.0-10.0-1.21","llyz70t28f","many_one","0","indirect_first","0","af06el20","0","18","1","1","3","1","","0","1","0","null","","","<img src = 'category1/GS1.png' width = '100%;'>","null","","","","","","","","","",""
"","html-keyboard-response","273","661157","0.0-10.0-2.21","llyz70t28f","many_one","0","indirect_first","0","af06el20","0","18","1","1","3","1","","0","1","0","null","","","<img src = 'targets/25.png' width = '100%;'>","null","","","","","","","","","",""
"","html-keyboard-response","274","661787","0.0-10.0-3.21","llyz70t28f","many_one","0","indirect_first","0","af06el20","0","18","1","1","3","1","","0","1","0","628.3850000181701","","","<img src = 'targets/mask.png' width = '100%;'>","68","pos","GS","GSnew","1","category1/GS1.png","targets/25.png","0","indirect","45",""
"","html-keyboard-response","275","663303","0.0-10.0-0.22","llyz70t28f","many_one","0","indirect_first","0","af06el20","0","18","1","1","3","1","","0","1","0","null","","","<div style=""font-size:60px;"">+</div>","null","","","","","","","","","",""
"","html-keyboard-response","276","663396","0.0-10.0-1.22","llyz70t28f","many_one","0","indirect_first","0","af06el20","0","18","1","1","3","1","","0","1","0","null","","","<img src = 'category4/GS1.png' width = '100%;'>","null","","","","","","","","","",""
"","html-keyboard-response","277","663663","0.0-10.0-2.22","llyz70t28f","many_one","0","indirect_first","0","af06el20","0","18","1","1","3","1","","0","1","0","null","","","<img src = 'targets/4.png' width = '100%;'>","null","","","","","","","","","",""
"","html-keyboard-response","278","664471","0.0-10.0-3.22","llyz70t28f","many_one","0","indirect_first","0","af06el20","0","18","1","1","3","1","","0","1","0","807.6650000002701","","","<img src = 'targets/mask.png' width = '100%;'>","68","neg","GS","GSnew","4","category4/GS1.png","targets/4.png","0","indirect","46",""
"","html-keyboard-response","279","665990","0.0-10.0-0.23","llyz70t28f","many_one","0","indirect_first","0","af06el20","0","18","1","1","3","1","","0","1","0","null","","","<div style=""font-size:60px;"">+</div>","null","","","","","","","","","",""
"","html-keyboard-response","280","666082","0.0-10.0-1.23","llyz70t28f","many_one","0","indirect_first","0","af06el20","0","18","1","1","3","1","","0","1","0","null","","","<img src = 'category4/CS1.png' width = '100%;'>","null","","","","","","","","","",""
"","html-keyboard-response","281","666348","0.0-10.0-2.23","llyz70t28f","many_one","0","indirect_first","0","af06el20","0","18","1","1","3","1","","0","1","0","null","","","<img src = 'targets/44.png' width = '100%;'>","null","","","","","","","","","",""
"","html-keyboard-response","282","666998","0.0-10.0-3.23","llyz70t28f","many_one","0","indirect_first","0","af06el20","0","18","1","1","3","1","","0","1","0","649.3250000057742","","","<img src = 'targets/mask.png' width = '100%;'>","68","neg","GS","GSold","4","category4/CS1.png","targets/44.png","0","indirect","47",""
"","survey-html-form","283","676007","0.0-11.0","llyz70t28f","many_one","0","indirect_first","0","af06el20","0","18","1","1","3","1","","0","1","0","8502.169999992475","","{}","","","","","","","","","","","",""
"","image-slider-response","284","688771","0.0-12.0-0.0","llyz70t28f","many_one","0","indirect_first","0","af06el20","0","18","1","1","3","1","","0","1","0","10759.94499999797","","","","","neg","GS","GSnew","4","category4/GS3.png","targets/14.png","","direct","","-69"
"","image-slider-response","285","692523","0.0-12.0-0.1","llyz70t28f","many_one","0","indirect_first","0","af06el20","0","18","1","1","3","1","","0","1","0","3748.9449999993667","","","","","neg","CS","CS","2","category2/CS1.png","targets/26.png","","direct","","-14"
"","image-slider-response","286","696632","0.0-12.0-0.2","llyz70t28f","many_one","0","indirect_first","0","af06el20","0","18","1","1","3","1","","0","1","0","4106.31000000285","","","","","pos","CS","CS","1","category1/CS4.png","targets/23.png","","direct","","17"
"","image-slider-response","287","703961","0.0-12.0-0.3","llyz70t28f","many_one","0","indirect_first","0","af06el20","0","18","1","1","3","1","","0","1","0","7327.080000017304","","","","","neg","CS","CS","4","category4/CS5.png","targets/3.png","","direct","","-96"
"","image-slider-response","288","708129","0.0-12.0-0.4","llyz70t28f","many_one","0","indirect_first","0","af06el20","0","18","1","1","3","1","","0","1","0","4164.140000008047","","","","","pos","CS","CS","3","category3/CS8.png","targets/48.png","","direct","","63"
"","image-slider-response","289","710359","0.0-12.0-0.5","llyz70t28f","many_one","0","indirect_first","0","af06el20","0","18","1","1","3","1","","0","1","0","2227.130000013858","","","","","pos","GS","GSold","3","category3/CS10.png","targets/6.png","","direct","","69"
"","image-slider-response","290","712717","0.0-12.0-0.6","llyz70t28f","many_one","0","indirect_first","0","af06el20","0","18","1","1","3","1","","0","1","0","2355.920000001788","","","","","pos","GS","GSnew","1","category1/GS2.png","targets/22.png","","direct","","31"
"","image-slider-response","291","715897","0.0-12.0-0.7","llyz70t28f","many_one","0","indirect_first","0","af06el20","0","18","1","1","3","1","","0","1","0","3177.8599999961443","","","","","pos","CS","CS","1","category1/CS2.png","targets/1.png","","direct","","56"
"","image-slider-response","292","720603","0.0-12.0-0.8","llyz70t28f","many_one","0","indirect_first","0","af06el20","0","18","1","1","3","1","","0","1","0","4704.304999992019","","","","","neg","CS","CS","4","category4/CS7.png","targets/34.png","","direct","","-85"
"","image-slider-response","293","723819","0.0-12.0-0.9","llyz70t28f","many_one","0","indirect_first","0","af06el20","0","18","1","1","3","1","","0","1","0","3212.824999995064","","","","","neg","GS","GSnew","2","category2/GS1.png","targets/39.png","","direct","","19"
"","image-slider-response","294","726907","0.0-12.0-0.10","llyz70t28f","many_one","0","indirect_first","0","af06el20","0","18","1","1","3","1","","0","1","0","3086.02499999688","","","","","neg","GS","GSnew","2","category2/GS2.png","targets/24.png","","direct","","12"
"","image-slider-response","295","729721","0.0-12.0-0.11","llyz70t28f","many_one","0","indirect_first","0","af06el20","0","18","1","1","3","1","","0","1","0","2811.909999989439","","","","","pos","CS","CS","3","category3/CS5.png","targets/16.png","","direct","","89"
"","image-slider-response","296","734923","0.0-12.0-0.12","llyz70t28f","many_one","0","indirect_first","0","af06el20","0","18","1","1","3","1","","0","1","0","5199.159999989206","","","","","neg","CS","CS","4","category4/CS8.png","targets/10.png","","direct","","-56"
"","image-slider-response","297","736877","0.0-12.0-0.13","llyz70t28f","many_one","0","indirect_first","0","af06el20","0","18","1","1","3","1","","0","1","0","1951.7350000096485","","","","","neg","GS","abstract","2","category2/men.png","targets/8.png","","direct","","-15"
"","image-slider-response","298","739641","0.0-12.0-0.14","llyz70t28f","many_one","0","indirect_first","0","af06el20","0","18","1","1","3","1","","0","1","0","2762.0199999946635","","","","","pos","GS","GSold","3","category3/CS3.png","targets/36.png","","direct","","70"
"","image-slider-response","299","742095","0.0-12.0-0.15","llyz70t28f","many_one","0","indirect_first","0","af06el20","0","18","1","1","3","1","","0","1","0","2451.7049999849405","","","","","pos","CS","CS","3","category3/CS1.png","targets/46.png","","direct","","61"
"","image-slider-response","300","745975","0.0-12.0-0.16","llyz70t28f","many_one","0","indirect_first","0","af06el20","0","18","1","1","3","1","","0","1","0","3877.374999981839","","","","","neg","GS","GSnew","4","category4/GS1.png","targets/4.png","","direct","","-32"
"","image-slider-response","301","748150","0.0-12.0-0.17","llyz70t28f","many_one","0","indirect_first","0","af06el20","0","18","1","1","3","1","","0","1","0","2172.2700000100303","","","","","pos","CS","CS","1","category1/CS1.png","targets/13.png","","direct","","45"
"","image-slider-response","302","750021","0.0-12.0-0.18","llyz70t28f","many_one","0","indirect_first","0","af06el20","0","18","1","1","3","1","","0","1","0","1868.5249999980442","","","","","pos","GS","GSold","1","category1/CS6.png","targets/5.png","","direct","","48"
"","image-slider-response","303","753493","0.0-12.0-0.19","llyz70t28f","many_one","0","indirect_first","0","af06el20","0","18","1","1","3","1","","0","1","0","3469.394999992801","","","","","neg","GS","GSold","4","category4/CS2.png","targets/20.png","","direct","","-35"
"","image-slider-response","304","755699","0.0-12.0-0.20","llyz70t28f","many_one","0","indirect_first","0","af06el20","0","18","1","1","3","1","","0","1","0","2203.784999990603","","","","","pos","GS","GSold","3","category3/CS2.png","targets/38.png","","direct","","55"
"","image-slider-response","305","758272","0.0-12.0-0.21","llyz70t28f","many_one","0","indirect_first","0","af06el20","0","18","1","1","3","1","","0","1","0","2571.924999996554","","","","","pos","GS","GSnew","1","category1/GS1.png","targets/25.png","","direct","","40"
"","image-slider-response","306","760928","0.0-12.0-0.22","llyz70t28f","many_one","0","indirect_first","0","af06el20","0","18","1","1","3","1","","0","1","0","2653.6400000040885","","","","","neg","GS","abstract","4","category4/lin.png","targets/9.png","","direct","","-65"
"","image-slider-response","307","763098","0.0-12.0-0.23","llyz70t28f","many_one","0","indirect_first","0","af06el20","0","18","1","1","3","1","","0","1","0","2168.1399999943096","","","","","neg","GS","GSnew","2","category2/GS3.png","targets/35.png","","direct","","30"
"","image-slider-response","308","765793","0.0-12.0-0.24","llyz70t28f","many_one","0","indirect_first","0","af06el20","0","18","1","1","3","1","","0","1","0","2692.3700000043027","","","","","neg","GS","GSnew","4","category4/GS2.png","targets/30.png","","direct","","-72"
"","image-slider-response","309","769684","0.0-12.0-0.25","llyz70t28f","many_one","0","indirect_first","0","af06el20","0","18","1","1","3","1","","0","1","0","3889.759999990929","","","","","pos","GS","abstract","1","category1/ma.png","targets/11.png","","direct","","28"
"","image-slider-response","310","773390","0.0-12.0-0.26","llyz70t28f","many_one","0","indirect_first","0","af06el20","0","18","1","1","3","1","","0","1","0","3703.3100000116974","","","","","pos","CS","CS","1","category1/CS9.png","targets/37.png","","direct","","41"
"","image-slider-response","311","776829","0.0-12.0-0.27","llyz70t28f","many_one","0","indirect_first","0","af06el20","0","18","1","1","3","1","","0","1","0","3435.7700000109617","","","","","neg","GS","GSold","2","category2/CS6.png","targets/41.png","","direct","","-38"
"","image-slider-response","312","779544","0.0-12.0-0.28","llyz70t28f","many_one","0","indirect_first","0","af06el20","0","18","1","1","3","1","","0","1","0","2713.0600000091363","","","","","neg","GS","GSold","2","category2/CS4.png","targets/45.png","","direct","","-33"
"","image-slider-response","313","782223","0.0-12.0-0.29","llyz70t28f","many_one","0","indirect_first","0","af06el20","0","18","1","1","3","1","","0","1","0","2676.1999999871477","","","","","neg","CS","CS","2","category2/CS2.png","targets/47.png","","direct","","-33"
"","image-slider-response","314","784848","0.0-12.0-0.30","llyz70t28f","many_one","0","indirect_first","0","af06el20","0","18","1","1","3","1","","0","1","0","2623.0699999723583","","","","","pos","GS","GSold","1","category1/CS7.png","targets/27.png","","direct","","51"
"","image-slider-response","315","786752","0.0-12.0-0.31","llyz70t28f","many_one","0","indirect_first","0","af06el20","0","18","1","1","3","1","","0","1","0","1901.7299999832176","","","","","pos","GS","GSnew","3","category3/GS1.png","targets/12.png","","direct","","52"
"","image-slider-response","316","789369","0.0-12.0-0.32","llyz70t28f","many_one","0","indirect_first","0","af06el20","0","18","1","1","3","1","","0","1","0","2614.3250000022817","","","","","pos","GS","GSnew","1","category1/GS3.png","targets/32.png","","direct","","53"
"","image-slider-response","317","792496","0.0-12.0-0.33","llyz70t28f","many_one","0","indirect_first","0","af06el20","0","18","1","1","3","1","","0","1","0","3125.514999992447","","","","","pos","CS","CS","3","category3/CS4.png","targets/43.png","","direct","","86"
"","image-slider-response","318","796184","0.0-12.0-0.34","llyz70t28f","many_one","0","indirect_first","0","af06el20","0","18","1","1","3","1","","0","1","0","3685.714999999618","","","","","pos","GS","GSold","1","category1/CS10.png","targets/18.png","","direct","","19"
"","image-slider-response","319","798921","0.0-12.0-0.35","llyz70t28f","many_one","0","indirect_first","0","af06el20","0","18","1","1","3","1","","0","1","0","2733.8699999963865","","","","","pos","CS","CS","1","category1/CS8.png","targets/42.png","","direct","","34"
"","image-slider-response","320","801506","0.0-12.0-0.36","llyz70t28f","many_one","0","indirect_first","0","af06el20","0","18","1","1","3","1","","0","1","0","2583.2050000026356","","","","","neg","GS","GSold","4","category4/CS1.png","targets/44.png","","direct","","-45"
"","image-slider-response","321","804250","0.0-12.0-0.37","llyz70t28f","many_one","0","indirect_first","0","af06el20","0","18","1","1","3","1","","0","1","0","2742.1250000188593","","","","","neg","CS","CS","2","category2/CS5.png","targets/31.png","","direct","","-28"
"","image-slider-response","322","806494","0.0-12.0-0.38","llyz70t28f","many_one","0","indirect_first","0","af06el20","0","18","1","1","3","1","","0","1","0","2241.584999981569","","","","","neg","GS","GSold","4","category4/CS6.png","targets/29.png","","direct","","-47"
"","image-slider-response","323","808703","0.0-12.0-0.39","llyz70t28f","many_one","0","indirect_first","0","af06el20","0","18","1","1","3","1","","0","1","0","2206.2149999837857","","","","","neg","GS","GSold","2","category2/CS3.png","targets/2.png","","direct","","-35"
"","image-slider-response","324","811247","0.0-12.0-0.40","llyz70t28f","many_one","0","indirect_first","0","af06el20","0","18","1","1","3","1","","0","1","0","2542.1499999938533","","","","","pos","GS","GSnew","3","category3/GS2.png","targets/7.png","","direct","","55"
