"success","trial_type","trial_index","time_elapsed","internal_node_id","subject","condition","condition_code","measure","measure_code","codeword","gender","age","education","chinese","fach","handedness","comment","hinschauen","ablenkung","gewissenhaft","rt","url","responses","stimulus","key_press","val","type","type_specific","category","cs_selected","target","indirect","task","nr_pres","response"
"true","fullscreen","0","8730","0.0-0.0","wf3cnq6kaz","many_one","0","indirect_first","0","mm10ns28","1","18","1","1","3","1","","0","1","0","","","","","","","","","","","","","","",""
"","external-html","1","15645","0.0-1.0","wf3cnq6kaz","many_one","0","indirect_first","0","mm10ns28","1","18","1","1","3","1","","0","1","0","6842.349999817088","text/information.html","","","","","","","","","","","","",""
"","external-html","2","43973","0.0-2.0","wf3cnq6kaz","many_one","0","indirect_first","0","mm10ns28","1","18","1","1","3","1","","0","1","0","28269.98999994248","text/consent.html","","","","","","","","","","","","",""
"","survey-html-form","3","99304","0.0-3.0","wf3cnq6kaz","many_one","0","indirect_first","0","mm10ns28","1","18","1","1","3","1","","0","1","0","55322.89499999024","","{""codeword_enter"":""mm10ns28""}","","","","","","","","","","","",""
"","survey-html-form","4","117373","0.0-4.0","wf3cnq6kaz","many_one","0","indirect_first","0","mm10ns28","1","18","1","1","3","1","","0","1","0","18060.185000067577","","{""age"":""18"",""education"":""1"",""subject"":""3"",""gender"":""1"",""handedness"":""1"",""chinese"":""1""}","","","","","","","","","","","",""
"","survey-html-form","5","131309","0.0-5.0","wf3cnq6kaz","many_one","0","indirect_first","0","mm10ns28","1","18","1","1","3","1","","0","1","0","13930.230000056326","","{}","","","","","","","","","","","",""
"","html-keyboard-response","6","135331","0.0-6.0-0.0-0.0","wf3cnq6kaz","many_one","0","indirect_first","0","mm10ns28","1","18","1","1","3","1","","0","1","0","null","","","<div class = 'row'><div class = 'column'><img src = 'category2/CS5.png' width = '70%;'></div><div class = 'column'><img src = 'usneg/9415.bmp' width = '100%;'></div></div>","null","neg","CS","CS","2","category2/CS5.png","","","","",""
"","html-keyboard-response","7","137860","0.0-6.0-0.0-0.1","wf3cnq6kaz","many_one","0","indirect_first","0","mm10ns28","1","18","1","1","3","1","","0","1","0","null","","","<div class = 'row'><div class = 'column'><img src = 'uspos/7580.bmp' width = '100%;'></div><div class = 'column'><img src = 'category1/CS3.png' width = '70%;'></div></div>","null","pos","CS","CS","1","category1/CS3.png","","","","",""
"","html-keyboard-response","8","140378","0.0-6.0-0.0-0.2","wf3cnq6kaz","many_one","0","indirect_first","0","mm10ns28","1","18","1","1","3","1","","0","1","0","null","","","<div class = 'row'><div class = 'column'><img src = 'usneg/9220.bmp' width = '100%;'></div><div class = 'column'><img src = 'category2/CS6.png' width = '70%;'></div></div>","null","neg","CS","CS","2","category2/CS6.png","","","","",""
"","html-keyboard-response","9","142889","0.0-6.0-0.0-0.3","wf3cnq6kaz","many_one","0","indirect_first","0","mm10ns28","1","18","1","1","3","1","","0","1","0","null","","","<div class = 'row'><div class = 'column'><img src = 'category3/CS5.png' width = '70%;'></div><div class = 'column'><img src = 'usneg/2750.bmp' width = '100%;'></div></div>","null","neg","CS","CS","3","category3/CS5.png","","","","",""
"","html-keyboard-response","10","145400","0.0-6.0-0.0-0.4","wf3cnq6kaz","many_one","0","indirect_first","0","mm10ns28","1","18","1","1","3","1","","0","1","0","null","","","<div class = 'row'><div class = 'column'><img src = 'category2/CS9.png' width = '70%;'></div><div class = 'column'><img src = 'usneg/9435.bmp' width = '100%;'></div></div>","null","neg","CS","CS","2","category2/CS9.png","","","","",""
"","html-keyboard-response","11","147915","0.0-6.0-0.0-0.5","wf3cnq6kaz","many_one","0","indirect_first","0","mm10ns28","1","18","1","1","3","1","","0","1","0","null","","","<div class = 'row'><div class = 'column'><img src = 'category1/CS8.png' width = '70%;'></div><div class = 'column'><img src = 'uspos/8461.bmp' width = '100%;'></div></div>","null","pos","CS","CS","1","category1/CS8.png","","","","",""
"","html-keyboard-response","12","150448","0.0-6.0-0.0-0.6","wf3cnq6kaz","many_one","0","indirect_first","0","mm10ns28","1","18","1","1","3","1","","0","1","0","null","","","<div class = 'row'><div class = 'column'><img src = 'usneg/9830.bmp' width = '100%;'></div><div class = 'column'><img src = 'category2/CS2.png' width = '70%;'></div></div>","null","neg","CS","CS","2","category2/CS2.png","","","","",""
"","html-keyboard-response","13","152980","0.0-6.0-0.0-0.7","wf3cnq6kaz","many_one","0","indirect_first","0","mm10ns28","1","18","1","1","3","1","","0","1","0","null","","","<div class = 'row'><div class = 'column'><img src = 'category4/CS1.png' width = '70%;'></div><div class = 'column'><img src = 'uspos/2165.bmp' width = '100%;'></div></div>","null","pos","CS","CS","4","category4/CS1.png","","","","",""
"","html-keyboard-response","14","155504","0.0-6.0-0.0-0.8","wf3cnq6kaz","many_one","0","indirect_first","0","mm10ns28","1","18","1","1","3","1","","0","1","0","null","","","<div class = 'row'><div class = 'column'><img src = 'category1/CS10.png' width = '70%;'></div><div class = 'column'><img src = 'uspos/5621.bmp' width = '100%;'></div></div>","null","pos","CS","CS","1","category1/CS10.png","","","","",""
"","html-keyboard-response","15","158032","0.0-6.0-0.0-0.9","wf3cnq6kaz","many_one","0","indirect_first","0","mm10ns28","1","18","1","1","3","1","","0","1","0","null","","","<div class = 'row'><div class = 'column'><img src = 'category3/CS7.png' width = '70%;'></div><div class = 'column'><img src = 'usneg/9182.bmp' width = '100%;'></div></div>","null","neg","CS","CS","3","category3/CS7.png","","","","",""
"","html-keyboard-response","16","160556","0.0-6.0-0.0-0.10","wf3cnq6kaz","many_one","0","indirect_first","0","mm10ns28","1","18","1","1","3","1","","0","1","0","null","","","<div class = 'row'><div class = 'column'><img src = 'category1/CS4.png' width = '70%;'></div><div class = 'column'><img src = 'uspos/8540.bmp' width = '100%;'></div></div>","null","pos","CS","CS","1","category1/CS4.png","","","","",""
"","html-keyboard-response","17","163071","0.0-6.0-0.0-0.11","wf3cnq6kaz","many_one","0","indirect_first","0","mm10ns28","1","18","1","1","3","1","","0","1","0","null","","","<div class = 'row'><div class = 'column'><img src = 'uspos/2311.bmp' width = '100%;'></div><div class = 'column'><img src = 'category4/CS2.png' width = '70%;'></div></div>","null","pos","CS","CS","4","category4/CS2.png","","","","",""
"","html-keyboard-response","18","165591","0.0-6.0-0.0-0.12","wf3cnq6kaz","many_one","0","indirect_first","0","mm10ns28","1","18","1","1","3","1","","0","1","0","null","","","<div class = 'row'><div class = 'column'><img src = 'uspos/2550.bmp' width = '100%;'></div><div class = 'column'><img src = 'category4/CS10.png' width = '70%;'></div></div>","null","pos","CS","CS","4","category4/CS10.png","","","","",""
"","html-keyboard-response","19","168101","0.0-6.0-0.0-0.13","wf3cnq6kaz","many_one","0","indirect_first","0","mm10ns28","1","18","1","1","3","1","","0","1","0","null","","","<div class = 'row'><div class = 'column'><img src = 'category1/CS2.png' width = '70%;'></div><div class = 'column'><img src = 'uspos/1340.bmp' width = '100%;'></div></div>","null","pos","CS","CS","1","category1/CS2.png","","","","",""
"","html-keyboard-response","20","170616","0.0-6.0-0.0-0.14","wf3cnq6kaz","many_one","0","indirect_first","0","mm10ns28","1","18","1","1","3","1","","0","1","0","null","","","<div class = 'row'><div class = 'column'><img src = 'category3/CS10.png' width = '70%;'></div><div class = 'column'><img src = 'usneg/1280.bmp' width = '100%;'></div></div>","null","neg","CS","CS","3","category3/CS10.png","","","","",""
"","html-keyboard-response","21","173135","0.0-6.0-0.0-0.15","wf3cnq6kaz","many_one","0","indirect_first","0","mm10ns28","1","18","1","1","3","1","","0","1","0","null","","","<div class = 'row'><div class = 'column'><img src = 'uspos/5470.bmp' width = '100%;'></div><div class = 'column'><img src = 'category4/CS5.png' width = '70%;'></div></div>","null","pos","CS","CS","4","category4/CS5.png","","","","",""
"","html-keyboard-response","22","175648","0.0-6.0-0.0-0.16","wf3cnq6kaz","many_one","0","indirect_first","0","mm10ns28","1","18","1","1","3","1","","0","1","0","null","","","<div class = 'row'><div class = 'column'><img src = 'category2/CS1.png' width = '70%;'></div><div class = 'column'><img src = 'usneg/9342.bmp' width = '100%;'></div></div>","null","neg","CS","CS","2","category2/CS1.png","","","","",""
"","html-keyboard-response","23","178167","0.0-6.0-0.0-0.17","wf3cnq6kaz","many_one","0","indirect_first","0","mm10ns28","1","18","1","1","3","1","","0","1","0","null","","","<div class = 'row'><div class = 'column'><img src = 'category3/CS1.png' width = '70%;'></div><div class = 'column'><img src = 'usneg/9561.bmp' width = '100%;'></div></div>","null","neg","CS","CS","3","category3/CS1.png","","","","",""
"","html-keyboard-response","24","180689","0.0-6.0-0.0-0.18","wf3cnq6kaz","many_one","0","indirect_first","0","mm10ns28","1","18","1","1","3","1","","0","1","0","null","","","<div class = 'row'><div class = 'column'><img src = 'category3/CS2.png' width = '70%;'></div><div class = 'column'><img src = 'usneg/3181.bmp' width = '100%;'></div></div>","null","neg","CS","CS","3","category3/CS2.png","","","","",""
"","html-keyboard-response","25","183205","0.0-6.0-0.0-0.19","wf3cnq6kaz","many_one","0","indirect_first","0","mm10ns28","1","18","1","1","3","1","","0","1","0","null","","","<div class = 'row'><div class = 'column'><img src = 'uspos/2058.bmp' width = '100%;'></div><div class = 'column'><img src = 'category4/CS9.png' width = '70%;'></div></div>","null","pos","CS","CS","4","category4/CS9.png","","","","",""
"","survey-html-form","26","185125","0.0-6.0-1.0","wf3cnq6kaz","many_one","0","indirect_first","0","mm10ns28","1","18","1","1","3","1","","0","1","0","1418.0999998934567","","{}","","","","","","","","","","","",""
"","html-keyboard-response","27","189149","0.0-6.0-2.0-0.0","wf3cnq6kaz","many_one","0","indirect_first","0","mm10ns28","1","18","1","1","3","1","","0","1","0","null","","","<div class = 'row'><div class = 'column'><img src = 'uspos/2311.bmp' width = '100%;'></div><div class = 'column'><img src = 'category4/CS2.png' width = '70%;'></div></div>","null","pos","CS","CS","4","category4/CS2.png","","","","",""
"","html-keyboard-response","28","191665","0.0-6.0-2.0-0.1","wf3cnq6kaz","many_one","0","indirect_first","0","mm10ns28","1","18","1","1","3","1","","0","1","0","null","","","<div class = 'row'><div class = 'column'><img src = 'usneg/2750.bmp' width = '100%;'></div><div class = 'column'><img src = 'category3/CS5.png' width = '70%;'></div></div>","null","neg","CS","CS","3","category3/CS5.png","","","","",""
"","html-keyboard-response","29","194194","0.0-6.0-2.0-0.2","wf3cnq6kaz","many_one","0","indirect_first","0","mm10ns28","1","18","1","1","3","1","","0","1","0","null","","","<div class = 'row'><div class = 'column'><img src = 'category4/CS9.png' width = '70%;'></div><div class = 'column'><img src = 'uspos/2058.bmp' width = '100%;'></div></div>","null","pos","CS","CS","4","category4/CS9.png","","","","",""
"","html-keyboard-response","30","196721","0.0-6.0-2.0-0.3","wf3cnq6kaz","many_one","0","indirect_first","0","mm10ns28","1","18","1","1","3","1","","0","1","0","null","","","<div class = 'row'><div class = 'column'><img src = 'category2/CS9.png' width = '70%;'></div><div class = 'column'><img src = 'usneg/9435.bmp' width = '100%;'></div></div>","null","neg","CS","CS","2","category2/CS9.png","","","","",""
"","html-keyboard-response","31","199244","0.0-6.0-2.0-0.4","wf3cnq6kaz","many_one","0","indirect_first","0","mm10ns28","1","18","1","1","3","1","","0","1","0","null","","","<div class = 'row'><div class = 'column'><img src = 'uspos/5470.bmp' width = '100%;'></div><div class = 'column'><img src = 'category4/CS5.png' width = '70%;'></div></div>","null","pos","CS","CS","4","category4/CS5.png","","","","",""
"","html-keyboard-response","32","201753","0.0-6.0-2.0-0.5","wf3cnq6kaz","many_one","0","indirect_first","0","mm10ns28","1","18","1","1","3","1","","0","1","0","null","","","<div class = 'row'><div class = 'column'><img src = 'category1/CS10.png' width = '70%;'></div><div class = 'column'><img src = 'uspos/5621.bmp' width = '100%;'></div></div>","null","pos","CS","CS","1","category1/CS10.png","","","","",""
"","html-keyboard-response","33","204259","0.0-6.0-2.0-0.6","wf3cnq6kaz","many_one","0","indirect_first","0","mm10ns28","1","18","1","1","3","1","","0","1","0","null","","","<div class = 'row'><div class = 'column'><img src = 'category3/CS7.png' width = '70%;'></div><div class = 'column'><img src = 'usneg/9182.bmp' width = '100%;'></div></div>","null","neg","CS","CS","3","category3/CS7.png","","","","",""
"","html-keyboard-response","34","206784","0.0-6.0-2.0-0.7","wf3cnq6kaz","many_one","0","indirect_first","0","mm10ns28","1","18","1","1","3","1","","0","1","0","null","","","<div class = 'row'><div class = 'column'><img src = 'category2/CS1.png' width = '70%;'></div><div class = 'column'><img src = 'usneg/9342.bmp' width = '100%;'></div></div>","null","neg","CS","CS","2","category2/CS1.png","","","","",""
"","html-keyboard-response","35","209294","0.0-6.0-2.0-0.8","wf3cnq6kaz","many_one","0","indirect_first","0","mm10ns28","1","18","1","1","3","1","","0","1","0","null","","","<div class = 'row'><div class = 'column'><img src = 'category3/CS2.png' width = '70%;'></div><div class = 'column'><img src = 'usneg/3181.bmp' width = '100%;'></div></div>","null","neg","CS","CS","3","category3/CS2.png","","","","",""
"","html-keyboard-response","36","211817","0.0-6.0-2.0-0.9","wf3cnq6kaz","many_one","0","indirect_first","0","mm10ns28","1","18","1","1","3","1","","0","1","0","null","","","<div class = 'row'><div class = 'column'><img src = 'usneg/9561.bmp' width = '100%;'></div><div class = 'column'><img src = 'category3/CS1.png' width = '70%;'></div></div>","null","neg","CS","CS","3","category3/CS1.png","","","","",""
"","html-keyboard-response","37","214324","0.0-6.0-2.0-0.10","wf3cnq6kaz","many_one","0","indirect_first","0","mm10ns28","1","18","1","1","3","1","","0","1","0","null","","","<div class = 'row'><div class = 'column'><img src = 'category4/CS10.png' width = '70%;'></div><div class = 'column'><img src = 'uspos/2550.bmp' width = '100%;'></div></div>","null","pos","CS","CS","4","category4/CS10.png","","","","",""
"","html-keyboard-response","38","216839","0.0-6.0-2.0-0.11","wf3cnq6kaz","many_one","0","indirect_first","0","mm10ns28","1","18","1","1","3","1","","0","1","0","null","","","<div class = 'row'><div class = 'column'><img src = 'uspos/8540.bmp' width = '100%;'></div><div class = 'column'><img src = 'category1/CS4.png' width = '70%;'></div></div>","null","pos","CS","CS","1","category1/CS4.png","","","","",""
"","html-keyboard-response","39","219350","0.0-6.0-2.0-0.12","wf3cnq6kaz","many_one","0","indirect_first","0","mm10ns28","1","18","1","1","3","1","","0","1","0","null","","","<div class = 'row'><div class = 'column'><img src = 'uspos/2165.bmp' width = '100%;'></div><div class = 'column'><img src = 'category4/CS1.png' width = '70%;'></div></div>","null","pos","CS","CS","4","category4/CS1.png","","","","",""
"","html-keyboard-response","40","221864","0.0-6.0-2.0-0.13","wf3cnq6kaz","many_one","0","indirect_first","0","mm10ns28","1","18","1","1","3","1","","0","1","0","null","","","<div class = 'row'><div class = 'column'><img src = 'uspos/1340.bmp' width = '100%;'></div><div class = 'column'><img src = 'category1/CS2.png' width = '70%;'></div></div>","null","pos","CS","CS","1","category1/CS2.png","","","","",""
"","html-keyboard-response","41","224380","0.0-6.0-2.0-0.14","wf3cnq6kaz","many_one","0","indirect_first","0","mm10ns28","1","18","1","1","3","1","","0","1","0","null","","","<div class = 'row'><div class = 'column'><img src = 'category2/CS6.png' width = '70%;'></div><div class = 'column'><img src = 'usneg/9220.bmp' width = '100%;'></div></div>","null","neg","CS","CS","2","category2/CS6.png","","","","",""
"","html-keyboard-response","42","226903","0.0-6.0-2.0-0.15","wf3cnq6kaz","many_one","0","indirect_first","0","mm10ns28","1","18","1","1","3","1","","0","1","0","null","","","<div class = 'row'><div class = 'column'><img src = 'category1/CS3.png' width = '70%;'></div><div class = 'column'><img src = 'uspos/7580.bmp' width = '100%;'></div></div>","null","pos","CS","CS","1","category1/CS3.png","","","","",""
"","html-keyboard-response","43","229414","0.0-6.0-2.0-0.16","wf3cnq6kaz","many_one","0","indirect_first","0","mm10ns28","1","18","1","1","3","1","","0","1","0","null","","","<div class = 'row'><div class = 'column'><img src = 'category2/CS5.png' width = '70%;'></div><div class = 'column'><img src = 'usneg/9415.bmp' width = '100%;'></div></div>","null","neg","CS","CS","2","category2/CS5.png","","","","",""
"","html-keyboard-response","44","231921","0.0-6.0-2.0-0.17","wf3cnq6kaz","many_one","0","indirect_first","0","mm10ns28","1","18","1","1","3","1","","0","1","0","null","","","<div class = 'row'><div class = 'column'><img src = 'category3/CS10.png' width = '70%;'></div><div class = 'column'><img src = 'usneg/1280.bmp' width = '100%;'></div></div>","null","neg","CS","CS","3","category3/CS10.png","","","","",""
"","html-keyboard-response","45","234439","0.0-6.0-2.0-0.18","wf3cnq6kaz","many_one","0","indirect_first","0","mm10ns28","1","18","1","1","3","1","","0","1","0","null","","","<div class = 'row'><div class = 'column'><img src = 'uspos/8461.bmp' width = '100%;'></div><div class = 'column'><img src = 'category1/CS8.png' width = '70%;'></div></div>","null","pos","CS","CS","1","category1/CS8.png","","","","",""
"","html-keyboard-response","46","236969","0.0-6.0-2.0-0.19","wf3cnq6kaz","many_one","0","indirect_first","0","mm10ns28","1","18","1","1","3","1","","0","1","0","null","","","<div class = 'row'><div class = 'column'><img src = 'category2/CS2.png' width = '70%;'></div><div class = 'column'><img src = 'usneg/9830.bmp' width = '100%;'></div></div>","null","neg","CS","CS","2","category2/CS2.png","","","","",""
"","survey-html-form","47","239309","0.0-6.0-3.0","wf3cnq6kaz","many_one","0","indirect_first","0","mm10ns28","1","18","1","1","3","1","","0","1","0","1837.8199997823685","","{}","","","","","","","","","","","",""
"","html-keyboard-response","48","243322","0.0-6.0-4.0-0.0","wf3cnq6kaz","many_one","0","indirect_first","0","mm10ns28","1","18","1","1","3","1","","0","1","0","null","","","<div class = 'row'><div class = 'column'><img src = 'usneg/9220.bmp' width = '100%;'></div><div class = 'column'><img src = 'category2/CS6.png' width = '70%;'></div></div>","null","neg","CS","CS","2","category2/CS6.png","","","","",""
"","html-keyboard-response","49","245835","0.0-6.0-4.0-0.1","wf3cnq6kaz","many_one","0","indirect_first","0","mm10ns28","1","18","1","1","3","1","","0","1","0","null","","","<div class = 'row'><div class = 'column'><img src = 'category2/CS9.png' width = '70%;'></div><div class = 'column'><img src = 'usneg/9435.bmp' width = '100%;'></div></div>","null","neg","CS","CS","2","category2/CS9.png","","","","",""
"","html-keyboard-response","50","248354","0.0-6.0-4.0-0.2","wf3cnq6kaz","many_one","0","indirect_first","0","mm10ns28","1","18","1","1","3","1","","0","1","0","null","","","<div class = 'row'><div class = 'column'><img src = 'uspos/8540.bmp' width = '100%;'></div><div class = 'column'><img src = 'category1/CS4.png' width = '70%;'></div></div>","null","pos","CS","CS","1","category1/CS4.png","","","","",""
"","html-keyboard-response","51","250881","0.0-6.0-4.0-0.3","wf3cnq6kaz","many_one","0","indirect_first","0","mm10ns28","1","18","1","1","3","1","","0","1","0","null","","","<div class = 'row'><div class = 'column'><img src = 'category1/CS8.png' width = '70%;'></div><div class = 'column'><img src = 'uspos/8461.bmp' width = '100%;'></div></div>","null","pos","CS","CS","1","category1/CS8.png","","","","",""
"","html-keyboard-response","52","253403","0.0-6.0-4.0-0.4","wf3cnq6kaz","many_one","0","indirect_first","0","mm10ns28","1","18","1","1","3","1","","0","1","0","null","","","<div class = 'row'><div class = 'column'><img src = 'category2/CS1.png' width = '70%;'></div><div class = 'column'><img src = 'usneg/9342.bmp' width = '100%;'></div></div>","null","neg","CS","CS","2","category2/CS1.png","","","","",""
"","html-keyboard-response","53","255924","0.0-6.0-4.0-0.5","wf3cnq6kaz","many_one","0","indirect_first","0","mm10ns28","1","18","1","1","3","1","","0","1","0","null","","","<div class = 'row'><div class = 'column'><img src = 'category3/CS5.png' width = '70%;'></div><div class = 'column'><img src = 'usneg/2750.bmp' width = '100%;'></div></div>","null","neg","CS","CS","3","category3/CS5.png","","","","",""
"","html-keyboard-response","54","258444","0.0-6.0-4.0-0.6","wf3cnq6kaz","many_one","0","indirect_first","0","mm10ns28","1","18","1","1","3","1","","0","1","0","null","","","<div class = 'row'><div class = 'column'><img src = 'usneg/9415.bmp' width = '100%;'></div><div class = 'column'><img src = 'category2/CS5.png' width = '70%;'></div></div>","null","neg","CS","CS","2","category2/CS5.png","","","","",""
"","html-keyboard-response","55","260955","0.0-6.0-4.0-0.7","wf3cnq6kaz","many_one","0","indirect_first","0","mm10ns28","1","18","1","1","3","1","","0","1","0","null","","","<div class = 'row'><div class = 'column'><img src = 'uspos/7580.bmp' width = '100%;'></div><div class = 'column'><img src = 'category1/CS3.png' width = '70%;'></div></div>","null","pos","CS","CS","1","category1/CS3.png","","","","",""
"","html-keyboard-response","56","263467","0.0-6.0-4.0-0.8","wf3cnq6kaz","many_one","0","indirect_first","0","mm10ns28","1","18","1","1","3","1","","0","1","0","null","","","<div class = 'row'><div class = 'column'><img src = 'category4/CS9.png' width = '70%;'></div><div class = 'column'><img src = 'uspos/2058.bmp' width = '100%;'></div></div>","null","pos","CS","CS","4","category4/CS9.png","","","","",""
"","html-keyboard-response","57","265979","0.0-6.0-4.0-0.9","wf3cnq6kaz","many_one","0","indirect_first","0","mm10ns28","1","18","1","1","3","1","","0","1","0","null","","","<div class = 'row'><div class = 'column'><img src = 'category4/CS10.png' width = '70%;'></div><div class = 'column'><img src = 'uspos/2550.bmp' width = '100%;'></div></div>","null","pos","CS","CS","4","category4/CS10.png","","","","",""
"","html-keyboard-response","58","268500","0.0-6.0-4.0-0.10","wf3cnq6kaz","many_one","0","indirect_first","0","mm10ns28","1","18","1","1","3","1","","0","1","0","null","","","<div class = 'row'><div class = 'column'><img src = 'category1/CS2.png' width = '70%;'></div><div class = 'column'><img src = 'uspos/1340.bmp' width = '100%;'></div></div>","null","pos","CS","CS","1","category1/CS2.png","","","","",""
"","html-keyboard-response","59","271015","0.0-6.0-4.0-0.11","wf3cnq6kaz","many_one","0","indirect_first","0","mm10ns28","1","18","1","1","3","1","","0","1","0","null","","","<div class = 'row'><div class = 'column'><img src = 'category3/CS1.png' width = '70%;'></div><div class = 'column'><img src = 'usneg/9561.bmp' width = '100%;'></div></div>","null","neg","CS","CS","3","category3/CS1.png","","","","",""
"","html-keyboard-response","60","273535","0.0-6.0-4.0-0.12","wf3cnq6kaz","many_one","0","indirect_first","0","mm10ns28","1","18","1","1","3","1","","0","1","0","null","","","<div class = 'row'><div class = 'column'><img src = 'usneg/9182.bmp' width = '100%;'></div><div class = 'column'><img src = 'category3/CS7.png' width = '70%;'></div></div>","null","neg","CS","CS","3","category3/CS7.png","","","","",""
"","html-keyboard-response","61","276046","0.0-6.0-4.0-0.13","wf3cnq6kaz","many_one","0","indirect_first","0","mm10ns28","1","18","1","1","3","1","","0","1","0","null","","","<div class = 'row'><div class = 'column'><img src = 'category1/CS10.png' width = '70%;'></div><div class = 'column'><img src = 'uspos/5621.bmp' width = '100%;'></div></div>","null","pos","CS","CS","1","category1/CS10.png","","","","",""
"","html-keyboard-response","62","278558","0.0-6.0-4.0-0.14","wf3cnq6kaz","many_one","0","indirect_first","0","mm10ns28","1","18","1","1","3","1","","0","1","0","null","","","<div class = 'row'><div class = 'column'><img src = 'uspos/2311.bmp' width = '100%;'></div><div class = 'column'><img src = 'category4/CS2.png' width = '70%;'></div></div>","null","pos","CS","CS","4","category4/CS2.png","","","","",""
"","html-keyboard-response","63","281079","0.0-6.0-4.0-0.15","wf3cnq6kaz","many_one","0","indirect_first","0","mm10ns28","1","18","1","1","3","1","","0","1","0","null","","","<div class = 'row'><div class = 'column'><img src = 'usneg/3181.bmp' width = '100%;'></div><div class = 'column'><img src = 'category3/CS2.png' width = '70%;'></div></div>","null","neg","CS","CS","3","category3/CS2.png","","","","",""
"","html-keyboard-response","64","283601","0.0-6.0-4.0-0.16","wf3cnq6kaz","many_one","0","indirect_first","0","mm10ns28","1","18","1","1","3","1","","0","1","0","null","","","<div class = 'row'><div class = 'column'><img src = 'category3/CS10.png' width = '70%;'></div><div class = 'column'><img src = 'usneg/1280.bmp' width = '100%;'></div></div>","null","neg","CS","CS","3","category3/CS10.png","","","","",""
"","html-keyboard-response","65","286120","0.0-6.0-4.0-0.17","wf3cnq6kaz","many_one","0","indirect_first","0","mm10ns28","1","18","1","1","3","1","","0","1","0","null","","","<div class = 'row'><div class = 'column'><img src = 'category4/CS1.png' width = '70%;'></div><div class = 'column'><img src = 'uspos/2165.bmp' width = '100%;'></div></div>","null","pos","CS","CS","4","category4/CS1.png","","","","",""
"","html-keyboard-response","66","288634","0.0-6.0-4.0-0.18","wf3cnq6kaz","many_one","0","indirect_first","0","mm10ns28","1","18","1","1","3","1","","0","1","0","null","","","<div class = 'row'><div class = 'column'><img src = 'category2/CS2.png' width = '70%;'></div><div class = 'column'><img src = 'usneg/9830.bmp' width = '100%;'></div></div>","null","neg","CS","CS","2","category2/CS2.png","","","","",""
"","html-keyboard-response","67","291160","0.0-6.0-4.0-0.19","wf3cnq6kaz","many_one","0","indirect_first","0","mm10ns28","1","18","1","1","3","1","","0","1","0","null","","","<div class = 'row'><div class = 'column'><img src = 'uspos/5470.bmp' width = '100%;'></div><div class = 'column'><img src = 'category4/CS5.png' width = '70%;'></div></div>","null","pos","CS","CS","4","category4/CS5.png","","","","",""
"","survey-html-form","68","292749","0.0-6.0-5.0","wf3cnq6kaz","many_one","0","indirect_first","0","mm10ns28","1","18","1","1","3","1","","0","1","0","1083.8699999731034","","{}","","","","","","","","","","","",""
"","html-keyboard-response","69","296757","0.0-6.0-6.0-0.0","wf3cnq6kaz","many_one","0","indirect_first","0","mm10ns28","1","18","1","1","3","1","","0","1","0","null","","","<div class = 'row'><div class = 'column'><img src = 'uspos/8461.bmp' width = '100%;'></div><div class = 'column'><img src = 'category1/CS8.png' width = '70%;'></div></div>","null","pos","CS","CS","1","category1/CS8.png","","","","",""
"","html-keyboard-response","70","299272","0.0-6.0-6.0-0.1","wf3cnq6kaz","many_one","0","indirect_first","0","mm10ns28","1","18","1","1","3","1","","0","1","0","null","","","<div class = 'row'><div class = 'column'><img src = 'usneg/9342.bmp' width = '100%;'></div><div class = 'column'><img src = 'category2/CS1.png' width = '70%;'></div></div>","null","neg","CS","CS","2","category2/CS1.png","","","","",""
"","html-keyboard-response","71","301785","0.0-6.0-6.0-0.2","wf3cnq6kaz","many_one","0","indirect_first","0","mm10ns28","1","18","1","1","3","1","","0","1","0","null","","","<div class = 'row'><div class = 'column'><img src = 'uspos/8540.bmp' width = '100%;'></div><div class = 'column'><img src = 'category1/CS4.png' width = '70%;'></div></div>","null","pos","CS","CS","1","category1/CS4.png","","","","",""
"","html-keyboard-response","72","304304","0.0-6.0-6.0-0.3","wf3cnq6kaz","many_one","0","indirect_first","0","mm10ns28","1","18","1","1","3","1","","0","1","0","null","","","<div class = 'row'><div class = 'column'><img src = 'category2/CS5.png' width = '70%;'></div><div class = 'column'><img src = 'usneg/9415.bmp' width = '100%;'></div></div>","null","neg","CS","CS","2","category2/CS5.png","","","","",""
"","html-keyboard-response","73","306811","0.0-6.0-6.0-0.4","wf3cnq6kaz","many_one","0","indirect_first","0","mm10ns28","1","18","1","1","3","1","","0","1","0","null","","","<div class = 'row'><div class = 'column'><img src = 'usneg/9435.bmp' width = '100%;'></div><div class = 'column'><img src = 'category2/CS9.png' width = '70%;'></div></div>","null","neg","CS","CS","2","category2/CS9.png","","","","",""
"","html-keyboard-response","74","309339","0.0-6.0-6.0-0.5","wf3cnq6kaz","many_one","0","indirect_first","0","mm10ns28","1","18","1","1","3","1","","0","1","0","null","","","<div class = 'row'><div class = 'column'><img src = 'uspos/2550.bmp' width = '100%;'></div><div class = 'column'><img src = 'category4/CS10.png' width = '70%;'></div></div>","null","pos","CS","CS","4","category4/CS10.png","","","","",""
"","html-keyboard-response","75","311860","0.0-6.0-6.0-0.6","wf3cnq6kaz","many_one","0","indirect_first","0","mm10ns28","1","18","1","1","3","1","","0","1","0","null","","","<div class = 'row'><div class = 'column'><img src = 'category4/CS5.png' width = '70%;'></div><div class = 'column'><img src = 'uspos/5470.bmp' width = '100%;'></div></div>","null","pos","CS","CS","4","category4/CS5.png","","","","",""
"","html-keyboard-response","76","314379","0.0-6.0-6.0-0.7","wf3cnq6kaz","many_one","0","indirect_first","0","mm10ns28","1","18","1","1","3","1","","0","1","0","null","","","<div class = 'row'><div class = 'column'><img src = 'uspos/2165.bmp' width = '100%;'></div><div class = 'column'><img src = 'category4/CS1.png' width = '70%;'></div></div>","null","pos","CS","CS","4","category4/CS1.png","","","","",""
"","html-keyboard-response","77","316889","0.0-6.0-6.0-0.8","wf3cnq6kaz","many_one","0","indirect_first","0","mm10ns28","1","18","1","1","3","1","","0","1","0","null","","","<div class = 'row'><div class = 'column'><img src = 'category3/CS1.png' width = '70%;'></div><div class = 'column'><img src = 'usneg/9561.bmp' width = '100%;'></div></div>","null","neg","CS","CS","3","category3/CS1.png","","","","",""
"","html-keyboard-response","78","319416","0.0-6.0-6.0-0.9","wf3cnq6kaz","many_one","0","indirect_first","0","mm10ns28","1","18","1","1","3","1","","0","1","0","null","","","<div class = 'row'><div class = 'column'><img src = 'category2/CS2.png' width = '70%;'></div><div class = 'column'><img src = 'usneg/9830.bmp' width = '100%;'></div></div>","null","neg","CS","CS","2","category2/CS2.png","","","","",""
"","html-keyboard-response","79","321932","0.0-6.0-6.0-0.10","wf3cnq6kaz","many_one","0","indirect_first","0","mm10ns28","1","18","1","1","3","1","","0","1","0","null","","","<div class = 'row'><div class = 'column'><img src = 'usneg/2750.bmp' width = '100%;'></div><div class = 'column'><img src = 'category3/CS5.png' width = '70%;'></div></div>","null","neg","CS","CS","3","category3/CS5.png","","","","",""
"","html-keyboard-response","80","324445","0.0-6.0-6.0-0.11","wf3cnq6kaz","many_one","0","indirect_first","0","mm10ns28","1","18","1","1","3","1","","0","1","0","null","","","<div class = 'row'><div class = 'column'><img src = 'category3/CS2.png' width = '70%;'></div><div class = 'column'><img src = 'usneg/3181.bmp' width = '100%;'></div></div>","null","neg","CS","CS","3","category3/CS2.png","","","","",""
"","html-keyboard-response","81","326962","0.0-6.0-6.0-0.12","wf3cnq6kaz","many_one","0","indirect_first","0","mm10ns28","1","18","1","1","3","1","","0","1","0","null","","","<div class = 'row'><div class = 'column'><img src = 'category3/CS10.png' width = '70%;'></div><div class = 'column'><img src = 'usneg/1280.bmp' width = '100%;'></div></div>","null","neg","CS","CS","3","category3/CS10.png","","","","",""
"","html-keyboard-response","82","329472","0.0-6.0-6.0-0.13","wf3cnq6kaz","many_one","0","indirect_first","0","mm10ns28","1","18","1","1","3","1","","0","1","0","null","","","<div class = 'row'><div class = 'column'><img src = 'category4/CS9.png' width = '70%;'></div><div class = 'column'><img src = 'uspos/2058.bmp' width = '100%;'></div></div>","null","pos","CS","CS","4","category4/CS9.png","","","","",""
"","html-keyboard-response","83","331990","0.0-6.0-6.0-0.14","wf3cnq6kaz","many_one","0","indirect_first","0","mm10ns28","1","18","1","1","3","1","","0","1","0","null","","","<div class = 'row'><div class = 'column'><img src = 'category1/CS2.png' width = '70%;'></div><div class = 'column'><img src = 'uspos/1340.bmp' width = '100%;'></div></div>","null","pos","CS","CS","1","category1/CS2.png","","","","",""
"","html-keyboard-response","84","334509","0.0-6.0-6.0-0.15","wf3cnq6kaz","many_one","0","indirect_first","0","mm10ns28","1","18","1","1","3","1","","0","1","0","null","","","<div class = 'row'><div class = 'column'><img src = 'category1/CS10.png' width = '70%;'></div><div class = 'column'><img src = 'uspos/5621.bmp' width = '100%;'></div></div>","null","pos","CS","CS","1","category1/CS10.png","","","","",""
"","html-keyboard-response","85","337022","0.0-6.0-6.0-0.16","wf3cnq6kaz","many_one","0","indirect_first","0","mm10ns28","1","18","1","1","3","1","","0","1","0","null","","","<div class = 'row'><div class = 'column'><img src = 'uspos/7580.bmp' width = '100%;'></div><div class = 'column'><img src = 'category1/CS3.png' width = '70%;'></div></div>","null","pos","CS","CS","1","category1/CS3.png","","","","",""
"","html-keyboard-response","86","339532","0.0-6.0-6.0-0.17","wf3cnq6kaz","many_one","0","indirect_first","0","mm10ns28","1","18","1","1","3","1","","0","1","0","null","","","<div class = 'row'><div class = 'column'><img src = 'category2/CS6.png' width = '70%;'></div><div class = 'column'><img src = 'usneg/9220.bmp' width = '100%;'></div></div>","null","neg","CS","CS","2","category2/CS6.png","","","","",""
"","html-keyboard-response","87","342056","0.0-6.0-6.0-0.18","wf3cnq6kaz","many_one","0","indirect_first","0","mm10ns28","1","18","1","1","3","1","","0","1","0","null","","","<div class = 'row'><div class = 'column'><img src = 'uspos/2311.bmp' width = '100%;'></div><div class = 'column'><img src = 'category4/CS2.png' width = '70%;'></div></div>","null","pos","CS","CS","4","category4/CS2.png","","","","",""
"","html-keyboard-response","88","344565","0.0-6.0-6.0-0.19","wf3cnq6kaz","many_one","0","indirect_first","0","mm10ns28","1","18","1","1","3","1","","0","1","0","null","","","<div class = 'row'><div class = 'column'><img src = 'category3/CS7.png' width = '70%;'></div><div class = 'column'><img src = 'usneg/9182.bmp' width = '100%;'></div></div>","null","neg","CS","CS","3","category3/CS7.png","","","","",""
"","html-keyboard-response","89","409544","0.0-7.0","wf3cnq6kaz","many_one","0","indirect_first","0","mm10ns28","1","18","1","1","3","1","","0","1","0","64471.50999982841","","","<p>Sie sehen nun die chinesischen Zeichen nur ganz kurz. Danach sehen Sie die jeweilige Aussprache der Zeichen als Silbe auf dem Bildschrim. Ihre Aufgabe ist es, für jede Silbe anzugeben, ob diese etwas angenehmes, oder unangenehmes bedeuten könnte. Verlassen Sie sich hier vor allem auf Ihre Intuition.<br><br>Die Zeichen werden nur zur Orientierung dargestellt, beachten Sie sie deshalb nicht. Konzentrieren Sie sich vor allem auf die Silben. <br>Reagieren Sie mit folgenden zwei Tasten: <br><br><b>'D' </b> wenn die Silbe etwas <b>unangenehmes</b> bedeuten könnte. <br><b>'K'</b> wenn die Silbe etwas <b>angenehmes</b> bedeuten könnte. <br><br>Bitte legen Sie nun den Zeigefinger der linken Hand auf die Taste 'D' und den Zeigefinger der rechten Hand auf die Taste 'K'. <br>Reagieren Sie auf jede Silbe so schnell wie möglich. Uns interessiert Ihre spontane Reaktion. <br> <br> <br>Drücken Sie 'D' oder 'K', um die nächste Aufgabe zu starten. </p>","68","","","","","","","","","",""
"","html-keyboard-response","90","412565","0.0-8.0-0.0","wf3cnq6kaz","many_one","0","indirect_first","0","mm10ns28","1","18","1","1","3","1","","0","1","0","null","","","<div style=""font-size:60px;"">+</div>","null","","","","","","","","","",""
"","html-keyboard-response","91","412669","0.0-8.0-1.0","wf3cnq6kaz","many_one","0","indirect_first","0","mm10ns28","1","18","1","1","3","1","","0","1","0","null","","","<img src = 'category1/CS4.png' width = '100%;'>","null","","","","","","","","","",""
"","html-keyboard-response","92","412939","0.0-8.0-2.0","wf3cnq6kaz","many_one","0","indirect_first","0","mm10ns28","1","18","1","1","3","1","","0","1","0","null","","","<img src = 'targets/7.png' width = '100%;'>","null","","","","","","","","","",""
"","html-keyboard-response","93","427973","0.0-8.0-3.0","wf3cnq6kaz","many_one","0","indirect_first","0","mm10ns28","1","18","1","1","3","1","","0","1","0","15033.120000036433","","","<img src = 'targets/mask.png' width = '100%;'>","75","pos","CS","CS","1","category1/CS4.png","targets/7.png","1","indirect","0",""
"","html-keyboard-response","94","429498","0.0-8.0-0.1","wf3cnq6kaz","many_one","0","indirect_first","0","mm10ns28","1","18","1","1","3","1","","0","1","0","null","","","<div style=""font-size:60px;"">+</div>","null","","","","","","","","","",""
"","html-keyboard-response","95","429593","0.0-8.0-1.1","wf3cnq6kaz","many_one","0","indirect_first","0","mm10ns28","1","18","1","1","3","1","","0","1","0","null","","","<img src = 'category4/CS2.png' width = '100%;'>","null","","","","","","","","","",""
"","html-keyboard-response","96","429861","0.0-8.0-2.1","wf3cnq6kaz","many_one","0","indirect_first","0","mm10ns28","1","18","1","1","3","1","","0","1","0","null","","","<img src = 'targets/46.png' width = '100%;'>","null","","","","","","","","","",""
"","html-keyboard-response","97","432838","0.0-8.0-3.1","wf3cnq6kaz","many_one","0","indirect_first","0","mm10ns28","1","18","1","1","3","1","","0","1","0","2974.7850000858307","","","<img src = 'targets/mask.png' width = '100%;'>","75","pos","CS","CS","4","category4/CS2.png","targets/46.png","1","indirect","1",""
"","html-keyboard-response","98","434355","0.0-8.0-0.2","wf3cnq6kaz","many_one","0","indirect_first","0","mm10ns28","1","18","1","1","3","1","","0","1","0","null","","","<div style=""font-size:60px;"">+</div>","null","","","","","","","","","",""
"","html-keyboard-response","99","434447","0.0-8.0-1.2","wf3cnq6kaz","many_one","0","indirect_first","0","mm10ns28","1","18","1","1","3","1","","0","1","0","null","","","<img src = 'category3/CS2.png' width = '100%;'>","null","","","","","","","","","",""
"","html-keyboard-response","100","434703","0.0-8.0-2.2","wf3cnq6kaz","many_one","0","indirect_first","0","mm10ns28","1","18","1","1","3","1","","0","1","0","null","","","<img src = 'targets/38.png' width = '100%;'>","null","","","","","","","","","",""
"","html-keyboard-response","101","436229","0.0-8.0-3.2","wf3cnq6kaz","many_one","0","indirect_first","0","mm10ns28","1","18","1","1","3","1","","0","1","0","1522.7999999187887","","","<img src = 'targets/mask.png' width = '100%;'>","68","neg","CS","CS","3","category3/CS2.png","targets/38.png","0","indirect","2",""
"","html-keyboard-response","102","437744","0.0-8.0-0.3","wf3cnq6kaz","many_one","0","indirect_first","0","mm10ns28","1","18","1","1","3","1","","0","1","0","null","","","<div style=""font-size:60px;"">+</div>","null","","","","","","","","","",""
"","html-keyboard-response","103","437852","0.0-8.0-1.3","wf3cnq6kaz","many_one","0","indirect_first","0","mm10ns28","1","18","1","1","3","1","","0","1","0","null","","","<img src = 'category4/CS9.png' width = '100%;'>","null","","","","","","","","","",""
"","html-keyboard-response","104","438112","0.0-8.0-2.3","wf3cnq6kaz","many_one","0","indirect_first","0","mm10ns28","1","18","1","1","3","1","","0","1","0","null","","","<img src = 'targets/19.png' width = '100%;'>","null","","","","","","","","","",""
"","html-keyboard-response","105","438982","0.0-8.0-3.3","wf3cnq6kaz","many_one","0","indirect_first","0","mm10ns28","1","18","1","1","3","1","","0","1","0","867.7850000094622","","","<img src = 'targets/mask.png' width = '100%;'>","75","pos","CS","CS","4","category4/CS9.png","targets/19.png","1","indirect","3",""
"","html-keyboard-response","106","440506","0.0-8.0-0.4","wf3cnq6kaz","many_one","0","indirect_first","0","mm10ns28","1","18","1","1","3","1","","0","1","0","null","","","<div style=""font-size:60px;"">+</div>","null","","","","","","","","","",""
"","html-keyboard-response","107","440599","0.0-8.0-1.4","wf3cnq6kaz","many_one","0","indirect_first","0","mm10ns28","1","18","1","1","3","1","","0","1","0","null","","","<img src = 'category3/CS10.png' width = '100%;'>","null","","","","","","","","","",""
"","html-keyboard-response","108","440863","0.0-8.0-2.4","wf3cnq6kaz","many_one","0","indirect_first","0","mm10ns28","1","18","1","1","3","1","","0","1","0","null","","","<img src = 'targets/29.png' width = '100%;'>","null","","","","","","","","","",""
"","html-keyboard-response","109","442934","0.0-8.0-3.4","wf3cnq6kaz","many_one","0","indirect_first","0","mm10ns28","1","18","1","1","3","1","","0","1","0","2068.8749998807907","","","<img src = 'targets/mask.png' width = '100%;'>","68","neg","CS","CS","3","category3/CS10.png","targets/29.png","0","indirect","4",""
"","html-keyboard-response","110","444459","0.0-8.0-0.5","wf3cnq6kaz","many_one","0","indirect_first","0","mm10ns28","1","18","1","1","3","1","","0","1","0","null","","","<div style=""font-size:60px;"">+</div>","null","","","","","","","","","",""
"","html-keyboard-response","111","444561","0.0-8.0-1.5","wf3cnq6kaz","many_one","0","indirect_first","0","mm10ns28","1","18","1","1","3","1","","0","1","0","null","","","<img src = 'category3/CS6.png' width = '100%;'>","null","","","","","","","","","",""
"","html-keyboard-response","112","444826","0.0-8.0-2.5","wf3cnq6kaz","many_one","0","indirect_first","0","mm10ns28","1","18","1","1","3","1","","0","1","0","null","","","<img src = 'targets/5.png' width = '100%;'>","null","","","","","","","","","",""
"","html-keyboard-response","113","445254","0.0-8.0-3.5","wf3cnq6kaz","many_one","0","indirect_first","0","mm10ns28","1","18","1","1","3","1","","0","1","0","425.7249999791384","","","<img src = 'targets/mask.png' width = '100%;'>","68","neg","GS","GSold","3","category3/CS6.png","targets/5.png","0","indirect","5",""
"","html-keyboard-response","114","446778","0.0-8.0-0.6","wf3cnq6kaz","many_one","0","indirect_first","0","mm10ns28","1","18","1","1","3","1","","0","1","0","null","","","<div style=""font-size:60px;"">+</div>","null","","","","","","","","","",""
"","html-keyboard-response","115","446884","0.0-8.0-1.6","wf3cnq6kaz","many_one","0","indirect_first","0","mm10ns28","1","18","1","1","3","1","","0","1","0","null","","","<img src = 'category4/CS5.png' width = '100%;'>","null","","","","","","","","","",""
"","html-keyboard-response","116","447141","0.0-8.0-2.6","wf3cnq6kaz","many_one","0","indirect_first","0","mm10ns28","1","18","1","1","3","1","","0","1","0","null","","","<img src = 'targets/24.png' width = '100%;'>","null","","","","","","","","","",""
"","html-keyboard-response","117","447318","0.0-8.0-3.6","wf3cnq6kaz","many_one","0","indirect_first","0","mm10ns28","1","18","1","1","3","1","","0","1","0","175.50000012852252","","","<img src = 'targets/mask.png' width = '100%;'>","75","pos","CS","CS","4","category4/CS5.png","targets/24.png","1","indirect","6",""
"","html-keyboard-response","118","448836","0.0-8.0-0.7","wf3cnq6kaz","many_one","0","indirect_first","0","mm10ns28","1","18","1","1","3","1","","0","1","0","null","","","<div style=""font-size:60px;"">+</div>","null","","","","","","","","","",""
"","html-keyboard-response","119","448930","0.0-8.0-1.7","wf3cnq6kaz","many_one","0","indirect_first","0","mm10ns28","1","18","1","1","3","1","","0","1","0","null","","","<img src = 'category1/CS10.png' width = '100%;'>","null","","","","","","","","","",""
"","html-keyboard-response","120","449194","0.0-8.0-2.7","wf3cnq6kaz","many_one","0","indirect_first","0","mm10ns28","1","18","1","1","3","1","","0","1","0","null","","","<img src = 'targets/17.png' width = '100%;'>","null","","","","","","","","","",""
"","html-keyboard-response","121","449942","0.0-8.0-3.7","wf3cnq6kaz","many_one","0","indirect_first","0","mm10ns28","1","18","1","1","3","1","","0","1","0","747.1199999563396","","","<img src = 'targets/mask.png' width = '100%;'>","75","pos","CS","CS","1","category1/CS10.png","targets/17.png","1","indirect","7",""
"","html-keyboard-response","122","451455","0.0-8.0-0.8","wf3cnq6kaz","many_one","0","indirect_first","0","mm10ns28","1","18","1","1","3","1","","0","1","0","null","","","<div style=""font-size:60px;"">+</div>","null","","","","","","","","","",""
"","html-keyboard-response","123","451555","0.0-8.0-1.8","wf3cnq6kaz","many_one","0","indirect_first","0","mm10ns28","1","18","1","1","3","1","","0","1","0","null","","","<img src = 'category2/CS6.png' width = '100%;'>","null","","","","","","","","","",""
"","html-keyboard-response","124","451824","0.0-8.0-2.8","wf3cnq6kaz","many_one","0","indirect_first","0","mm10ns28","1","18","1","1","3","1","","0","1","0","null","","","<img src = 'targets/22.png' width = '100%;'>","null","","","","","","","","","",""
"","html-keyboard-response","125","452404","0.0-8.0-3.8","wf3cnq6kaz","many_one","0","indirect_first","0","mm10ns28","1","18","1","1","3","1","","0","1","0","579.0050001814961","","","<img src = 'targets/mask.png' width = '100%;'>","68","neg","CS","CS","2","category2/CS6.png","targets/22.png","0","indirect","8",""
"","html-keyboard-response","126","453913","0.0-8.0-0.9","wf3cnq6kaz","many_one","0","indirect_first","0","mm10ns28","1","18","1","1","3","1","","0","1","0","null","","","<div style=""font-size:60px;"">+</div>","null","","","","","","","","","",""
"","html-keyboard-response","127","454006","0.0-8.0-1.9","wf3cnq6kaz","many_one","0","indirect_first","0","mm10ns28","1","18","1","1","3","1","","0","1","0","null","","","<img src = 'category1/CS2.png' width = '100%;'>","null","","","","","","","","","",""
"","html-keyboard-response","128","454277","0.0-8.0-2.9","wf3cnq6kaz","many_one","0","indirect_first","0","mm10ns28","1","18","1","1","3","1","","0","1","0","null","","","<img src = 'targets/30.png' width = '100%;'>","null","","","","","","","","","",""
"","html-keyboard-response","129","454998","0.0-8.0-3.9","wf3cnq6kaz","many_one","0","indirect_first","0","mm10ns28","1","18","1","1","3","1","","0","1","0","718.2099998462945","","","<img src = 'targets/mask.png' width = '100%;'>","75","pos","CS","CS","1","category1/CS2.png","targets/30.png","1","indirect","9",""
"","html-keyboard-response","130","456536","0.0-8.0-0.10","wf3cnq6kaz","many_one","0","indirect_first","0","mm10ns28","1","18","1","1","3","1","","0","1","0","null","","","<div style=""font-size:60px;"">+</div>","null","","","","","","","","","",""
"","html-keyboard-response","131","456644","0.0-8.0-1.10","wf3cnq6kaz","many_one","0","indirect_first","0","mm10ns28","1","18","1","1","3","1","","0","1","0","null","","","<img src = 'category2/CS1.png' width = '100%;'>","null","","","","","","","","","",""
"","html-keyboard-response","132","456915","0.0-8.0-2.10","wf3cnq6kaz","many_one","0","indirect_first","0","mm10ns28","1","18","1","1","3","1","","0","1","0","null","","","<img src = 'targets/26.png' width = '100%;'>","null","","","","","","","","","",""
"","html-keyboard-response","133","458502","0.0-8.0-3.10","wf3cnq6kaz","many_one","0","indirect_first","0","mm10ns28","1","18","1","1","3","1","","0","1","0","1585.2200000081211","","","<img src = 'targets/mask.png' width = '100%;'>","68","neg","CS","CS","2","category2/CS1.png","targets/26.png","0","indirect","10",""
"","html-keyboard-response","134","460020","0.0-8.0-0.11","wf3cnq6kaz","many_one","0","indirect_first","0","mm10ns28","1","18","1","1","3","1","","0","1","0","null","","","<div style=""font-size:60px;"">+</div>","null","","","","","","","","","",""
"","html-keyboard-response","135","460119","0.0-8.0-1.11","wf3cnq6kaz","many_one","0","indirect_first","0","mm10ns28","1","18","1","1","3","1","","0","1","0","null","","","<img src = 'category2/CS9.png' width = '100%;'>","null","","","","","","","","","",""
"","html-keyboard-response","136","460392","0.0-8.0-2.11","wf3cnq6kaz","many_one","0","indirect_first","0","mm10ns28","1","18","1","1","3","1","","0","1","0","null","","","<img src = 'targets/1.png' width = '100%;'>","null","","","","","","","","","",""
"","html-keyboard-response","137","461655","0.0-8.0-3.11","wf3cnq6kaz","many_one","0","indirect_first","0","mm10ns28","1","18","1","1","3","1","","0","1","0","1260.2550000883639","","","<img src = 'targets/mask.png' width = '100%;'>","75","neg","CS","CS","2","category2/CS9.png","targets/1.png","1","indirect","11",""
"","html-keyboard-response","138","463165","0.0-8.0-0.12","wf3cnq6kaz","many_one","0","indirect_first","0","mm10ns28","1","18","1","1","3","1","","0","1","0","null","","","<div style=""font-size:60px;"">+</div>","null","","","","","","","","","",""
"","html-keyboard-response","139","463257","0.0-8.0-1.12","wf3cnq6kaz","many_one","0","indirect_first","0","mm10ns28","1","18","1","1","3","1","","0","1","0","null","","","<img src = 'category3/CS3.png' width = '100%;'>","null","","","","","","","","","",""
"","html-keyboard-response","140","463520","0.0-8.0-2.12","wf3cnq6kaz","many_one","0","indirect_first","0","mm10ns28","1","18","1","1","3","1","","0","1","0","null","","","<img src = 'targets/10.png' width = '100%;'>","null","","","","","","","","","",""
"","html-keyboard-response","141","464116","0.0-8.0-3.12","wf3cnq6kaz","many_one","0","indirect_first","0","mm10ns28","1","18","1","1","3","1","","0","1","0","594.1649999003857","","","<img src = 'targets/mask.png' width = '100%;'>","68","neg","GS","GSold","3","category3/CS3.png","targets/10.png","0","indirect","12",""
"","html-keyboard-response","142","465632","0.0-8.0-0.13","wf3cnq6kaz","many_one","0","indirect_first","0","mm10ns28","1","18","1","1","3","1","","0","1","0","null","","","<div style=""font-size:60px;"">+</div>","null","","","","","","","","","",""
"","html-keyboard-response","143","465725","0.0-8.0-1.13","wf3cnq6kaz","many_one","0","indirect_first","0","mm10ns28","1","18","1","1","3","1","","0","1","0","null","","","<img src = 'category3/CS4.png' width = '100%;'>","null","","","","","","","","","",""
"","html-keyboard-response","144","465995","0.0-8.0-2.13","wf3cnq6kaz","many_one","0","indirect_first","0","mm10ns28","1","18","1","1","3","1","","0","1","0","null","","","<img src = 'targets/47.png' width = '100%;'>","null","","","","","","","","","",""
"","html-keyboard-response","145","466262","0.0-8.0-3.13","wf3cnq6kaz","many_one","0","indirect_first","0","mm10ns28","1","18","1","1","3","1","","0","1","0","265.0150000117719","","","<img src = 'targets/mask.png' width = '100%;'>","68","neg","GS","GSold","3","category3/CS4.png","targets/47.png","0","indirect","13",""
"","html-keyboard-response","146","467771","0.0-8.0-0.14","wf3cnq6kaz","many_one","0","indirect_first","0","mm10ns28","1","18","1","1","3","1","","0","1","0","null","","","<div style=""font-size:60px;"">+</div>","null","","","","","","","","","",""
"","html-keyboard-response","147","467869","0.0-8.0-1.14","wf3cnq6kaz","many_one","0","indirect_first","0","mm10ns28","1","18","1","1","3","1","","0","1","0","null","","","<img src = 'category4/CS7.png' width = '100%;'>","null","","","","","","","","","",""
"","html-keyboard-response","148","468130","0.0-8.0-2.14","wf3cnq6kaz","many_one","0","indirect_first","0","mm10ns28","1","18","1","1","3","1","","0","1","0","null","","","<img src = 'targets/25.png' width = '100%;'>","null","","","","","","","","","",""
"","html-keyboard-response","149","468518","0.0-8.0-3.14","wf3cnq6kaz","many_one","0","indirect_first","0","mm10ns28","1","18","1","1","3","1","","0","1","0","384.80000011622906","","","<img src = 'targets/mask.png' width = '100%;'>","75","pos","GS","GSold","4","category4/CS7.png","targets/25.png","1","indirect","14",""
"","html-keyboard-response","150","470029","0.0-8.0-0.15","wf3cnq6kaz","many_one","0","indirect_first","0","mm10ns28","1","18","1","1","3","1","","0","1","0","null","","","<div style=""font-size:60px;"">+</div>","null","","","","","","","","","",""
"","html-keyboard-response","151","470125","0.0-8.0-1.15","wf3cnq6kaz","many_one","0","indirect_first","0","mm10ns28","1","18","1","1","3","1","","0","1","0","null","","","<img src = 'category4/CS1.png' width = '100%;'>","null","","","","","","","","","",""
"","html-keyboard-response","152","470390","0.0-8.0-2.15","wf3cnq6kaz","many_one","0","indirect_first","0","mm10ns28","1","18","1","1","3","1","","0","1","0","null","","","<img src = 'targets/12.png' width = '100%;'>","null","","","","","","","","","",""
"","html-keyboard-response","153","470804","0.0-8.0-3.15","wf3cnq6kaz","many_one","0","indirect_first","0","mm10ns28","1","18","1","1","3","1","","0","1","0","412.4350000638515","","","<img src = 'targets/mask.png' width = '100%;'>","75","pos","CS","CS","4","category4/CS1.png","targets/12.png","1","indirect","15",""
"","html-keyboard-response","154","472323","0.0-8.0-0.16","wf3cnq6kaz","many_one","0","indirect_first","0","mm10ns28","1","18","1","1","3","1","","0","1","0","null","","","<div style=""font-size:60px;"">+</div>","null","","","","","","","","","",""
"","html-keyboard-response","155","472416","0.0-8.0-1.16","wf3cnq6kaz","many_one","0","indirect_first","0","mm10ns28","1","18","1","1","3","1","","0","1","0","null","","","<img src = 'category4/CS10.png' width = '100%;'>","null","","","","","","","","","",""
"","html-keyboard-response","156","472690","0.0-8.0-2.16","wf3cnq6kaz","many_one","0","indirect_first","0","mm10ns28","1","18","1","1","3","1","","0","1","0","null","","","<img src = 'targets/43.png' width = '100%;'>","null","","","","","","","","","",""
"","html-keyboard-response","157","472982","0.0-8.0-3.16","wf3cnq6kaz","many_one","0","indirect_first","0","mm10ns28","1","18","1","1","3","1","","0","1","0","289.96000019833446","","","<img src = 'targets/mask.png' width = '100%;'>","75","pos","CS","CS","4","category4/CS10.png","targets/43.png","1","indirect","16",""
"","html-keyboard-response","158","474500","0.0-8.0-0.17","wf3cnq6kaz","many_one","0","indirect_first","0","mm10ns28","1","18","1","1","3","1","","0","1","0","null","","","<div style=""font-size:60px;"">+</div>","null","","","","","","","","","",""
"","html-keyboard-response","159","474593","0.0-8.0-1.17","wf3cnq6kaz","many_one","0","indirect_first","0","mm10ns28","1","18","1","1","3","1","","0","1","0","null","","","<img src = 'category2/CS2.png' width = '100%;'>","null","","","","","","","","","",""
"","html-keyboard-response","160","474854","0.0-8.0-2.17","wf3cnq6kaz","many_one","0","indirect_first","0","mm10ns28","1","18","1","1","3","1","","0","1","0","null","","","<img src = 'targets/8.png' width = '100%;'>","null","","","","","","","","","",""
"","html-keyboard-response","161","475270","0.0-8.0-3.17","wf3cnq6kaz","many_one","0","indirect_first","0","mm10ns28","1","18","1","1","3","1","","0","1","0","414.3199999816716","","","<img src = 'targets/mask.png' width = '100%;'>","75","neg","CS","CS","2","category2/CS2.png","targets/8.png","1","indirect","17",""
"","html-keyboard-response","162","476782","0.0-8.0-0.18","wf3cnq6kaz","many_one","0","indirect_first","0","mm10ns28","1","18","1","1","3","1","","0","1","0","null","","","<div style=""font-size:60px;"">+</div>","null","","","","","","","","","",""
"","html-keyboard-response","163","476886","0.0-8.0-1.18","wf3cnq6kaz","many_one","0","indirect_first","0","mm10ns28","1","18","1","1","3","1","","0","1","0","null","","","<img src = 'category1/CS3.png' width = '100%;'>","null","","","","","","","","","",""
"","html-keyboard-response","164","477152","0.0-8.0-2.18","wf3cnq6kaz","many_one","0","indirect_first","0","mm10ns28","1","18","1","1","3","1","","0","1","0","null","","","<img src = 'targets/4.png' width = '100%;'>","null","","","","","","","","","",""
"","html-keyboard-response","165","477910","0.0-8.0-3.18","wf3cnq6kaz","many_one","0","indirect_first","0","mm10ns28","1","18","1","1","3","1","","0","1","0","755.3599998354912","","","<img src = 'targets/mask.png' width = '100%;'>","75","pos","CS","CS","1","category1/CS3.png","targets/4.png","1","indirect","18",""
"","html-keyboard-response","166","479434","0.0-8.0-0.19","wf3cnq6kaz","many_one","0","indirect_first","0","mm10ns28","1","18","1","1","3","1","","0","1","0","null","","","<div style=""font-size:60px;"">+</div>","null","","","","","","","","","",""
"","html-keyboard-response","167","479527","0.0-8.0-1.19","wf3cnq6kaz","many_one","0","indirect_first","0","mm10ns28","1","18","1","1","3","1","","0","1","0","null","","","<img src = 'category2/CS5.png' width = '100%;'>","null","","","","","","","","","",""
"","html-keyboard-response","168","479780","0.0-8.0-2.19","wf3cnq6kaz","many_one","0","indirect_first","0","mm10ns28","1","18","1","1","3","1","","0","1","0","null","","","<img src = 'targets/45.png' width = '100%;'>","null","","","","","","","","","",""
"","html-keyboard-response","169","480165","0.0-8.0-3.19","wf3cnq6kaz","many_one","0","indirect_first","0","mm10ns28","1","18","1","1","3","1","","0","1","0","382.84000009298325","","","<img src = 'targets/mask.png' width = '100%;'>","68","neg","CS","CS","2","category2/CS5.png","targets/45.png","0","indirect","19",""
"","html-keyboard-response","170","481685","0.0-8.0-0.20","wf3cnq6kaz","many_one","0","indirect_first","0","mm10ns28","1","18","1","1","3","1","","0","1","0","null","","","<div style=""font-size:60px;"">+</div>","null","","","","","","","","","",""
"","html-keyboard-response","171","481779","0.0-8.0-1.20","wf3cnq6kaz","many_one","0","indirect_first","0","mm10ns28","1","18","1","1","3","1","","0","1","0","null","","","<img src = 'category3/CS5.png' width = '100%;'>","null","","","","","","","","","",""
"","html-keyboard-response","172","482044","0.0-8.0-2.20","wf3cnq6kaz","many_one","0","indirect_first","0","mm10ns28","1","18","1","1","3","1","","0","1","0","null","","","<img src = 'targets/39.png' width = '100%;'>","null","","","","","","","","","",""
"","html-keyboard-response","173","482646","0.0-8.0-3.20","wf3cnq6kaz","many_one","0","indirect_first","0","mm10ns28","1","18","1","1","3","1","","0","1","0","599.7300001326948","","","<img src = 'targets/mask.png' width = '100%;'>","68","neg","CS","CS","3","category3/CS5.png","targets/39.png","0","indirect","20",""
"","html-keyboard-response","174","484165","0.0-8.0-0.21","wf3cnq6kaz","many_one","0","indirect_first","0","mm10ns28","1","18","1","1","3","1","","0","1","0","null","","","<div style=""font-size:60px;"">+</div>","null","","","","","","","","","",""
"","html-keyboard-response","175","484266","0.0-8.0-1.21","wf3cnq6kaz","many_one","0","indirect_first","0","mm10ns28","1","18","1","1","3","1","","0","1","0","null","","","<img src = 'category3/CS7.png' width = '100%;'>","null","","","","","","","","","",""
"","html-keyboard-response","176","484530","0.0-8.0-2.21","wf3cnq6kaz","many_one","0","indirect_first","0","mm10ns28","1","18","1","1","3","1","","0","1","0","null","","","<img src = 'targets/35.png' width = '100%;'>","null","","","","","","","","","",""
"","html-keyboard-response","177","485046","0.0-8.0-3.21","wf3cnq6kaz","many_one","0","indirect_first","0","mm10ns28","1","18","1","1","3","1","","0","1","0","514.2749999649823","","","<img src = 'targets/mask.png' width = '100%;'>","68","neg","CS","CS","3","category3/CS7.png","targets/35.png","0","indirect","21",""
"","html-keyboard-response","178","486560","0.0-8.0-0.22","wf3cnq6kaz","many_one","0","indirect_first","0","mm10ns28","1","18","1","1","3","1","","0","1","0","null","","","<div style=""font-size:60px;"">+</div>","null","","","","","","","","","",""
"","html-keyboard-response","179","486653","0.0-8.0-1.22","wf3cnq6kaz","many_one","0","indirect_first","0","mm10ns28","1","18","1","1","3","1","","0","1","0","null","","","<img src = 'category1/CS8.png' width = '100%;'>","null","","","","","","","","","",""
"","html-keyboard-response","180","486911","0.0-8.0-2.22","wf3cnq6kaz","many_one","0","indirect_first","0","mm10ns28","1","18","1","1","3","1","","0","1","0","null","","","<img src = 'targets/31.png' width = '100%;'>","null","","","","","","","","","",""
"","html-keyboard-response","181","487446","0.0-8.0-3.22","wf3cnq6kaz","many_one","0","indirect_first","0","mm10ns28","1","18","1","1","3","1","","0","1","0","533.3600000012666","","","<img src = 'targets/mask.png' width = '100%;'>","75","pos","CS","CS","1","category1/CS8.png","targets/31.png","1","indirect","22",""
"","html-keyboard-response","182","488962","0.0-8.0-0.23","wf3cnq6kaz","many_one","0","indirect_first","0","mm10ns28","1","18","1","1","3","1","","0","1","0","null","","","<div style=""font-size:60px;"">+</div>","null","","","","","","","","","",""
"","html-keyboard-response","183","489066","0.0-8.0-1.23","wf3cnq6kaz","many_one","0","indirect_first","0","mm10ns28","1","18","1","1","3","1","","0","1","0","null","","","<img src = 'category3/CS1.png' width = '100%;'>","null","","","","","","","","","",""
"","html-keyboard-response","184","489328","0.0-8.0-2.23","wf3cnq6kaz","many_one","0","indirect_first","0","mm10ns28","1","18","1","1","3","1","","0","1","0","null","","","<img src = 'targets/13.png' width = '100%;'>","null","","","","","","","","","",""
"","html-keyboard-response","185","489638","0.0-8.0-3.23","wf3cnq6kaz","many_one","0","indirect_first","0","mm10ns28","1","18","1","1","3","1","","0","1","0","308.08000010438263","","","<img src = 'targets/mask.png' width = '100%;'>","68","neg","CS","CS","3","category3/CS1.png","targets/13.png","0","indirect","23",""
"","survey-html-form","186","496901","0.0-9.0","wf3cnq6kaz","many_one","0","indirect_first","0","mm10ns28","1","18","1","1","3","1","","0","1","0","6755.744999973103","","{}","","","","","","","","","","","",""
"","html-keyboard-response","187","499920","0.0-10.0-0.0","wf3cnq6kaz","many_one","0","indirect_first","0","mm10ns28","1","18","1","1","3","1","","0","1","0","null","","","<div style=""font-size:60px;"">+</div>","null","","","","","","","","","",""
"","html-keyboard-response","188","500015","0.0-10.0-1.0","wf3cnq6kaz","many_one","0","indirect_first","0","mm10ns28","1","18","1","1","3","1","","0","1","0","null","","","<img src = 'category1/CS7.png' width = '100%;'>","null","","","","","","","","","",""
"","html-keyboard-response","189","500280","0.0-10.0-2.0","wf3cnq6kaz","many_one","0","indirect_first","0","mm10ns28","1","18","1","1","3","1","","0","1","0","null","","","<img src = 'targets/23.png' width = '100%;'>","null","","","","","","","","","",""
"","html-keyboard-response","190","500517","0.0-10.0-3.0","wf3cnq6kaz","many_one","0","indirect_first","0","mm10ns28","1","18","1","1","3","1","","0","1","0","234.70499995164573","","","<img src = 'targets/mask.png' width = '100%;'>","75","pos","GS","GSold","1","category1/CS7.png","targets/23.png","1","indirect","24",""
"","html-keyboard-response","191","502025","0.0-10.0-0.1","wf3cnq6kaz","many_one","0","indirect_first","0","mm10ns28","1","18","1","1","3","1","","0","1","0","null","","","<div style=""font-size:60px;"">+</div>","null","","","","","","","","","",""
"","html-keyboard-response","192","502124","0.0-10.0-1.1","wf3cnq6kaz","many_one","0","indirect_first","0","mm10ns28","1","18","1","1","3","1","","0","1","0","null","","","<img src = 'category4/CS6.png' width = '100%;'>","null","","","","","","","","","",""
"","html-keyboard-response","193","502386","0.0-10.0-2.1","wf3cnq6kaz","many_one","0","indirect_first","0","mm10ns28","1","18","1","1","3","1","","0","1","0","null","","","<img src = 'targets/42.png' width = '100%;'>","null","","","","","","","","","",""
"","html-keyboard-response","194","502709","0.0-10.0-3.1","wf3cnq6kaz","many_one","0","indirect_first","0","mm10ns28","1","18","1","1","3","1","","0","1","0","321.4000000152737","","","<img src = 'targets/mask.png' width = '100%;'>","75","pos","GS","GSold","4","category4/CS6.png","targets/42.png","1","indirect","25",""
"","html-keyboard-response","195","504223","0.0-10.0-0.2","wf3cnq6kaz","many_one","0","indirect_first","0","mm10ns28","1","18","1","1","3","1","","0","1","0","null","","","<div style=""font-size:60px;"">+</div>","null","","","","","","","","","",""
"","html-keyboard-response","196","504323","0.0-10.0-1.2","wf3cnq6kaz","many_one","0","indirect_first","0","mm10ns28","1","18","1","1","3","1","","0","1","0","null","","","<img src = 'category1/GS3.png' width = '100%;'>","null","","","","","","","","","",""
"","html-keyboard-response","197","504587","0.0-10.0-2.2","wf3cnq6kaz","many_one","0","indirect_first","0","mm10ns28","1","18","1","1","3","1","","0","1","0","null","","","<img src = 'targets/11.png' width = '100%;'>","null","","","","","","","","","",""
"","html-keyboard-response","198","504837","0.0-10.0-3.2","wf3cnq6kaz","many_one","0","indirect_first","0","mm10ns28","1","18","1","1","3","1","","0","1","0","247.959999833256","","","<img src = 'targets/mask.png' width = '100%;'>","75","pos","GS","GSnew","1","category1/GS3.png","targets/11.png","1","indirect","26",""
"","html-keyboard-response","199","506355","0.0-10.0-0.3","wf3cnq6kaz","many_one","0","indirect_first","0","mm10ns28","1","18","1","1","3","1","","0","1","0","null","","","<div style=""font-size:60px;"">+</div>","null","","","","","","","","","",""
"","html-keyboard-response","200","506448","0.0-10.0-1.3","wf3cnq6kaz","many_one","0","indirect_first","0","mm10ns28","1","18","1","1","3","1","","0","1","0","null","","","<img src = 'category4/GS2.png' width = '100%;'>","null","","","","","","","","","",""
"","html-keyboard-response","201","506715","0.0-10.0-2.3","wf3cnq6kaz","many_one","0","indirect_first","0","mm10ns28","1","18","1","1","3","1","","0","1","0","null","","","<img src = 'targets/40.png' width = '100%;'>","null","","","","","","","","","",""
"","html-keyboard-response","202","506934","0.0-10.0-3.3","wf3cnq6kaz","many_one","0","indirect_first","0","mm10ns28","1","18","1","1","3","1","","0","1","0","216.92500007338822","","","<img src = 'targets/mask.png' width = '100%;'>","75","pos","GS","GSnew","4","category4/GS2.png","targets/40.png","1","indirect","27",""
"","html-keyboard-response","203","508441","0.0-10.0-0.4","wf3cnq6kaz","many_one","0","indirect_first","0","mm10ns28","1","18","1","1","3","1","","0","1","0","null","","","<div style=""font-size:60px;"">+</div>","null","","","","","","","","","",""
"","html-keyboard-response","204","508544","0.0-10.0-1.4","wf3cnq6kaz","many_one","0","indirect_first","0","mm10ns28","1","18","1","1","3","1","","0","1","0","null","","","<img src = 'category1/CS1.png' width = '100%;'>","null","","","","","","","","","",""
"","html-keyboard-response","205","508798","0.0-10.0-2.4","wf3cnq6kaz","many_one","0","indirect_first","0","mm10ns28","1","18","1","1","3","1","","0","1","0","null","","","<img src = 'targets/6.png' width = '100%;'>","null","","","","","","","","","",""
"","html-keyboard-response","206","508933","0.0-10.0-3.4","wf3cnq6kaz","many_one","0","indirect_first","0","mm10ns28","1","18","1","1","3","1","","0","1","0","134.01999999769032","","","<img src = 'targets/mask.png' width = '100%;'>","75","pos","GS","GSold","1","category1/CS1.png","targets/6.png","1","indirect","28",""
"","html-keyboard-response","207","510448","0.0-10.0-0.5","wf3cnq6kaz","many_one","0","indirect_first","0","mm10ns28","1","18","1","1","3","1","","0","1","0","null","","","<div style=""font-size:60px;"">+</div>","null","","","","","","","","","",""
"","html-keyboard-response","208","510544","0.0-10.0-1.5","wf3cnq6kaz","many_one","0","indirect_first","0","mm10ns28","1","18","1","1","3","1","","0","1","0","null","","","<img src = 'category4/lin.png' width = '100%;'>","null","","","","","","","","","",""
"","html-keyboard-response","209","510814","0.0-10.0-2.5","wf3cnq6kaz","many_one","0","indirect_first","0","mm10ns28","1","18","1","1","3","1","","0","1","0","null","","","<img src = 'targets/37.png' width = '100%;'>","null","","","","","","","","","",""
"","html-keyboard-response","210","511829","0.0-10.0-3.5","wf3cnq6kaz","many_one","0","indirect_first","0","mm10ns28","1","18","1","1","3","1","","0","1","0","1013.2549998816103","","","<img src = 'targets/mask.png' width = '100%;'>","75","pos","GS","abstract","4","category4/lin.png","targets/37.png","1","indirect","29",""
"","html-keyboard-response","211","513343","0.0-10.0-0.6","wf3cnq6kaz","many_one","0","indirect_first","0","mm10ns28","1","18","1","1","3","1","","0","1","0","null","","","<div style=""font-size:60px;"">+</div>","null","","","","","","","","","",""
"","html-keyboard-response","212","513436","0.0-10.0-1.6","wf3cnq6kaz","many_one","0","indirect_first","0","mm10ns28","1","18","1","1","3","1","","0","1","0","null","","","<img src = 'category1/GS2.png' width = '100%;'>","null","","","","","","","","","",""
"","html-keyboard-response","213","513699","0.0-10.0-2.6","wf3cnq6kaz","many_one","0","indirect_first","0","mm10ns28","1","18","1","1","3","1","","0","1","0","null","","","<img src = 'targets/2.png' width = '100%;'>","null","","","","","","","","","",""
"","html-keyboard-response","214","514102","0.0-10.0-3.6","wf3cnq6kaz","many_one","0","indirect_first","0","mm10ns28","1","18","1","1","3","1","","0","1","0","401.12000005319715","","","<img src = 'targets/mask.png' width = '100%;'>","75","pos","GS","GSnew","1","category1/GS2.png","targets/2.png","1","indirect","30",""
"","html-keyboard-response","215","515613","0.0-10.0-0.7","wf3cnq6kaz","many_one","0","indirect_first","0","mm10ns28","1","18","1","1","3","1","","0","1","0","null","","","<div style=""font-size:60px;"">+</div>","null","","","","","","","","","",""
"","html-keyboard-response","216","515706","0.0-10.0-1.7","wf3cnq6kaz","many_one","0","indirect_first","0","mm10ns28","1","18","1","1","3","1","","0","1","0","null","","","<img src = 'category4/CS4.png' width = '100%;'>","null","","","","","","","","","",""
"","html-keyboard-response","217","515969","0.0-10.0-2.7","wf3cnq6kaz","many_one","0","indirect_first","0","mm10ns28","1","18","1","1","3","1","","0","1","0","null","","","<img src = 'targets/20.png' width = '100%;'>","null","","","","","","","","","",""
"","html-keyboard-response","218","516309","0.0-10.0-3.7","wf3cnq6kaz","many_one","0","indirect_first","0","mm10ns28","1","18","1","1","3","1","","0","1","0","338.9200000092387","","","<img src = 'targets/mask.png' width = '100%;'>","75","pos","GS","GSold","4","category4/CS4.png","targets/20.png","1","indirect","31",""
"","html-keyboard-response","219","517828","0.0-10.0-0.8","wf3cnq6kaz","many_one","0","indirect_first","0","mm10ns28","1","18","1","1","3","1","","0","1","0","null","","","<div style=""font-size:60px;"">+</div>","null","","","","","","","","","",""
"","html-keyboard-response","220","517926","0.0-10.0-1.8","wf3cnq6kaz","many_one","0","indirect_first","0","mm10ns28","1","18","1","1","3","1","","0","1","0","null","","","<img src = 'category2/CS4.png' width = '100%;'>","null","","","","","","","","","",""
"","html-keyboard-response","221","518189","0.0-10.0-2.8","wf3cnq6kaz","many_one","0","indirect_first","0","mm10ns28","1","18","1","1","3","1","","0","1","0","null","","","<img src = 'targets/9.png' width = '100%;'>","null","","","","","","","","","",""
"","html-keyboard-response","222","518486","0.0-10.0-3.8","wf3cnq6kaz","many_one","0","indirect_first","0","mm10ns28","1","18","1","1","3","1","","0","1","0","296.09000007621944","","","<img src = 'targets/mask.png' width = '100%;'>","68","neg","GS","GSold","2","category2/CS4.png","targets/9.png","0","indirect","32",""
"","html-keyboard-response","223","520001","0.0-10.0-0.9","wf3cnq6kaz","many_one","0","indirect_first","0","mm10ns28","1","18","1","1","3","1","","0","1","0","null","","","<div style=""font-size:60px;"">+</div>","null","","","","","","","","","",""
"","html-keyboard-response","224","520103","0.0-10.0-1.9","wf3cnq6kaz","many_one","0","indirect_first","0","mm10ns28","1","18","1","1","3","1","","0","1","0","null","","","<img src = 'category2/CS3.png' width = '100%;'>","null","","","","","","","","","",""
"","html-keyboard-response","225","520379","0.0-10.0-2.9","wf3cnq6kaz","many_one","0","indirect_first","0","mm10ns28","1","18","1","1","3","1","","0","1","0","null","","","<img src = 'targets/44.png' width = '100%;'>","null","","","","","","","","","",""
"","html-keyboard-response","226","521173","0.0-10.0-3.9","wf3cnq6kaz","many_one","0","indirect_first","0","mm10ns28","1","18","1","1","3","1","","0","1","0","791.6050001513213","","","<img src = 'targets/mask.png' width = '100%;'>","68","neg","GS","GSold","2","category2/CS3.png","targets/44.png","0","indirect","33",""
"","html-keyboard-response","227","522681","0.0-10.0-0.10","wf3cnq6kaz","many_one","0","indirect_first","0","mm10ns28","1","18","1","1","3","1","","0","1","0","null","","","<div style=""font-size:60px;"">+</div>","null","","","","","","","","","",""
"","html-keyboard-response","228","522787","0.0-10.0-1.10","wf3cnq6kaz","many_one","0","indirect_first","0","mm10ns28","1","18","1","1","3","1","","0","1","0","null","","","<img src = 'category1/ma.png' width = '100%;'>","null","","","","","","","","","",""
"","html-keyboard-response","229","523049","0.0-10.0-2.10","wf3cnq6kaz","many_one","0","indirect_first","0","mm10ns28","1","18","1","1","3","1","","0","1","0","null","","","<img src = 'targets/41.png' width = '100%;'>","null","","","","","","","","","",""
"","html-keyboard-response","230","523605","0.0-10.0-3.10","wf3cnq6kaz","many_one","0","indirect_first","0","mm10ns28","1","18","1","1","3","1","","0","1","0","554.7400000505149","","","<img src = 'targets/mask.png' width = '100%;'>","75","pos","GS","abstract","1","category1/ma.png","targets/41.png","1","indirect","34",""
"","html-keyboard-response","231","525125","0.0-10.0-0.11","wf3cnq6kaz","many_one","0","indirect_first","0","mm10ns28","1","18","1","1","3","1","","0","1","0","null","","","<div style=""font-size:60px;"">+</div>","null","","","","","","","","","",""
"","html-keyboard-response","232","525222","0.0-10.0-1.11","wf3cnq6kaz","many_one","0","indirect_first","0","mm10ns28","1","18","1","1","3","1","","0","1","0","null","","","<img src = 'category2/GS1.png' width = '100%;'>","null","","","","","","","","","",""
"","html-keyboard-response","233","525483","0.0-10.0-2.11","wf3cnq6kaz","many_one","0","indirect_first","0","mm10ns28","1","18","1","1","3","1","","0","1","0","null","","","<img src = 'targets/18.png' width = '100%;'>","null","","","","","","","","","",""
"","html-keyboard-response","234","525909","0.0-10.0-3.11","wf3cnq6kaz","many_one","0","indirect_first","0","mm10ns28","1","18","1","1","3","1","","0","1","0","424.60999987088144","","","<img src = 'targets/mask.png' width = '100%;'>","75","neg","GS","GSnew","2","category2/GS1.png","targets/18.png","1","indirect","35",""
"","html-keyboard-response","235","527420","0.0-10.0-0.12","wf3cnq6kaz","many_one","0","indirect_first","0","mm10ns28","1","18","1","1","3","1","","0","1","0","null","","","<div style=""font-size:60px;"">+</div>","null","","","","","","","","","",""
"","html-keyboard-response","236","527513","0.0-10.0-1.12","wf3cnq6kaz","many_one","0","indirect_first","0","mm10ns28","1","18","1","1","3","1","","0","1","0","null","","","<img src = 'category2/GS2.png' width = '100%;'>","null","","","","","","","","","",""
"","html-keyboard-response","237","527780","0.0-10.0-2.12","wf3cnq6kaz","many_one","0","indirect_first","0","mm10ns28","1","18","1","1","3","1","","0","1","0","null","","","<img src = 'targets/14.png' width = '100%;'>","null","","","","","","","","","",""
"","html-keyboard-response","238","528550","0.0-10.0-3.12","wf3cnq6kaz","many_one","0","indirect_first","0","mm10ns28","1","18","1","1","3","1","","0","1","0","769.0149999689311","","","<img src = 'targets/mask.png' width = '100%;'>","68","neg","GS","GSnew","2","category2/GS2.png","targets/14.png","0","indirect","36",""
"","html-keyboard-response","239","530065","0.0-10.0-0.13","wf3cnq6kaz","many_one","0","indirect_first","0","mm10ns28","1","18","1","1","3","1","","0","1","0","null","","","<div style=""font-size:60px;"">+</div>","null","","","","","","","","","",""
"","html-keyboard-response","240","530163","0.0-10.0-1.13","wf3cnq6kaz","many_one","0","indirect_first","0","mm10ns28","1","18","1","1","3","1","","0","1","0","null","","","<img src = 'category4/GS1.png' width = '100%;'>","null","","","","","","","","","",""
"","html-keyboard-response","241","530433","0.0-10.0-2.13","wf3cnq6kaz","many_one","0","indirect_first","0","mm10ns28","1","18","1","1","3","1","","0","1","0","null","","","<img src = 'targets/27.png' width = '100%;'>","null","","","","","","","","","",""
"","html-keyboard-response","242","531237","0.0-10.0-3.13","wf3cnq6kaz","many_one","0","indirect_first","0","mm10ns28","1","18","1","1","3","1","","0","1","0","801.5449999365956","","","<img src = 'targets/mask.png' width = '100%;'>","68","pos","GS","GSnew","4","category4/GS1.png","targets/27.png","0","indirect","37",""
"","html-keyboard-response","243","532755","0.0-10.0-0.14","wf3cnq6kaz","many_one","0","indirect_first","0","mm10ns28","1","18","1","1","3","1","","0","1","0","null","","","<div style=""font-size:60px;"">+</div>","null","","","","","","","","","",""
"","html-keyboard-response","244","532853","0.0-10.0-1.14","wf3cnq6kaz","many_one","0","indirect_first","0","mm10ns28","1","18","1","1","3","1","","0","1","0","null","","","<img src = 'category2/men.png' width = '100%;'>","null","","","","","","","","","",""
"","html-keyboard-response","245","533118","0.0-10.0-2.14","wf3cnq6kaz","many_one","0","indirect_first","0","mm10ns28","1","18","1","1","3","1","","0","1","0","null","","","<img src = 'targets/15.png' width = '100%;'>","null","","","","","","","","","",""
"","html-keyboard-response","246","534084","0.0-10.0-3.14","wf3cnq6kaz","many_one","0","indirect_first","0","mm10ns28","1","18","1","1","3","1","","0","1","0","964.525000192225","","","<img src = 'targets/mask.png' width = '100%;'>","75","neg","GS","abstract","2","category2/men.png","targets/15.png","1","indirect","38",""
"","html-keyboard-response","247","535593","0.0-10.0-0.15","wf3cnq6kaz","many_one","0","indirect_first","0","mm10ns28","1","18","1","1","3","1","","0","1","0","null","","","<div style=""font-size:60px;"">+</div>","null","","","","","","","","","",""
"","html-keyboard-response","248","535686","0.0-10.0-1.15","wf3cnq6kaz","many_one","0","indirect_first","0","mm10ns28","1","18","1","1","3","1","","0","1","0","null","","","<img src = 'category2/GS3.png' width = '100%;'>","null","","","","","","","","","",""
"","html-keyboard-response","249","535946","0.0-10.0-2.15","wf3cnq6kaz","many_one","0","indirect_first","0","mm10ns28","1","18","1","1","3","1","","0","1","0","null","","","<img src = 'targets/16.png' width = '100%;'>","null","","","","","","","","","",""
"","html-keyboard-response","250","536742","0.0-10.0-3.15","wf3cnq6kaz","many_one","0","indirect_first","0","mm10ns28","1","18","1","1","3","1","","0","1","0","794.325000140816","","","<img src = 'targets/mask.png' width = '100%;'>","68","neg","GS","GSnew","2","category2/GS3.png","targets/16.png","0","indirect","39",""
"","html-keyboard-response","251","538256","0.0-10.0-0.16","wf3cnq6kaz","many_one","0","indirect_first","0","mm10ns28","1","18","1","1","3","1","","0","1","0","null","","","<div style=""font-size:60px;"">+</div>","null","","","","","","","","","",""
"","html-keyboard-response","252","538351","0.0-10.0-1.16","wf3cnq6kaz","many_one","0","indirect_first","0","mm10ns28","1","18","1","1","3","1","","0","1","0","null","","","<img src = 'category1/GS1.png' width = '100%;'>","null","","","","","","","","","",""
"","html-keyboard-response","253","538620","0.0-10.0-2.16","wf3cnq6kaz","many_one","0","indirect_first","0","mm10ns28","1","18","1","1","3","1","","0","1","0","null","","","<img src = 'targets/21.png' width = '100%;'>","null","","","","","","","","","",""
"","html-keyboard-response","254","539046","0.0-10.0-3.16","wf3cnq6kaz","many_one","0","indirect_first","0","mm10ns28","1","18","1","1","3","1","","0","1","0","424.4549998547882","","","<img src = 'targets/mask.png' width = '100%;'>","75","pos","GS","GSnew","1","category1/GS1.png","targets/21.png","1","indirect","40",""
"","html-keyboard-response","255","540562","0.0-10.0-0.17","wf3cnq6kaz","many_one","0","indirect_first","0","mm10ns28","1","18","1","1","3","1","","0","1","0","null","","","<div style=""font-size:60px;"">+</div>","null","","","","","","","","","",""
"","html-keyboard-response","256","540659","0.0-10.0-1.17","wf3cnq6kaz","many_one","0","indirect_first","0","mm10ns28","1","18","1","1","3","1","","0","1","0","null","","","<img src = 'category1/CS5.png' width = '100%;'>","null","","","","","","","","","",""
"","html-keyboard-response","257","540913","0.0-10.0-2.17","wf3cnq6kaz","many_one","0","indirect_first","0","mm10ns28","1","18","1","1","3","1","","0","1","0","null","","","<img src = 'targets/28.png' width = '100%;'>","null","","","","","","","","","",""
"","html-keyboard-response","258","541333","0.0-10.0-3.17","wf3cnq6kaz","many_one","0","indirect_first","0","mm10ns28","1","18","1","1","3","1","","0","1","0","418.3750001247972","","","<img src = 'targets/mask.png' width = '100%;'>","75","pos","GS","GSold","1","category1/CS5.png","targets/28.png","1","indirect","41",""
"","html-keyboard-response","259","542853","0.0-10.0-0.18","wf3cnq6kaz","many_one","0","indirect_first","0","mm10ns28","1","18","1","1","3","1","","0","1","0","null","","","<div style=""font-size:60px;"">+</div>","null","","","","","","","","","",""
"","html-keyboard-response","260","542946","0.0-10.0-1.18","wf3cnq6kaz","many_one","0","indirect_first","0","mm10ns28","1","18","1","1","3","1","","0","1","0","null","","","<img src = 'category3/GS2.png' width = '100%;'>","null","","","","","","","","","",""
"","html-keyboard-response","261","543207","0.0-10.0-2.18","wf3cnq6kaz","many_one","0","indirect_first","0","mm10ns28","1","18","1","1","3","1","","0","1","0","null","","","<img src = 'targets/32.png' width = '100%;'>","null","","","","","","","","","",""
"","html-keyboard-response","262","544245","0.0-10.0-3.18","wf3cnq6kaz","many_one","0","indirect_first","0","mm10ns28","1","18","1","1","3","1","","0","1","0","1036.8699999526143","","","<img src = 'targets/mask.png' width = '100%;'>","68","neg","GS","GSnew","3","category3/GS2.png","targets/32.png","0","indirect","42",""
"","html-keyboard-response","263","545764","0.0-10.0-0.19","wf3cnq6kaz","many_one","0","indirect_first","0","mm10ns28","1","18","1","1","3","1","","0","1","0","null","","","<div style=""font-size:60px;"">+</div>","null","","","","","","","","","",""
"","html-keyboard-response","264","545862","0.0-10.0-1.19","wf3cnq6kaz","many_one","0","indirect_first","0","mm10ns28","1","18","1","1","3","1","","0","1","0","null","","","<img src = 'category3/GS3.png' width = '100%;'>","null","","","","","","","","","",""
"","html-keyboard-response","265","546127","0.0-10.0-2.19","wf3cnq6kaz","many_one","0","indirect_first","0","mm10ns28","1","18","1","1","3","1","","0","1","0","null","","","<img src = 'targets/34.png' width = '100%;'>","null","","","","","","","","","",""
"","html-keyboard-response","266","546742","0.0-10.0-3.19","wf3cnq6kaz","many_one","0","indirect_first","0","mm10ns28","1","18","1","1","3","1","","0","1","0","612.7500000875443","","","<img src = 'targets/mask.png' width = '100%;'>","68","neg","GS","GSnew","3","category3/GS3.png","targets/34.png","0","indirect","43",""
"","html-keyboard-response","267","548251","0.0-10.0-0.20","wf3cnq6kaz","many_one","0","indirect_first","0","mm10ns28","1","18","1","1","3","1","","0","1","0","null","","","<div style=""font-size:60px;"">+</div>","null","","","","","","","","","",""
"","html-keyboard-response","268","548345","0.0-10.0-1.20","wf3cnq6kaz","many_one","0","indirect_first","0","mm10ns28","1","18","1","1","3","1","","0","1","0","null","","","<img src = 'category4/GS3.png' width = '100%;'>","null","","","","","","","","","",""
"","html-keyboard-response","269","548607","0.0-10.0-2.20","wf3cnq6kaz","many_one","0","indirect_first","0","mm10ns28","1","18","1","1","3","1","","0","1","0","null","","","<img src = 'targets/3.png' width = '100%;'>","null","","","","","","","","","",""
"","html-keyboard-response","270","548933","0.0-10.0-3.20","wf3cnq6kaz","many_one","0","indirect_first","0","mm10ns28","1","18","1","1","3","1","","0","1","0","323.0749999638647","","","<img src = 'targets/mask.png' width = '100%;'>","75","pos","GS","GSnew","4","category4/GS3.png","targets/3.png","1","indirect","44",""
"","html-keyboard-response","271","550451","0.0-10.0-0.21","wf3cnq6kaz","many_one","0","indirect_first","0","mm10ns28","1","18","1","1","3","1","","0","1","0","null","","","<div style=""font-size:60px;"">+</div>","null","","","","","","","","","",""
"","html-keyboard-response","272","550544","0.0-10.0-1.21","wf3cnq6kaz","many_one","0","indirect_first","0","mm10ns28","1","18","1","1","3","1","","0","1","0","null","","","<img src = 'category2/CS8.png' width = '100%;'>","null","","","","","","","","","",""
"","html-keyboard-response","273","550813","0.0-10.0-2.21","wf3cnq6kaz","many_one","0","indirect_first","0","mm10ns28","1","18","1","1","3","1","","0","1","0","null","","","<img src = 'targets/48.png' width = '100%;'>","null","","","","","","","","","",""
"","html-keyboard-response","274","551158","0.0-10.0-3.21","wf3cnq6kaz","many_one","0","indirect_first","0","mm10ns28","1","18","1","1","3","1","","0","1","0","343.21000007912517","","","<img src = 'targets/mask.png' width = '100%;'>","75","neg","GS","GSold","2","category2/CS8.png","targets/48.png","1","indirect","45",""
"","html-keyboard-response","275","552667","0.0-10.0-0.22","wf3cnq6kaz","many_one","0","indirect_first","0","mm10ns28","1","18","1","1","3","1","","0","1","0","null","","","<div style=""font-size:60px;"">+</div>","null","","","","","","","","","",""
"","html-keyboard-response","276","552763","0.0-10.0-1.22","wf3cnq6kaz","many_one","0","indirect_first","0","mm10ns28","1","18","1","1","3","1","","0","1","0","null","","","<img src = 'category3/wang.png' width = '100%;'>","null","","","","","","","","","",""
"","html-keyboard-response","277","553030","0.0-10.0-2.22","wf3cnq6kaz","many_one","0","indirect_first","0","mm10ns28","1","18","1","1","3","1","","0","1","0","null","","","<img src = 'targets/36.png' width = '100%;'>","null","","","","","","","","","",""
"","html-keyboard-response","278","553525","0.0-10.0-3.22","wf3cnq6kaz","many_one","0","indirect_first","0","mm10ns28","1","18","1","1","3","1","","0","1","0","493.74999990686774","","","<img src = 'targets/mask.png' width = '100%;'>","68","neg","GS","abstract","3","category3/wang.png","targets/36.png","0","indirect","46",""
"","html-keyboard-response","279","555036","0.0-10.0-0.23","wf3cnq6kaz","many_one","0","indirect_first","0","mm10ns28","1","18","1","1","3","1","","0","1","0","null","","","<div style=""font-size:60px;"">+</div>","null","","","","","","","","","",""
"","html-keyboard-response","280","555136","0.0-10.0-1.23","wf3cnq6kaz","many_one","0","indirect_first","0","mm10ns28","1","18","1","1","3","1","","0","1","0","null","","","<img src = 'category3/GS1.png' width = '100%;'>","null","","","","","","","","","",""
"","html-keyboard-response","281","555390","0.0-10.0-2.23","wf3cnq6kaz","many_one","0","indirect_first","0","mm10ns28","1","18","1","1","3","1","","0","1","0","null","","","<img src = 'targets/33.png' width = '100%;'>","null","","","","","","","","","",""
"","html-keyboard-response","282","555894","0.0-10.0-3.23","wf3cnq6kaz","many_one","0","indirect_first","0","mm10ns28","1","18","1","1","3","1","","0","1","0","501.8150000832975","","","<img src = 'targets/mask.png' width = '100%;'>","75","neg","GS","GSnew","3","category3/GS1.png","targets/33.png","1","indirect","47",""
"","survey-html-form","283","567676","0.0-11.0","wf3cnq6kaz","many_one","0","indirect_first","0","mm10ns28","1","18","1","1","3","1","","0","1","0","11266.19500014931","","{}","","","","","","","","","","","",""
"","image-slider-response","284","583668","0.0-12.0-0.0","wf3cnq6kaz","many_one","0","indirect_first","0","mm10ns28","1","18","1","1","3","1","","0","1","0","13977.740000002086","","","","","neg","GS","GSold","2","category2/CS3.png","targets/44.png","","direct","","-43"
"","image-slider-response","285","586308","0.0-12.0-0.1","wf3cnq6kaz","many_one","0","indirect_first","0","mm10ns28","1","18","1","1","3","1","","0","1","0","2638.204999966547","","","","","neg","GS","GSold","3","category3/CS6.png","targets/5.png","","direct","","-48"
"","image-slider-response","286","588956","0.0-12.0-0.2","wf3cnq6kaz","many_one","0","indirect_first","0","mm10ns28","1","18","1","1","3","1","","0","1","0","2646.375000011176","","","","","neg","CS","CS","2","category2/CS1.png","targets/26.png","","direct","","25"
"","image-slider-response","287","591580","0.0-12.0-0.3","wf3cnq6kaz","many_one","0","indirect_first","0","mm10ns28","1","18","1","1","3","1","","0","1","0","2622.6299998816103","","","","","pos","GS","GSold","1","category1/CS7.png","targets/23.png","","direct","","-38"
"","image-slider-response","288","593716","0.0-12.0-0.4","wf3cnq6kaz","many_one","0","indirect_first","0","mm10ns28","1","18","1","1","3","1","","0","1","0","2134.5349999610335","","","","","pos","GS","GSnew","4","category4/GS3.png","targets/3.png","","direct","","35"
"","image-slider-response","289","596708","0.0-12.0-0.5","wf3cnq6kaz","many_one","0","indirect_first","0","mm10ns28","1","18","1","1","3","1","","0","1","0","2990.074999863282","","","","","pos","GS","GSnew","1","category1/GS3.png","targets/11.png","","direct","","-20"
"","image-slider-response","290","599996","0.0-12.0-0.6","wf3cnq6kaz","many_one","0","indirect_first","0","mm10ns28","1","18","1","1","3","1","","0","1","0","3287.0549999643117","","","","","pos","CS","CS","1","category1/CS4.png","targets/7.png","","direct","","-75"
"","image-slider-response","291","602500","0.0-12.0-0.7","wf3cnq6kaz","many_one","0","indirect_first","0","mm10ns28","1","18","1","1","3","1","","0","1","0","2501.9849999807775","","","","","pos","GS","abstract","4","category4/lin.png","targets/37.png","","direct","","84"
"","image-slider-response","292","605596","0.0-12.0-0.8","wf3cnq6kaz","many_one","0","indirect_first","0","mm10ns28","1","18","1","1","3","1","","0","1","0","3094.340000068769","","","","","neg","CS","CS","3","category3/CS10.png","targets/29.png","","direct","","-31"
"","image-slider-response","293","608620","0.0-12.0-0.9","wf3cnq6kaz","many_one","0","indirect_first","0","mm10ns28","1","18","1","1","3","1","","0","1","0","3022.5499998778105","","","","","neg","CS","CS","3","category3/CS5.png","targets/39.png","","direct","","71"
"","image-slider-response","294","611051","0.0-12.0-0.10","wf3cnq6kaz","many_one","0","indirect_first","0","mm10ns28","1","18","1","1","3","1","","0","1","0","2429.4600000139326","","","","","pos","GS","GSold","1","category1/CS1.png","targets/6.png","","direct","","-33"
"","image-slider-response","295","613139","0.0-12.0-0.11","wf3cnq6kaz","many_one","0","indirect_first","0","mm10ns28","1","18","1","1","3","1","","0","1","0","2087.065000087023","","","","","neg","GS","GSnew","3","category3/GS3.png","targets/34.png","","direct","","-38"
"","image-slider-response","296","617019","0.0-12.0-0.12","wf3cnq6kaz","many_one","0","indirect_first","0","mm10ns28","1","18","1","1","3","1","","0","1","0","3878.454999998212","","","","","neg","GS","GSold","3","category3/CS4.png","targets/47.png","","direct","","18"
"","image-slider-response","297","619571","0.0-12.0-0.13","wf3cnq6kaz","many_one","0","indirect_first","0","mm10ns28","1","18","1","1","3","1","","0","1","0","2549.7300000861287","","","","","neg","CS","CS","2","category2/CS5.png","targets/45.png","","direct","","29"
"","image-slider-response","298","623452","0.0-12.0-0.14","wf3cnq6kaz","many_one","0","indirect_first","0","mm10ns28","1","18","1","1","3","1","","0","1","0","3878.715000115335","","","","","pos","GS","GSold","4","category4/CS4.png","targets/20.png","","direct","","91"
"","image-slider-response","299","625916","0.0-12.0-0.15","wf3cnq6kaz","many_one","0","indirect_first","0","mm10ns28","1","18","1","1","3","1","","0","1","0","2462.1949999127537","","","","","neg","GS","GSnew","2","category2/GS3.png","targets/16.png","","direct","","86"
"","image-slider-response","300","628196","0.0-12.0-0.16","wf3cnq6kaz","many_one","0","indirect_first","0","mm10ns28","1","18","1","1","3","1","","0","1","0","2278.215000173077","","","","","pos","CS","CS","4","category4/CS1.png","targets/12.png","","direct","","55"
"","image-slider-response","301","630364","0.0-12.0-0.17","wf3cnq6kaz","many_one","0","indirect_first","0","mm10ns28","1","18","1","1","3","1","","0","1","0","2166.0699998028576","","","","","pos","CS","CS","4","category4/CS9.png","targets/19.png","","direct","","62"
"","image-slider-response","302","632668","0.0-12.0-0.18","wf3cnq6kaz","many_one","0","indirect_first","0","mm10ns28","1","18","1","1","3","1","","0","1","0","2302.73999995552","","","","","neg","GS","GSnew","2","category2/GS2.png","targets/14.png","","direct","","49"
"","image-slider-response","303","637923","0.0-12.0-0.19","wf3cnq6kaz","many_one","0","indirect_first","0","mm10ns28","1","18","1","1","3","1","","0","1","0","5254.200000083074","","","","","neg","CS","CS","2","category2/CS9.png","targets/1.png","","direct","","31"
"","image-slider-response","304","640099","0.0-12.0-0.20","wf3cnq6kaz","many_one","0","indirect_first","0","mm10ns28","1","18","1","1","3","1","","0","1","0","2174.1549998987466","","","","","pos","CS","CS","4","category4/CS5.png","targets/24.png","","direct","","36"
"","image-slider-response","305","643052","0.0-12.0-0.21","wf3cnq6kaz","many_one","0","indirect_first","0","mm10ns28","1","18","1","1","3","1","","0","1","0","2950.6699999328703","","","","","neg","CS","CS","2","category2/CS6.png","targets/22.png","","direct","","-27"
"","image-slider-response","306","645484","0.0-12.0-0.22","wf3cnq6kaz","many_one","0","indirect_first","0","mm10ns28","1","18","1","1","3","1","","0","1","0","2430.6649998761714","","","","","neg","GS","GSold","3","category3/CS3.png","targets/10.png","","direct","","-37"
"","image-slider-response","307","647204","0.0-12.0-0.23","wf3cnq6kaz","many_one","0","indirect_first","0","mm10ns28","1","18","1","1","3","1","","0","1","0","1718.7449999619275","","","","","pos","CS","CS","4","category4/CS2.png","targets/46.png","","direct","","37"
"","image-slider-response","308","649772","0.0-12.0-0.24","wf3cnq6kaz","many_one","0","indirect_first","0","mm10ns28","1","18","1","1","3","1","","0","1","0","2567.1099999453872","","","","","neg","CS","CS","3","category3/CS7.png","targets/35.png","","direct","","-29"
"","image-slider-response","309","651459","0.0-12.0-0.25","wf3cnq6kaz","many_one","0","indirect_first","0","mm10ns28","1","18","1","1","3","1","","0","1","0","1685.780000174418","","","","","pos","GS","GSold","4","category4/CS6.png","targets/42.png","","direct","","55"
"","image-slider-response","310","654564","0.0-12.0-0.26","wf3cnq6kaz","many_one","0","indirect_first","0","mm10ns28","1","18","1","1","3","1","","0","1","0","3102.6200000196695","","","","","pos","GS","GSnew","1","category1/GS1.png","targets/21.png","","direct","","-27"
"","image-slider-response","311","656652","0.0-12.0-0.27","wf3cnq6kaz","many_one","0","indirect_first","0","mm10ns28","1","18","1","1","3","1","","0","1","0","2086.2550002057105","","","","","neg","GS","GSnew","3","category3/GS2.png","targets/32.png","","direct","","-60"
"","image-slider-response","312","659107","0.0-12.0-0.28","wf3cnq6kaz","many_one","0","indirect_first","0","mm10ns28","1","18","1","1","3","1","","0","1","0","2454.4550001155585","","","","","pos","CS","CS","1","category1/CS10.png","targets/17.png","","direct","","79"
"","image-slider-response","313","661948","0.0-12.0-0.29","wf3cnq6kaz","many_one","0","indirect_first","0","mm10ns28","1","18","1","1","3","1","","0","1","0","2839.2050000838935","","","","","pos","GS","GSnew","1","category1/GS2.png","targets/2.png","","direct","","-10"
"","image-slider-response","314","665675","0.0-12.0-0.30","wf3cnq6kaz","many_one","0","indirect_first","0","mm10ns28","1","18","1","1","3","1","","0","1","0","3725.605000043288","","","","","neg","CS","CS","2","category2/CS2.png","targets/8.png","","direct","","-36"
"","image-slider-response","315","668619","0.0-12.0-0.31","wf3cnq6kaz","many_one","0","indirect_first","0","mm10ns28","1","18","1","1","3","1","","0","1","0","2942.429999820888","","","","","neg","GS","GSnew","3","category3/GS1.png","targets/33.png","","direct","","-63"
"","image-slider-response","316","672852","0.0-12.0-0.32","wf3cnq6kaz","many_one","0","indirect_first","0","mm10ns28","1","18","1","1","3","1","","0","1","0","4230.695000151172","","","","","pos","CS","CS","1","category1/CS3.png","targets/4.png","","direct","","-15"
"","image-slider-response","317","675499","0.0-12.0-0.33","wf3cnq6kaz","many_one","0","indirect_first","0","mm10ns28","1","18","1","1","3","1","","0","1","0","2645.6549998838454","","","","","neg","GS","GSold","2","category2/CS8.png","targets/48.png","","direct","","-20"
"","image-slider-response","318","677492","0.0-12.0-0.34","wf3cnq6kaz","many_one","0","indirect_first","0","mm10ns28","1","18","1","1","3","1","","0","1","0","1991.0899999085814","","","","","pos","GS","GSnew","4","category4/GS1.png","targets/27.png","","direct","","46"
"","image-slider-response","319","679619","0.0-12.0-0.35","wf3cnq6kaz","many_one","0","indirect_first","0","mm10ns28","1","18","1","1","3","1","","0","1","0","2126.380000030622","","","","","neg","GS","GSnew","2","category2/GS1.png","targets/18.png","","direct","","76"
"","image-slider-response","320","681355","0.0-12.0-0.36","wf3cnq6kaz","many_one","0","indirect_first","0","mm10ns28","1","18","1","1","3","1","","0","1","0","1734.7499998286366","","","","","neg","GS","abstract","3","category3/wang.png","targets/36.png","","direct","","-37"
"","image-slider-response","321","684051","0.0-12.0-0.37","wf3cnq6kaz","many_one","0","indirect_first","0","mm10ns28","1","18","1","1","3","1","","0","1","0","2694.535000016913","","","","","pos","GS","GSnew","4","category4/GS2.png","targets/40.png","","direct","","6"
"","image-slider-response","322","685499","0.0-12.0-0.38","wf3cnq6kaz","many_one","0","indirect_first","0","mm10ns28","1","18","1","1","3","1","","0","1","0","1446.2699999567121","","","","","pos","CS","CS","1","category1/CS2.png","targets/30.png","","direct","","25"
"","image-slider-response","323","687971","0.0-12.0-0.39","wf3cnq6kaz","many_one","0","indirect_first","0","mm10ns28","1","18","1","1","3","1","","0","1","0","2470.644999993965","","","","","pos","CS","CS","4","category4/CS10.png","targets/43.png","","direct","","86"
"","image-slider-response","324","690163","0.0-12.0-0.40","wf3cnq6kaz","many_one","0","indirect_first","0","mm10ns28","1","18","1","1","3","1","","0","1","0","2189.6249998826534","","","","","pos","CS","CS","1","category1/CS8.png","targets/31.png","","direct","","-13"
