"success","trial_type","trial_index","time_elapsed","internal_node_id","subject","condition","condition_code","measure","measure_code","codeword","gender","age","education","chinese","fach","handedness","comment","hinschauen","ablenkung","gewissenhaft","rt","url","responses","stimulus","key_press","val","type","type_specific","category","cs_selected","target","indirect","task","nr_pres","response"
"true","fullscreen","0","15101","0.0-0.0","ztzyh6dda9","many_one","0","indirect_first","0","ER06LF07","0","28","1","1","3","1","sehr schwer zu verstehen, auf was es bei der schnellen Abfolge von Zeichen und Laut ankommt. Selbstverständlich konzentriere ich mich hierbei eigentlich nur auf das Zeichen, das ich vorher schon gesehen habe und nicht auf den Laut der Aussprache.","0","1","0","","","","","","","","","","","","","","",""
"","external-html","1","173354","0.0-1.0","ztzyh6dda9","many_one","0","indirect_first","0","ER06LF07","0","28","1","1","3","1","sehr schwer zu verstehen, auf was es bei der schnellen Abfolge von Zeichen und Laut ankommt. Selbstverständlich konzentriere ich mich hierbei eigentlich nur auf das Zeichen, das ich vorher schon gesehen habe und nicht auf den Laut der Aussprache.","0","1","0","158200.11999993585","text/information.html","","","","","","","","","","","","",""
"","external-html","2","190445","0.0-2.0","ztzyh6dda9","many_one","0","indirect_first","0","ER06LF07","0","28","1","1","3","1","sehr schwer zu verstehen, auf was es bei der schnellen Abfolge von Zeichen und Laut ankommt. Selbstverständlich konzentriere ich mich hierbei eigentlich nur auf das Zeichen, das ich vorher schon gesehen habe und nicht auf den Laut der Aussprache.","0","1","0","17051.08500015922","text/consent.html","","","","","","","","","","","","",""
"","survey-html-form","3","320925","0.0-3.0","ztzyh6dda9","many_one","0","indirect_first","0","ER06LF07","0","28","1","1","3","1","sehr schwer zu verstehen, auf was es bei der schnellen Abfolge von Zeichen und Laut ankommt. Selbstverständlich konzentriere ich mich hierbei eigentlich nur auf das Zeichen, das ich vorher schon gesehen habe und nicht auf den Laut der Aussprache.","0","1","0","130478.9199999068","","{""codeword_enter"":""ER06LF07""}","","","","","","","","","","","",""
"","survey-html-form","4","371142","0.0-4.0","ztzyh6dda9","many_one","0","indirect_first","0","ER06LF07","0","28","1","1","3","1","sehr schwer zu verstehen, auf was es bei der schnellen Abfolge von Zeichen und Laut ankommt. Selbstverständlich konzentriere ich mich hierbei eigentlich nur auf das Zeichen, das ich vorher schon gesehen habe und nicht auf den Laut der Aussprache.","0","1","0","50212.18999987468","","{""age"":""28"",""education"":""1"",""subject"":""3"",""gender"":""0"",""handedness"":""1"",""chinese"":""1""}","","","","","","","","","","","",""
"","survey-html-form","5","391629","0.0-5.0","ztzyh6dda9","many_one","0","indirect_first","0","ER06LF07","0","28","1","1","3","1","sehr schwer zu verstehen, auf was es bei der schnellen Abfolge von Zeichen und Laut ankommt. Selbstverständlich konzentriere ich mich hierbei eigentlich nur auf das Zeichen, das ich vorher schon gesehen habe und nicht auf den Laut der Aussprache.","0","1","0","20485.404999926686","","{}","","","","","","","","","","","",""
"","html-keyboard-response","6","395648","0.0-6.0-0.0-0.0","ztzyh6dda9","many_one","0","indirect_first","0","ER06LF07","0","28","1","1","3","1","sehr schwer zu verstehen, auf was es bei der schnellen Abfolge von Zeichen und Laut ankommt. Selbstverständlich konzentriere ich mich hierbei eigentlich nur auf das Zeichen, das ich vorher schon gesehen habe und nicht auf den Laut der Aussprache.","0","1","0","null","","","<div class = 'row'><div class = 'column'><img src = 'usneg/7380.bmp' width = '100%;'></div><div class = 'column'><img src = 'category1/CS6.png' width = '70%;'></div></div>","null","neg","CS","CS","1","category1/CS6.png","","","","",""
"","html-keyboard-response","7","398161","0.0-6.0-0.0-0.1","ztzyh6dda9","many_one","0","indirect_first","0","ER06LF07","0","28","1","1","3","1","sehr schwer zu verstehen, auf was es bei der schnellen Abfolge von Zeichen und Laut ankommt. Selbstverständlich konzentriere ich mich hierbei eigentlich nur auf das Zeichen, das ich vorher schon gesehen habe und nicht auf den Laut der Aussprache.","0","1","0","null","","","<div class = 'row'><div class = 'column'><img src = 'usneg/6838.bmp' width = '100%;'></div><div class = 'column'><img src = 'category4/CS6.png' width = '70%;'></div></div>","null","neg","CS","CS","4","category4/CS6.png","","","","",""
"","html-keyboard-response","8","400683","0.0-6.0-0.0-0.2","ztzyh6dda9","many_one","0","indirect_first","0","ER06LF07","0","28","1","1","3","1","sehr schwer zu verstehen, auf was es bei der schnellen Abfolge von Zeichen und Laut ankommt. Selbstverständlich konzentriere ich mich hierbei eigentlich nur auf das Zeichen, das ich vorher schon gesehen habe und nicht auf den Laut der Aussprache.","0","1","0","null","","","<div class = 'row'><div class = 'column'><img src = 'uspos/2165.bmp' width = '100%;'></div><div class = 'column'><img src = 'category3/CS1.png' width = '70%;'></div></div>","null","pos","CS","CS","3","category3/CS1.png","","","","",""
"","html-keyboard-response","9","403209","0.0-6.0-0.0-0.3","ztzyh6dda9","many_one","0","indirect_first","0","ER06LF07","0","28","1","1","3","1","sehr schwer zu verstehen, auf was es bei der schnellen Abfolge von Zeichen und Laut ankommt. Selbstverständlich konzentriere ich mich hierbei eigentlich nur auf das Zeichen, das ich vorher schon gesehen habe und nicht auf den Laut der Aussprache.","0","1","0","null","","","<div class = 'row'><div class = 'column'><img src = 'category1/CS8.png' width = '70%;'></div><div class = 'column'><img src = 'usneg/9290.bmp' width = '100%;'></div></div>","null","neg","CS","CS","1","category1/CS8.png","","","","",""
"","html-keyboard-response","10","405740","0.0-6.0-0.0-0.4","ztzyh6dda9","many_one","0","indirect_first","0","ER06LF07","0","28","1","1","3","1","sehr schwer zu verstehen, auf was es bei der schnellen Abfolge von Zeichen und Laut ankommt. Selbstverständlich konzentriere ich mich hierbei eigentlich nur auf das Zeichen, das ich vorher schon gesehen habe und nicht auf den Laut der Aussprache.","0","1","0","null","","","<div class = 'row'><div class = 'column'><img src = 'usneg/2900.bmp' width = '100%;'></div><div class = 'column'><img src = 'category1/CS1.png' width = '70%;'></div></div>","null","neg","CS","CS","1","category1/CS1.png","","","","",""
"","html-keyboard-response","11","408260","0.0-6.0-0.0-0.5","ztzyh6dda9","many_one","0","indirect_first","0","ER06LF07","0","28","1","1","3","1","sehr schwer zu verstehen, auf was es bei der schnellen Abfolge von Zeichen und Laut ankommt. Selbstverständlich konzentriere ich mich hierbei eigentlich nur auf das Zeichen, das ich vorher schon gesehen habe und nicht auf den Laut der Aussprache.","0","1","0","null","","","<div class = 'row'><div class = 'column'><img src = 'category3/CS6.png' width = '70%;'></div><div class = 'column'><img src = 'uspos/8190.bmp' width = '100%;'></div></div>","null","pos","CS","CS","3","category3/CS6.png","","","","",""
"","html-keyboard-response","12","410794","0.0-6.0-0.0-0.6","ztzyh6dda9","many_one","0","indirect_first","0","ER06LF07","0","28","1","1","3","1","sehr schwer zu verstehen, auf was es bei der schnellen Abfolge von Zeichen und Laut ankommt. Selbstverständlich konzentriere ich mich hierbei eigentlich nur auf das Zeichen, das ich vorher schon gesehen habe und nicht auf den Laut der Aussprache.","0","1","0","null","","","<div class = 'row'><div class = 'column'><img src = 'category2/CS4.png' width = '70%;'></div><div class = 'column'><img src = 'uspos/1710.bmp' width = '100%;'></div></div>","null","pos","CS","CS","2","category2/CS4.png","","","","",""
"","html-keyboard-response","13","413317","0.0-6.0-0.0-0.7","ztzyh6dda9","many_one","0","indirect_first","0","ER06LF07","0","28","1","1","3","1","sehr schwer zu verstehen, auf was es bei der schnellen Abfolge von Zeichen und Laut ankommt. Selbstverständlich konzentriere ich mich hierbei eigentlich nur auf das Zeichen, das ich vorher schon gesehen habe und nicht auf den Laut der Aussprache.","0","1","0","null","","","<div class = 'row'><div class = 'column'><img src = 'category1/CS5.png' width = '70%;'></div><div class = 'column'><img src = 'usneg/9220.bmp' width = '100%;'></div></div>","null","neg","CS","CS","1","category1/CS5.png","","","","",""
"","html-keyboard-response","14","415835","0.0-6.0-0.0-0.8","ztzyh6dda9","many_one","0","indirect_first","0","ER06LF07","0","28","1","1","3","1","sehr schwer zu verstehen, auf was es bei der schnellen Abfolge von Zeichen und Laut ankommt. Selbstverständlich konzentriere ich mich hierbei eigentlich nur auf das Zeichen, das ich vorher schon gesehen habe und nicht auf den Laut der Aussprache.","0","1","0","null","","","<div class = 'row'><div class = 'column'><img src = 'category4/CS9.png' width = '70%;'></div><div class = 'column'><img src = 'usneg/6020.bmp' width = '100%;'></div></div>","null","neg","CS","CS","4","category4/CS9.png","","","","",""
"","html-keyboard-response","15","418366","0.0-6.0-0.0-0.9","ztzyh6dda9","many_one","0","indirect_first","0","ER06LF07","0","28","1","1","3","1","sehr schwer zu verstehen, auf was es bei der schnellen Abfolge von Zeichen und Laut ankommt. Selbstverständlich konzentriere ich mich hierbei eigentlich nur auf das Zeichen, das ich vorher schon gesehen habe und nicht auf den Laut der Aussprache.","0","1","0","null","","","<div class = 'row'><div class = 'column'><img src = 'uspos/5470.bmp' width = '100%;'></div><div class = 'column'><img src = 'category2/CS5.png' width = '70%;'></div></div>","null","pos","CS","CS","2","category2/CS5.png","","","","",""
"","html-keyboard-response","16","420886","0.0-6.0-0.0-0.10","ztzyh6dda9","many_one","0","indirect_first","0","ER06LF07","0","28","1","1","3","1","sehr schwer zu verstehen, auf was es bei der schnellen Abfolge von Zeichen und Laut ankommt. Selbstverständlich konzentriere ich mich hierbei eigentlich nur auf das Zeichen, das ich vorher schon gesehen habe und nicht auf den Laut der Aussprache.","0","1","0","null","","","<div class = 'row'><div class = 'column'><img src = 'uspos/2530.bmp' width = '100%;'></div><div class = 'column'><img src = 'category3/CS8.png' width = '70%;'></div></div>","null","pos","CS","CS","3","category3/CS8.png","","","","",""
"","html-keyboard-response","17","423398","0.0-6.0-0.0-0.11","ztzyh6dda9","many_one","0","indirect_first","0","ER06LF07","0","28","1","1","3","1","sehr schwer zu verstehen, auf was es bei der schnellen Abfolge von Zeichen und Laut ankommt. Selbstverständlich konzentriere ich mich hierbei eigentlich nur auf das Zeichen, das ich vorher schon gesehen habe und nicht auf den Laut der Aussprache.","0","1","0","null","","","<div class = 'row'><div class = 'column'><img src = 'category3/CS7.png' width = '70%;'></div><div class = 'column'><img src = 'uspos/2150.bmp' width = '100%;'></div></div>","null","pos","CS","CS","3","category3/CS7.png","","","","",""
"","html-keyboard-response","18","425913","0.0-6.0-0.0-0.12","ztzyh6dda9","many_one","0","indirect_first","0","ER06LF07","0","28","1","1","3","1","sehr schwer zu verstehen, auf was es bei der schnellen Abfolge von Zeichen und Laut ankommt. Selbstverständlich konzentriere ich mich hierbei eigentlich nur auf das Zeichen, das ich vorher schon gesehen habe und nicht auf den Laut der Aussprache.","0","1","0","null","","","<div class = 'row'><div class = 'column'><img src = 'uspos/5830.bmp' width = '100%;'></div><div class = 'column'><img src = 'category2/CS8.png' width = '70%;'></div></div>","null","pos","CS","CS","2","category2/CS8.png","","","","",""
"","html-keyboard-response","19","428441","0.0-6.0-0.0-0.13","ztzyh6dda9","many_one","0","indirect_first","0","ER06LF07","0","28","1","1","3","1","sehr schwer zu verstehen, auf was es bei der schnellen Abfolge von Zeichen und Laut ankommt. Selbstverständlich konzentriere ich mich hierbei eigentlich nur auf das Zeichen, das ich vorher schon gesehen habe und nicht auf den Laut der Aussprache.","0","1","0","null","","","<div class = 'row'><div class = 'column'><img src = 'category4/CS3.png' width = '70%;'></div><div class = 'column'><img src = 'usneg/9635.2.bmp' width = '100%;'></div></div>","null","neg","CS","CS","4","category4/CS3.png","","","","",""
"","html-keyboard-response","20","430978","0.0-6.0-0.0-0.14","ztzyh6dda9","many_one","0","indirect_first","0","ER06LF07","0","28","1","1","3","1","sehr schwer zu verstehen, auf was es bei der schnellen Abfolge von Zeichen und Laut ankommt. Selbstverständlich konzentriere ich mich hierbei eigentlich nur auf das Zeichen, das ich vorher schon gesehen habe und nicht auf den Laut der Aussprache.","0","1","0","null","","","<div class = 'row'><div class = 'column'><img src = 'usneg/2750.bmp' width = '100%;'></div><div class = 'column'><img src = 'category1/CS9.png' width = '70%;'></div></div>","null","neg","CS","CS","1","category1/CS9.png","","","","",""
"","html-keyboard-response","21","433507","0.0-6.0-0.0-0.15","ztzyh6dda9","many_one","0","indirect_first","0","ER06LF07","0","28","1","1","3","1","sehr schwer zu verstehen, auf was es bei der schnellen Abfolge von Zeichen und Laut ankommt. Selbstverständlich konzentriere ich mich hierbei eigentlich nur auf das Zeichen, das ich vorher schon gesehen habe und nicht auf den Laut der Aussprache.","0","1","0","null","","","<div class = 'row'><div class = 'column'><img src = 'category4/CS5.png' width = '70%;'></div><div class = 'column'><img src = 'usneg/1280.bmp' width = '100%;'></div></div>","null","neg","CS","CS","4","category4/CS5.png","","","","",""
"","html-keyboard-response","22","436024","0.0-6.0-0.0-0.16","ztzyh6dda9","many_one","0","indirect_first","0","ER06LF07","0","28","1","1","3","1","sehr schwer zu verstehen, auf was es bei der schnellen Abfolge von Zeichen und Laut ankommt. Selbstverständlich konzentriere ich mich hierbei eigentlich nur auf das Zeichen, das ich vorher schon gesehen habe und nicht auf den Laut der Aussprache.","0","1","0","null","","","<div class = 'row'><div class = 'column'><img src = 'category3/CS4.png' width = '70%;'></div><div class = 'column'><img src = 'uspos/8350.bmp' width = '100%;'></div></div>","null","pos","CS","CS","3","category3/CS4.png","","","","",""
"","html-keyboard-response","23","438540","0.0-6.0-0.0-0.17","ztzyh6dda9","many_one","0","indirect_first","0","ER06LF07","0","28","1","1","3","1","sehr schwer zu verstehen, auf was es bei der schnellen Abfolge von Zeichen und Laut ankommt. Selbstverständlich konzentriere ich mich hierbei eigentlich nur auf das Zeichen, das ich vorher schon gesehen habe und nicht auf den Laut der Aussprache.","0","1","0","null","","","<div class = 'row'><div class = 'column'><img src = 'usneg/3181.bmp' width = '100%;'></div><div class = 'column'><img src = 'category4/CS2.png' width = '70%;'></div></div>","null","neg","CS","CS","4","category4/CS2.png","","","","",""
"","html-keyboard-response","24","441061","0.0-6.0-0.0-0.18","ztzyh6dda9","many_one","0","indirect_first","0","ER06LF07","0","28","1","1","3","1","sehr schwer zu verstehen, auf was es bei der schnellen Abfolge von Zeichen und Laut ankommt. Selbstverständlich konzentriere ich mich hierbei eigentlich nur auf das Zeichen, das ich vorher schon gesehen habe und nicht auf den Laut der Aussprache.","0","1","0","null","","","<div class = 'row'><div class = 'column'><img src = 'uspos/2030.bmp' width = '100%;'></div><div class = 'column'><img src = 'category2/CS10.png' width = '70%;'></div></div>","null","pos","CS","CS","2","category2/CS10.png","","","","",""
"","html-keyboard-response","25","443577","0.0-6.0-0.0-0.19","ztzyh6dda9","many_one","0","indirect_first","0","ER06LF07","0","28","1","1","3","1","sehr schwer zu verstehen, auf was es bei der schnellen Abfolge von Zeichen und Laut ankommt. Selbstverständlich konzentriere ich mich hierbei eigentlich nur auf das Zeichen, das ich vorher schon gesehen habe und nicht auf den Laut der Aussprache.","0","1","0","null","","","<div class = 'row'><div class = 'column'><img src = 'category2/CS2.png' width = '70%;'></div><div class = 'column'><img src = 'uspos/1340.bmp' width = '100%;'></div></div>","null","pos","CS","CS","2","category2/CS2.png","","","","",""
"","survey-html-form","26","461943","0.0-6.0-1.0","ztzyh6dda9","many_one","0","indirect_first","0","ER06LF07","0","28","1","1","3","1","sehr schwer zu verstehen, auf was es bei der schnellen Abfolge von Zeichen und Laut ankommt. Selbstverständlich konzentriere ich mich hierbei eigentlich nur auf das Zeichen, das ich vorher schon gesehen habe und nicht auf den Laut der Aussprache.","0","1","0","17860.94000004232","","{}","","","","","","","","","","","",""
"","html-keyboard-response","27","465968","0.0-6.0-2.0-0.0","ztzyh6dda9","many_one","0","indirect_first","0","ER06LF07","0","28","1","1","3","1","sehr schwer zu verstehen, auf was es bei der schnellen Abfolge von Zeichen und Laut ankommt. Selbstverständlich konzentriere ich mich hierbei eigentlich nur auf das Zeichen, das ich vorher schon gesehen habe und nicht auf den Laut der Aussprache.","0","1","0","null","","","<div class = 'row'><div class = 'column'><img src = 'usneg/9635.2.bmp' width = '100%;'></div><div class = 'column'><img src = 'category4/CS3.png' width = '70%;'></div></div>","null","neg","CS","CS","4","category4/CS3.png","","","","",""
"","html-keyboard-response","28","468492","0.0-6.0-2.0-0.1","ztzyh6dda9","many_one","0","indirect_first","0","ER06LF07","0","28","1","1","3","1","sehr schwer zu verstehen, auf was es bei der schnellen Abfolge von Zeichen und Laut ankommt. Selbstverständlich konzentriere ich mich hierbei eigentlich nur auf das Zeichen, das ich vorher schon gesehen habe und nicht auf den Laut der Aussprache.","0","1","0","null","","","<div class = 'row'><div class = 'column'><img src = 'usneg/9220.bmp' width = '100%;'></div><div class = 'column'><img src = 'category1/CS5.png' width = '70%;'></div></div>","null","neg","CS","CS","1","category1/CS5.png","","","","",""
"","html-keyboard-response","29","471006","0.0-6.0-2.0-0.2","ztzyh6dda9","many_one","0","indirect_first","0","ER06LF07","0","28","1","1","3","1","sehr schwer zu verstehen, auf was es bei der schnellen Abfolge von Zeichen und Laut ankommt. Selbstverständlich konzentriere ich mich hierbei eigentlich nur auf das Zeichen, das ich vorher schon gesehen habe und nicht auf den Laut der Aussprache.","0","1","0","null","","","<div class = 'row'><div class = 'column'><img src = 'category2/CS2.png' width = '70%;'></div><div class = 'column'><img src = 'uspos/1340.bmp' width = '100%;'></div></div>","null","pos","CS","CS","2","category2/CS2.png","","","","",""
"","html-keyboard-response","30","473526","0.0-6.0-2.0-0.3","ztzyh6dda9","many_one","0","indirect_first","0","ER06LF07","0","28","1","1","3","1","sehr schwer zu verstehen, auf was es bei der schnellen Abfolge von Zeichen und Laut ankommt. Selbstverständlich konzentriere ich mich hierbei eigentlich nur auf das Zeichen, das ich vorher schon gesehen habe und nicht auf den Laut der Aussprache.","0","1","0","null","","","<div class = 'row'><div class = 'column'><img src = 'usneg/7380.bmp' width = '100%;'></div><div class = 'column'><img src = 'category1/CS6.png' width = '70%;'></div></div>","null","neg","CS","CS","1","category1/CS6.png","","","","",""
"","html-keyboard-response","31","476061","0.0-6.0-2.0-0.4","ztzyh6dda9","many_one","0","indirect_first","0","ER06LF07","0","28","1","1","3","1","sehr schwer zu verstehen, auf was es bei der schnellen Abfolge von Zeichen und Laut ankommt. Selbstverständlich konzentriere ich mich hierbei eigentlich nur auf das Zeichen, das ich vorher schon gesehen habe und nicht auf den Laut der Aussprache.","0","1","0","null","","","<div class = 'row'><div class = 'column'><img src = 'category3/CS6.png' width = '70%;'></div><div class = 'column'><img src = 'uspos/8190.bmp' width = '100%;'></div></div>","null","pos","CS","CS","3","category3/CS6.png","","","","",""
"","html-keyboard-response","32","478588","0.0-6.0-2.0-0.5","ztzyh6dda9","many_one","0","indirect_first","0","ER06LF07","0","28","1","1","3","1","sehr schwer zu verstehen, auf was es bei der schnellen Abfolge von Zeichen und Laut ankommt. Selbstverständlich konzentriere ich mich hierbei eigentlich nur auf das Zeichen, das ich vorher schon gesehen habe und nicht auf den Laut der Aussprache.","0","1","0","null","","","<div class = 'row'><div class = 'column'><img src = 'usneg/3181.bmp' width = '100%;'></div><div class = 'column'><img src = 'category4/CS2.png' width = '70%;'></div></div>","null","neg","CS","CS","4","category4/CS2.png","","","","",""
"","html-keyboard-response","33","481097","0.0-6.0-2.0-0.6","ztzyh6dda9","many_one","0","indirect_first","0","ER06LF07","0","28","1","1","3","1","sehr schwer zu verstehen, auf was es bei der schnellen Abfolge von Zeichen und Laut ankommt. Selbstverständlich konzentriere ich mich hierbei eigentlich nur auf das Zeichen, das ich vorher schon gesehen habe und nicht auf den Laut der Aussprache.","0","1","0","null","","","<div class = 'row'><div class = 'column'><img src = 'category2/CS4.png' width = '70%;'></div><div class = 'column'><img src = 'uspos/1710.bmp' width = '100%;'></div></div>","null","pos","CS","CS","2","category2/CS4.png","","","","",""
"","html-keyboard-response","34","483618","0.0-6.0-2.0-0.7","ztzyh6dda9","many_one","0","indirect_first","0","ER06LF07","0","28","1","1","3","1","sehr schwer zu verstehen, auf was es bei der schnellen Abfolge von Zeichen und Laut ankommt. Selbstverständlich konzentriere ich mich hierbei eigentlich nur auf das Zeichen, das ich vorher schon gesehen habe und nicht auf den Laut der Aussprache.","0","1","0","null","","","<div class = 'row'><div class = 'column'><img src = 'usneg/2750.bmp' width = '100%;'></div><div class = 'column'><img src = 'category1/CS9.png' width = '70%;'></div></div>","null","neg","CS","CS","1","category1/CS9.png","","","","",""
"","html-keyboard-response","35","486127","0.0-6.0-2.0-0.8","ztzyh6dda9","many_one","0","indirect_first","0","ER06LF07","0","28","1","1","3","1","sehr schwer zu verstehen, auf was es bei der schnellen Abfolge von Zeichen und Laut ankommt. Selbstverständlich konzentriere ich mich hierbei eigentlich nur auf das Zeichen, das ich vorher schon gesehen habe und nicht auf den Laut der Aussprache.","0","1","0","null","","","<div class = 'row'><div class = 'column'><img src = 'category3/CS7.png' width = '70%;'></div><div class = 'column'><img src = 'uspos/2150.bmp' width = '100%;'></div></div>","null","pos","CS","CS","3","category3/CS7.png","","","","",""
"","html-keyboard-response","36","488661","0.0-6.0-2.0-0.9","ztzyh6dda9","many_one","0","indirect_first","0","ER06LF07","0","28","1","1","3","1","sehr schwer zu verstehen, auf was es bei der schnellen Abfolge von Zeichen und Laut ankommt. Selbstverständlich konzentriere ich mich hierbei eigentlich nur auf das Zeichen, das ich vorher schon gesehen habe und nicht auf den Laut der Aussprache.","0","1","0","null","","","<div class = 'row'><div class = 'column'><img src = 'uspos/8350.bmp' width = '100%;'></div><div class = 'column'><img src = 'category3/CS4.png' width = '70%;'></div></div>","null","pos","CS","CS","3","category3/CS4.png","","","","",""
"","html-keyboard-response","37","491179","0.0-6.0-2.0-0.10","ztzyh6dda9","many_one","0","indirect_first","0","ER06LF07","0","28","1","1","3","1","sehr schwer zu verstehen, auf was es bei der schnellen Abfolge von Zeichen und Laut ankommt. Selbstverständlich konzentriere ich mich hierbei eigentlich nur auf das Zeichen, das ich vorher schon gesehen habe und nicht auf den Laut der Aussprache.","0","1","0","null","","","<div class = 'row'><div class = 'column'><img src = 'category1/CS1.png' width = '70%;'></div><div class = 'column'><img src = 'usneg/2900.bmp' width = '100%;'></div></div>","null","neg","CS","CS","1","category1/CS1.png","","","","",""
"","html-keyboard-response","38","493709","0.0-6.0-2.0-0.11","ztzyh6dda9","many_one","0","indirect_first","0","ER06LF07","0","28","1","1","3","1","sehr schwer zu verstehen, auf was es bei der schnellen Abfolge von Zeichen und Laut ankommt. Selbstverständlich konzentriere ich mich hierbei eigentlich nur auf das Zeichen, das ich vorher schon gesehen habe und nicht auf den Laut der Aussprache.","0","1","0","null","","","<div class = 'row'><div class = 'column'><img src = 'category2/CS10.png' width = '70%;'></div><div class = 'column'><img src = 'uspos/2030.bmp' width = '100%;'></div></div>","null","pos","CS","CS","2","category2/CS10.png","","","","",""
"","html-keyboard-response","39","496233","0.0-6.0-2.0-0.12","ztzyh6dda9","many_one","0","indirect_first","0","ER06LF07","0","28","1","1","3","1","sehr schwer zu verstehen, auf was es bei der schnellen Abfolge von Zeichen und Laut ankommt. Selbstverständlich konzentriere ich mich hierbei eigentlich nur auf das Zeichen, das ich vorher schon gesehen habe und nicht auf den Laut der Aussprache.","0","1","0","null","","","<div class = 'row'><div class = 'column'><img src = 'usneg/6838.bmp' width = '100%;'></div><div class = 'column'><img src = 'category4/CS6.png' width = '70%;'></div></div>","null","neg","CS","CS","4","category4/CS6.png","","","","",""
"","html-keyboard-response","40","498758","0.0-6.0-2.0-0.13","ztzyh6dda9","many_one","0","indirect_first","0","ER06LF07","0","28","1","1","3","1","sehr schwer zu verstehen, auf was es bei der schnellen Abfolge von Zeichen und Laut ankommt. Selbstverständlich konzentriere ich mich hierbei eigentlich nur auf das Zeichen, das ich vorher schon gesehen habe und nicht auf den Laut der Aussprache.","0","1","0","null","","","<div class = 'row'><div class = 'column'><img src = 'category4/CS5.png' width = '70%;'></div><div class = 'column'><img src = 'usneg/1280.bmp' width = '100%;'></div></div>","null","neg","CS","CS","4","category4/CS5.png","","","","",""
"","html-keyboard-response","41","501287","0.0-6.0-2.0-0.14","ztzyh6dda9","many_one","0","indirect_first","0","ER06LF07","0","28","1","1","3","1","sehr schwer zu verstehen, auf was es bei der schnellen Abfolge von Zeichen und Laut ankommt. Selbstverständlich konzentriere ich mich hierbei eigentlich nur auf das Zeichen, das ich vorher schon gesehen habe und nicht auf den Laut der Aussprache.","0","1","0","null","","","<div class = 'row'><div class = 'column'><img src = 'category2/CS8.png' width = '70%;'></div><div class = 'column'><img src = 'uspos/5830.bmp' width = '100%;'></div></div>","null","pos","CS","CS","2","category2/CS8.png","","","","",""
"","html-keyboard-response","42","503803","0.0-6.0-2.0-0.15","ztzyh6dda9","many_one","0","indirect_first","0","ER06LF07","0","28","1","1","3","1","sehr schwer zu verstehen, auf was es bei der schnellen Abfolge von Zeichen und Laut ankommt. Selbstverständlich konzentriere ich mich hierbei eigentlich nur auf das Zeichen, das ich vorher schon gesehen habe und nicht auf den Laut der Aussprache.","0","1","0","null","","","<div class = 'row'><div class = 'column'><img src = 'category2/CS5.png' width = '70%;'></div><div class = 'column'><img src = 'uspos/5470.bmp' width = '100%;'></div></div>","null","pos","CS","CS","2","category2/CS5.png","","","","",""
"","html-keyboard-response","43","506322","0.0-6.0-2.0-0.16","ztzyh6dda9","many_one","0","indirect_first","0","ER06LF07","0","28","1","1","3","1","sehr schwer zu verstehen, auf was es bei der schnellen Abfolge von Zeichen und Laut ankommt. Selbstverständlich konzentriere ich mich hierbei eigentlich nur auf das Zeichen, das ich vorher schon gesehen habe und nicht auf den Laut der Aussprache.","0","1","0","null","","","<div class = 'row'><div class = 'column'><img src = 'category3/CS8.png' width = '70%;'></div><div class = 'column'><img src = 'uspos/2530.bmp' width = '100%;'></div></div>","null","pos","CS","CS","3","category3/CS8.png","","","","",""
"","html-keyboard-response","44","508839","0.0-6.0-2.0-0.17","ztzyh6dda9","many_one","0","indirect_first","0","ER06LF07","0","28","1","1","3","1","sehr schwer zu verstehen, auf was es bei der schnellen Abfolge von Zeichen und Laut ankommt. Selbstverständlich konzentriere ich mich hierbei eigentlich nur auf das Zeichen, das ich vorher schon gesehen habe und nicht auf den Laut der Aussprache.","0","1","0","null","","","<div class = 'row'><div class = 'column'><img src = 'usneg/6020.bmp' width = '100%;'></div><div class = 'column'><img src = 'category4/CS9.png' width = '70%;'></div></div>","null","neg","CS","CS","4","category4/CS9.png","","","","",""
"","html-keyboard-response","45","511361","0.0-6.0-2.0-0.18","ztzyh6dda9","many_one","0","indirect_first","0","ER06LF07","0","28","1","1","3","1","sehr schwer zu verstehen, auf was es bei der schnellen Abfolge von Zeichen und Laut ankommt. Selbstverständlich konzentriere ich mich hierbei eigentlich nur auf das Zeichen, das ich vorher schon gesehen habe und nicht auf den Laut der Aussprache.","0","1","0","null","","","<div class = 'row'><div class = 'column'><img src = 'category1/CS8.png' width = '70%;'></div><div class = 'column'><img src = 'usneg/9290.bmp' width = '100%;'></div></div>","null","neg","CS","CS","1","category1/CS8.png","","","","",""
"","html-keyboard-response","46","513884","0.0-6.0-2.0-0.19","ztzyh6dda9","many_one","0","indirect_first","0","ER06LF07","0","28","1","1","3","1","sehr schwer zu verstehen, auf was es bei der schnellen Abfolge von Zeichen und Laut ankommt. Selbstverständlich konzentriere ich mich hierbei eigentlich nur auf das Zeichen, das ich vorher schon gesehen habe und nicht auf den Laut der Aussprache.","0","1","0","null","","","<div class = 'row'><div class = 'column'><img src = 'uspos/2165.bmp' width = '100%;'></div><div class = 'column'><img src = 'category3/CS1.png' width = '70%;'></div></div>","null","pos","CS","CS","3","category3/CS1.png","","","","",""
"","survey-html-form","47","527022","0.0-6.0-3.0","ztzyh6dda9","many_one","0","indirect_first","0","ER06LF07","0","28","1","1","3","1","sehr schwer zu verstehen, auf was es bei der schnellen Abfolge von Zeichen und Laut ankommt. Selbstverständlich konzentriere ich mich hierbei eigentlich nur auf das Zeichen, das ich vorher schon gesehen habe und nicht auf den Laut der Aussprache.","0","1","0","12626.194999786094","","{}","","","","","","","","","","","",""
"","html-keyboard-response","48","531041","0.0-6.0-4.0-0.0","ztzyh6dda9","many_one","0","indirect_first","0","ER06LF07","0","28","1","1","3","1","sehr schwer zu verstehen, auf was es bei der schnellen Abfolge von Zeichen und Laut ankommt. Selbstverständlich konzentriere ich mich hierbei eigentlich nur auf das Zeichen, das ich vorher schon gesehen habe und nicht auf den Laut der Aussprache.","0","1","0","null","","","<div class = 'row'><div class = 'column'><img src = 'uspos/1710.bmp' width = '100%;'></div><div class = 'column'><img src = 'category2/CS4.png' width = '70%;'></div></div>","null","pos","CS","CS","2","category2/CS4.png","","","","",""
"","html-keyboard-response","49","533552","0.0-6.0-4.0-0.1","ztzyh6dda9","many_one","0","indirect_first","0","ER06LF07","0","28","1","1","3","1","sehr schwer zu verstehen, auf was es bei der schnellen Abfolge von Zeichen und Laut ankommt. Selbstverständlich konzentriere ich mich hierbei eigentlich nur auf das Zeichen, das ich vorher schon gesehen habe und nicht auf den Laut der Aussprache.","0","1","0","null","","","<div class = 'row'><div class = 'column'><img src = 'category3/CS4.png' width = '70%;'></div><div class = 'column'><img src = 'uspos/8350.bmp' width = '100%;'></div></div>","null","pos","CS","CS","3","category3/CS4.png","","","","",""
"","html-keyboard-response","50","536069","0.0-6.0-4.0-0.2","ztzyh6dda9","many_one","0","indirect_first","0","ER06LF07","0","28","1","1","3","1","sehr schwer zu verstehen, auf was es bei der schnellen Abfolge von Zeichen und Laut ankommt. Selbstverständlich konzentriere ich mich hierbei eigentlich nur auf das Zeichen, das ich vorher schon gesehen habe und nicht auf den Laut der Aussprache.","0","1","0","null","","","<div class = 'row'><div class = 'column'><img src = 'category1/CS8.png' width = '70%;'></div><div class = 'column'><img src = 'usneg/9290.bmp' width = '100%;'></div></div>","null","neg","CS","CS","1","category1/CS8.png","","","","",""
"","html-keyboard-response","51","538589","0.0-6.0-4.0-0.3","ztzyh6dda9","many_one","0","indirect_first","0","ER06LF07","0","28","1","1","3","1","sehr schwer zu verstehen, auf was es bei der schnellen Abfolge von Zeichen und Laut ankommt. Selbstverständlich konzentriere ich mich hierbei eigentlich nur auf das Zeichen, das ich vorher schon gesehen habe und nicht auf den Laut der Aussprache.","0","1","0","null","","","<div class = 'row'><div class = 'column'><img src = 'category1/CS1.png' width = '70%;'></div><div class = 'column'><img src = 'usneg/2900.bmp' width = '100%;'></div></div>","null","neg","CS","CS","1","category1/CS1.png","","","","",""
"","html-keyboard-response","52","541117","0.0-6.0-4.0-0.4","ztzyh6dda9","many_one","0","indirect_first","0","ER06LF07","0","28","1","1","3","1","sehr schwer zu verstehen, auf was es bei der schnellen Abfolge von Zeichen und Laut ankommt. Selbstverständlich konzentriere ich mich hierbei eigentlich nur auf das Zeichen, das ich vorher schon gesehen habe und nicht auf den Laut der Aussprache.","0","1","0","null","","","<div class = 'row'><div class = 'column'><img src = 'usneg/1280.bmp' width = '100%;'></div><div class = 'column'><img src = 'category4/CS5.png' width = '70%;'></div></div>","null","neg","CS","CS","4","category4/CS5.png","","","","",""
"","html-keyboard-response","53","543648","0.0-6.0-4.0-0.5","ztzyh6dda9","many_one","0","indirect_first","0","ER06LF07","0","28","1","1","3","1","sehr schwer zu verstehen, auf was es bei der schnellen Abfolge von Zeichen und Laut ankommt. Selbstverständlich konzentriere ich mich hierbei eigentlich nur auf das Zeichen, das ich vorher schon gesehen habe und nicht auf den Laut der Aussprache.","0","1","0","null","","","<div class = 'row'><div class = 'column'><img src = 'uspos/8190.bmp' width = '100%;'></div><div class = 'column'><img src = 'category3/CS6.png' width = '70%;'></div></div>","null","pos","CS","CS","3","category3/CS6.png","","","","",""
"","html-keyboard-response","54","546168","0.0-6.0-4.0-0.6","ztzyh6dda9","many_one","0","indirect_first","0","ER06LF07","0","28","1","1","3","1","sehr schwer zu verstehen, auf was es bei der schnellen Abfolge von Zeichen und Laut ankommt. Selbstverständlich konzentriere ich mich hierbei eigentlich nur auf das Zeichen, das ich vorher schon gesehen habe und nicht auf den Laut der Aussprache.","0","1","0","null","","","<div class = 'row'><div class = 'column'><img src = 'category4/CS3.png' width = '70%;'></div><div class = 'column'><img src = 'usneg/9635.2.bmp' width = '100%;'></div></div>","null","neg","CS","CS","4","category4/CS3.png","","","","",""
"","html-keyboard-response","55","548696","0.0-6.0-4.0-0.7","ztzyh6dda9","many_one","0","indirect_first","0","ER06LF07","0","28","1","1","3","1","sehr schwer zu verstehen, auf was es bei der schnellen Abfolge von Zeichen und Laut ankommt. Selbstverständlich konzentriere ich mich hierbei eigentlich nur auf das Zeichen, das ich vorher schon gesehen habe und nicht auf den Laut der Aussprache.","0","1","0","null","","","<div class = 'row'><div class = 'column'><img src = 'category2/CS10.png' width = '70%;'></div><div class = 'column'><img src = 'uspos/2030.bmp' width = '100%;'></div></div>","null","pos","CS","CS","2","category2/CS10.png","","","","",""
"","html-keyboard-response","56","551226","0.0-6.0-4.0-0.8","ztzyh6dda9","many_one","0","indirect_first","0","ER06LF07","0","28","1","1","3","1","sehr schwer zu verstehen, auf was es bei der schnellen Abfolge von Zeichen und Laut ankommt. Selbstverständlich konzentriere ich mich hierbei eigentlich nur auf das Zeichen, das ich vorher schon gesehen habe und nicht auf den Laut der Aussprache.","0","1","0","null","","","<div class = 'row'><div class = 'column'><img src = 'usneg/6838.bmp' width = '100%;'></div><div class = 'column'><img src = 'category4/CS6.png' width = '70%;'></div></div>","null","neg","CS","CS","4","category4/CS6.png","","","","",""
"","html-keyboard-response","57","553742","0.0-6.0-4.0-0.9","ztzyh6dda9","many_one","0","indirect_first","0","ER06LF07","0","28","1","1","3","1","sehr schwer zu verstehen, auf was es bei der schnellen Abfolge von Zeichen und Laut ankommt. Selbstverständlich konzentriere ich mich hierbei eigentlich nur auf das Zeichen, das ich vorher schon gesehen habe und nicht auf den Laut der Aussprache.","0","1","0","null","","","<div class = 'row'><div class = 'column'><img src = 'category3/CS7.png' width = '70%;'></div><div class = 'column'><img src = 'uspos/2150.bmp' width = '100%;'></div></div>","null","pos","CS","CS","3","category3/CS7.png","","","","",""
"","html-keyboard-response","58","556262","0.0-6.0-4.0-0.10","ztzyh6dda9","many_one","0","indirect_first","0","ER06LF07","0","28","1","1","3","1","sehr schwer zu verstehen, auf was es bei der schnellen Abfolge von Zeichen und Laut ankommt. Selbstverständlich konzentriere ich mich hierbei eigentlich nur auf das Zeichen, das ich vorher schon gesehen habe und nicht auf den Laut der Aussprache.","0","1","0","null","","","<div class = 'row'><div class = 'column'><img src = 'usneg/6020.bmp' width = '100%;'></div><div class = 'column'><img src = 'category4/CS9.png' width = '70%;'></div></div>","null","neg","CS","CS","4","category4/CS9.png","","","","",""
"","html-keyboard-response","59","558787","0.0-6.0-4.0-0.11","ztzyh6dda9","many_one","0","indirect_first","0","ER06LF07","0","28","1","1","3","1","sehr schwer zu verstehen, auf was es bei der schnellen Abfolge von Zeichen und Laut ankommt. Selbstverständlich konzentriere ich mich hierbei eigentlich nur auf das Zeichen, das ich vorher schon gesehen habe und nicht auf den Laut der Aussprache.","0","1","0","null","","","<div class = 'row'><div class = 'column'><img src = 'uspos/2165.bmp' width = '100%;'></div><div class = 'column'><img src = 'category3/CS1.png' width = '70%;'></div></div>","null","pos","CS","CS","3","category3/CS1.png","","","","",""
"","html-keyboard-response","60","561304","0.0-6.0-4.0-0.12","ztzyh6dda9","many_one","0","indirect_first","0","ER06LF07","0","28","1","1","3","1","sehr schwer zu verstehen, auf was es bei der schnellen Abfolge von Zeichen und Laut ankommt. Selbstverständlich konzentriere ich mich hierbei eigentlich nur auf das Zeichen, das ich vorher schon gesehen habe und nicht auf den Laut der Aussprache.","0","1","0","null","","","<div class = 'row'><div class = 'column'><img src = 'category1/CS5.png' width = '70%;'></div><div class = 'column'><img src = 'usneg/9220.bmp' width = '100%;'></div></div>","null","neg","CS","CS","1","category1/CS5.png","","","","",""
"","html-keyboard-response","61","563813","0.0-6.0-4.0-0.13","ztzyh6dda9","many_one","0","indirect_first","0","ER06LF07","0","28","1","1","3","1","sehr schwer zu verstehen, auf was es bei der schnellen Abfolge von Zeichen und Laut ankommt. Selbstverständlich konzentriere ich mich hierbei eigentlich nur auf das Zeichen, das ich vorher schon gesehen habe und nicht auf den Laut der Aussprache.","0","1","0","null","","","<div class = 'row'><div class = 'column'><img src = 'uspos/2530.bmp' width = '100%;'></div><div class = 'column'><img src = 'category3/CS8.png' width = '70%;'></div></div>","null","pos","CS","CS","3","category3/CS8.png","","","","",""
"","html-keyboard-response","62","566336","0.0-6.0-4.0-0.14","ztzyh6dda9","many_one","0","indirect_first","0","ER06LF07","0","28","1","1","3","1","sehr schwer zu verstehen, auf was es bei der schnellen Abfolge von Zeichen und Laut ankommt. Selbstverständlich konzentriere ich mich hierbei eigentlich nur auf das Zeichen, das ich vorher schon gesehen habe und nicht auf den Laut der Aussprache.","0","1","0","null","","","<div class = 'row'><div class = 'column'><img src = 'uspos/5470.bmp' width = '100%;'></div><div class = 'column'><img src = 'category2/CS5.png' width = '70%;'></div></div>","null","pos","CS","CS","2","category2/CS5.png","","","","",""
"","html-keyboard-response","63","568850","0.0-6.0-4.0-0.15","ztzyh6dda9","many_one","0","indirect_first","0","ER06LF07","0","28","1","1","3","1","sehr schwer zu verstehen, auf was es bei der schnellen Abfolge von Zeichen und Laut ankommt. Selbstverständlich konzentriere ich mich hierbei eigentlich nur auf das Zeichen, das ich vorher schon gesehen habe und nicht auf den Laut der Aussprache.","0","1","0","null","","","<div class = 'row'><div class = 'column'><img src = 'category1/CS9.png' width = '70%;'></div><div class = 'column'><img src = 'usneg/2750.bmp' width = '100%;'></div></div>","null","neg","CS","CS","1","category1/CS9.png","","","","",""
"","html-keyboard-response","64","571367","0.0-6.0-4.0-0.16","ztzyh6dda9","many_one","0","indirect_first","0","ER06LF07","0","28","1","1","3","1","sehr schwer zu verstehen, auf was es bei der schnellen Abfolge von Zeichen und Laut ankommt. Selbstverständlich konzentriere ich mich hierbei eigentlich nur auf das Zeichen, das ich vorher schon gesehen habe und nicht auf den Laut der Aussprache.","0","1","0","null","","","<div class = 'row'><div class = 'column'><img src = 'category4/CS2.png' width = '70%;'></div><div class = 'column'><img src = 'usneg/3181.bmp' width = '100%;'></div></div>","null","neg","CS","CS","4","category4/CS2.png","","","","",""
"","html-keyboard-response","65","573901","0.0-6.0-4.0-0.17","ztzyh6dda9","many_one","0","indirect_first","0","ER06LF07","0","28","1","1","3","1","sehr schwer zu verstehen, auf was es bei der schnellen Abfolge von Zeichen und Laut ankommt. Selbstverständlich konzentriere ich mich hierbei eigentlich nur auf das Zeichen, das ich vorher schon gesehen habe und nicht auf den Laut der Aussprache.","0","1","0","null","","","<div class = 'row'><div class = 'column'><img src = 'uspos/1340.bmp' width = '100%;'></div><div class = 'column'><img src = 'category2/CS2.png' width = '70%;'></div></div>","null","pos","CS","CS","2","category2/CS2.png","","","","",""
"","html-keyboard-response","66","576425","0.0-6.0-4.0-0.18","ztzyh6dda9","many_one","0","indirect_first","0","ER06LF07","0","28","1","1","3","1","sehr schwer zu verstehen, auf was es bei der schnellen Abfolge von Zeichen und Laut ankommt. Selbstverständlich konzentriere ich mich hierbei eigentlich nur auf das Zeichen, das ich vorher schon gesehen habe und nicht auf den Laut der Aussprache.","0","1","0","null","","","<div class = 'row'><div class = 'column'><img src = 'usneg/7380.bmp' width = '100%;'></div><div class = 'column'><img src = 'category1/CS6.png' width = '70%;'></div></div>","null","neg","CS","CS","1","category1/CS6.png","","","","",""
"","html-keyboard-response","67","578945","0.0-6.0-4.0-0.19","ztzyh6dda9","many_one","0","indirect_first","0","ER06LF07","0","28","1","1","3","1","sehr schwer zu verstehen, auf was es bei der schnellen Abfolge von Zeichen und Laut ankommt. Selbstverständlich konzentriere ich mich hierbei eigentlich nur auf das Zeichen, das ich vorher schon gesehen habe und nicht auf den Laut der Aussprache.","0","1","0","null","","","<div class = 'row'><div class = 'column'><img src = 'category2/CS8.png' width = '70%;'></div><div class = 'column'><img src = 'uspos/5830.bmp' width = '100%;'></div></div>","null","pos","CS","CS","2","category2/CS8.png","","","","",""
"","survey-html-form","68","589078","0.0-6.0-5.0","ztzyh6dda9","many_one","0","indirect_first","0","ER06LF07","0","28","1","1","3","1","sehr schwer zu verstehen, auf was es bei der schnellen Abfolge von Zeichen und Laut ankommt. Selbstverständlich konzentriere ich mich hierbei eigentlich nur auf das Zeichen, das ich vorher schon gesehen habe und nicht auf den Laut der Aussprache.","0","1","0","9619.000000180677","","{}","","","","","","","","","","","",""
"","html-keyboard-response","69","593094","0.0-6.0-6.0-0.0","ztzyh6dda9","many_one","0","indirect_first","0","ER06LF07","0","28","1","1","3","1","sehr schwer zu verstehen, auf was es bei der schnellen Abfolge von Zeichen und Laut ankommt. Selbstverständlich konzentriere ich mich hierbei eigentlich nur auf das Zeichen, das ich vorher schon gesehen habe und nicht auf den Laut der Aussprache.","0","1","0","null","","","<div class = 'row'><div class = 'column'><img src = 'category1/CS1.png' width = '70%;'></div><div class = 'column'><img src = 'usneg/2900.bmp' width = '100%;'></div></div>","null","neg","CS","CS","1","category1/CS1.png","","","","",""
"","html-keyboard-response","70","595615","0.0-6.0-6.0-0.1","ztzyh6dda9","many_one","0","indirect_first","0","ER06LF07","0","28","1","1","3","1","sehr schwer zu verstehen, auf was es bei der schnellen Abfolge von Zeichen und Laut ankommt. Selbstverständlich konzentriere ich mich hierbei eigentlich nur auf das Zeichen, das ich vorher schon gesehen habe und nicht auf den Laut der Aussprache.","0","1","0","null","","","<div class = 'row'><div class = 'column'><img src = 'uspos/5470.bmp' width = '100%;'></div><div class = 'column'><img src = 'category2/CS5.png' width = '70%;'></div></div>","null","pos","CS","CS","2","category2/CS5.png","","","","",""
"","html-keyboard-response","71","598132","0.0-6.0-6.0-0.2","ztzyh6dda9","many_one","0","indirect_first","0","ER06LF07","0","28","1","1","3","1","sehr schwer zu verstehen, auf was es bei der schnellen Abfolge von Zeichen und Laut ankommt. Selbstverständlich konzentriere ich mich hierbei eigentlich nur auf das Zeichen, das ich vorher schon gesehen habe und nicht auf den Laut der Aussprache.","0","1","0","null","","","<div class = 'row'><div class = 'column'><img src = 'usneg/6838.bmp' width = '100%;'></div><div class = 'column'><img src = 'category4/CS6.png' width = '70%;'></div></div>","null","neg","CS","CS","4","category4/CS6.png","","","","",""
"","html-keyboard-response","72","600654","0.0-6.0-6.0-0.3","ztzyh6dda9","many_one","0","indirect_first","0","ER06LF07","0","28","1","1","3","1","sehr schwer zu verstehen, auf was es bei der schnellen Abfolge von Zeichen und Laut ankommt. Selbstverständlich konzentriere ich mich hierbei eigentlich nur auf das Zeichen, das ich vorher schon gesehen habe und nicht auf den Laut der Aussprache.","0","1","0","null","","","<div class = 'row'><div class = 'column'><img src = 'uspos/2165.bmp' width = '100%;'></div><div class = 'column'><img src = 'category3/CS1.png' width = '70%;'></div></div>","null","pos","CS","CS","3","category3/CS1.png","","","","",""
"","html-keyboard-response","73","603179","0.0-6.0-6.0-0.4","ztzyh6dda9","many_one","0","indirect_first","0","ER06LF07","0","28","1","1","3","1","sehr schwer zu verstehen, auf was es bei der schnellen Abfolge von Zeichen und Laut ankommt. Selbstverständlich konzentriere ich mich hierbei eigentlich nur auf das Zeichen, das ich vorher schon gesehen habe und nicht auf den Laut der Aussprache.","0","1","0","null","","","<div class = 'row'><div class = 'column'><img src = 'category2/CS10.png' width = '70%;'></div><div class = 'column'><img src = 'uspos/2030.bmp' width = '100%;'></div></div>","null","pos","CS","CS","2","category2/CS10.png","","","","",""
"","html-keyboard-response","74","605709","0.0-6.0-6.0-0.5","ztzyh6dda9","many_one","0","indirect_first","0","ER06LF07","0","28","1","1","3","1","sehr schwer zu verstehen, auf was es bei der schnellen Abfolge von Zeichen und Laut ankommt. Selbstverständlich konzentriere ich mich hierbei eigentlich nur auf das Zeichen, das ich vorher schon gesehen habe und nicht auf den Laut der Aussprache.","0","1","0","null","","","<div class = 'row'><div class = 'column'><img src = 'usneg/2750.bmp' width = '100%;'></div><div class = 'column'><img src = 'category1/CS9.png' width = '70%;'></div></div>","null","neg","CS","CS","1","category1/CS9.png","","","","",""
"","html-keyboard-response","75","608226","0.0-6.0-6.0-0.6","ztzyh6dda9","many_one","0","indirect_first","0","ER06LF07","0","28","1","1","3","1","sehr schwer zu verstehen, auf was es bei der schnellen Abfolge von Zeichen und Laut ankommt. Selbstverständlich konzentriere ich mich hierbei eigentlich nur auf das Zeichen, das ich vorher schon gesehen habe und nicht auf den Laut der Aussprache.","0","1","0","null","","","<div class = 'row'><div class = 'column'><img src = 'usneg/9635.2.bmp' width = '100%;'></div><div class = 'column'><img src = 'category4/CS3.png' width = '70%;'></div></div>","null","neg","CS","CS","4","category4/CS3.png","","","","",""
"","html-keyboard-response","76","610760","0.0-6.0-6.0-0.7","ztzyh6dda9","many_one","0","indirect_first","0","ER06LF07","0","28","1","1","3","1","sehr schwer zu verstehen, auf was es bei der schnellen Abfolge von Zeichen und Laut ankommt. Selbstverständlich konzentriere ich mich hierbei eigentlich nur auf das Zeichen, das ich vorher schon gesehen habe und nicht auf den Laut der Aussprache.","0","1","0","null","","","<div class = 'row'><div class = 'column'><img src = 'uspos/8190.bmp' width = '100%;'></div><div class = 'column'><img src = 'category3/CS6.png' width = '70%;'></div></div>","null","pos","CS","CS","3","category3/CS6.png","","","","",""
"","html-keyboard-response","77","613272","0.0-6.0-6.0-0.8","ztzyh6dda9","many_one","0","indirect_first","0","ER06LF07","0","28","1","1","3","1","sehr schwer zu verstehen, auf was es bei der schnellen Abfolge von Zeichen und Laut ankommt. Selbstverständlich konzentriere ich mich hierbei eigentlich nur auf das Zeichen, das ich vorher schon gesehen habe und nicht auf den Laut der Aussprache.","0","1","0","null","","","<div class = 'row'><div class = 'column'><img src = 'usneg/9220.bmp' width = '100%;'></div><div class = 'column'><img src = 'category1/CS5.png' width = '70%;'></div></div>","null","neg","CS","CS","1","category1/CS5.png","","","","",""
"","html-keyboard-response","78","615783","0.0-6.0-6.0-0.9","ztzyh6dda9","many_one","0","indirect_first","0","ER06LF07","0","28","1","1","3","1","sehr schwer zu verstehen, auf was es bei der schnellen Abfolge von Zeichen und Laut ankommt. Selbstverständlich konzentriere ich mich hierbei eigentlich nur auf das Zeichen, das ich vorher schon gesehen habe und nicht auf den Laut der Aussprache.","0","1","0","null","","","<div class = 'row'><div class = 'column'><img src = 'category4/CS9.png' width = '70%;'></div><div class = 'column'><img src = 'usneg/6020.bmp' width = '100%;'></div></div>","null","neg","CS","CS","4","category4/CS9.png","","","","",""
"","html-keyboard-response","79","618308","0.0-6.0-6.0-0.10","ztzyh6dda9","many_one","0","indirect_first","0","ER06LF07","0","28","1","1","3","1","sehr schwer zu verstehen, auf was es bei der schnellen Abfolge von Zeichen und Laut ankommt. Selbstverständlich konzentriere ich mich hierbei eigentlich nur auf das Zeichen, das ich vorher schon gesehen habe und nicht auf den Laut der Aussprache.","0","1","0","null","","","<div class = 'row'><div class = 'column'><img src = 'category2/CS2.png' width = '70%;'></div><div class = 'column'><img src = 'uspos/1340.bmp' width = '100%;'></div></div>","null","pos","CS","CS","2","category2/CS2.png","","","","",""
"","html-keyboard-response","80","620825","0.0-6.0-6.0-0.11","ztzyh6dda9","many_one","0","indirect_first","0","ER06LF07","0","28","1","1","3","1","sehr schwer zu verstehen, auf was es bei der schnellen Abfolge von Zeichen und Laut ankommt. Selbstverständlich konzentriere ich mich hierbei eigentlich nur auf das Zeichen, das ich vorher schon gesehen habe und nicht auf den Laut der Aussprache.","0","1","0","null","","","<div class = 'row'><div class = 'column'><img src = 'uspos/2150.bmp' width = '100%;'></div><div class = 'column'><img src = 'category3/CS7.png' width = '70%;'></div></div>","null","pos","CS","CS","3","category3/CS7.png","","","","",""
"","html-keyboard-response","81","623351","0.0-6.0-6.0-0.12","ztzyh6dda9","many_one","0","indirect_first","0","ER06LF07","0","28","1","1","3","1","sehr schwer zu verstehen, auf was es bei der schnellen Abfolge von Zeichen und Laut ankommt. Selbstverständlich konzentriere ich mich hierbei eigentlich nur auf das Zeichen, das ich vorher schon gesehen habe und nicht auf den Laut der Aussprache.","0","1","0","null","","","<div class = 'row'><div class = 'column'><img src = 'usneg/3181.bmp' width = '100%;'></div><div class = 'column'><img src = 'category4/CS2.png' width = '70%;'></div></div>","null","neg","CS","CS","4","category4/CS2.png","","","","",""
"","html-keyboard-response","82","625869","0.0-6.0-6.0-0.13","ztzyh6dda9","many_one","0","indirect_first","0","ER06LF07","0","28","1","1","3","1","sehr schwer zu verstehen, auf was es bei der schnellen Abfolge von Zeichen und Laut ankommt. Selbstverständlich konzentriere ich mich hierbei eigentlich nur auf das Zeichen, das ich vorher schon gesehen habe und nicht auf den Laut der Aussprache.","0","1","0","null","","","<div class = 'row'><div class = 'column'><img src = 'uspos/5830.bmp' width = '100%;'></div><div class = 'column'><img src = 'category2/CS8.png' width = '70%;'></div></div>","null","pos","CS","CS","2","category2/CS8.png","","","","",""
"","html-keyboard-response","83","628389","0.0-6.0-6.0-0.14","ztzyh6dda9","many_one","0","indirect_first","0","ER06LF07","0","28","1","1","3","1","sehr schwer zu verstehen, auf was es bei der schnellen Abfolge von Zeichen und Laut ankommt. Selbstverständlich konzentriere ich mich hierbei eigentlich nur auf das Zeichen, das ich vorher schon gesehen habe und nicht auf den Laut der Aussprache.","0","1","0","null","","","<div class = 'row'><div class = 'column'><img src = 'uspos/2530.bmp' width = '100%;'></div><div class = 'column'><img src = 'category3/CS8.png' width = '70%;'></div></div>","null","pos","CS","CS","3","category3/CS8.png","","","","",""
"","html-keyboard-response","84","630912","0.0-6.0-6.0-0.15","ztzyh6dda9","many_one","0","indirect_first","0","ER06LF07","0","28","1","1","3","1","sehr schwer zu verstehen, auf was es bei der schnellen Abfolge von Zeichen und Laut ankommt. Selbstverständlich konzentriere ich mich hierbei eigentlich nur auf das Zeichen, das ich vorher schon gesehen habe und nicht auf den Laut der Aussprache.","0","1","0","null","","","<div class = 'row'><div class = 'column'><img src = 'uspos/1710.bmp' width = '100%;'></div><div class = 'column'><img src = 'category2/CS4.png' width = '70%;'></div></div>","null","pos","CS","CS","2","category2/CS4.png","","","","",""
"","html-keyboard-response","85","633445","0.0-6.0-6.0-0.16","ztzyh6dda9","many_one","0","indirect_first","0","ER06LF07","0","28","1","1","3","1","sehr schwer zu verstehen, auf was es bei der schnellen Abfolge von Zeichen und Laut ankommt. Selbstverständlich konzentriere ich mich hierbei eigentlich nur auf das Zeichen, das ich vorher schon gesehen habe und nicht auf den Laut der Aussprache.","0","1","0","null","","","<div class = 'row'><div class = 'column'><img src = 'category4/CS5.png' width = '70%;'></div><div class = 'column'><img src = 'usneg/1280.bmp' width = '100%;'></div></div>","null","neg","CS","CS","4","category4/CS5.png","","","","",""
"","html-keyboard-response","86","635976","0.0-6.0-6.0-0.17","ztzyh6dda9","many_one","0","indirect_first","0","ER06LF07","0","28","1","1","3","1","sehr schwer zu verstehen, auf was es bei der schnellen Abfolge von Zeichen und Laut ankommt. Selbstverständlich konzentriere ich mich hierbei eigentlich nur auf das Zeichen, das ich vorher schon gesehen habe und nicht auf den Laut der Aussprache.","0","1","0","null","","","<div class = 'row'><div class = 'column'><img src = 'usneg/9290.bmp' width = '100%;'></div><div class = 'column'><img src = 'category1/CS8.png' width = '70%;'></div></div>","null","neg","CS","CS","1","category1/CS8.png","","","","",""
"","html-keyboard-response","87","638484","0.0-6.0-6.0-0.18","ztzyh6dda9","many_one","0","indirect_first","0","ER06LF07","0","28","1","1","3","1","sehr schwer zu verstehen, auf was es bei der schnellen Abfolge von Zeichen und Laut ankommt. Selbstverständlich konzentriere ich mich hierbei eigentlich nur auf das Zeichen, das ich vorher schon gesehen habe und nicht auf den Laut der Aussprache.","0","1","0","null","","","<div class = 'row'><div class = 'column'><img src = 'category3/CS4.png' width = '70%;'></div><div class = 'column'><img src = 'uspos/8350.bmp' width = '100%;'></div></div>","null","pos","CS","CS","3","category3/CS4.png","","","","",""
"","html-keyboard-response","88","641000","0.0-6.0-6.0-0.19","ztzyh6dda9","many_one","0","indirect_first","0","ER06LF07","0","28","1","1","3","1","sehr schwer zu verstehen, auf was es bei der schnellen Abfolge von Zeichen und Laut ankommt. Selbstverständlich konzentriere ich mich hierbei eigentlich nur auf das Zeichen, das ich vorher schon gesehen habe und nicht auf den Laut der Aussprache.","0","1","0","null","","","<div class = 'row'><div class = 'column'><img src = 'usneg/7380.bmp' width = '100%;'></div><div class = 'column'><img src = 'category1/CS6.png' width = '70%;'></div></div>","null","neg","CS","CS","1","category1/CS6.png","","","","",""
"","html-keyboard-response","89","715948","0.0-7.0","ztzyh6dda9","many_one","0","indirect_first","0","ER06LF07","0","28","1","1","3","1","sehr schwer zu verstehen, auf was es bei der schnellen Abfolge von Zeichen und Laut ankommt. Selbstverständlich konzentriere ich mich hierbei eigentlich nur auf das Zeichen, das ich vorher schon gesehen habe und nicht auf den Laut der Aussprache.","0","1","0","74433.72499989346","","","<p>Sie sehen nun die chinesischen Zeichen nur ganz kurz. Danach sehen Sie die jeweilige Aussprache der Zeichen als Silbe auf dem Bildschrim. Ihre Aufgabe ist es, für jede Silbe anzugeben, ob diese etwas angenehmes, oder unangenehmes bedeuten könnte. Verlassen Sie sich hier vor allem auf Ihre Intuition.<br><br>Die Zeichen werden nur zur Orientierung dargestellt, beachten Sie sie deshalb nicht. Konzentrieren Sie sich vor allem auf die Silben. <br>Reagieren Sie mit folgenden zwei Tasten: <br><br><b>'D' </b> wenn die Silbe etwas <b>unangenehmes</b> bedeuten könnte. <br><b>'K'</b> wenn die Silbe etwas <b>angenehmes</b> bedeuten könnte. <br><br>Bitte legen Sie nun den Zeigefinger der linken Hand auf die Taste 'D' und den Zeigefinger der rechten Hand auf die Taste 'K'. <br>Reagieren Sie auf jede Silbe so schnell wie möglich. Uns interessiert Ihre spontane Reaktion. <br> <br> <br>Drücken Sie 'D' oder 'K', um die nächste Aufgabe zu starten. </p>","75","","","","","","","","","",""
"","html-keyboard-response","90","718959","0.0-8.0-0.0","ztzyh6dda9","many_one","0","indirect_first","0","ER06LF07","0","28","1","1","3","1","sehr schwer zu verstehen, auf was es bei der schnellen Abfolge von Zeichen und Laut ankommt. Selbstverständlich konzentriere ich mich hierbei eigentlich nur auf das Zeichen, das ich vorher schon gesehen habe und nicht auf den Laut der Aussprache.","0","1","0","null","","","<div style=""font-size:60px;"">+</div>","null","","","","","","","","","",""
"","html-keyboard-response","91","719053","0.0-8.0-1.0","ztzyh6dda9","many_one","0","indirect_first","0","ER06LF07","0","28","1","1","3","1","sehr schwer zu verstehen, auf was es bei der schnellen Abfolge von Zeichen und Laut ankommt. Selbstverständlich konzentriere ich mich hierbei eigentlich nur auf das Zeichen, das ich vorher schon gesehen habe und nicht auf den Laut der Aussprache.","0","1","0","null","","","<img src = 'category4/CS5.png' width = '100%;'>","null","","","","","","","","","",""
"","html-keyboard-response","92","719319","0.0-8.0-2.0","ztzyh6dda9","many_one","0","indirect_first","0","ER06LF07","0","28","1","1","3","1","sehr schwer zu verstehen, auf was es bei der schnellen Abfolge von Zeichen und Laut ankommt. Selbstverständlich konzentriere ich mich hierbei eigentlich nur auf das Zeichen, das ich vorher schon gesehen habe und nicht auf den Laut der Aussprache.","0","1","0","null","","","<img src = 'targets/32.png' width = '100%;'>","null","","","","","","","","","",""
"","html-keyboard-response","93","724256","0.0-8.0-3.0","ztzyh6dda9","many_one","0","indirect_first","0","ER06LF07","0","28","1","1","3","1","sehr schwer zu verstehen, auf was es bei der schnellen Abfolge von Zeichen und Laut ankommt. Selbstverständlich konzentriere ich mich hierbei eigentlich nur auf das Zeichen, das ich vorher schon gesehen habe und nicht auf den Laut der Aussprache.","0","1","0","4936.22999987565","","","<img src = 'targets/mask.png' width = '100%;'>","68","neg","CS","CS","4","category4/CS5.png","targets/32.png","0","indirect","0",""
"","html-keyboard-response","94","725767","0.0-8.0-0.1","ztzyh6dda9","many_one","0","indirect_first","0","ER06LF07","0","28","1","1","3","1","sehr schwer zu verstehen, auf was es bei der schnellen Abfolge von Zeichen und Laut ankommt. Selbstverständlich konzentriere ich mich hierbei eigentlich nur auf das Zeichen, das ich vorher schon gesehen habe und nicht auf den Laut der Aussprache.","0","1","0","null","","","<div style=""font-size:60px;"">+</div>","null","","","","","","","","","",""
"","html-keyboard-response","95","725868","0.0-8.0-1.1","ztzyh6dda9","many_one","0","indirect_first","0","ER06LF07","0","28","1","1","3","1","sehr schwer zu verstehen, auf was es bei der schnellen Abfolge von Zeichen und Laut ankommt. Selbstverständlich konzentriere ich mich hierbei eigentlich nur auf das Zeichen, das ich vorher schon gesehen habe und nicht auf den Laut der Aussprache.","0","1","0","null","","","<img src = 'category3/CS6.png' width = '100%;'>","null","","","","","","","","","",""
"","html-keyboard-response","96","726135","0.0-8.0-2.1","ztzyh6dda9","many_one","0","indirect_first","0","ER06LF07","0","28","1","1","3","1","sehr schwer zu verstehen, auf was es bei der schnellen Abfolge von Zeichen und Laut ankommt. Selbstverständlich konzentriere ich mich hierbei eigentlich nur auf das Zeichen, das ich vorher schon gesehen habe und nicht auf den Laut der Aussprache.","0","1","0","null","","","<img src = 'targets/21.png' width = '100%;'>","null","","","","","","","","","",""
"","html-keyboard-response","97","731290","0.0-8.0-3.1","ztzyh6dda9","many_one","0","indirect_first","0","ER06LF07","0","28","1","1","3","1","sehr schwer zu verstehen, auf was es bei der schnellen Abfolge von Zeichen und Laut ankommt. Selbstverständlich konzentriere ich mich hierbei eigentlich nur auf das Zeichen, das ich vorher schon gesehen habe und nicht auf den Laut der Aussprache.","0","1","0","5153.494999976829","","","<img src = 'targets/mask.png' width = '100%;'>","68","pos","CS","CS","3","category3/CS6.png","targets/21.png","0","indirect","1",""
"","html-keyboard-response","98","732802","0.0-8.0-0.2","ztzyh6dda9","many_one","0","indirect_first","0","ER06LF07","0","28","1","1","3","1","sehr schwer zu verstehen, auf was es bei der schnellen Abfolge von Zeichen und Laut ankommt. Selbstverständlich konzentriere ich mich hierbei eigentlich nur auf das Zeichen, das ich vorher schon gesehen habe und nicht auf den Laut der Aussprache.","0","1","0","null","","","<div style=""font-size:60px;"">+</div>","null","","","","","","","","","",""
"","html-keyboard-response","99","732903","0.0-8.0-1.2","ztzyh6dda9","many_one","0","indirect_first","0","ER06LF07","0","28","1","1","3","1","sehr schwer zu verstehen, auf was es bei der schnellen Abfolge von Zeichen und Laut ankommt. Selbstverständlich konzentriere ich mich hierbei eigentlich nur auf das Zeichen, das ich vorher schon gesehen habe und nicht auf den Laut der Aussprache.","0","1","0","null","","","<img src = 'category2/CS2.png' width = '100%;'>","null","","","","","","","","","",""
"","html-keyboard-response","100","733168","0.0-8.0-2.2","ztzyh6dda9","many_one","0","indirect_first","0","ER06LF07","0","28","1","1","3","1","sehr schwer zu verstehen, auf was es bei der schnellen Abfolge von Zeichen und Laut ankommt. Selbstverständlich konzentriere ich mich hierbei eigentlich nur auf das Zeichen, das ich vorher schon gesehen habe und nicht auf den Laut der Aussprache.","0","1","0","null","","","<img src = 'targets/47.png' width = '100%;'>","null","","","","","","","","","",""
"","html-keyboard-response","101","741186","0.0-8.0-3.2","ztzyh6dda9","many_one","0","indirect_first","0","ER06LF07","0","28","1","1","3","1","sehr schwer zu verstehen, auf was es bei der schnellen Abfolge von Zeichen und Laut ankommt. Selbstverständlich konzentriere ich mich hierbei eigentlich nur auf das Zeichen, das ich vorher schon gesehen habe und nicht auf den Laut der Aussprache.","0","1","0","8015.784999821335","","","<img src = 'targets/mask.png' width = '100%;'>","68","pos","CS","CS","2","category2/CS2.png","targets/47.png","0","indirect","2",""
"","html-keyboard-response","102","742694","0.0-8.0-0.3","ztzyh6dda9","many_one","0","indirect_first","0","ER06LF07","0","28","1","1","3","1","sehr schwer zu verstehen, auf was es bei der schnellen Abfolge von Zeichen und Laut ankommt. Selbstverständlich konzentriere ich mich hierbei eigentlich nur auf das Zeichen, das ich vorher schon gesehen habe und nicht auf den Laut der Aussprache.","0","1","0","null","","","<div style=""font-size:60px;"">+</div>","null","","","","","","","","","",""
"","html-keyboard-response","103","742786","0.0-8.0-1.3","ztzyh6dda9","many_one","0","indirect_first","0","ER06LF07","0","28","1","1","3","1","sehr schwer zu verstehen, auf was es bei der schnellen Abfolge von Zeichen und Laut ankommt. Selbstverständlich konzentriere ich mich hierbei eigentlich nur auf das Zeichen, das ich vorher schon gesehen habe und nicht auf den Laut der Aussprache.","0","1","0","null","","","<img src = 'category4/CS2.png' width = '100%;'>","null","","","","","","","","","",""
"","html-keyboard-response","104","743051","0.0-8.0-2.3","ztzyh6dda9","many_one","0","indirect_first","0","ER06LF07","0","28","1","1","3","1","sehr schwer zu verstehen, auf was es bei der schnellen Abfolge von Zeichen und Laut ankommt. Selbstverständlich konzentriere ich mich hierbei eigentlich nur auf das Zeichen, das ich vorher schon gesehen habe und nicht auf den Laut der Aussprache.","0","1","0","null","","","<img src = 'targets/27.png' width = '100%;'>","null","","","","","","","","","",""
"","html-keyboard-response","105","744644","0.0-8.0-3.3","ztzyh6dda9","many_one","0","indirect_first","0","ER06LF07","0","28","1","1","3","1","sehr schwer zu verstehen, auf was es bei der schnellen Abfolge von Zeichen und Laut ankommt. Selbstverständlich konzentriere ich mich hierbei eigentlich nur auf das Zeichen, das ich vorher schon gesehen habe und nicht auf den Laut der Aussprache.","0","1","0","1590.4699999373406","","","<img src = 'targets/mask.png' width = '100%;'>","68","neg","CS","CS","4","category4/CS2.png","targets/27.png","0","indirect","3",""
"","html-keyboard-response","106","746164","0.0-8.0-0.4","ztzyh6dda9","many_one","0","indirect_first","0","ER06LF07","0","28","1","1","3","1","sehr schwer zu verstehen, auf was es bei der schnellen Abfolge von Zeichen und Laut ankommt. Selbstverständlich konzentriere ich mich hierbei eigentlich nur auf das Zeichen, das ich vorher schon gesehen habe und nicht auf den Laut der Aussprache.","0","1","0","null","","","<div style=""font-size:60px;"">+</div>","null","","","","","","","","","",""
"","html-keyboard-response","107","746268","0.0-8.0-1.4","ztzyh6dda9","many_one","0","indirect_first","0","ER06LF07","0","28","1","1","3","1","sehr schwer zu verstehen, auf was es bei der schnellen Abfolge von Zeichen und Laut ankommt. Selbstverständlich konzentriere ich mich hierbei eigentlich nur auf das Zeichen, das ich vorher schon gesehen habe und nicht auf den Laut der Aussprache.","0","1","0","null","","","<img src = 'category1/CS1.png' width = '100%;'>","null","","","","","","","","","",""
"","html-keyboard-response","108","746535","0.0-8.0-2.4","ztzyh6dda9","many_one","0","indirect_first","0","ER06LF07","0","28","1","1","3","1","sehr schwer zu verstehen, auf was es bei der schnellen Abfolge von Zeichen und Laut ankommt. Selbstverständlich konzentriere ich mich hierbei eigentlich nur auf das Zeichen, das ich vorher schon gesehen habe und nicht auf den Laut der Aussprache.","0","1","0","null","","","<img src = 'targets/44.png' width = '100%;'>","null","","","","","","","","","",""
"","html-keyboard-response","109","750412","0.0-8.0-3.4","ztzyh6dda9","many_one","0","indirect_first","0","ER06LF07","0","28","1","1","3","1","sehr schwer zu verstehen, auf was es bei der schnellen Abfolge von Zeichen und Laut ankommt. Selbstverständlich konzentriere ich mich hierbei eigentlich nur auf das Zeichen, das ich vorher schon gesehen habe und nicht auf den Laut der Aussprache.","0","1","0","3875.1899998169392","","","<img src = 'targets/mask.png' width = '100%;'>","68","neg","CS","CS","1","category1/CS1.png","targets/44.png","0","indirect","4",""
"","html-keyboard-response","110","751930","0.0-8.0-0.5","ztzyh6dda9","many_one","0","indirect_first","0","ER06LF07","0","28","1","1","3","1","sehr schwer zu verstehen, auf was es bei der schnellen Abfolge von Zeichen und Laut ankommt. Selbstverständlich konzentriere ich mich hierbei eigentlich nur auf das Zeichen, das ich vorher schon gesehen habe und nicht auf den Laut der Aussprache.","0","1","0","null","","","<div style=""font-size:60px;"">+</div>","null","","","","","","","","","",""
"","html-keyboard-response","111","752050","0.0-8.0-1.5","ztzyh6dda9","many_one","0","indirect_first","0","ER06LF07","0","28","1","1","3","1","sehr schwer zu verstehen, auf was es bei der schnellen Abfolge von Zeichen und Laut ankommt. Selbstverständlich konzentriere ich mich hierbei eigentlich nur auf das Zeichen, das ich vorher schon gesehen habe und nicht auf den Laut der Aussprache.","0","1","0","null","","","<img src = 'category3/CS4.png' width = '100%;'>","null","","","","","","","","","",""
"","html-keyboard-response","112","752318","0.0-8.0-2.5","ztzyh6dda9","many_one","0","indirect_first","0","ER06LF07","0","28","1","1","3","1","sehr schwer zu verstehen, auf was es bei der schnellen Abfolge von Zeichen und Laut ankommt. Selbstverständlich konzentriere ich mich hierbei eigentlich nur auf das Zeichen, das ich vorher schon gesehen habe und nicht auf den Laut der Aussprache.","0","1","0","null","","","<img src = 'targets/39.png' width = '100%;'>","null","","","","","","","","","",""
"","html-keyboard-response","113","753500","0.0-8.0-3.5","ztzyh6dda9","many_one","0","indirect_first","0","ER06LF07","0","28","1","1","3","1","sehr schwer zu verstehen, auf was es bei der schnellen Abfolge von Zeichen und Laut ankommt. Selbstverständlich konzentriere ich mich hierbei eigentlich nur auf das Zeichen, das ich vorher schon gesehen habe und nicht auf den Laut der Aussprache.","0","1","0","1179.1850000154227","","","<img src = 'targets/mask.png' width = '100%;'>","75","pos","CS","CS","3","category3/CS4.png","targets/39.png","1","indirect","5",""
"","html-keyboard-response","114","755024","0.0-8.0-0.6","ztzyh6dda9","many_one","0","indirect_first","0","ER06LF07","0","28","1","1","3","1","sehr schwer zu verstehen, auf was es bei der schnellen Abfolge von Zeichen und Laut ankommt. Selbstverständlich konzentriere ich mich hierbei eigentlich nur auf das Zeichen, das ich vorher schon gesehen habe und nicht auf den Laut der Aussprache.","0","1","0","null","","","<div style=""font-size:60px;"">+</div>","null","","","","","","","","","",""
"","html-keyboard-response","115","755119","0.0-8.0-1.6","ztzyh6dda9","many_one","0","indirect_first","0","ER06LF07","0","28","1","1","3","1","sehr schwer zu verstehen, auf was es bei der schnellen Abfolge von Zeichen und Laut ankommt. Selbstverständlich konzentriere ich mich hierbei eigentlich nur auf das Zeichen, das ich vorher schon gesehen habe und nicht auf den Laut der Aussprache.","0","1","0","null","","","<img src = 'category2/CS5.png' width = '100%;'>","null","","","","","","","","","",""
"","html-keyboard-response","116","755388","0.0-8.0-2.6","ztzyh6dda9","many_one","0","indirect_first","0","ER06LF07","0","28","1","1","3","1","sehr schwer zu verstehen, auf was es bei der schnellen Abfolge von Zeichen und Laut ankommt. Selbstverständlich konzentriere ich mich hierbei eigentlich nur auf das Zeichen, das ich vorher schon gesehen habe und nicht auf den Laut der Aussprache.","0","1","0","null","","","<img src = 'targets/31.png' width = '100%;'>","null","","","","","","","","","",""
"","html-keyboard-response","117","756485","0.0-8.0-3.6","ztzyh6dda9","many_one","0","indirect_first","0","ER06LF07","0","28","1","1","3","1","sehr schwer zu verstehen, auf was es bei der schnellen Abfolge von Zeichen und Laut ankommt. Selbstverständlich konzentriere ich mich hierbei eigentlich nur auf das Zeichen, das ich vorher schon gesehen habe und nicht auf den Laut der Aussprache.","0","1","0","1094.3749998696148","","","<img src = 'targets/mask.png' width = '100%;'>","75","pos","CS","CS","2","category2/CS5.png","targets/31.png","1","indirect","6",""
"","html-keyboard-response","118","757993","0.0-8.0-0.7","ztzyh6dda9","many_one","0","indirect_first","0","ER06LF07","0","28","1","1","3","1","sehr schwer zu verstehen, auf was es bei der schnellen Abfolge von Zeichen und Laut ankommt. Selbstverständlich konzentriere ich mich hierbei eigentlich nur auf das Zeichen, das ich vorher schon gesehen habe und nicht auf den Laut der Aussprache.","0","1","0","null","","","<div style=""font-size:60px;"">+</div>","null","","","","","","","","","",""
"","html-keyboard-response","119","758086","0.0-8.0-1.7","ztzyh6dda9","many_one","0","indirect_first","0","ER06LF07","0","28","1","1","3","1","sehr schwer zu verstehen, auf was es bei der schnellen Abfolge von Zeichen und Laut ankommt. Selbstverständlich konzentriere ich mich hierbei eigentlich nur auf das Zeichen, das ich vorher schon gesehen habe und nicht auf den Laut der Aussprache.","0","1","0","null","","","<img src = 'category3/CS7.png' width = '100%;'>","null","","","","","","","","","",""
"","html-keyboard-response","120","758367","0.0-8.0-2.7","ztzyh6dda9","many_one","0","indirect_first","0","ER06LF07","0","28","1","1","3","1","sehr schwer zu verstehen, auf was es bei der schnellen Abfolge von Zeichen und Laut ankommt. Selbstverständlich konzentriere ich mich hierbei eigentlich nur auf das Zeichen, das ich vorher schon gesehen habe und nicht auf den Laut der Aussprache.","0","1","0","null","","","<img src = 'targets/41.png' width = '100%;'>","null","","","","","","","","","",""
"","html-keyboard-response","121","759813","0.0-8.0-3.7","ztzyh6dda9","many_one","0","indirect_first","0","ER06LF07","0","28","1","1","3","1","sehr schwer zu verstehen, auf was es bei der schnellen Abfolge von Zeichen und Laut ankommt. Selbstverständlich konzentriere ich mich hierbei eigentlich nur auf das Zeichen, das ich vorher schon gesehen habe und nicht auf den Laut der Aussprache.","0","1","0","1443.3899999130517","","","<img src = 'targets/mask.png' width = '100%;'>","75","pos","CS","CS","3","category3/CS7.png","targets/41.png","1","indirect","7",""
"","html-keyboard-response","122","761333","0.0-8.0-0.8","ztzyh6dda9","many_one","0","indirect_first","0","ER06LF07","0","28","1","1","3","1","sehr schwer zu verstehen, auf was es bei der schnellen Abfolge von Zeichen und Laut ankommt. Selbstverständlich konzentriere ich mich hierbei eigentlich nur auf das Zeichen, das ich vorher schon gesehen habe und nicht auf den Laut der Aussprache.","0","1","0","null","","","<div style=""font-size:60px;"">+</div>","null","","","","","","","","","",""
"","html-keyboard-response","123","761438","0.0-8.0-1.8","ztzyh6dda9","many_one","0","indirect_first","0","ER06LF07","0","28","1","1","3","1","sehr schwer zu verstehen, auf was es bei der schnellen Abfolge von Zeichen und Laut ankommt. Selbstverständlich konzentriere ich mich hierbei eigentlich nur auf das Zeichen, das ich vorher schon gesehen habe und nicht auf den Laut der Aussprache.","0","1","0","null","","","<img src = 'category3/CS8.png' width = '100%;'>","null","","","","","","","","","",""
"","html-keyboard-response","124","761701","0.0-8.0-2.8","ztzyh6dda9","many_one","0","indirect_first","0","ER06LF07","0","28","1","1","3","1","sehr schwer zu verstehen, auf was es bei der schnellen Abfolge von Zeichen und Laut ankommt. Selbstverständlich konzentriere ich mich hierbei eigentlich nur auf das Zeichen, das ich vorher schon gesehen habe und nicht auf den Laut der Aussprache.","0","1","0","null","","","<img src = 'targets/18.png' width = '100%;'>","null","","","","","","","","","",""
"","html-keyboard-response","125","763341","0.0-8.0-3.8","ztzyh6dda9","many_one","0","indirect_first","0","ER06LF07","0","28","1","1","3","1","sehr schwer zu verstehen, auf was es bei der schnellen Abfolge von Zeichen und Laut ankommt. Selbstverständlich konzentriere ich mich hierbei eigentlich nur auf das Zeichen, das ich vorher schon gesehen habe und nicht auf den Laut der Aussprache.","0","1","0","1637.4749999959022","","","<img src = 'targets/mask.png' width = '100%;'>","75","pos","CS","CS","3","category3/CS8.png","targets/18.png","1","indirect","8",""
"","html-keyboard-response","126","764867","0.0-8.0-0.9","ztzyh6dda9","many_one","0","indirect_first","0","ER06LF07","0","28","1","1","3","1","sehr schwer zu verstehen, auf was es bei der schnellen Abfolge von Zeichen und Laut ankommt. Selbstverständlich konzentriere ich mich hierbei eigentlich nur auf das Zeichen, das ich vorher schon gesehen habe und nicht auf den Laut der Aussprache.","0","1","0","null","","","<div style=""font-size:60px;"">+</div>","null","","","","","","","","","",""
"","html-keyboard-response","127","764968","0.0-8.0-1.9","ztzyh6dda9","many_one","0","indirect_first","0","ER06LF07","0","28","1","1","3","1","sehr schwer zu verstehen, auf was es bei der schnellen Abfolge von Zeichen und Laut ankommt. Selbstverständlich konzentriere ich mich hierbei eigentlich nur auf das Zeichen, das ich vorher schon gesehen habe und nicht auf den Laut der Aussprache.","0","1","0","null","","","<img src = 'category2/CS8.png' width = '100%;'>","null","","","","","","","","","",""
"","html-keyboard-response","128","765250","0.0-8.0-2.9","ztzyh6dda9","many_one","0","indirect_first","0","ER06LF07","0","28","1","1","3","1","sehr schwer zu verstehen, auf was es bei der schnellen Abfolge von Zeichen und Laut ankommt. Selbstverständlich konzentriere ich mich hierbei eigentlich nur auf das Zeichen, das ich vorher schon gesehen habe und nicht auf den Laut der Aussprache.","0","1","0","null","","","<img src = 'targets/4.png' width = '100%;'>","null","","","","","","","","","",""
"","html-keyboard-response","129","766454","0.0-8.0-3.9","ztzyh6dda9","many_one","0","indirect_first","0","ER06LF07","0","28","1","1","3","1","sehr schwer zu verstehen, auf was es bei der schnellen Abfolge von Zeichen und Laut ankommt. Selbstverständlich konzentriere ich mich hierbei eigentlich nur auf das Zeichen, das ich vorher schon gesehen habe und nicht auf den Laut der Aussprache.","0","1","0","1201.1849998962134","","","<img src = 'targets/mask.png' width = '100%;'>","75","pos","CS","CS","2","category2/CS8.png","targets/4.png","1","indirect","9",""
"","html-keyboard-response","130","767961","0.0-8.0-0.10","ztzyh6dda9","many_one","0","indirect_first","0","ER06LF07","0","28","1","1","3","1","sehr schwer zu verstehen, auf was es bei der schnellen Abfolge von Zeichen und Laut ankommt. Selbstverständlich konzentriere ich mich hierbei eigentlich nur auf das Zeichen, das ich vorher schon gesehen habe und nicht auf den Laut der Aussprache.","0","1","0","null","","","<div style=""font-size:60px;"">+</div>","null","","","","","","","","","",""
"","html-keyboard-response","131","768054","0.0-8.0-1.10","ztzyh6dda9","many_one","0","indirect_first","0","ER06LF07","0","28","1","1","3","1","sehr schwer zu verstehen, auf was es bei der schnellen Abfolge von Zeichen und Laut ankommt. Selbstverständlich konzentriere ich mich hierbei eigentlich nur auf das Zeichen, das ich vorher schon gesehen habe und nicht auf den Laut der Aussprache.","0","1","0","null","","","<img src = 'category2/CS4.png' width = '100%;'>","null","","","","","","","","","",""
"","html-keyboard-response","132","768317","0.0-8.0-2.10","ztzyh6dda9","many_one","0","indirect_first","0","ER06LF07","0","28","1","1","3","1","sehr schwer zu verstehen, auf was es bei der schnellen Abfolge von Zeichen und Laut ankommt. Selbstverständlich konzentriere ich mich hierbei eigentlich nur auf das Zeichen, das ich vorher schon gesehen habe und nicht auf den Laut der Aussprache.","0","1","0","null","","","<img src = 'targets/28.png' width = '100%;'>","null","","","","","","","","","",""
"","html-keyboard-response","133","769599","0.0-8.0-3.10","ztzyh6dda9","many_one","0","indirect_first","0","ER06LF07","0","28","1","1","3","1","sehr schwer zu verstehen, auf was es bei der schnellen Abfolge von Zeichen und Laut ankommt. Selbstverständlich konzentriere ich mich hierbei eigentlich nur auf das Zeichen, das ich vorher schon gesehen habe und nicht auf den Laut der Aussprache.","0","1","0","1279.7600000631064","","","<img src = 'targets/mask.png' width = '100%;'>","75","pos","CS","CS","2","category2/CS4.png","targets/28.png","1","indirect","10",""
"","html-keyboard-response","134","771120","0.0-8.0-0.11","ztzyh6dda9","many_one","0","indirect_first","0","ER06LF07","0","28","1","1","3","1","sehr schwer zu verstehen, auf was es bei der schnellen Abfolge von Zeichen und Laut ankommt. Selbstverständlich konzentriere ich mich hierbei eigentlich nur auf das Zeichen, das ich vorher schon gesehen habe und nicht auf den Laut der Aussprache.","0","1","0","null","","","<div style=""font-size:60px;"">+</div>","null","","","","","","","","","",""
"","html-keyboard-response","135","771219","0.0-8.0-1.11","ztzyh6dda9","many_one","0","indirect_first","0","ER06LF07","0","28","1","1","3","1","sehr schwer zu verstehen, auf was es bei der schnellen Abfolge von Zeichen und Laut ankommt. Selbstverständlich konzentriere ich mich hierbei eigentlich nur auf das Zeichen, das ich vorher schon gesehen habe und nicht auf den Laut der Aussprache.","0","1","0","null","","","<img src = 'category3/CS3.png' width = '100%;'>","null","","","","","","","","","",""
"","html-keyboard-response","136","771499","0.0-8.0-2.11","ztzyh6dda9","many_one","0","indirect_first","0","ER06LF07","0","28","1","1","3","1","sehr schwer zu verstehen, auf was es bei der schnellen Abfolge von Zeichen und Laut ankommt. Selbstverständlich konzentriere ich mich hierbei eigentlich nur auf das Zeichen, das ich vorher schon gesehen habe und nicht auf den Laut der Aussprache.","0","1","0","null","","","<img src = 'targets/20.png' width = '100%;'>","null","","","","","","","","","",""
"","html-keyboard-response","137","772278","0.0-8.0-3.11","ztzyh6dda9","many_one","0","indirect_first","0","ER06LF07","0","28","1","1","3","1","sehr schwer zu verstehen, auf was es bei der schnellen Abfolge von Zeichen und Laut ankommt. Selbstverständlich konzentriere ich mich hierbei eigentlich nur auf das Zeichen, das ich vorher schon gesehen habe und nicht auf den Laut der Aussprache.","0","1","0","776.9850001204759","","","<img src = 'targets/mask.png' width = '100%;'>","75","pos","GS","GSold","3","category3/CS3.png","targets/20.png","1","indirect","11",""
"","html-keyboard-response","138","773799","0.0-8.0-0.12","ztzyh6dda9","many_one","0","indirect_first","0","ER06LF07","0","28","1","1","3","1","sehr schwer zu verstehen, auf was es bei der schnellen Abfolge von Zeichen und Laut ankommt. Selbstverständlich konzentriere ich mich hierbei eigentlich nur auf das Zeichen, das ich vorher schon gesehen habe und nicht auf den Laut der Aussprache.","0","1","0","null","","","<div style=""font-size:60px;"">+</div>","null","","","","","","","","","",""
"","html-keyboard-response","139","773902","0.0-8.0-1.12","ztzyh6dda9","many_one","0","indirect_first","0","ER06LF07","0","28","1","1","3","1","sehr schwer zu verstehen, auf was es bei der schnellen Abfolge von Zeichen und Laut ankommt. Selbstverständlich konzentriere ich mich hierbei eigentlich nur auf das Zeichen, das ich vorher schon gesehen habe und nicht auf den Laut der Aussprache.","0","1","0","null","","","<img src = 'category1/CS6.png' width = '100%;'>","null","","","","","","","","","",""
"","html-keyboard-response","140","774168","0.0-8.0-2.12","ztzyh6dda9","many_one","0","indirect_first","0","ER06LF07","0","28","1","1","3","1","sehr schwer zu verstehen, auf was es bei der schnellen Abfolge von Zeichen und Laut ankommt. Selbstverständlich konzentriere ich mich hierbei eigentlich nur auf das Zeichen, das ich vorher schon gesehen habe und nicht auf den Laut der Aussprache.","0","1","0","null","","","<img src = 'targets/29.png' width = '100%;'>","null","","","","","","","","","",""
"","html-keyboard-response","141","775071","0.0-8.0-3.12","ztzyh6dda9","many_one","0","indirect_first","0","ER06LF07","0","28","1","1","3","1","sehr schwer zu verstehen, auf was es bei der schnellen Abfolge von Zeichen und Laut ankommt. Selbstverständlich konzentriere ich mich hierbei eigentlich nur auf das Zeichen, das ich vorher schon gesehen habe und nicht auf den Laut der Aussprache.","0","1","0","901.029999833554","","","<img src = 'targets/mask.png' width = '100%;'>","68","neg","CS","CS","1","category1/CS6.png","targets/29.png","0","indirect","12",""
"","html-keyboard-response","142","776583","0.0-8.0-0.13","ztzyh6dda9","many_one","0","indirect_first","0","ER06LF07","0","28","1","1","3","1","sehr schwer zu verstehen, auf was es bei der schnellen Abfolge von Zeichen und Laut ankommt. Selbstverständlich konzentriere ich mich hierbei eigentlich nur auf das Zeichen, das ich vorher schon gesehen habe und nicht auf den Laut der Aussprache.","0","1","0","null","","","<div style=""font-size:60px;"">+</div>","null","","","","","","","","","",""
"","html-keyboard-response","143","776685","0.0-8.0-1.13","ztzyh6dda9","many_one","0","indirect_first","0","ER06LF07","0","28","1","1","3","1","sehr schwer zu verstehen, auf was es bei der schnellen Abfolge von Zeichen und Laut ankommt. Selbstverständlich konzentriere ich mich hierbei eigentlich nur auf das Zeichen, das ich vorher schon gesehen habe und nicht auf den Laut der Aussprache.","0","1","0","null","","","<img src = 'category1/CS9.png' width = '100%;'>","null","","","","","","","","","",""
"","html-keyboard-response","144","776951","0.0-8.0-2.13","ztzyh6dda9","many_one","0","indirect_first","0","ER06LF07","0","28","1","1","3","1","sehr schwer zu verstehen, auf was es bei der schnellen Abfolge von Zeichen und Laut ankommt. Selbstverständlich konzentriere ich mich hierbei eigentlich nur auf das Zeichen, das ich vorher schon gesehen habe und nicht auf den Laut der Aussprache.","0","1","0","null","","","<img src = 'targets/9.png' width = '100%;'>","null","","","","","","","","","",""
"","html-keyboard-response","145","782209","0.0-8.0-3.13","ztzyh6dda9","many_one","0","indirect_first","0","ER06LF07","0","28","1","1","3","1","sehr schwer zu verstehen, auf was es bei der schnellen Abfolge von Zeichen und Laut ankommt. Selbstverständlich konzentriere ich mich hierbei eigentlich nur auf das Zeichen, das ich vorher schon gesehen habe und nicht auf den Laut der Aussprache.","0","1","0","5255.889999913052","","","<img src = 'targets/mask.png' width = '100%;'>","68","neg","CS","CS","1","category1/CS9.png","targets/9.png","0","indirect","13",""
"","html-keyboard-response","146","783713","0.0-8.0-0.14","ztzyh6dda9","many_one","0","indirect_first","0","ER06LF07","0","28","1","1","3","1","sehr schwer zu verstehen, auf was es bei der schnellen Abfolge von Zeichen und Laut ankommt. Selbstverständlich konzentriere ich mich hierbei eigentlich nur auf das Zeichen, das ich vorher schon gesehen habe und nicht auf den Laut der Aussprache.","0","1","0","null","","","<div style=""font-size:60px;"">+</div>","null","","","","","","","","","",""
"","html-keyboard-response","147","783818","0.0-8.0-1.14","ztzyh6dda9","many_one","0","indirect_first","0","ER06LF07","0","28","1","1","3","1","sehr schwer zu verstehen, auf was es bei der schnellen Abfolge von Zeichen und Laut ankommt. Selbstverständlich konzentriere ich mich hierbei eigentlich nur auf das Zeichen, das ich vorher schon gesehen habe und nicht auf den Laut der Aussprache.","0","1","0","null","","","<img src = 'category1/CS5.png' width = '100%;'>","null","","","","","","","","","",""
"","html-keyboard-response","148","784076","0.0-8.0-2.14","ztzyh6dda9","many_one","0","indirect_first","0","ER06LF07","0","28","1","1","3","1","sehr schwer zu verstehen, auf was es bei der schnellen Abfolge von Zeichen und Laut ankommt. Selbstverständlich konzentriere ich mich hierbei eigentlich nur auf das Zeichen, das ich vorher schon gesehen habe und nicht auf den Laut der Aussprache.","0","1","0","null","","","<img src = 'targets/34.png' width = '100%;'>","null","","","","","","","","","",""
"","html-keyboard-response","149","785368","0.0-8.0-3.14","ztzyh6dda9","many_one","0","indirect_first","0","ER06LF07","0","28","1","1","3","1","sehr schwer zu verstehen, auf was es bei der schnellen Abfolge von Zeichen und Laut ankommt. Selbstverständlich konzentriere ich mich hierbei eigentlich nur auf das Zeichen, das ich vorher schon gesehen habe und nicht auf den Laut der Aussprache.","0","1","0","1289.030000101775","","","<img src = 'targets/mask.png' width = '100%;'>","68","neg","CS","CS","1","category1/CS5.png","targets/34.png","0","indirect","14",""
"","html-keyboard-response","150","786887","0.0-8.0-0.15","ztzyh6dda9","many_one","0","indirect_first","0","ER06LF07","0","28","1","1","3","1","sehr schwer zu verstehen, auf was es bei der schnellen Abfolge von Zeichen und Laut ankommt. Selbstverständlich konzentriere ich mich hierbei eigentlich nur auf das Zeichen, das ich vorher schon gesehen habe und nicht auf den Laut der Aussprache.","0","1","0","null","","","<div style=""font-size:60px;"">+</div>","null","","","","","","","","","",""
"","html-keyboard-response","151","786986","0.0-8.0-1.15","ztzyh6dda9","many_one","0","indirect_first","0","ER06LF07","0","28","1","1","3","1","sehr schwer zu verstehen, auf was es bei der schnellen Abfolge von Zeichen und Laut ankommt. Selbstverständlich konzentriere ich mich hierbei eigentlich nur auf das Zeichen, das ich vorher schon gesehen habe und nicht auf den Laut der Aussprache.","0","1","0","null","","","<img src = 'category1/CS8.png' width = '100%;'>","null","","","","","","","","","",""
"","html-keyboard-response","152","787251","0.0-8.0-2.15","ztzyh6dda9","many_one","0","indirect_first","0","ER06LF07","0","28","1","1","3","1","sehr schwer zu verstehen, auf was es bei der schnellen Abfolge von Zeichen und Laut ankommt. Selbstverständlich konzentriere ich mich hierbei eigentlich nur auf das Zeichen, das ich vorher schon gesehen habe und nicht auf den Laut der Aussprache.","0","1","0","null","","","<img src = 'targets/17.png' width = '100%;'>","null","","","","","","","","","",""
"","html-keyboard-response","153","788296","0.0-8.0-3.15","ztzyh6dda9","many_one","0","indirect_first","0","ER06LF07","0","28","1","1","3","1","sehr schwer zu verstehen, auf was es bei der schnellen Abfolge von Zeichen und Laut ankommt. Selbstverständlich konzentriere ich mich hierbei eigentlich nur auf das Zeichen, das ich vorher schon gesehen habe und nicht auf den Laut der Aussprache.","0","1","0","1044.1449999343604","","","<img src = 'targets/mask.png' width = '100%;'>","68","neg","CS","CS","1","category1/CS8.png","targets/17.png","0","indirect","15",""
"","html-keyboard-response","154","789825","0.0-8.0-0.16","ztzyh6dda9","many_one","0","indirect_first","0","ER06LF07","0","28","1","1","3","1","sehr schwer zu verstehen, auf was es bei der schnellen Abfolge von Zeichen und Laut ankommt. Selbstverständlich konzentriere ich mich hierbei eigentlich nur auf das Zeichen, das ich vorher schon gesehen habe und nicht auf den Laut der Aussprache.","0","1","0","null","","","<div style=""font-size:60px;"">+</div>","null","","","","","","","","","",""
"","html-keyboard-response","155","789920","0.0-8.0-1.16","ztzyh6dda9","many_one","0","indirect_first","0","ER06LF07","0","28","1","1","3","1","sehr schwer zu verstehen, auf was es bei der schnellen Abfolge von Zeichen und Laut ankommt. Selbstverständlich konzentriere ich mich hierbei eigentlich nur auf das Zeichen, das ich vorher schon gesehen habe und nicht auf den Laut der Aussprache.","0","1","0","null","","","<img src = 'category1/CS10.png' width = '100%;'>","null","","","","","","","","","",""
"","html-keyboard-response","156","790185","0.0-8.0-2.16","ztzyh6dda9","many_one","0","indirect_first","0","ER06LF07","0","28","1","1","3","1","sehr schwer zu verstehen, auf was es bei der schnellen Abfolge von Zeichen und Laut ankommt. Selbstverständlich konzentriere ich mich hierbei eigentlich nur auf das Zeichen, das ich vorher schon gesehen habe und nicht auf den Laut der Aussprache.","0","1","0","null","","","<img src = 'targets/1.png' width = '100%;'>","null","","","","","","","","","",""
"","html-keyboard-response","157","791969","0.0-8.0-3.16","ztzyh6dda9","many_one","0","indirect_first","0","ER06LF07","0","28","1","1","3","1","sehr schwer zu verstehen, auf was es bei der schnellen Abfolge von Zeichen und Laut ankommt. Selbstverständlich konzentriere ich mich hierbei eigentlich nur auf das Zeichen, das ich vorher schon gesehen habe und nicht auf den Laut der Aussprache.","0","1","0","1781.565000070259","","","<img src = 'targets/mask.png' width = '100%;'>","68","neg","GS","GSold","1","category1/CS10.png","targets/1.png","0","indirect","16",""
"","html-keyboard-response","158","793491","0.0-8.0-0.17","ztzyh6dda9","many_one","0","indirect_first","0","ER06LF07","0","28","1","1","3","1","sehr schwer zu verstehen, auf was es bei der schnellen Abfolge von Zeichen und Laut ankommt. Selbstverständlich konzentriere ich mich hierbei eigentlich nur auf das Zeichen, das ich vorher schon gesehen habe und nicht auf den Laut der Aussprache.","0","1","0","null","","","<div style=""font-size:60px;"">+</div>","null","","","","","","","","","",""
"","html-keyboard-response","159","793586","0.0-8.0-1.17","ztzyh6dda9","many_one","0","indirect_first","0","ER06LF07","0","28","1","1","3","1","sehr schwer zu verstehen, auf was es bei der schnellen Abfolge von Zeichen und Laut ankommt. Selbstverständlich konzentriere ich mich hierbei eigentlich nur auf das Zeichen, das ich vorher schon gesehen habe und nicht auf den Laut der Aussprache.","0","1","0","null","","","<img src = 'category3/CS1.png' width = '100%;'>","null","","","","","","","","","",""
"","html-keyboard-response","160","793850","0.0-8.0-2.17","ztzyh6dda9","many_one","0","indirect_first","0","ER06LF07","0","28","1","1","3","1","sehr schwer zu verstehen, auf was es bei der schnellen Abfolge von Zeichen und Laut ankommt. Selbstverständlich konzentriere ich mich hierbei eigentlich nur auf das Zeichen, das ich vorher schon gesehen habe und nicht auf den Laut der Aussprache.","0","1","0","null","","","<img src = 'targets/42.png' width = '100%;'>","null","","","","","","","","","",""
"","html-keyboard-response","161","794298","0.0-8.0-3.17","ztzyh6dda9","many_one","0","indirect_first","0","ER06LF07","0","28","1","1","3","1","sehr schwer zu verstehen, auf was es bei der schnellen Abfolge von Zeichen und Laut ankommt. Selbstverständlich konzentriere ich mich hierbei eigentlich nur auf das Zeichen, das ich vorher schon gesehen habe und nicht auf den Laut der Aussprache.","0","1","0","445.88999985717237","","","<img src = 'targets/mask.png' width = '100%;'>","75","pos","CS","CS","3","category3/CS1.png","targets/42.png","1","indirect","17",""
"","html-keyboard-response","162","795809","0.0-8.0-0.18","ztzyh6dda9","many_one","0","indirect_first","0","ER06LF07","0","28","1","1","3","1","sehr schwer zu verstehen, auf was es bei der schnellen Abfolge von Zeichen und Laut ankommt. Selbstverständlich konzentriere ich mich hierbei eigentlich nur auf das Zeichen, das ich vorher schon gesehen habe und nicht auf den Laut der Aussprache.","0","1","0","null","","","<div style=""font-size:60px;"">+</div>","null","","","","","","","","","",""
"","html-keyboard-response","163","795903","0.0-8.0-1.18","ztzyh6dda9","many_one","0","indirect_first","0","ER06LF07","0","28","1","1","3","1","sehr schwer zu verstehen, auf was es bei der schnellen Abfolge von Zeichen und Laut ankommt. Selbstverständlich konzentriere ich mich hierbei eigentlich nur auf das Zeichen, das ich vorher schon gesehen habe und nicht auf den Laut der Aussprache.","0","1","0","null","","","<img src = 'category1/CS4.png' width = '100%;'>","null","","","","","","","","","",""
"","html-keyboard-response","164","796168","0.0-8.0-2.18","ztzyh6dda9","many_one","0","indirect_first","0","ER06LF07","0","28","1","1","3","1","sehr schwer zu verstehen, auf was es bei der schnellen Abfolge von Zeichen und Laut ankommt. Selbstverständlich konzentriere ich mich hierbei eigentlich nur auf das Zeichen, das ich vorher schon gesehen habe und nicht auf den Laut der Aussprache.","0","1","0","null","","","<img src = 'targets/10.png' width = '100%;'>","null","","","","","","","","","",""
"","html-keyboard-response","165","796649","0.0-8.0-3.18","ztzyh6dda9","many_one","0","indirect_first","0","ER06LF07","0","28","1","1","3","1","sehr schwer zu verstehen, auf was es bei der schnellen Abfolge von Zeichen und Laut ankommt. Selbstverständlich konzentriere ich mich hierbei eigentlich nur auf das Zeichen, das ich vorher schon gesehen habe und nicht auf den Laut der Aussprache.","0","1","0","478.7950001191348","","","<img src = 'targets/mask.png' width = '100%;'>","68","neg","GS","GSold","1","category1/CS4.png","targets/10.png","0","indirect","18",""
"","html-keyboard-response","166","798174","0.0-8.0-0.19","ztzyh6dda9","many_one","0","indirect_first","0","ER06LF07","0","28","1","1","3","1","sehr schwer zu verstehen, auf was es bei der schnellen Abfolge von Zeichen und Laut ankommt. Selbstverständlich konzentriere ich mich hierbei eigentlich nur auf das Zeichen, das ich vorher schon gesehen habe und nicht auf den Laut der Aussprache.","0","1","0","null","","","<div style=""font-size:60px;"">+</div>","null","","","","","","","","","",""
"","html-keyboard-response","167","798269","0.0-8.0-1.19","ztzyh6dda9","many_one","0","indirect_first","0","ER06LF07","0","28","1","1","3","1","sehr schwer zu verstehen, auf was es bei der schnellen Abfolge von Zeichen und Laut ankommt. Selbstverständlich konzentriere ich mich hierbei eigentlich nur auf das Zeichen, das ich vorher schon gesehen habe und nicht auf den Laut der Aussprache.","0","1","0","null","","","<img src = 'category1/CS7.png' width = '100%;'>","null","","","","","","","","","",""
"","html-keyboard-response","168","798535","0.0-8.0-2.19","ztzyh6dda9","many_one","0","indirect_first","0","ER06LF07","0","28","1","1","3","1","sehr schwer zu verstehen, auf was es bei der schnellen Abfolge von Zeichen und Laut ankommt. Selbstverständlich konzentriere ich mich hierbei eigentlich nur auf das Zeichen, das ich vorher schon gesehen habe und nicht auf den Laut der Aussprache.","0","1","0","null","","","<img src = 'targets/3.png' width = '100%;'>","null","","","","","","","","","",""
"","html-keyboard-response","169","799130","0.0-8.0-3.19","ztzyh6dda9","many_one","0","indirect_first","0","ER06LF07","0","28","1","1","3","1","sehr schwer zu verstehen, auf was es bei der schnellen Abfolge von Zeichen und Laut ankommt. Selbstverständlich konzentriere ich mich hierbei eigentlich nur auf das Zeichen, das ich vorher schon gesehen habe und nicht auf den Laut der Aussprache.","0","1","0","593.044999986887","","","<img src = 'targets/mask.png' width = '100%;'>","68","neg","GS","GSold","1","category1/CS7.png","targets/3.png","0","indirect","19",""
