"success","trial_type","trial_index","time_elapsed","internal_node_id","subject","condition","condition_code","measure","measure_code","codeword","gender","age","education","chinese","fach","handedness","comment","hinschauen","ablenkung","gewissenhaft","rt","url","responses","stimulus","key_press","val","type","type_specific","category","cs_selected","target","indirect","task","nr_pres","response"
"true","fullscreen","0","5145","0.0-0.0","bqruwhfz9e","many_one","0","indirect_first","0","ka07ar16","0","24","1","0","3","2","Bei manchen Zeichen sind mir die Bilder vor mein Auge gesprungen und bei manchen lag es daran welche Bilder ich selber in den Zeichen gesehen habe, um sie als angenhem  / unangenehm zu empfinden.","0","1","0","","","","","","","","","","","","","","",""
"","external-html","1","9382","0.0-1.0","bqruwhfz9e","many_one","0","indirect_first","0","ka07ar16","0","24","1","0","3","2","Bei manchen Zeichen sind mir die Bilder vor mein Auge gesprungen und bei manchen lag es daran welche Bilder ich selber in den Zeichen gesehen habe, um sie als angenhem  / unangenehm zu empfinden.","0","1","0","4189","text/information.html","","","","","","","","","","","","",""
"","external-html","2","39414","0.0-2.0","bqruwhfz9e","many_one","0","indirect_first","0","ka07ar16","0","24","1","0","3","2","Bei manchen Zeichen sind mir die Bilder vor mein Auge gesprungen und bei manchen lag es daran welche Bilder ich selber in den Zeichen gesehen habe, um sie als angenhem  / unangenehm zu empfinden.","0","1","0","29960","text/consent.html","","","","","","","","","","","","",""
"","survey-html-form","3","146956","0.0-3.0","bqruwhfz9e","many_one","0","indirect_first","0","ka07ar16","0","24","1","0","3","2","Bei manchen Zeichen sind mir die Bilder vor mein Auge gesprungen und bei manchen lag es daran welche Bilder ich selber in den Zeichen gesehen habe, um sie als angenhem  / unangenehm zu empfinden.","0","1","0","107537","","{""codeword_enter"":""ka07ar16""}","","","","","","","","","","","",""
"","survey-html-form","4","191957","0.0-4.0","bqruwhfz9e","many_one","0","indirect_first","0","ka07ar16","0","24","1","0","3","2","Bei manchen Zeichen sind mir die Bilder vor mein Auge gesprungen und bei manchen lag es daran welche Bilder ich selber in den Zeichen gesehen habe, um sie als angenhem  / unangenehm zu empfinden.","0","1","0","44999","","{""age"":""24"",""education"":""1"",""subject"":""3"",""gender"":""0"",""handedness"":""2"",""chinese"":""0""}","","","","","","","","","","","",""
"","survey-html-form","5","207989","0.0-5.0","bqruwhfz9e","many_one","0","indirect_first","0","ka07ar16","0","24","1","0","3","2","Bei manchen Zeichen sind mir die Bilder vor mein Auge gesprungen und bei manchen lag es daran welche Bilder ich selber in den Zeichen gesehen habe, um sie als angenhem  / unangenehm zu empfinden.","0","1","0","16031","","{}","","","","","","","","","","","",""
"","html-keyboard-response","6","212016","0.0-6.0-0.0-0.0","bqruwhfz9e","many_one","0","indirect_first","0","ka07ar16","0","24","1","0","3","2","Bei manchen Zeichen sind mir die Bilder vor mein Auge gesprungen und bei manchen lag es daran welche Bilder ich selber in den Zeichen gesehen habe, um sie als angenhem  / unangenehm zu empfinden.","0","1","0","null","","","<div class = 'row'><div class = 'column'><img src = 'category2/CS7.png' width = '70%;'></div><div class = 'column'><img src = 'uspos/7325.bmp' width = '100%;'></div></div>","null","pos","CS","CS","2","category2/CS7.png","","","","",""
"","html-keyboard-response","7","214545","0.0-6.0-0.0-0.1","bqruwhfz9e","many_one","0","indirect_first","0","ka07ar16","0","24","1","0","3","2","Bei manchen Zeichen sind mir die Bilder vor mein Auge gesprungen und bei manchen lag es daran welche Bilder ich selber in den Zeichen gesehen habe, um sie als angenhem  / unangenehm zu empfinden.","0","1","0","null","","","<div class = 'row'><div class = 'column'><img src = 'usneg/6020.bmp' width = '100%;'></div><div class = 'column'><img src = 'category4/CS9.png' width = '70%;'></div></div>","null","neg","CS","CS","4","category4/CS9.png","","","","",""
"","html-keyboard-response","8","217085","0.0-6.0-0.0-0.2","bqruwhfz9e","many_one","0","indirect_first","0","ka07ar16","0","24","1","0","3","2","Bei manchen Zeichen sind mir die Bilder vor mein Auge gesprungen und bei manchen lag es daran welche Bilder ich selber in den Zeichen gesehen habe, um sie als angenhem  / unangenehm zu empfinden.","0","1","0","null","","","<div class = 'row'><div class = 'column'><img src = 'uspos/2360.bmp' width = '100%;'></div><div class = 'column'><img src = 'category1/CS7.png' width = '70%;'></div></div>","null","pos","CS","CS","1","category1/CS7.png","","","","",""
"","html-keyboard-response","9","219614","0.0-6.0-0.0-0.3","bqruwhfz9e","many_one","0","indirect_first","0","ka07ar16","0","24","1","0","3","2","Bei manchen Zeichen sind mir die Bilder vor mein Auge gesprungen und bei manchen lag es daran welche Bilder ich selber in den Zeichen gesehen habe, um sie als angenhem  / unangenehm zu empfinden.","0","1","0","null","","","<div class = 'row'><div class = 'column'><img src = 'uspos/1463.bmp' width = '100%;'></div><div class = 'column'><img src = 'category1/CS10.png' width = '70%;'></div></div>","null","pos","CS","CS","1","category1/CS10.png","","","","",""
"","html-keyboard-response","10","222156","0.0-6.0-0.0-0.4","bqruwhfz9e","many_one","0","indirect_first","0","ka07ar16","0","24","1","0","3","2","Bei manchen Zeichen sind mir die Bilder vor mein Auge gesprungen und bei manchen lag es daran welche Bilder ich selber in den Zeichen gesehen habe, um sie als angenhem  / unangenehm zu empfinden.","0","1","0","null","","","<div class = 'row'><div class = 'column'><img src = 'category4/CS5.png' width = '70%;'></div><div class = 'column'><img src = 'usneg/9340.bmp' width = '100%;'></div></div>","null","neg","CS","CS","4","category4/CS5.png","","","","",""
"","html-keyboard-response","11","224685","0.0-6.0-0.0-0.5","bqruwhfz9e","many_one","0","indirect_first","0","ka07ar16","0","24","1","0","3","2","Bei manchen Zeichen sind mir die Bilder vor mein Auge gesprungen und bei manchen lag es daran welche Bilder ich selber in den Zeichen gesehen habe, um sie als angenhem  / unangenehm zu empfinden.","0","1","0","null","","","<div class = 'row'><div class = 'column'><img src = 'category3/CS2.png' width = '70%;'></div><div class = 'column'><img src = 'usneg/9220.bmp' width = '100%;'></div></div>","null","neg","CS","CS","3","category3/CS2.png","","","","",""
"","html-keyboard-response","12","227215","0.0-6.0-0.0-0.6","bqruwhfz9e","many_one","0","indirect_first","0","ka07ar16","0","24","1","0","3","2","Bei manchen Zeichen sind mir die Bilder vor mein Auge gesprungen und bei manchen lag es daran welche Bilder ich selber in den Zeichen gesehen habe, um sie als angenhem  / unangenehm zu empfinden.","0","1","0","null","","","<div class = 'row'><div class = 'column'><img src = 'uspos/2340.bmp' width = '100%;'></div><div class = 'column'><img src = 'category1/CS6.png' width = '70%;'></div></div>","null","pos","CS","CS","1","category1/CS6.png","","","","",""
"","html-keyboard-response","13","229740","0.0-6.0-0.0-0.7","bqruwhfz9e","many_one","0","indirect_first","0","ka07ar16","0","24","1","0","3","2","Bei manchen Zeichen sind mir die Bilder vor mein Auge gesprungen und bei manchen lag es daran welche Bilder ich selber in den Zeichen gesehen habe, um sie als angenhem  / unangenehm zu empfinden.","0","1","0","null","","","<div class = 'row'><div class = 'column'><img src = 'category2/CS2.png' width = '70%;'></div><div class = 'column'><img src = 'uspos/2058.bmp' width = '100%;'></div></div>","null","pos","CS","CS","2","category2/CS2.png","","","","",""
"","html-keyboard-response","14","232245","0.0-6.0-0.0-0.8","bqruwhfz9e","many_one","0","indirect_first","0","ka07ar16","0","24","1","0","3","2","Bei manchen Zeichen sind mir die Bilder vor mein Auge gesprungen und bei manchen lag es daran welche Bilder ich selber in den Zeichen gesehen habe, um sie als angenhem  / unangenehm zu empfinden.","0","1","0","null","","","<div class = 'row'><div class = 'column'><img src = 'category4/CS8.png' width = '70%;'></div><div class = 'column'><img src = 'usneg/2900.bmp' width = '100%;'></div></div>","null","neg","CS","CS","4","category4/CS8.png","","","","",""
"","html-keyboard-response","15","234784","0.0-6.0-0.0-0.9","bqruwhfz9e","many_one","0","indirect_first","0","ka07ar16","0","24","1","0","3","2","Bei manchen Zeichen sind mir die Bilder vor mein Auge gesprungen und bei manchen lag es daran welche Bilder ich selber in den Zeichen gesehen habe, um sie als angenhem  / unangenehm zu empfinden.","0","1","0","null","","","<div class = 'row'><div class = 'column'><img src = 'category2/CS1.png' width = '70%;'></div><div class = 'column'><img src = 'uspos/2530.bmp' width = '100%;'></div></div>","null","pos","CS","CS","2","category2/CS1.png","","","","",""
"","html-keyboard-response","16","237314","0.0-6.0-0.0-0.10","bqruwhfz9e","many_one","0","indirect_first","0","ka07ar16","0","24","1","0","3","2","Bei manchen Zeichen sind mir die Bilder vor mein Auge gesprungen und bei manchen lag es daran welche Bilder ich selber in den Zeichen gesehen habe, um sie als angenhem  / unangenehm zu empfinden.","0","1","0","null","","","<div class = 'row'><div class = 'column'><img src = 'category3/CS6.png' width = '70%;'></div><div class = 'column'><img src = 'usneg/9000.bmp' width = '100%;'></div></div>","null","neg","CS","CS","3","category3/CS6.png","","","","",""
"","html-keyboard-response","17","239844","0.0-6.0-0.0-0.11","bqruwhfz9e","many_one","0","indirect_first","0","ka07ar16","0","24","1","0","3","2","Bei manchen Zeichen sind mir die Bilder vor mein Auge gesprungen und bei manchen lag es daran welche Bilder ich selber in den Zeichen gesehen habe, um sie als angenhem  / unangenehm zu empfinden.","0","1","0","null","","","<div class = 'row'><div class = 'column'><img src = 'uspos/5700.bmp' width = '100%;'></div><div class = 'column'><img src = 'category2/CS9.png' width = '70%;'></div></div>","null","pos","CS","CS","2","category2/CS9.png","","","","",""
"","html-keyboard-response","18","242385","0.0-6.0-0.0-0.12","bqruwhfz9e","many_one","0","indirect_first","0","ka07ar16","0","24","1","0","3","2","Bei manchen Zeichen sind mir die Bilder vor mein Auge gesprungen und bei manchen lag es daran welche Bilder ich selber in den Zeichen gesehen habe, um sie als angenhem  / unangenehm zu empfinden.","0","1","0","null","","","<div class = 'row'><div class = 'column'><img src = 'category3/CS10.png' width = '70%;'></div><div class = 'column'><img src = 'usneg/9435.bmp' width = '100%;'></div></div>","null","neg","CS","CS","3","category3/CS10.png","","","","",""
"","html-keyboard-response","19","244914","0.0-6.0-0.0-0.13","bqruwhfz9e","many_one","0","indirect_first","0","ka07ar16","0","24","1","0","3","2","Bei manchen Zeichen sind mir die Bilder vor mein Auge gesprungen und bei manchen lag es daran welche Bilder ich selber in den Zeichen gesehen habe, um sie als angenhem  / unangenehm zu empfinden.","0","1","0","null","","","<div class = 'row'><div class = 'column'><img src = 'usneg/1280.bmp' width = '100%;'></div><div class = 'column'><img src = 'category3/CS5.png' width = '70%;'></div></div>","null","neg","CS","CS","3","category3/CS5.png","","","","",""
"","html-keyboard-response","20","247445","0.0-6.0-0.0-0.14","bqruwhfz9e","many_one","0","indirect_first","0","ka07ar16","0","24","1","0","3","2","Bei manchen Zeichen sind mir die Bilder vor mein Auge gesprungen und bei manchen lag es daran welche Bilder ich selber in den Zeichen gesehen habe, um sie als angenhem  / unangenehm zu empfinden.","0","1","0","null","","","<div class = 'row'><div class = 'column'><img src = 'usneg/9404.bmp' width = '100%;'></div><div class = 'column'><img src = 'category3/CS8.png' width = '70%;'></div></div>","null","neg","CS","CS","3","category3/CS8.png","","","","",""
"","html-keyboard-response","21","249974","0.0-6.0-0.0-0.15","bqruwhfz9e","many_one","0","indirect_first","0","ka07ar16","0","24","1","0","3","2","Bei manchen Zeichen sind mir die Bilder vor mein Auge gesprungen und bei manchen lag es daran welche Bilder ich selber in den Zeichen gesehen habe, um sie als angenhem  / unangenehm zu empfinden.","0","1","0","null","","","<div class = 'row'><div class = 'column'><img src = 'category1/CS4.png' width = '70%;'></div><div class = 'column'><img src = 'uspos/5621.bmp' width = '100%;'></div></div>","null","pos","CS","CS","1","category1/CS4.png","","","","",""
"","html-keyboard-response","22","252514","0.0-6.0-0.0-0.16","bqruwhfz9e","many_one","0","indirect_first","0","ka07ar16","0","24","1","0","3","2","Bei manchen Zeichen sind mir die Bilder vor mein Auge gesprungen und bei manchen lag es daran welche Bilder ich selber in den Zeichen gesehen habe, um sie als angenhem  / unangenehm zu empfinden.","0","1","0","null","","","<div class = 'row'><div class = 'column'><img src = 'category4/CS2.png' width = '70%;'></div><div class = 'column'><img src = 'usneg/9290.bmp' width = '100%;'></div></div>","null","neg","CS","CS","4","category4/CS2.png","","","","",""
"","html-keyboard-response","23","255037","0.0-6.0-0.0-0.17","bqruwhfz9e","many_one","0","indirect_first","0","ka07ar16","0","24","1","0","3","2","Bei manchen Zeichen sind mir die Bilder vor mein Auge gesprungen und bei manchen lag es daran welche Bilder ich selber in den Zeichen gesehen habe, um sie als angenhem  / unangenehm zu empfinden.","0","1","0","null","","","<div class = 'row'><div class = 'column'><img src = 'uspos/5760.bmp' width = '100%;'></div><div class = 'column'><img src = 'category1/CS9.png' width = '70%;'></div></div>","null","pos","CS","CS","1","category1/CS9.png","","","","",""
"","html-keyboard-response","24","257555","0.0-6.0-0.0-0.18","bqruwhfz9e","many_one","0","indirect_first","0","ka07ar16","0","24","1","0","3","2","Bei manchen Zeichen sind mir die Bilder vor mein Auge gesprungen und bei manchen lag es daran welche Bilder ich selber in den Zeichen gesehen habe, um sie als angenhem  / unangenehm zu empfinden.","0","1","0","null","","","<div class = 'row'><div class = 'column'><img src = 'usneg/9635.2.bmp' width = '100%;'></div><div class = 'column'><img src = 'category4/CS7.png' width = '70%;'></div></div>","null","neg","CS","CS","4","category4/CS7.png","","","","",""
"","html-keyboard-response","25","260094","0.0-6.0-0.0-0.19","bqruwhfz9e","many_one","0","indirect_first","0","ka07ar16","0","24","1","0","3","2","Bei manchen Zeichen sind mir die Bilder vor mein Auge gesprungen und bei manchen lag es daran welche Bilder ich selber in den Zeichen gesehen habe, um sie als angenhem  / unangenehm zu empfinden.","0","1","0","null","","","<div class = 'row'><div class = 'column'><img src = 'uspos/1710.bmp' width = '100%;'></div><div class = 'column'><img src = 'category2/CS3.png' width = '70%;'></div></div>","null","pos","CS","CS","2","category2/CS3.png","","","","",""
"","survey-html-form","26","268014","0.0-6.0-1.0","bqruwhfz9e","many_one","0","indirect_first","0","ka07ar16","0","24","1","0","3","2","Bei manchen Zeichen sind mir die Bilder vor mein Auge gesprungen und bei manchen lag es daran welche Bilder ich selber in den Zeichen gesehen habe, um sie als angenhem  / unangenehm zu empfinden.","0","1","0","7409","","{}","","","","","","","","","","","",""
"","html-keyboard-response","27","272035","0.0-6.0-2.0-0.0","bqruwhfz9e","many_one","0","indirect_first","0","ka07ar16","0","24","1","0","3","2","Bei manchen Zeichen sind mir die Bilder vor mein Auge gesprungen und bei manchen lag es daran welche Bilder ich selber in den Zeichen gesehen habe, um sie als angenhem  / unangenehm zu empfinden.","0","1","0","null","","","<div class = 'row'><div class = 'column'><img src = 'category2/CS9.png' width = '70%;'></div><div class = 'column'><img src = 'uspos/5700.bmp' width = '100%;'></div></div>","null","pos","CS","CS","2","category2/CS9.png","","","","",""
"","html-keyboard-response","28","274574","0.0-6.0-2.0-0.1","bqruwhfz9e","many_one","0","indirect_first","0","ka07ar16","0","24","1","0","3","2","Bei manchen Zeichen sind mir die Bilder vor mein Auge gesprungen und bei manchen lag es daran welche Bilder ich selber in den Zeichen gesehen habe, um sie als angenhem  / unangenehm zu empfinden.","0","1","0","null","","","<div class = 'row'><div class = 'column'><img src = 'uspos/1710.bmp' width = '100%;'></div><div class = 'column'><img src = 'category2/CS3.png' width = '70%;'></div></div>","null","pos","CS","CS","2","category2/CS3.png","","","","",""
"","html-keyboard-response","29","277114","0.0-6.0-2.0-0.2","bqruwhfz9e","many_one","0","indirect_first","0","ka07ar16","0","24","1","0","3","2","Bei manchen Zeichen sind mir die Bilder vor mein Auge gesprungen und bei manchen lag es daran welche Bilder ich selber in den Zeichen gesehen habe, um sie als angenhem  / unangenehm zu empfinden.","0","1","0","null","","","<div class = 'row'><div class = 'column'><img src = 'uspos/5760.bmp' width = '100%;'></div><div class = 'column'><img src = 'category1/CS9.png' width = '70%;'></div></div>","null","pos","CS","CS","1","category1/CS9.png","","","","",""
"","html-keyboard-response","30","279654","0.0-6.0-2.0-0.3","bqruwhfz9e","many_one","0","indirect_first","0","ka07ar16","0","24","1","0","3","2","Bei manchen Zeichen sind mir die Bilder vor mein Auge gesprungen und bei manchen lag es daran welche Bilder ich selber in den Zeichen gesehen habe, um sie als angenhem  / unangenehm zu empfinden.","0","1","0","null","","","<div class = 'row'><div class = 'column'><img src = 'category2/CS2.png' width = '70%;'></div><div class = 'column'><img src = 'uspos/2058.bmp' width = '100%;'></div></div>","null","pos","CS","CS","2","category2/CS2.png","","","","",""
"","html-keyboard-response","31","282184","0.0-6.0-2.0-0.4","bqruwhfz9e","many_one","0","indirect_first","0","ka07ar16","0","24","1","0","3","2","Bei manchen Zeichen sind mir die Bilder vor mein Auge gesprungen und bei manchen lag es daran welche Bilder ich selber in den Zeichen gesehen habe, um sie als angenhem  / unangenehm zu empfinden.","0","1","0","null","","","<div class = 'row'><div class = 'column'><img src = 'category3/CS5.png' width = '70%;'></div><div class = 'column'><img src = 'usneg/1280.bmp' width = '100%;'></div></div>","null","neg","CS","CS","3","category3/CS5.png","","","","",""
"","html-keyboard-response","32","284715","0.0-6.0-2.0-0.5","bqruwhfz9e","many_one","0","indirect_first","0","ka07ar16","0","24","1","0","3","2","Bei manchen Zeichen sind mir die Bilder vor mein Auge gesprungen und bei manchen lag es daran welche Bilder ich selber in den Zeichen gesehen habe, um sie als angenhem  / unangenehm zu empfinden.","0","1","0","null","","","<div class = 'row'><div class = 'column'><img src = 'uspos/2360.bmp' width = '100%;'></div><div class = 'column'><img src = 'category1/CS7.png' width = '70%;'></div></div>","null","pos","CS","CS","1","category1/CS7.png","","","","",""
"","html-keyboard-response","33","287254","0.0-6.0-2.0-0.6","bqruwhfz9e","many_one","0","indirect_first","0","ka07ar16","0","24","1","0","3","2","Bei manchen Zeichen sind mir die Bilder vor mein Auge gesprungen und bei manchen lag es daran welche Bilder ich selber in den Zeichen gesehen habe, um sie als angenhem  / unangenehm zu empfinden.","0","1","0","null","","","<div class = 'row'><div class = 'column'><img src = 'uspos/1463.bmp' width = '100%;'></div><div class = 'column'><img src = 'category1/CS10.png' width = '70%;'></div></div>","null","pos","CS","CS","1","category1/CS10.png","","","","",""
"","html-keyboard-response","34","289794","0.0-6.0-2.0-0.7","bqruwhfz9e","many_one","0","indirect_first","0","ka07ar16","0","24","1","0","3","2","Bei manchen Zeichen sind mir die Bilder vor mein Auge gesprungen und bei manchen lag es daran welche Bilder ich selber in den Zeichen gesehen habe, um sie als angenhem  / unangenehm zu empfinden.","0","1","0","null","","","<div class = 'row'><div class = 'column'><img src = 'uspos/2530.bmp' width = '100%;'></div><div class = 'column'><img src = 'category2/CS1.png' width = '70%;'></div></div>","null","pos","CS","CS","2","category2/CS1.png","","","","",""
"","html-keyboard-response","35","292334","0.0-6.0-2.0-0.8","bqruwhfz9e","many_one","0","indirect_first","0","ka07ar16","0","24","1","0","3","2","Bei manchen Zeichen sind mir die Bilder vor mein Auge gesprungen und bei manchen lag es daran welche Bilder ich selber in den Zeichen gesehen habe, um sie als angenhem  / unangenehm zu empfinden.","0","1","0","null","","","<div class = 'row'><div class = 'column'><img src = 'category4/CS9.png' width = '70%;'></div><div class = 'column'><img src = 'usneg/6020.bmp' width = '100%;'></div></div>","null","neg","CS","CS","4","category4/CS9.png","","","","",""
"","html-keyboard-response","36","294865","0.0-6.0-2.0-0.9","bqruwhfz9e","many_one","0","indirect_first","0","ka07ar16","0","24","1","0","3","2","Bei manchen Zeichen sind mir die Bilder vor mein Auge gesprungen und bei manchen lag es daran welche Bilder ich selber in den Zeichen gesehen habe, um sie als angenhem  / unangenehm zu empfinden.","0","1","0","null","","","<div class = 'row'><div class = 'column'><img src = 'usneg/9290.bmp' width = '100%;'></div><div class = 'column'><img src = 'category4/CS2.png' width = '70%;'></div></div>","null","neg","CS","CS","4","category4/CS2.png","","","","",""
"","html-keyboard-response","37","297402","0.0-6.0-2.0-0.10","bqruwhfz9e","many_one","0","indirect_first","0","ka07ar16","0","24","1","0","3","2","Bei manchen Zeichen sind mir die Bilder vor mein Auge gesprungen und bei manchen lag es daran welche Bilder ich selber in den Zeichen gesehen habe, um sie als angenhem  / unangenehm zu empfinden.","0","1","0","null","","","<div class = 'row'><div class = 'column'><img src = 'category3/CS8.png' width = '70%;'></div><div class = 'column'><img src = 'usneg/9404.bmp' width = '100%;'></div></div>","null","neg","CS","CS","3","category3/CS8.png","","","","",""
"","html-keyboard-response","38","299934","0.0-6.0-2.0-0.11","bqruwhfz9e","many_one","0","indirect_first","0","ka07ar16","0","24","1","0","3","2","Bei manchen Zeichen sind mir die Bilder vor mein Auge gesprungen und bei manchen lag es daran welche Bilder ich selber in den Zeichen gesehen habe, um sie als angenhem  / unangenehm zu empfinden.","0","1","0","null","","","<div class = 'row'><div class = 'column'><img src = 'usneg/9340.bmp' width = '100%;'></div><div class = 'column'><img src = 'category4/CS5.png' width = '70%;'></div></div>","null","neg","CS","CS","4","category4/CS5.png","","","","",""
"","html-keyboard-response","39","302475","0.0-6.0-2.0-0.12","bqruwhfz9e","many_one","0","indirect_first","0","ka07ar16","0","24","1","0","3","2","Bei manchen Zeichen sind mir die Bilder vor mein Auge gesprungen und bei manchen lag es daran welche Bilder ich selber in den Zeichen gesehen habe, um sie als angenhem  / unangenehm zu empfinden.","0","1","0","null","","","<div class = 'row'><div class = 'column'><img src = 'category4/CS7.png' width = '70%;'></div><div class = 'column'><img src = 'usneg/9635.2.bmp' width = '100%;'></div></div>","null","neg","CS","CS","4","category4/CS7.png","","","","",""
"","html-keyboard-response","40","305004","0.0-6.0-2.0-0.13","bqruwhfz9e","many_one","0","indirect_first","0","ka07ar16","0","24","1","0","3","2","Bei manchen Zeichen sind mir die Bilder vor mein Auge gesprungen und bei manchen lag es daran welche Bilder ich selber in den Zeichen gesehen habe, um sie als angenhem  / unangenehm zu empfinden.","0","1","0","null","","","<div class = 'row'><div class = 'column'><img src = 'category2/CS7.png' width = '70%;'></div><div class = 'column'><img src = 'uspos/7325.bmp' width = '100%;'></div></div>","null","pos","CS","CS","2","category2/CS7.png","","","","",""
"","html-keyboard-response","41","307530","0.0-6.0-2.0-0.14","bqruwhfz9e","many_one","0","indirect_first","0","ka07ar16","0","24","1","0","3","2","Bei manchen Zeichen sind mir die Bilder vor mein Auge gesprungen und bei manchen lag es daran welche Bilder ich selber in den Zeichen gesehen habe, um sie als angenhem  / unangenehm zu empfinden.","0","1","0","null","","","<div class = 'row'><div class = 'column'><img src = 'usneg/9435.bmp' width = '100%;'></div><div class = 'column'><img src = 'category3/CS10.png' width = '70%;'></div></div>","null","neg","CS","CS","3","category3/CS10.png","","","","",""
"","html-keyboard-response","42","310034","0.0-6.0-2.0-0.15","bqruwhfz9e","many_one","0","indirect_first","0","ka07ar16","0","24","1","0","3","2","Bei manchen Zeichen sind mir die Bilder vor mein Auge gesprungen und bei manchen lag es daran welche Bilder ich selber in den Zeichen gesehen habe, um sie als angenhem  / unangenehm zu empfinden.","0","1","0","null","","","<div class = 'row'><div class = 'column'><img src = 'category3/CS6.png' width = '70%;'></div><div class = 'column'><img src = 'usneg/9000.bmp' width = '100%;'></div></div>","null","neg","CS","CS","3","category3/CS6.png","","","","",""
"","html-keyboard-response","43","312575","0.0-6.0-2.0-0.16","bqruwhfz9e","many_one","0","indirect_first","0","ka07ar16","0","24","1","0","3","2","Bei manchen Zeichen sind mir die Bilder vor mein Auge gesprungen und bei manchen lag es daran welche Bilder ich selber in den Zeichen gesehen habe, um sie als angenhem  / unangenehm zu empfinden.","0","1","0","null","","","<div class = 'row'><div class = 'column'><img src = 'uspos/5621.bmp' width = '100%;'></div><div class = 'column'><img src = 'category1/CS4.png' width = '70%;'></div></div>","null","pos","CS","CS","1","category1/CS4.png","","","","",""
"","html-keyboard-response","44","315115","0.0-6.0-2.0-0.17","bqruwhfz9e","many_one","0","indirect_first","0","ka07ar16","0","24","1","0","3","2","Bei manchen Zeichen sind mir die Bilder vor mein Auge gesprungen und bei manchen lag es daran welche Bilder ich selber in den Zeichen gesehen habe, um sie als angenhem  / unangenehm zu empfinden.","0","1","0","null","","","<div class = 'row'><div class = 'column'><img src = 'usneg/9220.bmp' width = '100%;'></div><div class = 'column'><img src = 'category3/CS2.png' width = '70%;'></div></div>","null","neg","CS","CS","3","category3/CS2.png","","","","",""
"","html-keyboard-response","45","317654","0.0-6.0-2.0-0.18","bqruwhfz9e","many_one","0","indirect_first","0","ka07ar16","0","24","1","0","3","2","Bei manchen Zeichen sind mir die Bilder vor mein Auge gesprungen und bei manchen lag es daran welche Bilder ich selber in den Zeichen gesehen habe, um sie als angenhem  / unangenehm zu empfinden.","0","1","0","null","","","<div class = 'row'><div class = 'column'><img src = 'category1/CS6.png' width = '70%;'></div><div class = 'column'><img src = 'uspos/2340.bmp' width = '100%;'></div></div>","null","pos","CS","CS","1","category1/CS6.png","","","","",""
"","html-keyboard-response","46","320180","0.0-6.0-2.0-0.19","bqruwhfz9e","many_one","0","indirect_first","0","ka07ar16","0","24","1","0","3","2","Bei manchen Zeichen sind mir die Bilder vor mein Auge gesprungen und bei manchen lag es daran welche Bilder ich selber in den Zeichen gesehen habe, um sie als angenhem  / unangenehm zu empfinden.","0","1","0","null","","","<div class = 'row'><div class = 'column'><img src = 'category4/CS8.png' width = '70%;'></div><div class = 'column'><img src = 'usneg/2900.bmp' width = '100%;'></div></div>","null","neg","CS","CS","4","category4/CS8.png","","","","",""
"","survey-html-form","47","323046","0.0-6.0-3.0","bqruwhfz9e","many_one","0","indirect_first","0","ka07ar16","0","24","1","0","3","2","Bei manchen Zeichen sind mir die Bilder vor mein Auge gesprungen und bei manchen lag es daran welche Bilder ich selber in den Zeichen gesehen habe, um sie als angenhem  / unangenehm zu empfinden.","0","1","0","2364","","{}","","","","","","","","","","","",""
"","html-keyboard-response","48","327085","0.0-6.0-4.0-0.0","bqruwhfz9e","many_one","0","indirect_first","0","ka07ar16","0","24","1","0","3","2","Bei manchen Zeichen sind mir die Bilder vor mein Auge gesprungen und bei manchen lag es daran welche Bilder ich selber in den Zeichen gesehen habe, um sie als angenhem  / unangenehm zu empfinden.","0","1","0","null","","","<div class = 'row'><div class = 'column'><img src = 'category1/CS4.png' width = '70%;'></div><div class = 'column'><img src = 'uspos/5621.bmp' width = '100%;'></div></div>","null","pos","CS","CS","1","category1/CS4.png","","","","",""
"","html-keyboard-response","49","329614","0.0-6.0-4.0-0.1","bqruwhfz9e","many_one","0","indirect_first","0","ka07ar16","0","24","1","0","3","2","Bei manchen Zeichen sind mir die Bilder vor mein Auge gesprungen und bei manchen lag es daran welche Bilder ich selber in den Zeichen gesehen habe, um sie als angenhem  / unangenehm zu empfinden.","0","1","0","null","","","<div class = 'row'><div class = 'column'><img src = 'usneg/9435.bmp' width = '100%;'></div><div class = 'column'><img src = 'category3/CS10.png' width = '70%;'></div></div>","null","neg","CS","CS","3","category3/CS10.png","","","","",""
"","html-keyboard-response","50","332155","0.0-6.0-4.0-0.2","bqruwhfz9e","many_one","0","indirect_first","0","ka07ar16","0","24","1","0","3","2","Bei manchen Zeichen sind mir die Bilder vor mein Auge gesprungen und bei manchen lag es daran welche Bilder ich selber in den Zeichen gesehen habe, um sie als angenhem  / unangenehm zu empfinden.","0","1","0","null","","","<div class = 'row'><div class = 'column'><img src = 'category4/CS5.png' width = '70%;'></div><div class = 'column'><img src = 'usneg/9340.bmp' width = '100%;'></div></div>","null","neg","CS","CS","4","category4/CS5.png","","","","",""
"","html-keyboard-response","51","334694","0.0-6.0-4.0-0.3","bqruwhfz9e","many_one","0","indirect_first","0","ka07ar16","0","24","1","0","3","2","Bei manchen Zeichen sind mir die Bilder vor mein Auge gesprungen und bei manchen lag es daran welche Bilder ich selber in den Zeichen gesehen habe, um sie als angenhem  / unangenehm zu empfinden.","0","1","0","null","","","<div class = 'row'><div class = 'column'><img src = 'category2/CS7.png' width = '70%;'></div><div class = 'column'><img src = 'uspos/7325.bmp' width = '100%;'></div></div>","null","pos","CS","CS","2","category2/CS7.png","","","","",""
"","html-keyboard-response","52","337224","0.0-6.0-4.0-0.4","bqruwhfz9e","many_one","0","indirect_first","0","ka07ar16","0","24","1","0","3","2","Bei manchen Zeichen sind mir die Bilder vor mein Auge gesprungen und bei manchen lag es daran welche Bilder ich selber in den Zeichen gesehen habe, um sie als angenhem  / unangenehm zu empfinden.","0","1","0","null","","","<div class = 'row'><div class = 'column'><img src = 'uspos/2360.bmp' width = '100%;'></div><div class = 'column'><img src = 'category1/CS7.png' width = '70%;'></div></div>","null","pos","CS","CS","1","category1/CS7.png","","","","",""
"","html-keyboard-response","53","339744","0.0-6.0-4.0-0.5","bqruwhfz9e","many_one","0","indirect_first","0","ka07ar16","0","24","1","0","3","2","Bei manchen Zeichen sind mir die Bilder vor mein Auge gesprungen und bei manchen lag es daran welche Bilder ich selber in den Zeichen gesehen habe, um sie als angenhem  / unangenehm zu empfinden.","0","1","0","null","","","<div class = 'row'><div class = 'column'><img src = 'category4/CS9.png' width = '70%;'></div><div class = 'column'><img src = 'usneg/6020.bmp' width = '100%;'></div></div>","null","neg","CS","CS","4","category4/CS9.png","","","","",""
"","html-keyboard-response","54","342264","0.0-6.0-4.0-0.6","bqruwhfz9e","many_one","0","indirect_first","0","ka07ar16","0","24","1","0","3","2","Bei manchen Zeichen sind mir die Bilder vor mein Auge gesprungen und bei manchen lag es daran welche Bilder ich selber in den Zeichen gesehen habe, um sie als angenhem  / unangenehm zu empfinden.","0","1","0","null","","","<div class = 'row'><div class = 'column'><img src = 'category4/CS7.png' width = '70%;'></div><div class = 'column'><img src = 'usneg/9635.2.bmp' width = '100%;'></div></div>","null","neg","CS","CS","4","category4/CS7.png","","","","",""
"","html-keyboard-response","55","344805","0.0-6.0-4.0-0.7","bqruwhfz9e","many_one","0","indirect_first","0","ka07ar16","0","24","1","0","3","2","Bei manchen Zeichen sind mir die Bilder vor mein Auge gesprungen und bei manchen lag es daran welche Bilder ich selber in den Zeichen gesehen habe, um sie als angenhem  / unangenehm zu empfinden.","0","1","0","null","","","<div class = 'row'><div class = 'column'><img src = 'usneg/9000.bmp' width = '100%;'></div><div class = 'column'><img src = 'category3/CS6.png' width = '70%;'></div></div>","null","neg","CS","CS","3","category3/CS6.png","","","","",""
"","html-keyboard-response","56","347344","0.0-6.0-4.0-0.8","bqruwhfz9e","many_one","0","indirect_first","0","ka07ar16","0","24","1","0","3","2","Bei manchen Zeichen sind mir die Bilder vor mein Auge gesprungen und bei manchen lag es daran welche Bilder ich selber in den Zeichen gesehen habe, um sie als angenhem  / unangenehm zu empfinden.","0","1","0","null","","","<div class = 'row'><div class = 'column'><img src = 'uspos/1463.bmp' width = '100%;'></div><div class = 'column'><img src = 'category1/CS10.png' width = '70%;'></div></div>","null","pos","CS","CS","1","category1/CS10.png","","","","",""
"","html-keyboard-response","57","349885","0.0-6.0-4.0-0.9","bqruwhfz9e","many_one","0","indirect_first","0","ka07ar16","0","24","1","0","3","2","Bei manchen Zeichen sind mir die Bilder vor mein Auge gesprungen und bei manchen lag es daran welche Bilder ich selber in den Zeichen gesehen habe, um sie als angenhem  / unangenehm zu empfinden.","0","1","0","null","","","<div class = 'row'><div class = 'column'><img src = 'category1/CS6.png' width = '70%;'></div><div class = 'column'><img src = 'uspos/2340.bmp' width = '100%;'></div></div>","null","pos","CS","CS","1","category1/CS6.png","","","","",""
"","html-keyboard-response","58","352414","0.0-6.0-4.0-0.10","bqruwhfz9e","many_one","0","indirect_first","0","ka07ar16","0","24","1","0","3","2","Bei manchen Zeichen sind mir die Bilder vor mein Auge gesprungen und bei manchen lag es daran welche Bilder ich selber in den Zeichen gesehen habe, um sie als angenhem  / unangenehm zu empfinden.","0","1","0","null","","","<div class = 'row'><div class = 'column'><img src = 'category3/CS5.png' width = '70%;'></div><div class = 'column'><img src = 'usneg/1280.bmp' width = '100%;'></div></div>","null","neg","CS","CS","3","category3/CS5.png","","","","",""
"","html-keyboard-response","59","354935","0.0-6.0-4.0-0.11","bqruwhfz9e","many_one","0","indirect_first","0","ka07ar16","0","24","1","0","3","2","Bei manchen Zeichen sind mir die Bilder vor mein Auge gesprungen und bei manchen lag es daran welche Bilder ich selber in den Zeichen gesehen habe, um sie als angenhem  / unangenehm zu empfinden.","0","1","0","null","","","<div class = 'row'><div class = 'column'><img src = 'uspos/2530.bmp' width = '100%;'></div><div class = 'column'><img src = 'category2/CS1.png' width = '70%;'></div></div>","null","pos","CS","CS","2","category2/CS1.png","","","","",""
"","html-keyboard-response","60","357474","0.0-6.0-4.0-0.12","bqruwhfz9e","many_one","0","indirect_first","0","ka07ar16","0","24","1","0","3","2","Bei manchen Zeichen sind mir die Bilder vor mein Auge gesprungen und bei manchen lag es daran welche Bilder ich selber in den Zeichen gesehen habe, um sie als angenhem  / unangenehm zu empfinden.","0","1","0","null","","","<div class = 'row'><div class = 'column'><img src = 'uspos/5760.bmp' width = '100%;'></div><div class = 'column'><img src = 'category1/CS9.png' width = '70%;'></div></div>","null","pos","CS","CS","1","category1/CS9.png","","","","",""
"","html-keyboard-response","61","360004","0.0-6.0-4.0-0.13","bqruwhfz9e","many_one","0","indirect_first","0","ka07ar16","0","24","1","0","3","2","Bei manchen Zeichen sind mir die Bilder vor mein Auge gesprungen und bei manchen lag es daran welche Bilder ich selber in den Zeichen gesehen habe, um sie als angenhem  / unangenehm zu empfinden.","0","1","0","null","","","<div class = 'row'><div class = 'column'><img src = 'category4/CS2.png' width = '70%;'></div><div class = 'column'><img src = 'usneg/9290.bmp' width = '100%;'></div></div>","null","neg","CS","CS","4","category4/CS2.png","","","","",""
"","html-keyboard-response","62","362534","0.0-6.0-4.0-0.14","bqruwhfz9e","many_one","0","indirect_first","0","ka07ar16","0","24","1","0","3","2","Bei manchen Zeichen sind mir die Bilder vor mein Auge gesprungen und bei manchen lag es daran welche Bilder ich selber in den Zeichen gesehen habe, um sie als angenhem  / unangenehm zu empfinden.","0","1","0","null","","","<div class = 'row'><div class = 'column'><img src = 'category4/CS8.png' width = '70%;'></div><div class = 'column'><img src = 'usneg/2900.bmp' width = '100%;'></div></div>","null","neg","CS","CS","4","category4/CS8.png","","","","",""
"","html-keyboard-response","63","365061","0.0-6.0-4.0-0.15","bqruwhfz9e","many_one","0","indirect_first","0","ka07ar16","0","24","1","0","3","2","Bei manchen Zeichen sind mir die Bilder vor mein Auge gesprungen und bei manchen lag es daran welche Bilder ich selber in den Zeichen gesehen habe, um sie als angenhem  / unangenehm zu empfinden.","0","1","0","null","","","<div class = 'row'><div class = 'column'><img src = 'category2/CS3.png' width = '70%;'></div><div class = 'column'><img src = 'uspos/1710.bmp' width = '100%;'></div></div>","null","pos","CS","CS","2","category2/CS3.png","","","","",""
"","html-keyboard-response","64","367575","0.0-6.0-4.0-0.16","bqruwhfz9e","many_one","0","indirect_first","0","ka07ar16","0","24","1","0","3","2","Bei manchen Zeichen sind mir die Bilder vor mein Auge gesprungen und bei manchen lag es daran welche Bilder ich selber in den Zeichen gesehen habe, um sie als angenhem  / unangenehm zu empfinden.","0","1","0","null","","","<div class = 'row'><div class = 'column'><img src = 'usneg/9404.bmp' width = '100%;'></div><div class = 'column'><img src = 'category3/CS8.png' width = '70%;'></div></div>","null","neg","CS","CS","3","category3/CS8.png","","","","",""
"","html-keyboard-response","65","370105","0.0-6.0-4.0-0.17","bqruwhfz9e","many_one","0","indirect_first","0","ka07ar16","0","24","1","0","3","2","Bei manchen Zeichen sind mir die Bilder vor mein Auge gesprungen und bei manchen lag es daran welche Bilder ich selber in den Zeichen gesehen habe, um sie als angenhem  / unangenehm zu empfinden.","0","1","0","null","","","<div class = 'row'><div class = 'column'><img src = 'usneg/9220.bmp' width = '100%;'></div><div class = 'column'><img src = 'category3/CS2.png' width = '70%;'></div></div>","null","neg","CS","CS","3","category3/CS2.png","","","","",""
"","html-keyboard-response","66","372637","0.0-6.0-4.0-0.18","bqruwhfz9e","many_one","0","indirect_first","0","ka07ar16","0","24","1","0","3","2","Bei manchen Zeichen sind mir die Bilder vor mein Auge gesprungen und bei manchen lag es daran welche Bilder ich selber in den Zeichen gesehen habe, um sie als angenhem  / unangenehm zu empfinden.","0","1","0","null","","","<div class = 'row'><div class = 'column'><img src = 'category2/CS9.png' width = '70%;'></div><div class = 'column'><img src = 'uspos/5700.bmp' width = '100%;'></div></div>","null","pos","CS","CS","2","category2/CS9.png","","","","",""
"","html-keyboard-response","67","375165","0.0-6.0-4.0-0.19","bqruwhfz9e","many_one","0","indirect_first","0","ka07ar16","0","24","1","0","3","2","Bei manchen Zeichen sind mir die Bilder vor mein Auge gesprungen und bei manchen lag es daran welche Bilder ich selber in den Zeichen gesehen habe, um sie als angenhem  / unangenehm zu empfinden.","0","1","0","null","","","<div class = 'row'><div class = 'column'><img src = 'category2/CS2.png' width = '70%;'></div><div class = 'column'><img src = 'uspos/2058.bmp' width = '100%;'></div></div>","null","pos","CS","CS","2","category2/CS2.png","","","","",""
"","survey-html-form","68","377149","0.0-6.0-5.0","bqruwhfz9e","many_one","0","indirect_first","0","ka07ar16","0","24","1","0","3","2","Bei manchen Zeichen sind mir die Bilder vor mein Auge gesprungen und bei manchen lag es daran welche Bilder ich selber in den Zeichen gesehen habe, um sie als angenhem  / unangenehm zu empfinden.","0","1","0","1474","","{}","","","","","","","","","","","",""
"","html-keyboard-response","69","381165","0.0-6.0-6.0-0.0","bqruwhfz9e","many_one","0","indirect_first","0","ka07ar16","0","24","1","0","3","2","Bei manchen Zeichen sind mir die Bilder vor mein Auge gesprungen und bei manchen lag es daran welche Bilder ich selber in den Zeichen gesehen habe, um sie als angenhem  / unangenehm zu empfinden.","0","1","0","null","","","<div class = 'row'><div class = 'column'><img src = 'uspos/7325.bmp' width = '100%;'></div><div class = 'column'><img src = 'category2/CS7.png' width = '70%;'></div></div>","null","pos","CS","CS","2","category2/CS7.png","","","","",""
"","html-keyboard-response","70","383694","0.0-6.0-6.0-0.1","bqruwhfz9e","many_one","0","indirect_first","0","ka07ar16","0","24","1","0","3","2","Bei manchen Zeichen sind mir die Bilder vor mein Auge gesprungen und bei manchen lag es daran welche Bilder ich selber in den Zeichen gesehen habe, um sie als angenhem  / unangenehm zu empfinden.","0","1","0","null","","","<div class = 'row'><div class = 'column'><img src = 'uspos/5760.bmp' width = '100%;'></div><div class = 'column'><img src = 'category1/CS9.png' width = '70%;'></div></div>","null","pos","CS","CS","1","category1/CS9.png","","","","",""
"","html-keyboard-response","71","386204","0.0-6.0-6.0-0.2","bqruwhfz9e","many_one","0","indirect_first","0","ka07ar16","0","24","1","0","3","2","Bei manchen Zeichen sind mir die Bilder vor mein Auge gesprungen und bei manchen lag es daran welche Bilder ich selber in den Zeichen gesehen habe, um sie als angenhem  / unangenehm zu empfinden.","0","1","0","null","","","<div class = 'row'><div class = 'column'><img src = 'usneg/9000.bmp' width = '100%;'></div><div class = 'column'><img src = 'category3/CS6.png' width = '70%;'></div></div>","null","neg","CS","CS","3","category3/CS6.png","","","","",""
"","html-keyboard-response","72","388735","0.0-6.0-6.0-0.3","bqruwhfz9e","many_one","0","indirect_first","0","ka07ar16","0","24","1","0","3","2","Bei manchen Zeichen sind mir die Bilder vor mein Auge gesprungen und bei manchen lag es daran welche Bilder ich selber in den Zeichen gesehen habe, um sie als angenhem  / unangenehm zu empfinden.","0","1","0","null","","","<div class = 'row'><div class = 'column'><img src = 'category1/CS6.png' width = '70%;'></div><div class = 'column'><img src = 'uspos/2340.bmp' width = '100%;'></div></div>","null","pos","CS","CS","1","category1/CS6.png","","","","",""
"","html-keyboard-response","73","391265","0.0-6.0-6.0-0.4","bqruwhfz9e","many_one","0","indirect_first","0","ka07ar16","0","24","1","0","3","2","Bei manchen Zeichen sind mir die Bilder vor mein Auge gesprungen und bei manchen lag es daran welche Bilder ich selber in den Zeichen gesehen habe, um sie als angenhem  / unangenehm zu empfinden.","0","1","0","null","","","<div class = 'row'><div class = 'column'><img src = 'category4/CS5.png' width = '70%;'></div><div class = 'column'><img src = 'usneg/9340.bmp' width = '100%;'></div></div>","null","neg","CS","CS","4","category4/CS5.png","","","","",""
"","html-keyboard-response","74","393794","0.0-6.0-6.0-0.5","bqruwhfz9e","many_one","0","indirect_first","0","ka07ar16","0","24","1","0","3","2","Bei manchen Zeichen sind mir die Bilder vor mein Auge gesprungen und bei manchen lag es daran welche Bilder ich selber in den Zeichen gesehen habe, um sie als angenhem  / unangenehm zu empfinden.","0","1","0","null","","","<div class = 'row'><div class = 'column'><img src = 'category3/CS10.png' width = '70%;'></div><div class = 'column'><img src = 'usneg/9435.bmp' width = '100%;'></div></div>","null","neg","CS","CS","3","category3/CS10.png","","","","",""
"","html-keyboard-response","75","396333","0.0-6.0-6.0-0.6","bqruwhfz9e","many_one","0","indirect_first","0","ka07ar16","0","24","1","0","3","2","Bei manchen Zeichen sind mir die Bilder vor mein Auge gesprungen und bei manchen lag es daran welche Bilder ich selber in den Zeichen gesehen habe, um sie als angenhem  / unangenehm zu empfinden.","0","1","0","null","","","<div class = 'row'><div class = 'column'><img src = 'category2/CS9.png' width = '70%;'></div><div class = 'column'><img src = 'uspos/5700.bmp' width = '100%;'></div></div>","null","pos","CS","CS","2","category2/CS9.png","","","","",""
"","html-keyboard-response","76","398874","0.0-6.0-6.0-0.7","bqruwhfz9e","many_one","0","indirect_first","0","ka07ar16","0","24","1","0","3","2","Bei manchen Zeichen sind mir die Bilder vor mein Auge gesprungen und bei manchen lag es daran welche Bilder ich selber in den Zeichen gesehen habe, um sie als angenhem  / unangenehm zu empfinden.","0","1","0","null","","","<div class = 'row'><div class = 'column'><img src = 'uspos/2058.bmp' width = '100%;'></div><div class = 'column'><img src = 'category2/CS2.png' width = '70%;'></div></div>","null","pos","CS","CS","2","category2/CS2.png","","","","",""
"","html-keyboard-response","77","401412","0.0-6.0-6.0-0.8","bqruwhfz9e","many_one","0","indirect_first","0","ka07ar16","0","24","1","0","3","2","Bei manchen Zeichen sind mir die Bilder vor mein Auge gesprungen und bei manchen lag es daran welche Bilder ich selber in den Zeichen gesehen habe, um sie als angenhem  / unangenehm zu empfinden.","0","1","0","null","","","<div class = 'row'><div class = 'column'><img src = 'usneg/2900.bmp' width = '100%;'></div><div class = 'column'><img src = 'category4/CS8.png' width = '70%;'></div></div>","null","neg","CS","CS","4","category4/CS8.png","","","","",""
"","html-keyboard-response","78","403935","0.0-6.0-6.0-0.9","bqruwhfz9e","many_one","0","indirect_first","0","ka07ar16","0","24","1","0","3","2","Bei manchen Zeichen sind mir die Bilder vor mein Auge gesprungen und bei manchen lag es daran welche Bilder ich selber in den Zeichen gesehen habe, um sie als angenhem  / unangenehm zu empfinden.","0","1","0","null","","","<div class = 'row'><div class = 'column'><img src = 'category4/CS2.png' width = '70%;'></div><div class = 'column'><img src = 'usneg/9290.bmp' width = '100%;'></div></div>","null","neg","CS","CS","4","category4/CS2.png","","","","",""
"","html-keyboard-response","79","406465","0.0-6.0-6.0-0.10","bqruwhfz9e","many_one","0","indirect_first","0","ka07ar16","0","24","1","0","3","2","Bei manchen Zeichen sind mir die Bilder vor mein Auge gesprungen und bei manchen lag es daran welche Bilder ich selber in den Zeichen gesehen habe, um sie als angenhem  / unangenehm zu empfinden.","0","1","0","null","","","<div class = 'row'><div class = 'column'><img src = 'category1/CS7.png' width = '70%;'></div><div class = 'column'><img src = 'uspos/2360.bmp' width = '100%;'></div></div>","null","pos","CS","CS","1","category1/CS7.png","","","","",""
"","html-keyboard-response","80","408984","0.0-6.0-6.0-0.11","bqruwhfz9e","many_one","0","indirect_first","0","ka07ar16","0","24","1","0","3","2","Bei manchen Zeichen sind mir die Bilder vor mein Auge gesprungen und bei manchen lag es daran welche Bilder ich selber in den Zeichen gesehen habe, um sie als angenhem  / unangenehm zu empfinden.","0","1","0","null","","","<div class = 'row'><div class = 'column'><img src = 'uspos/1463.bmp' width = '100%;'></div><div class = 'column'><img src = 'category1/CS10.png' width = '70%;'></div></div>","null","pos","CS","CS","1","category1/CS10.png","","","","",""
"","html-keyboard-response","81","411505","0.0-6.0-6.0-0.12","bqruwhfz9e","many_one","0","indirect_first","0","ka07ar16","0","24","1","0","3","2","Bei manchen Zeichen sind mir die Bilder vor mein Auge gesprungen und bei manchen lag es daran welche Bilder ich selber in den Zeichen gesehen habe, um sie als angenhem  / unangenehm zu empfinden.","0","1","0","null","","","<div class = 'row'><div class = 'column'><img src = 'category4/CS7.png' width = '70%;'></div><div class = 'column'><img src = 'usneg/9635.2.bmp' width = '100%;'></div></div>","null","neg","CS","CS","4","category4/CS7.png","","","","",""
"","html-keyboard-response","82","414044","0.0-6.0-6.0-0.13","bqruwhfz9e","many_one","0","indirect_first","0","ka07ar16","0","24","1","0","3","2","Bei manchen Zeichen sind mir die Bilder vor mein Auge gesprungen und bei manchen lag es daran welche Bilder ich selber in den Zeichen gesehen habe, um sie als angenhem  / unangenehm zu empfinden.","0","1","0","null","","","<div class = 'row'><div class = 'column'><img src = 'uspos/5621.bmp' width = '100%;'></div><div class = 'column'><img src = 'category1/CS4.png' width = '70%;'></div></div>","null","pos","CS","CS","1","category1/CS4.png","","","","",""
"","html-keyboard-response","83","416565","0.0-6.0-6.0-0.14","bqruwhfz9e","many_one","0","indirect_first","0","ka07ar16","0","24","1","0","3","2","Bei manchen Zeichen sind mir die Bilder vor mein Auge gesprungen und bei manchen lag es daran welche Bilder ich selber in den Zeichen gesehen habe, um sie als angenhem  / unangenehm zu empfinden.","0","1","0","null","","","<div class = 'row'><div class = 'column'><img src = 'category2/CS1.png' width = '70%;'></div><div class = 'column'><img src = 'uspos/2530.bmp' width = '100%;'></div></div>","null","pos","CS","CS","2","category2/CS1.png","","","","",""
"","html-keyboard-response","84","419085","0.0-6.0-6.0-0.15","bqruwhfz9e","many_one","0","indirect_first","0","ka07ar16","0","24","1","0","3","2","Bei manchen Zeichen sind mir die Bilder vor mein Auge gesprungen und bei manchen lag es daran welche Bilder ich selber in den Zeichen gesehen habe, um sie als angenhem  / unangenehm zu empfinden.","0","1","0","null","","","<div class = 'row'><div class = 'column'><img src = 'category3/CS8.png' width = '70%;'></div><div class = 'column'><img src = 'usneg/9404.bmp' width = '100%;'></div></div>","null","neg","CS","CS","3","category3/CS8.png","","","","",""
"","html-keyboard-response","85","421624","0.0-6.0-6.0-0.16","bqruwhfz9e","many_one","0","indirect_first","0","ka07ar16","0","24","1","0","3","2","Bei manchen Zeichen sind mir die Bilder vor mein Auge gesprungen und bei manchen lag es daran welche Bilder ich selber in den Zeichen gesehen habe, um sie als angenhem  / unangenehm zu empfinden.","0","1","0","null","","","<div class = 'row'><div class = 'column'><img src = 'category3/CS2.png' width = '70%;'></div><div class = 'column'><img src = 'usneg/9220.bmp' width = '100%;'></div></div>","null","neg","CS","CS","3","category3/CS2.png","","","","",""
"","html-keyboard-response","86","424155","0.0-6.0-6.0-0.17","bqruwhfz9e","many_one","0","indirect_first","0","ka07ar16","0","24","1","0","3","2","Bei manchen Zeichen sind mir die Bilder vor mein Auge gesprungen und bei manchen lag es daran welche Bilder ich selber in den Zeichen gesehen habe, um sie als angenhem  / unangenehm zu empfinden.","0","1","0","null","","","<div class = 'row'><div class = 'column'><img src = 'uspos/1710.bmp' width = '100%;'></div><div class = 'column'><img src = 'category2/CS3.png' width = '70%;'></div></div>","null","pos","CS","CS","2","category2/CS3.png","","","","",""
"","html-keyboard-response","87","426695","0.0-6.0-6.0-0.18","bqruwhfz9e","many_one","0","indirect_first","0","ka07ar16","0","24","1","0","3","2","Bei manchen Zeichen sind mir die Bilder vor mein Auge gesprungen und bei manchen lag es daran welche Bilder ich selber in den Zeichen gesehen habe, um sie als angenhem  / unangenehm zu empfinden.","0","1","0","null","","","<div class = 'row'><div class = 'column'><img src = 'category3/CS5.png' width = '70%;'></div><div class = 'column'><img src = 'usneg/1280.bmp' width = '100%;'></div></div>","null","neg","CS","CS","3","category3/CS5.png","","","","",""
"","html-keyboard-response","88","429224","0.0-6.0-6.0-0.19","bqruwhfz9e","many_one","0","indirect_first","0","ka07ar16","0","24","1","0","3","2","Bei manchen Zeichen sind mir die Bilder vor mein Auge gesprungen und bei manchen lag es daran welche Bilder ich selber in den Zeichen gesehen habe, um sie als angenhem  / unangenehm zu empfinden.","0","1","0","null","","","<div class = 'row'><div class = 'column'><img src = 'category4/CS9.png' width = '70%;'></div><div class = 'column'><img src = 'usneg/6020.bmp' width = '100%;'></div></div>","null","neg","CS","CS","4","category4/CS9.png","","","","",""
"","html-keyboard-response","89","461797","0.0-7.0","bqruwhfz9e","many_one","0","indirect_first","0","ka07ar16","0","24","1","0","3","2","Bei manchen Zeichen sind mir die Bilder vor mein Auge gesprungen und bei manchen lag es daran welche Bilder ich selber in den Zeichen gesehen habe, um sie als angenhem  / unangenehm zu empfinden.","0","1","0","32052","","","<p>Sie sehen nun die chinesischen Zeichen nur ganz kurz. Danach sehen Sie die jeweilige Aussprache der Zeichen als Silbe auf dem Bildschrim. Ihre Aufgabe ist es, fr jede Silbe anzugeben, ob diese etwas angenehmes, oder unangenehmes bedeuten knnte. Verlassen Sie sich hier vor allem auf Ihre Intuition.<br><br>Die Zeichen werden nur zur Orientierung dargestellt, beachten Sie sie deshalb nicht. Konzentrieren Sie sich vor allem auf die Silben. <br>Reagieren Sie mit folgenden zwei Tasten: <br><br><b>'D' </b> wenn die Silbe etwas <b>unangenehmes</b> bedeuten knnte. <br><b>'K'</b> wenn die Silbe etwas <b>angenehmes</b> bedeuten knnte. <br><br>Bitte legen Sie nun den Zeigefinger der linken Hand auf die Taste 'D' und den Zeigefinger der rechten Hand auf die Taste 'K'. <br>Reagieren Sie auf jede Silbe so schnell wie mglich. Uns interessiert Ihre spontane Reaktion. <br> <br> <br>Drcken Sie 'D' oder 'K', um die nchste Aufgabe zu starten. </p>","68","","","","","","","","","",""
"","html-keyboard-response","90","464834","0.0-8.0-0.0","bqruwhfz9e","many_one","0","indirect_first","0","ka07ar16","0","24","1","0","3","2","Bei manchen Zeichen sind mir die Bilder vor mein Auge gesprungen und bei manchen lag es daran welche Bilder ich selber in den Zeichen gesehen habe, um sie als angenhem  / unangenehm zu empfinden.","0","1","0","null","","","<div style=""font-size:60px;"">+</div>","null","","","","","","","","","",""
"","html-keyboard-response","91","464934","0.0-8.0-1.0","bqruwhfz9e","many_one","0","indirect_first","0","ka07ar16","0","24","1","0","3","2","Bei manchen Zeichen sind mir die Bilder vor mein Auge gesprungen und bei manchen lag es daran welche Bilder ich selber in den Zeichen gesehen habe, um sie als angenhem  / unangenehm zu empfinden.","0","1","0","null","","","<img src = 'category1/CS6.png' width = '100%;'>","null","","","","","","","","","",""
"","html-keyboard-response","92","465214","0.0-8.0-2.0","bqruwhfz9e","many_one","0","indirect_first","0","ka07ar16","0","24","1","0","3","2","Bei manchen Zeichen sind mir die Bilder vor mein Auge gesprungen und bei manchen lag es daran welche Bilder ich selber in den Zeichen gesehen habe, um sie als angenhem  / unangenehm zu empfinden.","0","1","0","null","","","<img src = 'targets/40.png' width = '100%;'>","null","","","","","","","","","",""
"","html-keyboard-response","93","471947","0.0-8.0-3.0","bqruwhfz9e","many_one","0","indirect_first","0","ka07ar16","0","24","1","0","3","2","Bei manchen Zeichen sind mir die Bilder vor mein Auge gesprungen und bei manchen lag es daran welche Bilder ich selber in den Zeichen gesehen habe, um sie als angenhem  / unangenehm zu empfinden.","0","1","0","6732","","","<img src = 'targets/mask.png' width = '100%;'>","68","pos","CS","CS","1","category1/CS6.png","targets/40.png","0","indirect","0",""
"","html-keyboard-response","94","473474","0.0-8.0-0.1","bqruwhfz9e","many_one","0","indirect_first","0","ka07ar16","0","24","1","0","3","2","Bei manchen Zeichen sind mir die Bilder vor mein Auge gesprungen und bei manchen lag es daran welche Bilder ich selber in den Zeichen gesehen habe, um sie als angenhem  / unangenehm zu empfinden.","0","1","0","null","","","<div style=""font-size:60px;"">+</div>","null","","","","","","","","","",""
"","html-keyboard-response","95","473574","0.0-8.0-1.1","bqruwhfz9e","many_one","0","indirect_first","0","ka07ar16","0","24","1","0","3","2","Bei manchen Zeichen sind mir die Bilder vor mein Auge gesprungen und bei manchen lag es daran welche Bilder ich selber in den Zeichen gesehen habe, um sie als angenhem  / unangenehm zu empfinden.","0","1","0","null","","","<img src = 'category2/CS3.png' width = '100%;'>","null","","","","","","","","","",""
"","html-keyboard-response","96","473855","0.0-8.0-2.1","bqruwhfz9e","many_one","0","indirect_first","0","ka07ar16","0","24","1","0","3","2","Bei manchen Zeichen sind mir die Bilder vor mein Auge gesprungen und bei manchen lag es daran welche Bilder ich selber in den Zeichen gesehen habe, um sie als angenhem  / unangenehm zu empfinden.","0","1","0","null","","","<img src = 'targets/14.png' width = '100%;'>","null","","","","","","","","","",""
"","html-keyboard-response","97","482410","0.0-8.0-3.1","bqruwhfz9e","many_one","0","indirect_first","0","ka07ar16","0","24","1","0","3","2","Bei manchen Zeichen sind mir die Bilder vor mein Auge gesprungen und bei manchen lag es daran welche Bilder ich selber in den Zeichen gesehen habe, um sie als angenhem  / unangenehm zu empfinden.","0","1","0","8552","","","<img src = 'targets/mask.png' width = '100%;'>","75","pos","CS","CS","2","category2/CS3.png","targets/14.png","1","indirect","1",""
"","html-keyboard-response","98","483944","0.0-8.0-0.2","bqruwhfz9e","many_one","0","indirect_first","0","ka07ar16","0","24","1","0","3","2","Bei manchen Zeichen sind mir die Bilder vor mein Auge gesprungen und bei manchen lag es daran welche Bilder ich selber in den Zeichen gesehen habe, um sie als angenhem  / unangenehm zu empfinden.","0","1","0","null","","","<div style=""font-size:60px;"">+</div>","null","","","","","","","","","",""
"","html-keyboard-response","99","484045","0.0-8.0-1.2","bqruwhfz9e","many_one","0","indirect_first","0","ka07ar16","0","24","1","0","3","2","Bei manchen Zeichen sind mir die Bilder vor mein Auge gesprungen und bei manchen lag es daran welche Bilder ich selber in den Zeichen gesehen habe, um sie als angenhem  / unangenehm zu empfinden.","0","1","0","null","","","<img src = 'category3/CS7.png' width = '100%;'>","null","","","","","","","","","",""
"","html-keyboard-response","100","484325","0.0-8.0-2.2","bqruwhfz9e","many_one","0","indirect_first","0","ka07ar16","0","24","1","0","3","2","Bei manchen Zeichen sind mir die Bilder vor mein Auge gesprungen und bei manchen lag es daran welche Bilder ich selber in den Zeichen gesehen habe, um sie als angenhem  / unangenehm zu empfinden.","0","1","0","null","","","<img src = 'targets/11.png' width = '100%;'>","null","","","","","","","","","",""
"","html-keyboard-response","101","488394","0.0-8.0-3.2","bqruwhfz9e","many_one","0","indirect_first","0","ka07ar16","0","24","1","0","3","2","Bei manchen Zeichen sind mir die Bilder vor mein Auge gesprungen und bei manchen lag es daran welche Bilder ich selber in den Zeichen gesehen habe, um sie als angenhem  / unangenehm zu empfinden.","0","1","0","4067","","","<img src = 'targets/mask.png' width = '100%;'>","68","neg","GS","GSold","3","category3/CS7.png","targets/11.png","0","indirect","2",""
"","html-keyboard-response","102","489934","0.0-8.0-0.3","bqruwhfz9e","many_one","0","indirect_first","0","ka07ar16","0","24","1","0","3","2","Bei manchen Zeichen sind mir die Bilder vor mein Auge gesprungen und bei manchen lag es daran welche Bilder ich selber in den Zeichen gesehen habe, um sie als angenhem  / unangenehm zu empfinden.","0","1","0","null","","","<div style=""font-size:60px;"">+</div>","null","","","","","","","","","",""
"","html-keyboard-response","103","490036","0.0-8.0-1.3","bqruwhfz9e","many_one","0","indirect_first","0","ka07ar16","0","24","1","0","3","2","Bei manchen Zeichen sind mir die Bilder vor mein Auge gesprungen und bei manchen lag es daran welche Bilder ich selber in den Zeichen gesehen habe, um sie als angenhem  / unangenehm zu empfinden.","0","1","0","null","","","<img src = 'category4/CS5.png' width = '100%;'>","null","","","","","","","","","",""
"","html-keyboard-response","104","490314","0.0-8.0-2.3","bqruwhfz9e","many_one","0","indirect_first","0","ka07ar16","0","24","1","0","3","2","Bei manchen Zeichen sind mir die Bilder vor mein Auge gesprungen und bei manchen lag es daran welche Bilder ich selber in den Zeichen gesehen habe, um sie als angenhem  / unangenehm zu empfinden.","0","1","0","null","","","<img src = 'targets/42.png' width = '100%;'>","null","","","","","","","","","",""
"","html-keyboard-response","105","493750","0.0-8.0-3.3","bqruwhfz9e","many_one","0","indirect_first","0","ka07ar16","0","24","1","0","3","2","Bei manchen Zeichen sind mir die Bilder vor mein Auge gesprungen und bei manchen lag es daran welche Bilder ich selber in den Zeichen gesehen habe, um sie als angenhem  / unangenehm zu empfinden.","0","1","0","3435","","","<img src = 'targets/mask.png' width = '100%;'>","75","neg","CS","CS","4","category4/CS5.png","targets/42.png","1","indirect","3",""
"","html-keyboard-response","106","495265","0.0-8.0-0.4","bqruwhfz9e","many_one","0","indirect_first","0","ka07ar16","0","24","1","0","3","2","Bei manchen Zeichen sind mir die Bilder vor mein Auge gesprungen und bei manchen lag es daran welche Bilder ich selber in den Zeichen gesehen habe, um sie als angenhem  / unangenehm zu empfinden.","0","1","0","null","","","<div style=""font-size:60px;"">+</div>","null","","","","","","","","","",""
"","html-keyboard-response","107","495364","0.0-8.0-1.4","bqruwhfz9e","many_one","0","indirect_first","0","ka07ar16","0","24","1","0","3","2","Bei manchen Zeichen sind mir die Bilder vor mein Auge gesprungen und bei manchen lag es daran welche Bilder ich selber in den Zeichen gesehen habe, um sie als angenhem  / unangenehm zu empfinden.","0","1","0","null","","","<img src = 'category2/CS2.png' width = '100%;'>","null","","","","","","","","","",""
"","html-keyboard-response","108","495644","0.0-8.0-2.4","bqruwhfz9e","many_one","0","indirect_first","0","ka07ar16","0","24","1","0","3","2","Bei manchen Zeichen sind mir die Bilder vor mein Auge gesprungen und bei manchen lag es daran welche Bilder ich selber in den Zeichen gesehen habe, um sie als angenhem  / unangenehm zu empfinden.","0","1","0","null","","","<img src = 'targets/30.png' width = '100%;'>","null","","","","","","","","","",""
"","html-keyboard-response","109","502294","0.0-8.0-3.4","bqruwhfz9e","many_one","0","indirect_first","0","ka07ar16","0","24","1","0","3","2","Bei manchen Zeichen sind mir die Bilder vor mein Auge gesprungen und bei manchen lag es daran welche Bilder ich selber in den Zeichen gesehen habe, um sie als angenhem  / unangenehm zu empfinden.","0","1","0","6648","","","<img src = 'targets/mask.png' width = '100%;'>","75","pos","CS","CS","2","category2/CS2.png","targets/30.png","1","indirect","4",""
"","html-keyboard-response","110","503823","0.0-8.0-0.5","bqruwhfz9e","many_one","0","indirect_first","0","ka07ar16","0","24","1","0","3","2","Bei manchen Zeichen sind mir die Bilder vor mein Auge gesprungen und bei manchen lag es daran welche Bilder ich selber in den Zeichen gesehen habe, um sie als angenhem  / unangenehm zu empfinden.","0","1","0","null","","","<div style=""font-size:60px;"">+</div>","null","","","","","","","","","",""
"","html-keyboard-response","111","503924","0.0-8.0-1.5","bqruwhfz9e","many_one","0","indirect_first","0","ka07ar16","0","24","1","0","3","2","Bei manchen Zeichen sind mir die Bilder vor mein Auge gesprungen und bei manchen lag es daran welche Bilder ich selber in den Zeichen gesehen habe, um sie als angenhem  / unangenehm zu empfinden.","0","1","0","null","","","<img src = 'category2/CS7.png' width = '100%;'>","null","","","","","","","","","",""
"","html-keyboard-response","112","504206","0.0-8.0-2.5","bqruwhfz9e","many_one","0","indirect_first","0","ka07ar16","0","24","1","0","3","2","Bei manchen Zeichen sind mir die Bilder vor mein Auge gesprungen und bei manchen lag es daran welche Bilder ich selber in den Zeichen gesehen habe, um sie als angenhem  / unangenehm zu empfinden.","0","1","0","null","","","<img src = 'targets/12.png' width = '100%;'>","null","","","","","","","","","",""
"","html-keyboard-response","113","506808","0.0-8.0-3.5","bqruwhfz9e","many_one","0","indirect_first","0","ka07ar16","0","24","1","0","3","2","Bei manchen Zeichen sind mir die Bilder vor mein Auge gesprungen und bei manchen lag es daran welche Bilder ich selber in den Zeichen gesehen habe, um sie als angenhem  / unangenehm zu empfinden.","0","1","0","2600","","","<img src = 'targets/mask.png' width = '100%;'>","75","pos","CS","CS","2","category2/CS7.png","targets/12.png","1","indirect","5",""
"","html-keyboard-response","114","508334","0.0-8.0-0.6","bqruwhfz9e","many_one","0","indirect_first","0","ka07ar16","0","24","1","0","3","2","Bei manchen Zeichen sind mir die Bilder vor mein Auge gesprungen und bei manchen lag es daran welche Bilder ich selber in den Zeichen gesehen habe, um sie als angenhem  / unangenehm zu empfinden.","0","1","0","null","","","<div style=""font-size:60px;"">+</div>","null","","","","","","","","","",""
"","html-keyboard-response","115","508435","0.0-8.0-1.6","bqruwhfz9e","many_one","0","indirect_first","0","ka07ar16","0","24","1","0","3","2","Bei manchen Zeichen sind mir die Bilder vor mein Auge gesprungen und bei manchen lag es daran welche Bilder ich selber in den Zeichen gesehen habe, um sie als angenhem  / unangenehm zu empfinden.","0","1","0","null","","","<img src = 'category2/CS1.png' width = '100%;'>","null","","","","","","","","","",""
"","html-keyboard-response","116","508714","0.0-8.0-2.6","bqruwhfz9e","many_one","0","indirect_first","0","ka07ar16","0","24","1","0","3","2","Bei manchen Zeichen sind mir die Bilder vor mein Auge gesprungen und bei manchen lag es daran welche Bilder ich selber in den Zeichen gesehen habe, um sie als angenhem  / unangenehm zu empfinden.","0","1","0","null","","","<img src = 'targets/47.png' width = '100%;'>","null","","","","","","","","","",""
"","html-keyboard-response","117","510608","0.0-8.0-3.6","bqruwhfz9e","many_one","0","indirect_first","0","ka07ar16","0","24","1","0","3","2","Bei manchen Zeichen sind mir die Bilder vor mein Auge gesprungen und bei manchen lag es daran welche Bilder ich selber in den Zeichen gesehen habe, um sie als angenhem  / unangenehm zu empfinden.","0","1","0","1892","","","<img src = 'targets/mask.png' width = '100%;'>","68","pos","CS","CS","2","category2/CS1.png","targets/47.png","0","indirect","6",""
"","html-keyboard-response","118","512135","0.0-8.0-0.7","bqruwhfz9e","many_one","0","indirect_first","0","ka07ar16","0","24","1","0","3","2","Bei manchen Zeichen sind mir die Bilder vor mein Auge gesprungen und bei manchen lag es daran welche Bilder ich selber in den Zeichen gesehen habe, um sie als angenhem  / unangenehm zu empfinden.","0","1","0","null","","","<div style=""font-size:60px;"">+</div>","null","","","","","","","","","",""
"","html-keyboard-response","119","512234","0.0-8.0-1.7","bqruwhfz9e","many_one","0","indirect_first","0","ka07ar16","0","24","1","0","3","2","Bei manchen Zeichen sind mir die Bilder vor mein Auge gesprungen und bei manchen lag es daran welche Bilder ich selber in den Zeichen gesehen habe, um sie als angenhem  / unangenehm zu empfinden.","0","1","0","null","","","<img src = 'category1/CS9.png' width = '100%;'>","null","","","","","","","","","",""
"","html-keyboard-response","120","512514","0.0-8.0-2.7","bqruwhfz9e","many_one","0","indirect_first","0","ka07ar16","0","24","1","0","3","2","Bei manchen Zeichen sind mir die Bilder vor mein Auge gesprungen und bei manchen lag es daran welche Bilder ich selber in den Zeichen gesehen habe, um sie als angenhem  / unangenehm zu empfinden.","0","1","0","null","","","<img src = 'targets/3.png' width = '100%;'>","null","","","","","","","","","",""
"","html-keyboard-response","121","517072","0.0-8.0-3.7","bqruwhfz9e","many_one","0","indirect_first","0","ka07ar16","0","24","1","0","3","2","Bei manchen Zeichen sind mir die Bilder vor mein Auge gesprungen und bei manchen lag es daran welche Bilder ich selber in den Zeichen gesehen habe, um sie als angenhem  / unangenehm zu empfinden.","0","1","0","4557","","","<img src = 'targets/mask.png' width = '100%;'>","68","pos","CS","CS","1","category1/CS9.png","targets/3.png","0","indirect","7",""
"","html-keyboard-response","122","518604","0.0-8.0-0.8","bqruwhfz9e","many_one","0","indirect_first","0","ka07ar16","0","24","1","0","3","2","Bei manchen Zeichen sind mir die Bilder vor mein Auge gesprungen und bei manchen lag es daran welche Bilder ich selber in den Zeichen gesehen habe, um sie als angenhem  / unangenehm zu empfinden.","0","1","0","null","","","<div style=""font-size:60px;"">+</div>","null","","","","","","","","","",""
"","html-keyboard-response","123","518704","0.0-8.0-1.8","bqruwhfz9e","many_one","0","indirect_first","0","ka07ar16","0","24","1","0","3","2","Bei manchen Zeichen sind mir die Bilder vor mein Auge gesprungen und bei manchen lag es daran welche Bilder ich selber in den Zeichen gesehen habe, um sie als angenhem  / unangenehm zu empfinden.","0","1","0","null","","","<img src = 'category4/CS7.png' width = '100%;'>","null","","","","","","","","","",""
"","html-keyboard-response","124","518984","0.0-8.0-2.8","bqruwhfz9e","many_one","0","indirect_first","0","ka07ar16","0","24","1","0","3","2","Bei manchen Zeichen sind mir die Bilder vor mein Auge gesprungen und bei manchen lag es daran welche Bilder ich selber in den Zeichen gesehen habe, um sie als angenhem  / unangenehm zu empfinden.","0","1","0","null","","","<img src = 'targets/26.png' width = '100%;'>","null","","","","","","","","","",""
"","html-keyboard-response","125","524649","0.0-8.0-3.8","bqruwhfz9e","many_one","0","indirect_first","0","ka07ar16","0","24","1","0","3","2","Bei manchen Zeichen sind mir die Bilder vor mein Auge gesprungen und bei manchen lag es daran welche Bilder ich selber in den Zeichen gesehen habe, um sie als angenhem  / unangenehm zu empfinden.","0","1","0","5663","","","<img src = 'targets/mask.png' width = '100%;'>","75","neg","CS","CS","4","category4/CS7.png","targets/26.png","1","indirect","8",""
"","html-keyboard-response","126","526184","0.0-8.0-0.9","bqruwhfz9e","many_one","0","indirect_first","0","ka07ar16","0","24","1","0","3","2","Bei manchen Zeichen sind mir die Bilder vor mein Auge gesprungen und bei manchen lag es daran welche Bilder ich selber in den Zeichen gesehen habe, um sie als angenhem  / unangenehm zu empfinden.","0","1","0","null","","","<div style=""font-size:60px;"">+</div>","null","","","","","","","","","",""
"","html-keyboard-response","127","526283","0.0-8.0-1.9","bqruwhfz9e","many_one","0","indirect_first","0","ka07ar16","0","24","1","0","3","2","Bei manchen Zeichen sind mir die Bilder vor mein Auge gesprungen und bei manchen lag es daran welche Bilder ich selber in den Zeichen gesehen habe, um sie als angenhem  / unangenehm zu empfinden.","0","1","0","null","","","<img src = 'category3/CS2.png' width = '100%;'>","null","","","","","","","","","",""
"","html-keyboard-response","128","526564","0.0-8.0-2.9","bqruwhfz9e","many_one","0","indirect_first","0","ka07ar16","0","24","1","0","3","2","Bei manchen Zeichen sind mir die Bilder vor mein Auge gesprungen und bei manchen lag es daran welche Bilder ich selber in den Zeichen gesehen habe, um sie als angenhem  / unangenehm zu empfinden.","0","1","0","null","","","<img src = 'targets/9.png' width = '100%;'>","null","","","","","","","","","",""
"","html-keyboard-response","129","535631","0.0-8.0-3.9","bqruwhfz9e","many_one","0","indirect_first","0","ka07ar16","0","24","1","0","3","2","Bei manchen Zeichen sind mir die Bilder vor mein Auge gesprungen und bei manchen lag es daran welche Bilder ich selber in den Zeichen gesehen habe, um sie als angenhem  / unangenehm zu empfinden.","0","1","0","9066","","","<img src = 'targets/mask.png' width = '100%;'>","75","neg","CS","CS","3","category3/CS2.png","targets/9.png","1","indirect","9",""
"","html-keyboard-response","130","537134","0.0-8.0-0.10","bqruwhfz9e","many_one","0","indirect_first","0","ka07ar16","0","24","1","0","3","2","Bei manchen Zeichen sind mir die Bilder vor mein Auge gesprungen und bei manchen lag es daran welche Bilder ich selber in den Zeichen gesehen habe, um sie als angenhem  / unangenehm zu empfinden.","0","1","0","null","","","<div style=""font-size:60px;"">+</div>","null","","","","","","","","","",""
"","html-keyboard-response","131","537234","0.0-8.0-1.10","bqruwhfz9e","many_one","0","indirect_first","0","ka07ar16","0","24","1","0","3","2","Bei manchen Zeichen sind mir die Bilder vor mein Auge gesprungen und bei manchen lag es daran welche Bilder ich selber in den Zeichen gesehen habe, um sie als angenhem  / unangenehm zu empfinden.","0","1","0","null","","","<img src = 'category1/CS10.png' width = '100%;'>","null","","","","","","","","","",""
"","html-keyboard-response","132","537512","0.0-8.0-2.10","bqruwhfz9e","many_one","0","indirect_first","0","ka07ar16","0","24","1","0","3","2","Bei manchen Zeichen sind mir die Bilder vor mein Auge gesprungen und bei manchen lag es daran welche Bilder ich selber in den Zeichen gesehen habe, um sie als angenhem  / unangenehm zu empfinden.","0","1","0","null","","","<img src = 'targets/5.png' width = '100%;'>","null","","","","","","","","","",""
"","html-keyboard-response","133","539462","0.0-8.0-3.10","bqruwhfz9e","many_one","0","indirect_first","0","ka07ar16","0","24","1","0","3","2","Bei manchen Zeichen sind mir die Bilder vor mein Auge gesprungen und bei manchen lag es daran welche Bilder ich selber in den Zeichen gesehen habe, um sie als angenhem  / unangenehm zu empfinden.","0","1","0","1949","","","<img src = 'targets/mask.png' width = '100%;'>","68","pos","CS","CS","1","category1/CS10.png","targets/5.png","0","indirect","10",""
"","html-keyboard-response","134","540995","0.0-8.0-0.11","bqruwhfz9e","many_one","0","indirect_first","0","ka07ar16","0","24","1","0","3","2","Bei manchen Zeichen sind mir die Bilder vor mein Auge gesprungen und bei manchen lag es daran welche Bilder ich selber in den Zeichen gesehen habe, um sie als angenhem  / unangenehm zu empfinden.","0","1","0","null","","","<div style=""font-size:60px;"">+</div>","null","","","","","","","","","",""
"","html-keyboard-response","135","541094","0.0-8.0-1.11","bqruwhfz9e","many_one","0","indirect_first","0","ka07ar16","0","24","1","0","3","2","Bei manchen Zeichen sind mir die Bilder vor mein Auge gesprungen und bei manchen lag es daran welche Bilder ich selber in den Zeichen gesehen habe, um sie als angenhem  / unangenehm zu empfinden.","0","1","0","null","","","<img src = 'category4/CS2.png' width = '100%;'>","null","","","","","","","","","",""
"","html-keyboard-response","136","541374","0.0-8.0-2.11","bqruwhfz9e","many_one","0","indirect_first","0","ka07ar16","0","24","1","0","3","2","Bei manchen Zeichen sind mir die Bilder vor mein Auge gesprungen und bei manchen lag es daran welche Bilder ich selber in den Zeichen gesehen habe, um sie als angenhem  / unangenehm zu empfinden.","0","1","0","null","","","<img src = 'targets/15.png' width = '100%;'>","null","","","","","","","","","",""
"","html-keyboard-response","137","544334","0.0-8.0-3.11","bqruwhfz9e","many_one","0","indirect_first","0","ka07ar16","0","24","1","0","3","2","Bei manchen Zeichen sind mir die Bilder vor mein Auge gesprungen und bei manchen lag es daran welche Bilder ich selber in den Zeichen gesehen habe, um sie als angenhem  / unangenehm zu empfinden.","0","1","0","2958","","","<img src = 'targets/mask.png' width = '100%;'>","68","neg","CS","CS","4","category4/CS2.png","targets/15.png","0","indirect","11",""
"","html-keyboard-response","138","545844","0.0-8.0-0.12","bqruwhfz9e","many_one","0","indirect_first","0","ka07ar16","0","24","1","0","3","2","Bei manchen Zeichen sind mir die Bilder vor mein Auge gesprungen und bei manchen lag es daran welche Bilder ich selber in den Zeichen gesehen habe, um sie als angenhem  / unangenehm zu empfinden.","0","1","0","null","","","<div style=""font-size:60px;"">+</div>","null","","","","","","","","","",""
"","html-keyboard-response","139","545945","0.0-8.0-1.12","bqruwhfz9e","many_one","0","indirect_first","0","ka07ar16","0","24","1","0","3","2","Bei manchen Zeichen sind mir die Bilder vor mein Auge gesprungen und bei manchen lag es daran welche Bilder ich selber in den Zeichen gesehen habe, um sie als angenhem  / unangenehm zu empfinden.","0","1","0","null","","","<img src = 'category3/CS9.png' width = '100%;'>","null","","","","","","","","","",""
"","html-keyboard-response","140","546224","0.0-8.0-2.12","bqruwhfz9e","many_one","0","indirect_first","0","ka07ar16","0","24","1","0","3","2","Bei manchen Zeichen sind mir die Bilder vor mein Auge gesprungen und bei manchen lag es daran welche Bilder ich selber in den Zeichen gesehen habe, um sie als angenhem  / unangenehm zu empfinden.","0","1","0","null","","","<img src = 'targets/18.png' width = '100%;'>","null","","","","","","","","","",""
"","html-keyboard-response","141","555507","0.0-8.0-3.12","bqruwhfz9e","many_one","0","indirect_first","0","ka07ar16","0","24","1","0","3","2","Bei manchen Zeichen sind mir die Bilder vor mein Auge gesprungen und bei manchen lag es daran welche Bilder ich selber in den Zeichen gesehen habe, um sie als angenhem  / unangenehm zu empfinden.","0","1","0","9281","","","<img src = 'targets/mask.png' width = '100%;'>","68","neg","GS","GSold","3","category3/CS9.png","targets/18.png","0","indirect","12",""
"","html-keyboard-response","142","557014","0.0-8.0-0.13","bqruwhfz9e","many_one","0","indirect_first","0","ka07ar16","0","24","1","0","3","2","Bei manchen Zeichen sind mir die Bilder vor mein Auge gesprungen und bei manchen lag es daran welche Bilder ich selber in den Zeichen gesehen habe, um sie als angenhem  / unangenehm zu empfinden.","0","1","0","null","","","<div style=""font-size:60px;"">+</div>","null","","","","","","","","","",""
"","html-keyboard-response","143","557115","0.0-8.0-1.13","bqruwhfz9e","many_one","0","indirect_first","0","ka07ar16","0","24","1","0","3","2","Bei manchen Zeichen sind mir die Bilder vor mein Auge gesprungen und bei manchen lag es daran welche Bilder ich selber in den Zeichen gesehen habe, um sie als angenhem  / unangenehm zu empfinden.","0","1","0","null","","","<img src = 'category3/CS5.png' width = '100%;'>","null","","","","","","","","","",""
"","html-keyboard-response","144","557393","0.0-8.0-2.13","bqruwhfz9e","many_one","0","indirect_first","0","ka07ar16","0","24","1","0","3","2","Bei manchen Zeichen sind mir die Bilder vor mein Auge gesprungen und bei manchen lag es daran welche Bilder ich selber in den Zeichen gesehen habe, um sie als angenhem  / unangenehm zu empfinden.","0","1","0","null","","","<img src = 'targets/1.png' width = '100%;'>","null","","","","","","","","","",""
"","html-keyboard-response","145","562091","0.0-8.0-3.13","bqruwhfz9e","many_one","0","indirect_first","0","ka07ar16","0","24","1","0","3","2","Bei manchen Zeichen sind mir die Bilder vor mein Auge gesprungen und bei manchen lag es daran welche Bilder ich selber in den Zeichen gesehen habe, um sie als angenhem  / unangenehm zu empfinden.","0","1","0","4697","","","<img src = 'targets/mask.png' width = '100%;'>","68","neg","CS","CS","3","category3/CS5.png","targets/1.png","0","indirect","13",""
"","html-keyboard-response","146","563614","0.0-8.0-0.14","bqruwhfz9e","many_one","0","indirect_first","0","ka07ar16","0","24","1","0","3","2","Bei manchen Zeichen sind mir die Bilder vor mein Auge gesprungen und bei manchen lag es daran welche Bilder ich selber in den Zeichen gesehen habe, um sie als angenhem  / unangenehm zu empfinden.","0","1","0","null","","","<div style=""font-size:60px;"">+</div>","null","","","","","","","","","",""
"","html-keyboard-response","147","563714","0.0-8.0-1.14","bqruwhfz9e","many_one","0","indirect_first","0","ka07ar16","0","24","1","0","3","2","Bei manchen Zeichen sind mir die Bilder vor mein Auge gesprungen und bei manchen lag es daran welche Bilder ich selber in den Zeichen gesehen habe, um sie als angenhem  / unangenehm zu empfinden.","0","1","0","null","","","<img src = 'category3/CS10.png' width = '100%;'>","null","","","","","","","","","",""
"","html-keyboard-response","148","563994","0.0-8.0-2.14","bqruwhfz9e","many_one","0","indirect_first","0","ka07ar16","0","24","1","0","3","2","Bei manchen Zeichen sind mir die Bilder vor mein Auge gesprungen und bei manchen lag es daran welche Bilder ich selber in den Zeichen gesehen habe, um sie als angenhem  / unangenehm zu empfinden.","0","1","0","null","","","<img src = 'targets/22.png' width = '100%;'>","null","","","","","","","","","",""
"","html-keyboard-response","149","564980","0.0-8.0-3.14","bqruwhfz9e","many_one","0","indirect_first","0","ka07ar16","0","24","1","0","3","2","Bei manchen Zeichen sind mir die Bilder vor mein Auge gesprungen und bei manchen lag es daran welche Bilder ich selber in den Zeichen gesehen habe, um sie als angenhem  / unangenehm zu empfinden.","0","1","0","985","","","<img src = 'targets/mask.png' width = '100%;'>","68","neg","CS","CS","3","category3/CS10.png","targets/22.png","0","indirect","14",""
"","html-keyboard-response","150","566514","0.0-8.0-0.15","bqruwhfz9e","many_one","0","indirect_first","0","ka07ar16","0","24","1","0","3","2","Bei manchen Zeichen sind mir die Bilder vor mein Auge gesprungen und bei manchen lag es daran welche Bilder ich selber in den Zeichen gesehen habe, um sie als angenhem  / unangenehm zu empfinden.","0","1","0","null","","","<div style=""font-size:60px;"">+</div>","null","","","","","","","","","",""
"","html-keyboard-response","151","566614","0.0-8.0-1.15","bqruwhfz9e","many_one","0","indirect_first","0","ka07ar16","0","24","1","0","3","2","Bei manchen Zeichen sind mir die Bilder vor mein Auge gesprungen und bei manchen lag es daran welche Bilder ich selber in den Zeichen gesehen habe, um sie als angenhem  / unangenehm zu empfinden.","0","1","0","null","","","<img src = 'category1/CS4.png' width = '100%;'>","null","","","","","","","","","",""
"","html-keyboard-response","152","566895","0.0-8.0-2.15","bqruwhfz9e","many_one","0","indirect_first","0","ka07ar16","0","24","1","0","3","2","Bei manchen Zeichen sind mir die Bilder vor mein Auge gesprungen und bei manchen lag es daran welche Bilder ich selber in den Zeichen gesehen habe, um sie als angenhem  / unangenehm zu empfinden.","0","1","0","null","","","<img src = 'targets/16.png' width = '100%;'>","null","","","","","","","","","",""
"","html-keyboard-response","153","567789","0.0-8.0-3.15","bqruwhfz9e","many_one","0","indirect_first","0","ka07ar16","0","24","1","0","3","2","Bei manchen Zeichen sind mir die Bilder vor mein Auge gesprungen und bei manchen lag es daran welche Bilder ich selber in den Zeichen gesehen habe, um sie als angenhem  / unangenehm zu empfinden.","0","1","0","892","","","<img src = 'targets/mask.png' width = '100%;'>","75","pos","CS","CS","1","category1/CS4.png","targets/16.png","1","indirect","15",""
"","html-keyboard-response","154","569314","0.0-8.0-0.16","bqruwhfz9e","many_one","0","indirect_first","0","ka07ar16","0","24","1","0","3","2","Bei manchen Zeichen sind mir die Bilder vor mein Auge gesprungen und bei manchen lag es daran welche Bilder ich selber in den Zeichen gesehen habe, um sie als angenhem  / unangenehm zu empfinden.","0","1","0","null","","","<div style=""font-size:60px;"">+</div>","null","","","","","","","","","",""
"","html-keyboard-response","155","569414","0.0-8.0-1.16","bqruwhfz9e","many_one","0","indirect_first","0","ka07ar16","0","24","1","0","3","2","Bei manchen Zeichen sind mir die Bilder vor mein Auge gesprungen und bei manchen lag es daran welche Bilder ich selber in den Zeichen gesehen habe, um sie als angenhem  / unangenehm zu empfinden.","0","1","0","null","","","<img src = 'category2/CS9.png' width = '100%;'>","null","","","","","","","","","",""
"","html-keyboard-response","156","569694","0.0-8.0-2.16","bqruwhfz9e","many_one","0","indirect_first","0","ka07ar16","0","24","1","0","3","2","Bei manchen Zeichen sind mir die Bilder vor mein Auge gesprungen und bei manchen lag es daran welche Bilder ich selber in den Zeichen gesehen habe, um sie als angenhem  / unangenehm zu empfinden.","0","1","0","null","","","<img src = 'targets/45.png' width = '100%;'>","null","","","","","","","","","",""
"","html-keyboard-response","157","571835","0.0-8.0-3.16","bqruwhfz9e","many_one","0","indirect_first","0","ka07ar16","0","24","1","0","3","2","Bei manchen Zeichen sind mir die Bilder vor mein Auge gesprungen und bei manchen lag es daran welche Bilder ich selber in den Zeichen gesehen habe, um sie als angenhem  / unangenehm zu empfinden.","0","1","0","2139","","","<img src = 'targets/mask.png' width = '100%;'>","75","pos","CS","CS","2","category2/CS9.png","targets/45.png","1","indirect","16",""
"","html-keyboard-response","158","573355","0.0-8.0-0.17","bqruwhfz9e","many_one","0","indirect_first","0","ka07ar16","0","24","1","0","3","2","Bei manchen Zeichen sind mir die Bilder vor mein Auge gesprungen und bei manchen lag es daran welche Bilder ich selber in den Zeichen gesehen habe, um sie als angenhem  / unangenehm zu empfinden.","0","1","0","null","","","<div style=""font-size:60px;"">+</div>","null","","","","","","","","","",""
"","html-keyboard-response","159","573454","0.0-8.0-1.17","bqruwhfz9e","many_one","0","indirect_first","0","ka07ar16","0","24","1","0","3","2","Bei manchen Zeichen sind mir die Bilder vor mein Auge gesprungen und bei manchen lag es daran welche Bilder ich selber in den Zeichen gesehen habe, um sie als angenhem  / unangenehm zu empfinden.","0","1","0","null","","","<img src = 'category3/CS8.png' width = '100%;'>","null","","","","","","","","","",""
"","html-keyboard-response","160","573735","0.0-8.0-2.17","bqruwhfz9e","many_one","0","indirect_first","0","ka07ar16","0","24","1","0","3","2","Bei manchen Zeichen sind mir die Bilder vor mein Auge gesprungen und bei manchen lag es daran welche Bilder ich selber in den Zeichen gesehen habe, um sie als angenhem  / unangenehm zu empfinden.","0","1","0","null","","","<img src = 'targets/34.png' width = '100%;'>","null","","","","","","","","","",""
"","html-keyboard-response","161","575857","0.0-8.0-3.17","bqruwhfz9e","many_one","0","indirect_first","0","ka07ar16","0","24","1","0","3","2","Bei manchen Zeichen sind mir die Bilder vor mein Auge gesprungen und bei manchen lag es daran welche Bilder ich selber in den Zeichen gesehen habe, um sie als angenhem  / unangenehm zu empfinden.","0","1","0","2120","","","<img src = 'targets/mask.png' width = '100%;'>","68","neg","CS","CS","3","category3/CS8.png","targets/34.png","0","indirect","17",""
"","html-keyboard-response","162","577384","0.0-8.0-0.18","bqruwhfz9e","many_one","0","indirect_first","0","ka07ar16","0","24","1","0","3","2","Bei manchen Zeichen sind mir die Bilder vor mein Auge gesprungen und bei manchen lag es daran welche Bilder ich selber in den Zeichen gesehen habe, um sie als angenhem  / unangenehm zu empfinden.","0","1","0","null","","","<div style=""font-size:60px;"">+</div>","null","","","","","","","","","",""
"","html-keyboard-response","163","577484","0.0-8.0-1.18","bqruwhfz9e","many_one","0","indirect_first","0","ka07ar16","0","24","1","0","3","2","Bei manchen Zeichen sind mir die Bilder vor mein Auge gesprungen und bei manchen lag es daran welche Bilder ich selber in den Zeichen gesehen habe, um sie als angenhem  / unangenehm zu empfinden.","0","1","0","null","","","<img src = 'category3/CS4.png' width = '100%;'>","null","","","","","","","","","",""
"","html-keyboard-response","164","577764","0.0-8.0-2.18","bqruwhfz9e","many_one","0","indirect_first","0","ka07ar16","0","24","1","0","3","2","Bei manchen Zeichen sind mir die Bilder vor mein Auge gesprungen und bei manchen lag es daran welche Bilder ich selber in den Zeichen gesehen habe, um sie als angenhem  / unangenehm zu empfinden.","0","1","0","null","","","<img src = 'targets/39.png' width = '100%;'>","null","","","","","","","","","",""
"","html-keyboard-response","165","581746","0.0-8.0-3.18","bqruwhfz9e","many_one","0","indirect_first","0","ka07ar16","0","24","1","0","3","2","Bei manchen Zeichen sind mir die Bilder vor mein Auge gesprungen und bei manchen lag es daran welche Bilder ich selber in den Zeichen gesehen habe, um sie als angenhem  / unangenehm zu empfinden.","0","1","0","3981","","","<img src = 'targets/mask.png' width = '100%;'>","75","neg","GS","GSold","3","category3/CS4.png","targets/39.png","1","indirect","18",""
"","html-keyboard-response","166","583284","0.0-8.0-0.19","bqruwhfz9e","many_one","0","indirect_first","0","ka07ar16","0","24","1","0","3","2","Bei manchen Zeichen sind mir die Bilder vor mein Auge gesprungen und bei manchen lag es daran welche Bilder ich selber in den Zeichen gesehen habe, um sie als angenhem  / unangenehm zu empfinden.","0","1","0","null","","","<div style=""font-size:60px;"">+</div>","null","","","","","","","","","",""
"","html-keyboard-response","167","583385","0.0-8.0-1.19","bqruwhfz9e","many_one","0","indirect_first","0","ka07ar16","0","24","1","0","3","2","Bei manchen Zeichen sind mir die Bilder vor mein Auge gesprungen und bei manchen lag es daran welche Bilder ich selber in den Zeichen gesehen habe, um sie als angenhem  / unangenehm zu empfinden.","0","1","0","null","","","<img src = 'category1/CS7.png' width = '100%;'>","null","","","","","","","","","",""
"","html-keyboard-response","168","583664","0.0-8.0-2.19","bqruwhfz9e","many_one","0","indirect_first","0","ka07ar16","0","24","1","0","3","2","Bei manchen Zeichen sind mir die Bilder vor mein Auge gesprungen und bei manchen lag es daran welche Bilder ich selber in den Zeichen gesehen habe, um sie als angenhem  / unangenehm zu empfinden.","0","1","0","null","","","<img src = 'targets/7.png' width = '100%;'>","null","","","","","","","","","",""
"","html-keyboard-response","169","597331","0.0-8.0-3.19","bqruwhfz9e","many_one","0","indirect_first","0","ka07ar16","0","24","1","0","3","2","Bei manchen Zeichen sind mir die Bilder vor mein Auge gesprungen und bei manchen lag es daran welche Bilder ich selber in den Zeichen gesehen habe, um sie als angenhem  / unangenehm zu empfinden.","0","1","0","13666","","","<img src = 'targets/mask.png' width = '100%;'>","75","pos","CS","CS","1","category1/CS7.png","targets/7.png","1","indirect","19",""
"","html-keyboard-response","170","598864","0.0-8.0-0.20","bqruwhfz9e","many_one","0","indirect_first","0","ka07ar16","0","24","1","0","3","2","Bei manchen Zeichen sind mir die Bilder vor mein Auge gesprungen und bei manchen lag es daran welche Bilder ich selber in den Zeichen gesehen habe, um sie als angenhem  / unangenehm zu empfinden.","0","1","0","null","","","<div style=""font-size:60px;"">+</div>","null","","","","","","","","","",""
"","html-keyboard-response","171","598965","0.0-8.0-1.20","bqruwhfz9e","many_one","0","indirect_first","0","ka07ar16","0","24","1","0","3","2","Bei manchen Zeichen sind mir die Bilder vor mein Auge gesprungen und bei manchen lag es daran welche Bilder ich selber in den Zeichen gesehen habe, um sie als angenhem  / unangenehm zu empfinden.","0","1","0","null","","","<img src = 'category4/CS9.png' width = '100%;'>","null","","","","","","","","","",""
"","html-keyboard-response","172","599244","0.0-8.0-2.20","bqruwhfz9e","many_one","0","indirect_first","0","ka07ar16","0","24","1","0","3","2","Bei manchen Zeichen sind mir die Bilder vor mein Auge gesprungen und bei manchen lag es daran welche Bilder ich selber in den Zeichen gesehen habe, um sie als angenhem  / unangenehm zu empfinden.","0","1","0","null","","","<img src = 'targets/8.png' width = '100%;'>","null","","","","","","","","","",""
"","html-keyboard-response","173","601015","0.0-8.0-3.20","bqruwhfz9e","many_one","0","indirect_first","0","ka07ar16","0","24","1","0","3","2","Bei manchen Zeichen sind mir die Bilder vor mein Auge gesprungen und bei manchen lag es daran welche Bilder ich selber in den Zeichen gesehen habe, um sie als angenhem  / unangenehm zu empfinden.","0","1","0","1770","","","<img src = 'targets/mask.png' width = '100%;'>","75","neg","CS","CS","4","category4/CS9.png","targets/8.png","1","indirect","20",""
"","html-keyboard-response","174","602534","0.0-8.0-0.21","bqruwhfz9e","many_one","0","indirect_first","0","ka07ar16","0","24","1","0","3","2","Bei manchen Zeichen sind mir die Bilder vor mein Auge gesprungen und bei manchen lag es daran welche Bilder ich selber in den Zeichen gesehen habe, um sie als angenhem  / unangenehm zu empfinden.","0","1","0","null","","","<div style=""font-size:60px;"">+</div>","null","","","","","","","","","",""
"","html-keyboard-response","175","602634","0.0-8.0-1.21","bqruwhfz9e","many_one","0","indirect_first","0","ka07ar16","0","24","1","0","3","2","Bei manchen Zeichen sind mir die Bilder vor mein Auge gesprungen und bei manchen lag es daran welche Bilder ich selber in den Zeichen gesehen habe, um sie als angenhem  / unangenehm zu empfinden.","0","1","0","null","","","<img src = 'category1/CS5.png' width = '100%;'>","null","","","","","","","","","",""
"","html-keyboard-response","176","602915","0.0-8.0-2.21","bqruwhfz9e","many_one","0","indirect_first","0","ka07ar16","0","24","1","0","3","2","Bei manchen Zeichen sind mir die Bilder vor mein Auge gesprungen und bei manchen lag es daran welche Bilder ich selber in den Zeichen gesehen habe, um sie als angenhem  / unangenehm zu empfinden.","0","1","0","null","","","<img src = 'targets/44.png' width = '100%;'>","null","","","","","","","","","",""
"","html-keyboard-response","177","614286","0.0-8.0-3.21","bqruwhfz9e","many_one","0","indirect_first","0","ka07ar16","0","24","1","0","3","2","Bei manchen Zeichen sind mir die Bilder vor mein Auge gesprungen und bei manchen lag es daran welche Bilder ich selber in den Zeichen gesehen habe, um sie als angenhem  / unangenehm zu empfinden.","0","1","0","11370","","","<img src = 'targets/mask.png' width = '100%;'>","68","pos","GS","GSold","1","category1/CS5.png","targets/44.png","0","indirect","21",""
"","html-keyboard-response","178","615824","0.0-8.0-0.22","bqruwhfz9e","many_one","0","indirect_first","0","ka07ar16","0","24","1","0","3","2","Bei manchen Zeichen sind mir die Bilder vor mein Auge gesprungen und bei manchen lag es daran welche Bilder ich selber in den Zeichen gesehen habe, um sie als angenhem  / unangenehm zu empfinden.","0","1","0","null","","","<div style=""font-size:60px;"">+</div>","null","","","","","","","","","",""
"","html-keyboard-response","179","615925","0.0-8.0-1.22","bqruwhfz9e","many_one","0","indirect_first","0","ka07ar16","0","24","1","0","3","2","Bei manchen Zeichen sind mir die Bilder vor mein Auge gesprungen und bei manchen lag es daran welche Bilder ich selber in den Zeichen gesehen habe, um sie als angenhem  / unangenehm zu empfinden.","0","1","0","null","","","<img src = 'category4/CS8.png' width = '100%;'>","null","","","","","","","","","",""
"","html-keyboard-response","180","616194","0.0-8.0-2.22","bqruwhfz9e","many_one","0","indirect_first","0","ka07ar16","0","24","1","0","3","2","Bei manchen Zeichen sind mir die Bilder vor mein Auge gesprungen und bei manchen lag es daran welche Bilder ich selber in den Zeichen gesehen habe, um sie als angenhem  / unangenehm zu empfinden.","0","1","0","null","","","<img src = 'targets/27.png' width = '100%;'>","null","","","","","","","","","",""
"","html-keyboard-response","181","622032","0.0-8.0-3.22","bqruwhfz9e","many_one","0","indirect_first","0","ka07ar16","0","24","1","0","3","2","Bei manchen Zeichen sind mir die Bilder vor mein Auge gesprungen und bei manchen lag es daran welche Bilder ich selber in den Zeichen gesehen habe, um sie als angenhem  / unangenehm zu empfinden.","0","1","0","5836","","","<img src = 'targets/mask.png' width = '100%;'>","75","neg","CS","CS","4","category4/CS8.png","targets/27.png","1","indirect","22",""
"","html-keyboard-response","182","623555","0.0-8.0-0.23","bqruwhfz9e","many_one","0","indirect_first","0","ka07ar16","0","24","1","0","3","2","Bei manchen Zeichen sind mir die Bilder vor mein Auge gesprungen und bei manchen lag es daran welche Bilder ich selber in den Zeichen gesehen habe, um sie als angenhem  / unangenehm zu empfinden.","0","1","0","null","","","<div style=""font-size:60px;"">+</div>","null","","","","","","","","","",""
"","html-keyboard-response","183","623654","0.0-8.0-1.23","bqruwhfz9e","many_one","0","indirect_first","0","ka07ar16","0","24","1","0","3","2","Bei manchen Zeichen sind mir die Bilder vor mein Auge gesprungen und bei manchen lag es daran welche Bilder ich selber in den Zeichen gesehen habe, um sie als angenhem  / unangenehm zu empfinden.","0","1","0","null","","","<img src = 'category3/CS6.png' width = '100%;'>","null","","","","","","","","","",""
"","html-keyboard-response","184","623934","0.0-8.0-2.23","bqruwhfz9e","many_one","0","indirect_first","0","ka07ar16","0","24","1","0","3","2","Bei manchen Zeichen sind mir die Bilder vor mein Auge gesprungen und bei manchen lag es daran welche Bilder ich selber in den Zeichen gesehen habe, um sie als angenhem  / unangenehm zu empfinden.","0","1","0","null","","","<img src = 'targets/23.png' width = '100%;'>","null","","","","","","","","","",""
"","html-keyboard-response","185","626338","0.0-8.0-3.23","bqruwhfz9e","many_one","0","indirect_first","0","ka07ar16","0","24","1","0","3","2","Bei manchen Zeichen sind mir die Bilder vor mein Auge gesprungen und bei manchen lag es daran welche Bilder ich selber in den Zeichen gesehen habe, um sie als angenhem  / unangenehm zu empfinden.","0","1","0","2403","","","<img src = 'targets/mask.png' width = '100%;'>","68","neg","CS","CS","3","category3/CS6.png","targets/23.png","0","indirect","23",""
"","survey-html-form","186","633647","0.0-9.0","bqruwhfz9e","many_one","0","indirect_first","0","ka07ar16","0","24","1","0","3","2","Bei manchen Zeichen sind mir die Bilder vor mein Auge gesprungen und bei manchen lag es daran welche Bilder ich selber in den Zeichen gesehen habe, um sie als angenhem  / unangenehm zu empfinden.","0","1","0","6801","","{}","","","","","","","","","","","",""
"","html-keyboard-response","187","636685","0.0-10.0-0.0","bqruwhfz9e","many_one","0","indirect_first","0","ka07ar16","0","24","1","0","3","2","Bei manchen Zeichen sind mir die Bilder vor mein Auge gesprungen und bei manchen lag es daran welche Bilder ich selber in den Zeichen gesehen habe, um sie als angenhem  / unangenehm zu empfinden.","0","1","0","null","","","<div style=""font-size:60px;"">+</div>","null","","","","","","","","","",""
"","html-keyboard-response","188","636784","0.0-10.0-1.0","bqruwhfz9e","many_one","0","indirect_first","0","ka07ar16","0","24","1","0","3","2","Bei manchen Zeichen sind mir die Bilder vor mein Auge gesprungen und bei manchen lag es daran welche Bilder ich selber in den Zeichen gesehen habe, um sie als angenhem  / unangenehm zu empfinden.","0","1","0","null","","","<img src = 'category2/CS6.png' width = '100%;'>","null","","","","","","","","","",""
"","html-keyboard-response","189","637064","0.0-10.0-2.0","bqruwhfz9e","many_one","0","indirect_first","0","ka07ar16","0","24","1","0","3","2","Bei manchen Zeichen sind mir die Bilder vor mein Auge gesprungen und bei manchen lag es daran welche Bilder ich selber in den Zeichen gesehen habe, um sie als angenhem  / unangenehm zu empfinden.","0","1","0","null","","","<img src = 'targets/33.png' width = '100%;'>","null","","","","","","","","","",""
