"success","trial_type","trial_index","time_elapsed","internal_node_id","subject","condition","condition_code","measure","measure_code","codeword","gender","age","education","chinese","fach","handedness","rt","url","responses","stimulus","key_press","val","type","type_specific","category","cs_selected","target","indirect","task","nr_pres","response"
"true","fullscreen","0","8288","0.0-0.0","mjdyg2lgka","one_one","1","indirect_first","0","EL08AN01","0","24","1","1","3","1","","","","","","","","","","","","","","",""
"","external-html","1","42081","0.0-1.0","mjdyg2lgka","one_one","1","indirect_first","0","EL08AN01","0","24","1","1","3","1","33772","text/information.html","","","","","","","","","","","","",""
"","external-html","2","48632","0.0-2.0","mjdyg2lgka","one_one","1","indirect_first","0","EL08AN01","0","24","1","1","3","1","6543","text/consent.html","","","","","","","","","","","","",""
"","survey-html-form","3","65681","0.0-3.0","mjdyg2lgka","one_one","1","indirect_first","0","EL08AN01","0","24","1","1","3","1","17047","","{""codeword_enter"":""EL08AN01""}","","","","","","","","","","","",""
"","survey-html-form","4","91474","0.0-4.0","mjdyg2lgka","one_one","1","indirect_first","0","EL08AN01","0","24","1","1","3","1","25791","","{""age"":""24"",""education"":""1"",""subject"":""3"",""gender"":""0"",""handedness"":""1"",""chinese"":""1""}","","","","","","","","","","","",""
"","survey-html-form","5","102992","0.0-5.0","mjdyg2lgka","one_one","1","indirect_first","0","EL08AN01","0","24","1","1","3","1","11518","","{}","","","","","","","","","","","",""
"","html-keyboard-response","6","107017","0.0-6.0-0.0-0.0","mjdyg2lgka","one_one","1","indirect_first","0","EL08AN01","0","24","1","1","3","1","null","","","<div class = 'row'><div class = 'column'><img src = 'uspos/1440.bmp' width = '100%;'></div><div class = 'column'><img src = 'category2/CS7.png' width = '70%;'></div></div>","null","pos","CS","CS","2","category2/CS7.png","","","","",""
"","html-keyboard-response","7","109557","0.0-6.0-0.0-0.1","mjdyg2lgka","one_one","1","indirect_first","0","EL08AN01","0","24","1","1","3","1","null","","","<div class = 'row'><div class = 'column'><img src = 'category4/CS3.png' width = '70%;'></div><div class = 'column'><img src = 'usneg/2205.bmp' width = '100%;'></div></div>","null","neg","CS","CS","4","category4/CS3.png","","","","",""
"","html-keyboard-response","8","112097","0.0-6.0-0.0-0.2","mjdyg2lgka","one_one","1","indirect_first","0","EL08AN01","0","24","1","1","3","1","null","","","<div class = 'row'><div class = 'column'><img src = 'usneg/3160.bmp' width = '100%;'></div><div class = 'column'><img src = 'category1/CS10.png' width = '70%;'></div></div>","null","neg","CS","CS","1","category1/CS10.png","","","","",""
"","html-keyboard-response","9","114637","0.0-6.0-0.0-0.3","mjdyg2lgka","one_one","1","indirect_first","0","EL08AN01","0","24","1","1","3","1","null","","","<div class = 'row'><div class = 'column'><img src = 'category4/CS3.png' width = '70%;'></div><div class = 'column'><img src = 'usneg/2205.bmp' width = '100%;'></div></div>","null","neg","CS","CS","4","category4/CS3.png","","","","",""
"","html-keyboard-response","10","117176","0.0-6.0-0.0-0.4","mjdyg2lgka","one_one","1","indirect_first","0","EL08AN01","0","24","1","1","3","1","null","","","<div class = 'row'><div class = 'column'><img src = 'uspos/1440.bmp' width = '100%;'></div><div class = 'column'><img src = 'category2/CS7.png' width = '70%;'></div></div>","null","pos","CS","CS","2","category2/CS7.png","","","","",""
"","html-keyboard-response","11","119716","0.0-6.0-0.0-0.5","mjdyg2lgka","one_one","1","indirect_first","0","EL08AN01","0","24","1","1","3","1","null","","","<div class = 'row'><div class = 'column'><img src = 'usneg/3160.bmp' width = '100%;'></div><div class = 'column'><img src = 'category1/CS10.png' width = '70%;'></div></div>","null","neg","CS","CS","1","category1/CS10.png","","","","",""
"","html-keyboard-response","12","122256","0.0-6.0-0.0-0.6","mjdyg2lgka","one_one","1","indirect_first","0","EL08AN01","0","24","1","1","3","1","null","","","<div class = 'row'><div class = 'column'><img src = 'category3/CS8.png' width = '70%;'></div><div class = 'column'><img src = 'uspos/5830.bmp' width = '100%;'></div></div>","null","pos","CS","CS","3","category3/CS8.png","","","","",""
"","html-keyboard-response","13","124796","0.0-6.0-0.0-0.7","mjdyg2lgka","one_one","1","indirect_first","0","EL08AN01","0","24","1","1","3","1","null","","","<div class = 'row'><div class = 'column'><img src = 'usneg/2205.bmp' width = '100%;'></div><div class = 'column'><img src = 'category4/CS3.png' width = '70%;'></div></div>","null","neg","CS","CS","4","category4/CS3.png","","","","",""
"","html-keyboard-response","14","127336","0.0-6.0-0.0-0.8","mjdyg2lgka","one_one","1","indirect_first","0","EL08AN01","0","24","1","1","3","1","null","","","<div class = 'row'><div class = 'column'><img src = 'uspos/1440.bmp' width = '100%;'></div><div class = 'column'><img src = 'category2/CS7.png' width = '70%;'></div></div>","null","pos","CS","CS","2","category2/CS7.png","","","","",""
"","html-keyboard-response","15","129875","0.0-6.0-0.0-0.9","mjdyg2lgka","one_one","1","indirect_first","0","EL08AN01","0","24","1","1","3","1","null","","","<div class = 'row'><div class = 'column'><img src = 'category4/CS3.png' width = '70%;'></div><div class = 'column'><img src = 'usneg/2205.bmp' width = '100%;'></div></div>","null","neg","CS","CS","4","category4/CS3.png","","","","",""
"","html-keyboard-response","16","132415","0.0-6.0-0.0-0.10","mjdyg2lgka","one_one","1","indirect_first","0","EL08AN01","0","24","1","1","3","1","null","","","<div class = 'row'><div class = 'column'><img src = 'usneg/3160.bmp' width = '100%;'></div><div class = 'column'><img src = 'category1/CS10.png' width = '70%;'></div></div>","null","neg","CS","CS","1","category1/CS10.png","","","","",""
"","html-keyboard-response","17","134935","0.0-6.0-0.0-0.11","mjdyg2lgka","one_one","1","indirect_first","0","EL08AN01","0","24","1","1","3","1","null","","","<div class = 'row'><div class = 'column'><img src = 'uspos/5830.bmp' width = '100%;'></div><div class = 'column'><img src = 'category3/CS8.png' width = '70%;'></div></div>","null","pos","CS","CS","3","category3/CS8.png","","","","",""
"","html-keyboard-response","18","137455","0.0-6.0-0.0-0.12","mjdyg2lgka","one_one","1","indirect_first","0","EL08AN01","0","24","1","1","3","1","null","","","<div class = 'row'><div class = 'column'><img src = 'uspos/1440.bmp' width = '100%;'></div><div class = 'column'><img src = 'category2/CS7.png' width = '70%;'></div></div>","null","pos","CS","CS","2","category2/CS7.png","","","","",""
"","html-keyboard-response","19","139995","0.0-6.0-0.0-0.13","mjdyg2lgka","one_one","1","indirect_first","0","EL08AN01","0","24","1","1","3","1","null","","","<div class = 'row'><div class = 'column'><img src = 'usneg/3160.bmp' width = '100%;'></div><div class = 'column'><img src = 'category1/CS10.png' width = '70%;'></div></div>","null","neg","CS","CS","1","category1/CS10.png","","","","",""
"","html-keyboard-response","20","142515","0.0-6.0-0.0-0.14","mjdyg2lgka","one_one","1","indirect_first","0","EL08AN01","0","24","1","1","3","1","null","","","<div class = 'row'><div class = 'column'><img src = 'category3/CS8.png' width = '70%;'></div><div class = 'column'><img src = 'uspos/5830.bmp' width = '100%;'></div></div>","null","pos","CS","CS","3","category3/CS8.png","","","","",""
"","html-keyboard-response","21","145056","0.0-6.0-0.0-0.15","mjdyg2lgka","one_one","1","indirect_first","0","EL08AN01","0","24","1","1","3","1","null","","","<div class = 'row'><div class = 'column'><img src = 'category4/CS3.png' width = '70%;'></div><div class = 'column'><img src = 'usneg/2205.bmp' width = '100%;'></div></div>","null","neg","CS","CS","4","category4/CS3.png","","","","",""
"","html-keyboard-response","22","147595","0.0-6.0-0.0-0.16","mjdyg2lgka","one_one","1","indirect_first","0","EL08AN01","0","24","1","1","3","1","null","","","<div class = 'row'><div class = 'column'><img src = 'uspos/5830.bmp' width = '100%;'></div><div class = 'column'><img src = 'category3/CS8.png' width = '70%;'></div></div>","null","pos","CS","CS","3","category3/CS8.png","","","","",""
"","html-keyboard-response","23","150136","0.0-6.0-0.0-0.17","mjdyg2lgka","one_one","1","indirect_first","0","EL08AN01","0","24","1","1","3","1","null","","","<div class = 'row'><div class = 'column'><img src = 'usneg/3160.bmp' width = '100%;'></div><div class = 'column'><img src = 'category1/CS10.png' width = '70%;'></div></div>","null","neg","CS","CS","1","category1/CS10.png","","","","",""
"","html-keyboard-response","24","152675","0.0-6.0-0.0-0.18","mjdyg2lgka","one_one","1","indirect_first","0","EL08AN01","0","24","1","1","3","1","null","","","<div class = 'row'><div class = 'column'><img src = 'uspos/5830.bmp' width = '100%;'></div><div class = 'column'><img src = 'category3/CS8.png' width = '70%;'></div></div>","null","pos","CS","CS","3","category3/CS8.png","","","","",""
"","html-keyboard-response","25","155197","0.0-6.0-0.0-0.19","mjdyg2lgka","one_one","1","indirect_first","0","EL08AN01","0","24","1","1","3","1","null","","","<div class = 'row'><div class = 'column'><img src = 'category2/CS7.png' width = '70%;'></div><div class = 'column'><img src = 'uspos/1440.bmp' width = '100%;'></div></div>","null","pos","CS","CS","2","category2/CS7.png","","","","",""
"","survey-html-form","26","170863","0.0-6.0-1.0","mjdyg2lgka","one_one","1","indirect_first","0","EL08AN01","0","24","1","1","3","1","15165","","{}","","","","","","","","","","","",""
"","html-keyboard-response","27","174885","0.0-6.0-2.0-0.0","mjdyg2lgka","one_one","1","indirect_first","0","EL08AN01","0","24","1","1","3","1","null","","","<div class = 'row'><div class = 'column'><img src = 'usneg/2205.bmp' width = '100%;'></div><div class = 'column'><img src = 'category4/CS3.png' width = '70%;'></div></div>","null","neg","CS","CS","4","category4/CS3.png","","","","",""
"","html-keyboard-response","28","177425","0.0-6.0-2.0-0.1","mjdyg2lgka","one_one","1","indirect_first","0","EL08AN01","0","24","1","1","3","1","null","","","<div class = 'row'><div class = 'column'><img src = 'category3/CS8.png' width = '70%;'></div><div class = 'column'><img src = 'uspos/5830.bmp' width = '100%;'></div></div>","null","pos","CS","CS","3","category3/CS8.png","","","","",""
"","html-keyboard-response","29","179965","0.0-6.0-2.0-0.2","mjdyg2lgka","one_one","1","indirect_first","0","EL08AN01","0","24","1","1","3","1","null","","","<div class = 'row'><div class = 'column'><img src = 'category2/CS7.png' width = '70%;'></div><div class = 'column'><img src = 'uspos/1440.bmp' width = '100%;'></div></div>","null","pos","CS","CS","2","category2/CS7.png","","","","",""
"","html-keyboard-response","30","182504","0.0-6.0-2.0-0.3","mjdyg2lgka","one_one","1","indirect_first","0","EL08AN01","0","24","1","1","3","1","null","","","<div class = 'row'><div class = 'column'><img src = 'category1/CS10.png' width = '70%;'></div><div class = 'column'><img src = 'usneg/3160.bmp' width = '100%;'></div></div>","null","neg","CS","CS","1","category1/CS10.png","","","","",""
"","html-keyboard-response","31","185044","0.0-6.0-2.0-0.4","mjdyg2lgka","one_one","1","indirect_first","0","EL08AN01","0","24","1","1","3","1","null","","","<div class = 'row'><div class = 'column'><img src = 'category3/CS8.png' width = '70%;'></div><div class = 'column'><img src = 'uspos/5830.bmp' width = '100%;'></div></div>","null","pos","CS","CS","3","category3/CS8.png","","","","",""
"","html-keyboard-response","32","187584","0.0-6.0-2.0-0.5","mjdyg2lgka","one_one","1","indirect_first","0","EL08AN01","0","24","1","1","3","1","null","","","<div class = 'row'><div class = 'column'><img src = 'uspos/1440.bmp' width = '100%;'></div><div class = 'column'><img src = 'category2/CS7.png' width = '70%;'></div></div>","null","pos","CS","CS","2","category2/CS7.png","","","","",""
"","html-keyboard-response","33","190124","0.0-6.0-2.0-0.6","mjdyg2lgka","one_one","1","indirect_first","0","EL08AN01","0","24","1","1","3","1","null","","","<div class = 'row'><div class = 'column'><img src = 'usneg/3160.bmp' width = '100%;'></div><div class = 'column'><img src = 'category1/CS10.png' width = '70%;'></div></div>","null","neg","CS","CS","1","category1/CS10.png","","","","",""
"","html-keyboard-response","34","192664","0.0-6.0-2.0-0.7","mjdyg2lgka","one_one","1","indirect_first","0","EL08AN01","0","24","1","1","3","1","null","","","<div class = 'row'><div class = 'column'><img src = 'uspos/1440.bmp' width = '100%;'></div><div class = 'column'><img src = 'category2/CS7.png' width = '70%;'></div></div>","null","pos","CS","CS","2","category2/CS7.png","","","","",""
"","html-keyboard-response","35","195204","0.0-6.0-2.0-0.8","mjdyg2lgka","one_one","1","indirect_first","0","EL08AN01","0","24","1","1","3","1","null","","","<div class = 'row'><div class = 'column'><img src = 'usneg/2205.bmp' width = '100%;'></div><div class = 'column'><img src = 'category4/CS3.png' width = '70%;'></div></div>","null","neg","CS","CS","4","category4/CS3.png","","","","",""
"","html-keyboard-response","36","197744","0.0-6.0-2.0-0.9","mjdyg2lgka","one_one","1","indirect_first","0","EL08AN01","0","24","1","1","3","1","null","","","<div class = 'row'><div class = 'column'><img src = 'uspos/1440.bmp' width = '100%;'></div><div class = 'column'><img src = 'category2/CS7.png' width = '70%;'></div></div>","null","pos","CS","CS","2","category2/CS7.png","","","","",""
"","html-keyboard-response","37","200284","0.0-6.0-2.0-0.10","mjdyg2lgka","one_one","1","indirect_first","0","EL08AN01","0","24","1","1","3","1","null","","","<div class = 'row'><div class = 'column'><img src = 'usneg/2205.bmp' width = '100%;'></div><div class = 'column'><img src = 'category4/CS3.png' width = '70%;'></div></div>","null","neg","CS","CS","4","category4/CS3.png","","","","",""
"","html-keyboard-response","38","202824","0.0-6.0-2.0-0.11","mjdyg2lgka","one_one","1","indirect_first","0","EL08AN01","0","24","1","1","3","1","null","","","<div class = 'row'><div class = 'column'><img src = 'category1/CS10.png' width = '70%;'></div><div class = 'column'><img src = 'usneg/3160.bmp' width = '100%;'></div></div>","null","neg","CS","CS","1","category1/CS10.png","","","","",""
"","html-keyboard-response","39","205344","0.0-6.0-2.0-0.12","mjdyg2lgka","one_one","1","indirect_first","0","EL08AN01","0","24","1","1","3","1","null","","","<div class = 'row'><div class = 'column'><img src = 'uspos/5830.bmp' width = '100%;'></div><div class = 'column'><img src = 'category3/CS8.png' width = '70%;'></div></div>","null","pos","CS","CS","3","category3/CS8.png","","","","",""
"","html-keyboard-response","40","207885","0.0-6.0-2.0-0.13","mjdyg2lgka","one_one","1","indirect_first","0","EL08AN01","0","24","1","1","3","1","null","","","<div class = 'row'><div class = 'column'><img src = 'category1/CS10.png' width = '70%;'></div><div class = 'column'><img src = 'usneg/3160.bmp' width = '100%;'></div></div>","null","neg","CS","CS","1","category1/CS10.png","","","","",""
"","html-keyboard-response","41","210424","0.0-6.0-2.0-0.14","mjdyg2lgka","one_one","1","indirect_first","0","EL08AN01","0","24","1","1","3","1","null","","","<div class = 'row'><div class = 'column'><img src = 'category4/CS3.png' width = '70%;'></div><div class = 'column'><img src = 'usneg/2205.bmp' width = '100%;'></div></div>","null","neg","CS","CS","4","category4/CS3.png","","","","",""
"","html-keyboard-response","42","212955","0.0-6.0-2.0-0.15","mjdyg2lgka","one_one","1","indirect_first","0","EL08AN01","0","24","1","1","3","1","null","","","<div class = 'row'><div class = 'column'><img src = 'category3/CS8.png' width = '70%;'></div><div class = 'column'><img src = 'uspos/5830.bmp' width = '100%;'></div></div>","null","pos","CS","CS","3","category3/CS8.png","","","","",""
"","html-keyboard-response","43","215475","0.0-6.0-2.0-0.16","mjdyg2lgka","one_one","1","indirect_first","0","EL08AN01","0","24","1","1","3","1","null","","","<div class = 'row'><div class = 'column'><img src = 'category1/CS10.png' width = '70%;'></div><div class = 'column'><img src = 'usneg/3160.bmp' width = '100%;'></div></div>","null","neg","CS","CS","1","category1/CS10.png","","","","",""
"","html-keyboard-response","44","217994","0.0-6.0-2.0-0.17","mjdyg2lgka","one_one","1","indirect_first","0","EL08AN01","0","24","1","1","3","1","null","","","<div class = 'row'><div class = 'column'><img src = 'category2/CS7.png' width = '70%;'></div><div class = 'column'><img src = 'uspos/1440.bmp' width = '100%;'></div></div>","null","pos","CS","CS","2","category2/CS7.png","","","","",""
"","html-keyboard-response","45","220514","0.0-6.0-2.0-0.18","mjdyg2lgka","one_one","1","indirect_first","0","EL08AN01","0","24","1","1","3","1","null","","","<div class = 'row'><div class = 'column'><img src = 'category4/CS3.png' width = '70%;'></div><div class = 'column'><img src = 'usneg/2205.bmp' width = '100%;'></div></div>","null","neg","CS","CS","4","category4/CS3.png","","","","",""
"","html-keyboard-response","46","223054","0.0-6.0-2.0-0.19","mjdyg2lgka","one_one","1","indirect_first","0","EL08AN01","0","24","1","1","3","1","null","","","<div class = 'row'><div class = 'column'><img src = 'uspos/5830.bmp' width = '100%;'></div><div class = 'column'><img src = 'category3/CS8.png' width = '70%;'></div></div>","null","pos","CS","CS","3","category3/CS8.png","","","","",""
"","survey-html-form","47","251429","0.0-6.0-3.0","mjdyg2lgka","one_one","1","indirect_first","0","EL08AN01","0","24","1","1","3","1","27856","","{}","","","","","","","","","","","",""
"","html-keyboard-response","48","255464","0.0-6.0-4.0-0.0","mjdyg2lgka","one_one","1","indirect_first","0","EL08AN01","0","24","1","1","3","1","null","","","<div class = 'row'><div class = 'column'><img src = 'category2/CS7.png' width = '70%;'></div><div class = 'column'><img src = 'uspos/1440.bmp' width = '100%;'></div></div>","null","pos","CS","CS","2","category2/CS7.png","","","","",""
"","html-keyboard-response","49","258003","0.0-6.0-4.0-0.1","mjdyg2lgka","one_one","1","indirect_first","0","EL08AN01","0","24","1","1","3","1","null","","","<div class = 'row'><div class = 'column'><img src = 'usneg/3160.bmp' width = '100%;'></div><div class = 'column'><img src = 'category1/CS10.png' width = '70%;'></div></div>","null","neg","CS","CS","1","category1/CS10.png","","","","",""
"","html-keyboard-response","50","260544","0.0-6.0-4.0-0.2","mjdyg2lgka","one_one","1","indirect_first","0","EL08AN01","0","24","1","1","3","1","null","","","<div class = 'row'><div class = 'column'><img src = 'category2/CS7.png' width = '70%;'></div><div class = 'column'><img src = 'uspos/1440.bmp' width = '100%;'></div></div>","null","pos","CS","CS","2","category2/CS7.png","","","","",""
"","html-keyboard-response","51","263083","0.0-6.0-4.0-0.3","mjdyg2lgka","one_one","1","indirect_first","0","EL08AN01","0","24","1","1","3","1","null","","","<div class = 'row'><div class = 'column'><img src = 'uspos/5830.bmp' width = '100%;'></div><div class = 'column'><img src = 'category3/CS8.png' width = '70%;'></div></div>","null","pos","CS","CS","3","category3/CS8.png","","","","",""
"","html-keyboard-response","52","265624","0.0-6.0-4.0-0.4","mjdyg2lgka","one_one","1","indirect_first","0","EL08AN01","0","24","1","1","3","1","null","","","<div class = 'row'><div class = 'column'><img src = 'category2/CS7.png' width = '70%;'></div><div class = 'column'><img src = 'uspos/1440.bmp' width = '100%;'></div></div>","null","pos","CS","CS","2","category2/CS7.png","","","","",""
"","html-keyboard-response","53","268164","0.0-6.0-4.0-0.5","mjdyg2lgka","one_one","1","indirect_first","0","EL08AN01","0","24","1","1","3","1","null","","","<div class = 'row'><div class = 'column'><img src = 'uspos/5830.bmp' width = '100%;'></div><div class = 'column'><img src = 'category3/CS8.png' width = '70%;'></div></div>","null","pos","CS","CS","3","category3/CS8.png","","","","",""
"","html-keyboard-response","54","270703","0.0-6.0-4.0-0.6","mjdyg2lgka","one_one","1","indirect_first","0","EL08AN01","0","24","1","1","3","1","null","","","<div class = 'row'><div class = 'column'><img src = 'uspos/1440.bmp' width = '100%;'></div><div class = 'column'><img src = 'category2/CS7.png' width = '70%;'></div></div>","null","pos","CS","CS","2","category2/CS7.png","","","","",""
"","html-keyboard-response","55","273243","0.0-6.0-4.0-0.7","mjdyg2lgka","one_one","1","indirect_first","0","EL08AN01","0","24","1","1","3","1","null","","","<div class = 'row'><div class = 'column'><img src = 'category4/CS3.png' width = '70%;'></div><div class = 'column'><img src = 'usneg/2205.bmp' width = '100%;'></div></div>","null","neg","CS","CS","4","category4/CS3.png","","","","",""
"","html-keyboard-response","56","275774","0.0-6.0-4.0-0.8","mjdyg2lgka","one_one","1","indirect_first","0","EL08AN01","0","24","1","1","3","1","null","","","<div class = 'row'><div class = 'column'><img src = 'category3/CS8.png' width = '70%;'></div><div class = 'column'><img src = 'uspos/5830.bmp' width = '100%;'></div></div>","null","pos","CS","CS","3","category3/CS8.png","","","","",""
"","html-keyboard-response","57","278303","0.0-6.0-4.0-0.9","mjdyg2lgka","one_one","1","indirect_first","0","EL08AN01","0","24","1","1","3","1","null","","","<div class = 'row'><div class = 'column'><img src = 'category4/CS3.png' width = '70%;'></div><div class = 'column'><img src = 'usneg/2205.bmp' width = '100%;'></div></div>","null","neg","CS","CS","4","category4/CS3.png","","","","",""
"","html-keyboard-response","58","280844","0.0-6.0-4.0-0.10","mjdyg2lgka","one_one","1","indirect_first","0","EL08AN01","0","24","1","1","3","1","null","","","<div class = 'row'><div class = 'column'><img src = 'category3/CS8.png' width = '70%;'></div><div class = 'column'><img src = 'uspos/5830.bmp' width = '100%;'></div></div>","null","pos","CS","CS","3","category3/CS8.png","","","","",""
"","html-keyboard-response","59","283384","0.0-6.0-4.0-0.11","mjdyg2lgka","one_one","1","indirect_first","0","EL08AN01","0","24","1","1","3","1","null","","","<div class = 'row'><div class = 'column'><img src = 'category1/CS10.png' width = '70%;'></div><div class = 'column'><img src = 'usneg/3160.bmp' width = '100%;'></div></div>","null","neg","CS","CS","1","category1/CS10.png","","","","",""
"","html-keyboard-response","60","285924","0.0-6.0-4.0-0.12","mjdyg2lgka","one_one","1","indirect_first","0","EL08AN01","0","24","1","1","3","1","null","","","<div class = 'row'><div class = 'column'><img src = 'category4/CS3.png' width = '70%;'></div><div class = 'column'><img src = 'usneg/2205.bmp' width = '100%;'></div></div>","null","neg","CS","CS","4","category4/CS3.png","","","","",""
"","html-keyboard-response","61","288463","0.0-6.0-4.0-0.13","mjdyg2lgka","one_one","1","indirect_first","0","EL08AN01","0","24","1","1","3","1","null","","","<div class = 'row'><div class = 'column'><img src = 'category2/CS7.png' width = '70%;'></div><div class = 'column'><img src = 'uspos/1440.bmp' width = '100%;'></div></div>","null","pos","CS","CS","2","category2/CS7.png","","","","",""
"","html-keyboard-response","62","291001","0.0-6.0-4.0-0.14","mjdyg2lgka","one_one","1","indirect_first","0","EL08AN01","0","24","1","1","3","1","null","","","<div class = 'row'><div class = 'column'><img src = 'uspos/5830.bmp' width = '100%;'></div><div class = 'column'><img src = 'category3/CS8.png' width = '70%;'></div></div>","null","pos","CS","CS","3","category3/CS8.png","","","","",""
"","html-keyboard-response","63","293503","0.0-6.0-4.0-0.15","mjdyg2lgka","one_one","1","indirect_first","0","EL08AN01","0","24","1","1","3","1","null","","","<div class = 'row'><div class = 'column'><img src = 'usneg/3160.bmp' width = '100%;'></div><div class = 'column'><img src = 'category1/CS10.png' width = '70%;'></div></div>","null","neg","CS","CS","1","category1/CS10.png","","","","",""
"","html-keyboard-response","64","296023","0.0-6.0-4.0-0.16","mjdyg2lgka","one_one","1","indirect_first","0","EL08AN01","0","24","1","1","3","1","null","","","<div class = 'row'><div class = 'column'><img src = 'category4/CS3.png' width = '70%;'></div><div class = 'column'><img src = 'usneg/2205.bmp' width = '100%;'></div></div>","null","neg","CS","CS","4","category4/CS3.png","","","","",""
"","html-keyboard-response","65","298564","0.0-6.0-4.0-0.17","mjdyg2lgka","one_one","1","indirect_first","0","EL08AN01","0","24","1","1","3","1","null","","","<div class = 'row'><div class = 'column'><img src = 'usneg/3160.bmp' width = '100%;'></div><div class = 'column'><img src = 'category1/CS10.png' width = '70%;'></div></div>","null","neg","CS","CS","1","category1/CS10.png","","","","",""
"","html-keyboard-response","66","301103","0.0-6.0-4.0-0.18","mjdyg2lgka","one_one","1","indirect_first","0","EL08AN01","0","24","1","1","3","1","null","","","<div class = 'row'><div class = 'column'><img src = 'usneg/2205.bmp' width = '100%;'></div><div class = 'column'><img src = 'category4/CS3.png' width = '70%;'></div></div>","null","neg","CS","CS","4","category4/CS3.png","","","","",""
"","html-keyboard-response","67","303643","0.0-6.0-4.0-0.19","mjdyg2lgka","one_one","1","indirect_first","0","EL08AN01","0","24","1","1","3","1","null","","","<div class = 'row'><div class = 'column'><img src = 'category1/CS10.png' width = '70%;'></div><div class = 'column'><img src = 'usneg/3160.bmp' width = '100%;'></div></div>","null","neg","CS","CS","1","category1/CS10.png","","","","",""
"","survey-html-form","68","308965","0.0-6.0-5.0","mjdyg2lgka","one_one","1","indirect_first","0","EL08AN01","0","24","1","1","3","1","4802","","{}","","","","","","","","","","","",""
"","html-keyboard-response","69","312993","0.0-6.0-6.0-0.0","mjdyg2lgka","one_one","1","indirect_first","0","EL08AN01","0","24","1","1","3","1","null","","","<div class = 'row'><div class = 'column'><img src = 'category2/CS7.png' width = '70%;'></div><div class = 'column'><img src = 'uspos/1440.bmp' width = '100%;'></div></div>","null","pos","CS","CS","2","category2/CS7.png","","","","",""
"","html-keyboard-response","70","315533","0.0-6.0-6.0-0.1","mjdyg2lgka","one_one","1","indirect_first","0","EL08AN01","0","24","1","1","3","1","null","","","<div class = 'row'><div class = 'column'><img src = 'category3/CS8.png' width = '70%;'></div><div class = 'column'><img src = 'uspos/5830.bmp' width = '100%;'></div></div>","null","pos","CS","CS","3","category3/CS8.png","","","","",""
"","html-keyboard-response","71","318053","0.0-6.0-6.0-0.2","mjdyg2lgka","one_one","1","indirect_first","0","EL08AN01","0","24","1","1","3","1","null","","","<div class = 'row'><div class = 'column'><img src = 'usneg/2205.bmp' width = '100%;'></div><div class = 'column'><img src = 'category4/CS3.png' width = '70%;'></div></div>","null","neg","CS","CS","4","category4/CS3.png","","","","",""
"","html-keyboard-response","72","320593","0.0-6.0-6.0-0.3","mjdyg2lgka","one_one","1","indirect_first","0","EL08AN01","0","24","1","1","3","1","null","","","<div class = 'row'><div class = 'column'><img src = 'uspos/1440.bmp' width = '100%;'></div><div class = 'column'><img src = 'category2/CS7.png' width = '70%;'></div></div>","null","pos","CS","CS","2","category2/CS7.png","","","","",""
"","html-keyboard-response","73","323133","0.0-6.0-6.0-0.4","mjdyg2lgka","one_one","1","indirect_first","0","EL08AN01","0","24","1","1","3","1","null","","","<div class = 'row'><div class = 'column'><img src = 'category1/CS10.png' width = '70%;'></div><div class = 'column'><img src = 'usneg/3160.bmp' width = '100%;'></div></div>","null","neg","CS","CS","1","category1/CS10.png","","","","",""
"","html-keyboard-response","74","325673","0.0-6.0-6.0-0.5","mjdyg2lgka","one_one","1","indirect_first","0","EL08AN01","0","24","1","1","3","1","null","","","<div class = 'row'><div class = 'column'><img src = 'category2/CS7.png' width = '70%;'></div><div class = 'column'><img src = 'uspos/1440.bmp' width = '100%;'></div></div>","null","pos","CS","CS","2","category2/CS7.png","","","","",""
"","html-keyboard-response","75","328213","0.0-6.0-6.0-0.6","mjdyg2lgka","one_one","1","indirect_first","0","EL08AN01","0","24","1","1","3","1","null","","","<div class = 'row'><div class = 'column'><img src = 'category4/CS3.png' width = '70%;'></div><div class = 'column'><img src = 'usneg/2205.bmp' width = '100%;'></div></div>","null","neg","CS","CS","4","category4/CS3.png","","","","",""
"","html-keyboard-response","76","330753","0.0-6.0-6.0-0.7","mjdyg2lgka","one_one","1","indirect_first","0","EL08AN01","0","24","1","1","3","1","null","","","<div class = 'row'><div class = 'column'><img src = 'uspos/1440.bmp' width = '100%;'></div><div class = 'column'><img src = 'category2/CS7.png' width = '70%;'></div></div>","null","pos","CS","CS","2","category2/CS7.png","","","","",""
"","html-keyboard-response","77","333293","0.0-6.0-6.0-0.8","mjdyg2lgka","one_one","1","indirect_first","0","EL08AN01","0","24","1","1","3","1","null","","","<div class = 'row'><div class = 'column'><img src = 'uspos/5830.bmp' width = '100%;'></div><div class = 'column'><img src = 'category3/CS8.png' width = '70%;'></div></div>","null","pos","CS","CS","3","category3/CS8.png","","","","",""
"","html-keyboard-response","78","335833","0.0-6.0-6.0-0.9","mjdyg2lgka","one_one","1","indirect_first","0","EL08AN01","0","24","1","1","3","1","null","","","<div class = 'row'><div class = 'column'><img src = 'usneg/2205.bmp' width = '100%;'></div><div class = 'column'><img src = 'category4/CS3.png' width = '70%;'></div></div>","null","neg","CS","CS","4","category4/CS3.png","","","","",""
"","html-keyboard-response","79","338373","0.0-6.0-6.0-0.10","mjdyg2lgka","one_one","1","indirect_first","0","EL08AN01","0","24","1","1","3","1","null","","","<div class = 'row'><div class = 'column'><img src = 'category3/CS8.png' width = '70%;'></div><div class = 'column'><img src = 'uspos/5830.bmp' width = '100%;'></div></div>","null","pos","CS","CS","3","category3/CS8.png","","","","",""
"","html-keyboard-response","80","340913","0.0-6.0-6.0-0.11","mjdyg2lgka","one_one","1","indirect_first","0","EL08AN01","0","24","1","1","3","1","null","","","<div class = 'row'><div class = 'column'><img src = 'usneg/2205.bmp' width = '100%;'></div><div class = 'column'><img src = 'category4/CS3.png' width = '70%;'></div></div>","null","neg","CS","CS","4","category4/CS3.png","","","","",""
"","html-keyboard-response","81","343433","0.0-6.0-6.0-0.12","mjdyg2lgka","one_one","1","indirect_first","0","EL08AN01","0","24","1","1","3","1","null","","","<div class = 'row'><div class = 'column'><img src = 'uspos/5830.bmp' width = '100%;'></div><div class = 'column'><img src = 'category3/CS8.png' width = '70%;'></div></div>","null","pos","CS","CS","3","category3/CS8.png","","","","",""
"","html-keyboard-response","82","345973","0.0-6.0-6.0-0.13","mjdyg2lgka","one_one","1","indirect_first","0","EL08AN01","0","24","1","1","3","1","null","","","<div class = 'row'><div class = 'column'><img src = 'category1/CS10.png' width = '70%;'></div><div class = 'column'><img src = 'usneg/3160.bmp' width = '100%;'></div></div>","null","neg","CS","CS","1","category1/CS10.png","","","","",""
"","html-keyboard-response","83","348513","0.0-6.0-6.0-0.14","mjdyg2lgka","one_one","1","indirect_first","0","EL08AN01","0","24","1","1","3","1","null","","","<div class = 'row'><div class = 'column'><img src = 'category2/CS7.png' width = '70%;'></div><div class = 'column'><img src = 'uspos/1440.bmp' width = '100%;'></div></div>","null","pos","CS","CS","2","category2/CS7.png","","","","",""
"","html-keyboard-response","84","351043","0.0-6.0-6.0-0.15","mjdyg2lgka","one_one","1","indirect_first","0","EL08AN01","0","24","1","1","3","1","null","","","<div class = 'row'><div class = 'column'><img src = 'usneg/3160.bmp' width = '100%;'></div><div class = 'column'><img src = 'category1/CS10.png' width = '70%;'></div></div>","null","neg","CS","CS","1","category1/CS10.png","","","","",""
"","html-keyboard-response","85","353582","0.0-6.0-6.0-0.16","mjdyg2lgka","one_one","1","indirect_first","0","EL08AN01","0","24","1","1","3","1","null","","","<div class = 'row'><div class = 'column'><img src = 'usneg/2205.bmp' width = '100%;'></div><div class = 'column'><img src = 'category4/CS3.png' width = '70%;'></div></div>","null","neg","CS","CS","4","category4/CS3.png","","","","",""
"","html-keyboard-response","86","356113","0.0-6.0-6.0-0.17","mjdyg2lgka","one_one","1","indirect_first","0","EL08AN01","0","24","1","1","3","1","null","","","<div class = 'row'><div class = 'column'><img src = 'usneg/3160.bmp' width = '100%;'></div><div class = 'column'><img src = 'category1/CS10.png' width = '70%;'></div></div>","null","neg","CS","CS","1","category1/CS10.png","","","","",""
"","html-keyboard-response","87","358652","0.0-6.0-6.0-0.18","mjdyg2lgka","one_one","1","indirect_first","0","EL08AN01","0","24","1","1","3","1","null","","","<div class = 'row'><div class = 'column'><img src = 'uspos/5830.bmp' width = '100%;'></div><div class = 'column'><img src = 'category3/CS8.png' width = '70%;'></div></div>","null","pos","CS","CS","3","category3/CS8.png","","","","",""
"","html-keyboard-response","88","361192","0.0-6.0-6.0-0.19","mjdyg2lgka","one_one","1","indirect_first","0","EL08AN01","0","24","1","1","3","1","null","","","<div class = 'row'><div class = 'column'><img src = 'category1/CS10.png' width = '70%;'></div><div class = 'column'><img src = 'usneg/3160.bmp' width = '100%;'></div></div>","null","neg","CS","CS","1","category1/CS10.png","","","","",""
"","html-keyboard-response","89","406806","0.0-7.0","mjdyg2lgka","one_one","1","indirect_first","0","EL08AN01","0","24","1","1","3","1","45112","","","<p>Sie sehen nun die chinesischen Zeichen nur ganz kurz, und danach die jeweilige Aussprache der Zeichen. Ihre Aufgabe ist es, für jede Silbe anzugeben, ob diese etwas angenehmes, oder unangenehmes bedeuten könnte. Verlassen Sie sich hier vor allem auf Ihre Intuition.<br><br>Die Zeichen werden nur zur Orientierung dargestellt, beachten Sie sie deshalb nicht. Konzentrieren Sie sich vor allem auf die Silben. <br>Reagieren Sie mit folgenden zwei Tasten: <br><br><b>'D' </b> wenn die Silbe etwas <b>unangenehmes</b> bedeuten könnte. <br><b>'K'</b> wenn die Silbe etwas <b>angenehmes</b> bedeuten könnte. <br><br>Bitte legen Sie nun den Zeigefinger der linken Hand auf die Taste 'D' und den Zeigefinger der rechten Hand auf die Taste 'K'. <br>Reagieren Sie auf jede Silbe so schnell wie möglich. Uns interessiert Ihre spontane Reaktion. <br> <br> <br>Drücken Sie 'D' oder 'K', um die nächste Aufgabe zu starten. </p>","68","","","","","","","","","",""
"","html-keyboard-response","90","409833","0.0-8.0-0.0","mjdyg2lgka","one_one","1","indirect_first","0","EL08AN01","0","24","1","1","3","1","null","","","<div style=""font-size:60px;"">+</div>","null","","","","","","","","","",""
"","html-keyboard-response","91","409932","0.0-8.0-1.0","mjdyg2lgka","one_one","1","indirect_first","0","EL08AN01","0","24","1","1","3","1","null","","","<img src = 'category2/CS3.png' width = '100%;'>","null","","","","","","","","","",""
"","html-keyboard-response","92","410213","0.0-8.0-2.0","mjdyg2lgka","one_one","1","indirect_first","0","EL08AN01","0","24","1","1","3","1","null","","","<img src = 'targets/1.png' width = '100%;'>","null","","","","","","","","","",""
"","html-keyboard-response","93","413068","0.0-8.0-3.0","mjdyg2lgka","one_one","1","indirect_first","0","EL08AN01","0","24","1","1","3","1","2853","","","<img src = 'targets/mask.png' width = '100%;'>","68","pos","GS","GSold","2","category2/CS3.png","targets/1.png","0","indirect","0",""
"","html-keyboard-response","94","414602","0.0-8.0-0.1","mjdyg2lgka","one_one","1","indirect_first","0","EL08AN01","0","24","1","1","3","1","null","","","<div style=""font-size:60px;"">+</div>","null","","","","","","","","","",""
"","html-keyboard-response","95","414703","0.0-8.0-1.1","mjdyg2lgka","one_one","1","indirect_first","0","EL08AN01","0","24","1","1","3","1","null","","","<img src = 'category1/CS10.png' width = '100%;'>","null","","","","","","","","","",""
"","html-keyboard-response","96","414983","0.0-8.0-2.1","mjdyg2lgka","one_one","1","indirect_first","0","EL08AN01","0","24","1","1","3","1","null","","","<img src = 'targets/19.png' width = '100%;'>","null","","","","","","","","","",""
"","html-keyboard-response","97","417037","0.0-8.0-3.1","mjdyg2lgka","one_one","1","indirect_first","0","EL08AN01","0","24","1","1","3","1","2052","","","<img src = 'targets/mask.png' width = '100%;'>","75","neg","CS","CS","1","category1/CS10.png","targets/19.png","1","indirect","1",""
"","html-keyboard-response","98","418562","0.0-8.0-0.2","mjdyg2lgka","one_one","1","indirect_first","0","EL08AN01","0","24","1","1","3","1","null","","","<div style=""font-size:60px;"">+</div>","null","","","","","","","","","",""
"","html-keyboard-response","99","418663","0.0-8.0-1.2","mjdyg2lgka","one_one","1","indirect_first","0","EL08AN01","0","24","1","1","3","1","null","","","<img src = 'category2/CS9.png' width = '100%;'>","null","","","","","","","","","",""
"","html-keyboard-response","100","418942","0.0-8.0-2.2","mjdyg2lgka","one_one","1","indirect_first","0","EL08AN01","0","24","1","1","3","1","null","","","<img src = 'targets/39.png' width = '100%;'>","null","","","","","","","","","",""
"","html-keyboard-response","101","420829","0.0-8.0-3.2","mjdyg2lgka","one_one","1","indirect_first","0","EL08AN01","0","24","1","1","3","1","1885","","","<img src = 'targets/mask.png' width = '100%;'>","68","pos","GS","GSold","2","category2/CS9.png","targets/39.png","0","indirect","2",""
"","html-keyboard-response","102","422362","0.0-8.0-0.3","mjdyg2lgka","one_one","1","indirect_first","0","EL08AN01","0","24","1","1","3","1","null","","","<div style=""font-size:60px;"">+</div>","null","","","","","","","","","",""
"","html-keyboard-response","103","422462","0.0-8.0-1.3","mjdyg2lgka","one_one","1","indirect_first","0","EL08AN01","0","24","1","1","3","1","null","","","<img src = 'category1/CS6.png' width = '100%;'>","null","","","","","","","","","",""
"","html-keyboard-response","104","422742","0.0-8.0-2.3","mjdyg2lgka","one_one","1","indirect_first","0","EL08AN01","0","24","1","1","3","1","null","","","<img src = 'targets/45.png' width = '100%;'>","null","","","","","","","","","",""
"","html-keyboard-response","105","423908","0.0-8.0-3.3","mjdyg2lgka","one_one","1","indirect_first","0","EL08AN01","0","24","1","1","3","1","1164","","","<img src = 'targets/mask.png' width = '100%;'>","75","neg","GS","GSold","1","category1/CS6.png","targets/45.png","1","indirect","3",""
"","html-keyboard-response","106","425432","0.0-8.0-0.4","mjdyg2lgka","one_one","1","indirect_first","0","EL08AN01","0","24","1","1","3","1","null","","","<div style=""font-size:60px;"">+</div>","null","","","","","","","","","",""
"","html-keyboard-response","107","425533","0.0-8.0-1.4","mjdyg2lgka","one_one","1","indirect_first","0","EL08AN01","0","24","1","1","3","1","null","","","<img src = 'category2/CS7.png' width = '100%;'>","null","","","","","","","","","",""
"","html-keyboard-response","108","425813","0.0-8.0-2.4","mjdyg2lgka","one_one","1","indirect_first","0","EL08AN01","0","24","1","1","3","1","null","","","<img src = 'targets/20.png' width = '100%;'>","null","","","","","","","","","",""
"","html-keyboard-response","109","427365","0.0-8.0-3.4","mjdyg2lgka","one_one","1","indirect_first","0","EL08AN01","0","24","1","1","3","1","1551","","","<img src = 'targets/mask.png' width = '100%;'>","75","pos","CS","CS","2","category2/CS7.png","targets/20.png","1","indirect","4",""
"","html-keyboard-response","110","428902","0.0-8.0-0.5","mjdyg2lgka","one_one","1","indirect_first","0","EL08AN01","0","24","1","1","3","1","null","","","<div style=""font-size:60px;"">+</div>","null","","","","","","","","","",""
"","html-keyboard-response","111","429002","0.0-8.0-1.5","mjdyg2lgka","one_one","1","indirect_first","0","EL08AN01","0","24","1","1","3","1","null","","","<img src = 'category1/CS8.png' width = '100%;'>","null","","","","","","","","","",""
"","html-keyboard-response","112","429283","0.0-8.0-2.5","mjdyg2lgka","one_one","1","indirect_first","0","EL08AN01","0","24","1","1","3","1","null","","","<img src = 'targets/42.png' width = '100%;'>","null","","","","","","","","","",""
"","html-keyboard-response","113","431597","0.0-8.0-3.5","mjdyg2lgka","one_one","1","indirect_first","0","EL08AN01","0","24","1","1","3","1","2312","","","<img src = 'targets/mask.png' width = '100%;'>","75","neg","GS","GSold","1","category1/CS8.png","targets/42.png","1","indirect","5",""
"","html-keyboard-response","114","433122","0.0-8.0-0.6","mjdyg2lgka","one_one","1","indirect_first","0","EL08AN01","0","24","1","1","3","1","null","","","<div style=""font-size:60px;"">+</div>","null","","","","","","","","","",""
"","html-keyboard-response","115","433222","0.0-8.0-1.6","mjdyg2lgka","one_one","1","indirect_first","0","EL08AN01","0","24","1","1","3","1","null","","","<img src = 'category4/CS2.png' width = '100%;'>","null","","","","","","","","","",""
"","html-keyboard-response","116","433502","0.0-8.0-2.6","mjdyg2lgka","one_one","1","indirect_first","0","EL08AN01","0","24","1","1","3","1","null","","","<img src = 'targets/43.png' width = '100%;'>","null","","","","","","","","","",""
"","html-keyboard-response","117","434804","0.0-8.0-3.6","mjdyg2lgka","one_one","1","indirect_first","0","EL08AN01","0","24","1","1","3","1","1301","","","<img src = 'targets/mask.png' width = '100%;'>","68","neg","GS","GSold","4","category4/CS2.png","targets/43.png","0","indirect","6",""
"","html-keyboard-response","118","436342","0.0-8.0-0.7","mjdyg2lgka","one_one","1","indirect_first","0","EL08AN01","0","24","1","1","3","1","null","","","<div style=""font-size:60px;"">+</div>","null","","","","","","","","","",""
"","html-keyboard-response","119","436442","0.0-8.0-1.7","mjdyg2lgka","one_one","1","indirect_first","0","EL08AN01","0","24","1","1","3","1","null","","","<img src = 'category3/CS8.png' width = '100%;'>","null","","","","","","","","","",""
"","html-keyboard-response","120","436722","0.0-8.0-2.7","mjdyg2lgka","one_one","1","indirect_first","0","EL08AN01","0","24","1","1","3","1","null","","","<img src = 'targets/21.png' width = '100%;'>","null","","","","","","","","","",""
"","html-keyboard-response","121","438269","0.0-8.0-3.7","mjdyg2lgka","one_one","1","indirect_first","0","EL08AN01","0","24","1","1","3","1","1545","","","<img src = 'targets/mask.png' width = '100%;'>","68","pos","CS","CS","3","category3/CS8.png","targets/21.png","0","indirect","7",""
"","html-keyboard-response","122","439802","0.0-8.0-0.8","mjdyg2lgka","one_one","1","indirect_first","0","EL08AN01","0","24","1","1","3","1","null","","","<div style=""font-size:60px;"">+</div>","null","","","","","","","","","",""
"","html-keyboard-response","123","439902","0.0-8.0-1.8","mjdyg2lgka","one_one","1","indirect_first","0","EL08AN01","0","24","1","1","3","1","null","","","<img src = 'category1/CS4.png' width = '100%;'>","null","","","","","","","","","",""
"","html-keyboard-response","124","440182","0.0-8.0-2.8","mjdyg2lgka","one_one","1","indirect_first","0","EL08AN01","0","24","1","1","3","1","null","","","<img src = 'targets/25.png' width = '100%;'>","null","","","","","","","","","",""
"","html-keyboard-response","125","441916","0.0-8.0-3.8","mjdyg2lgka","one_one","1","indirect_first","0","EL08AN01","0","24","1","1","3","1","1733","","","<img src = 'targets/mask.png' width = '100%;'>","68","neg","GS","GSold","1","category1/CS4.png","targets/25.png","0","indirect","8",""
"","html-keyboard-response","126","443441","0.0-8.0-0.9","mjdyg2lgka","one_one","1","indirect_first","0","EL08AN01","0","24","1","1","3","1","null","","","<div style=""font-size:60px;"">+</div>","null","","","","","","","","","",""
"","html-keyboard-response","127","443542","0.0-8.0-1.9","mjdyg2lgka","one_one","1","indirect_first","0","EL08AN01","0","24","1","1","3","1","null","","","<img src = 'category2/CS5.png' width = '100%;'>","null","","","","","","","","","",""
"","html-keyboard-response","128","443822","0.0-8.0-2.9","mjdyg2lgka","one_one","1","indirect_first","0","EL08AN01","0","24","1","1","3","1","null","","","<img src = 'targets/41.png' width = '100%;'>","null","","","","","","","","","",""
"","html-keyboard-response","129","445340","0.0-8.0-3.9","mjdyg2lgka","one_one","1","indirect_first","0","EL08AN01","0","24","1","1","3","1","1516","","","<img src = 'targets/mask.png' width = '100%;'>","75","pos","GS","GSold","2","category2/CS5.png","targets/41.png","1","indirect","9",""
"","html-keyboard-response","130","446862","0.0-8.0-0.10","mjdyg2lgka","one_one","1","indirect_first","0","EL08AN01","0","24","1","1","3","1","null","","","<div style=""font-size:60px;"">+</div>","null","","","","","","","","","",""
"","html-keyboard-response","131","446962","0.0-8.0-1.10","mjdyg2lgka","one_one","1","indirect_first","0","EL08AN01","0","24","1","1","3","1","null","","","<img src = 'category3/CS7.png' width = '100%;'>","null","","","","","","","","","",""
"","html-keyboard-response","132","447242","0.0-8.0-2.10","mjdyg2lgka","one_one","1","indirect_first","0","EL08AN01","0","24","1","1","3","1","null","","","<img src = 'targets/4.png' width = '100%;'>","null","","","","","","","","","",""
"","html-keyboard-response","133","449004","0.0-8.0-3.10","mjdyg2lgka","one_one","1","indirect_first","0","EL08AN01","0","24","1","1","3","1","1760","","","<img src = 'targets/mask.png' width = '100%;'>","68","pos","GS","GSold","3","category3/CS7.png","targets/4.png","0","indirect","10",""
"","html-keyboard-response","134","450522","0.0-8.0-0.11","mjdyg2lgka","one_one","1","indirect_first","0","EL08AN01","0","24","1","1","3","1","null","","","<div style=""font-size:60px;"">+</div>","null","","","","","","","","","",""
"","html-keyboard-response","135","450622","0.0-8.0-1.11","mjdyg2lgka","one_one","1","indirect_first","0","EL08AN01","0","24","1","1","3","1","null","","","<img src = 'category4/CS9.png' width = '100%;'>","null","","","","","","","","","",""
"","html-keyboard-response","136","450902","0.0-8.0-2.11","mjdyg2lgka","one_one","1","indirect_first","0","EL08AN01","0","24","1","1","3","1","null","","","<img src = 'targets/18.png' width = '100%;'>","null","","","","","","","","","",""
"","html-keyboard-response","137","452180","0.0-8.0-3.11","mjdyg2lgka","one_one","1","indirect_first","0","EL08AN01","0","24","1","1","3","1","1275","","","<img src = 'targets/mask.png' width = '100%;'>","75","neg","GS","GSold","4","category4/CS9.png","targets/18.png","1","indirect","11",""
"","html-keyboard-response","138","453702","0.0-8.0-0.12","mjdyg2lgka","one_one","1","indirect_first","0","EL08AN01","0","24","1","1","3","1","null","","","<div style=""font-size:60px;"">+</div>","null","","","","","","","","","",""
"","html-keyboard-response","139","453802","0.0-8.0-1.12","mjdyg2lgka","one_one","1","indirect_first","0","EL08AN01","0","24","1","1","3","1","null","","","<img src = 'category3/CS1.png' width = '100%;'>","null","","","","","","","","","",""
"","html-keyboard-response","140","454082","0.0-8.0-2.12","mjdyg2lgka","one_one","1","indirect_first","0","EL08AN01","0","24","1","1","3","1","null","","","<img src = 'targets/38.png' width = '100%;'>","null","","","","","","","","","",""
"","html-keyboard-response","141","455828","0.0-8.0-3.12","mjdyg2lgka","one_one","1","indirect_first","0","EL08AN01","0","24","1","1","3","1","1744","","","<img src = 'targets/mask.png' width = '100%;'>","75","pos","GS","GSold","3","category3/CS1.png","targets/38.png","1","indirect","12",""
"","html-keyboard-response","142","457342","0.0-8.0-0.13","mjdyg2lgka","one_one","1","indirect_first","0","EL08AN01","0","24","1","1","3","1","null","","","<div style=""font-size:60px;"">+</div>","null","","","","","","","","","",""
"","html-keyboard-response","143","457442","0.0-8.0-1.13","mjdyg2lgka","one_one","1","indirect_first","0","EL08AN01","0","24","1","1","3","1","null","","","<img src = 'category4/CS3.png' width = '100%;'>","null","","","","","","","","","",""
"","html-keyboard-response","144","457722","0.0-8.0-2.13","mjdyg2lgka","one_one","1","indirect_first","0","EL08AN01","0","24","1","1","3","1","null","","","<img src = 'targets/12.png' width = '100%;'>","null","","","","","","","","","",""
"","html-keyboard-response","145","459492","0.0-8.0-3.13","mjdyg2lgka","one_one","1","indirect_first","0","EL08AN01","0","24","1","1","3","1","1768","","","<img src = 'targets/mask.png' width = '100%;'>","68","neg","CS","CS","4","category4/CS3.png","targets/12.png","0","indirect","13",""
"","html-keyboard-response","146","461001","0.0-8.0-0.14","mjdyg2lgka","one_one","1","indirect_first","0","EL08AN01","0","24","1","1","3","1","null","","","<div style=""font-size:60px;"">+</div>","null","","","","","","","","","",""
"","html-keyboard-response","147","461102","0.0-8.0-1.14","mjdyg2lgka","one_one","1","indirect_first","0","EL08AN01","0","24","1","1","3","1","null","","","<img src = 'category3/CS10.png' width = '100%;'>","null","","","","","","","","","",""
"","html-keyboard-response","148","461382","0.0-8.0-2.14","mjdyg2lgka","one_one","1","indirect_first","0","EL08AN01","0","24","1","1","3","1","null","","","<img src = 'targets/6.png' width = '100%;'>","null","","","","","","","","","",""
"","html-keyboard-response","149","462851","0.0-8.0-3.14","mjdyg2lgka","one_one","1","indirect_first","0","EL08AN01","0","24","1","1","3","1","1468","","","<img src = 'targets/mask.png' width = '100%;'>","68","pos","GS","GSold","3","category3/CS10.png","targets/6.png","0","indirect","14",""
"","html-keyboard-response","150","464382","0.0-8.0-0.15","mjdyg2lgka","one_one","1","indirect_first","0","EL08AN01","0","24","1","1","3","1","null","","","<div style=""font-size:60px;"">+</div>","null","","","","","","","","","",""
"","html-keyboard-response","151","464482","0.0-8.0-1.15","mjdyg2lgka","one_one","1","indirect_first","0","EL08AN01","0","24","1","1","3","1","null","","","<img src = 'category4/CS8.png' width = '100%;'>","null","","","","","","","","","",""
"","html-keyboard-response","152","464762","0.0-8.0-2.15","mjdyg2lgka","one_one","1","indirect_first","0","EL08AN01","0","24","1","1","3","1","null","","","<img src = 'targets/27.png' width = '100%;'>","null","","","","","","","","","",""
"","html-keyboard-response","153","465996","0.0-8.0-3.15","mjdyg2lgka","one_one","1","indirect_first","0","EL08AN01","0","24","1","1","3","1","1232","","","<img src = 'targets/mask.png' width = '100%;'>","75","neg","GS","GSold","4","category4/CS8.png","targets/27.png","1","indirect","15",""
"","survey-html-form","154","519019","0.0-9.0","mjdyg2lgka","one_one","1","indirect_first","0","EL08AN01","0","24","1","1","3","1","52517","","{}","","","","","","","","","","","",""
"","html-keyboard-response","155","522032","0.0-10.0-0.0","mjdyg2lgka","one_one","1","indirect_first","0","EL08AN01","0","24","1","1","3","1","null","","","<div style=""font-size:60px;"">+</div>","null","","","","","","","","","",""
"","html-keyboard-response","156","522131","0.0-10.0-1.0","mjdyg2lgka","one_one","1","indirect_first","0","EL08AN01","0","24","1","1","3","1","null","","","<img src = 'category1/GS2.png' width = '100%;'>","null","","","","","","","","","",""
"","html-keyboard-response","157","522411","0.0-10.0-2.0","mjdyg2lgka","one_one","1","indirect_first","0","EL08AN01","0","24","1","1","3","1","null","","","<img src = 'targets/40.png' width = '100%;'>","null","","","","","","","","","",""
"","html-keyboard-response","158","523124","0.0-10.0-3.0","mjdyg2lgka","one_one","1","indirect_first","0","EL08AN01","0","24","1","1","3","1","711","","","<img src = 'targets/mask.png' width = '100%;'>","68","neg","GS","GSnew","1","category1/GS2.png","targets/40.png","0","indirect","16",""
"","html-keyboard-response","159","524631","0.0-10.0-0.1","mjdyg2lgka","one_one","1","indirect_first","0","EL08AN01","0","24","1","1","3","1","null","","","<div style=""font-size:60px;"">+</div>","null","","","","","","","","","",""
"","html-keyboard-response","160","524731","0.0-10.0-1.1","mjdyg2lgka","one_one","1","indirect_first","0","EL08AN01","0","24","1","1","3","1","null","","","<img src = 'category1/GS3.png' width = '100%;'>","null","","","","","","","","","",""
"","html-keyboard-response","161","525012","0.0-10.0-2.1","mjdyg2lgka","one_one","1","indirect_first","0","EL08AN01","0","24","1","1","3","1","null","","","<img src = 'targets/9.png' width = '100%;'>","null","","","","","","","","","",""
"","html-keyboard-response","162","525675","0.0-10.0-3.1","mjdyg2lgka","one_one","1","indirect_first","0","EL08AN01","0","24","1","1","3","1","662","","","<img src = 'targets/mask.png' width = '100%;'>","75","neg","GS","GSnew","1","category1/GS3.png","targets/9.png","1","indirect","17",""
"","html-keyboard-response","163","527192","0.0-10.0-0.2","mjdyg2lgka","one_one","1","indirect_first","0","EL08AN01","0","24","1","1","3","1","null","","","<div style=""font-size:60px;"">+</div>","null","","","","","","","","","",""
"","html-keyboard-response","164","527291","0.0-10.0-1.2","mjdyg2lgka","one_one","1","indirect_first","0","EL08AN01","0","24","1","1","3","1","null","","","<img src = 'category4/GS1.png' width = '100%;'>","null","","","","","","","","","",""
"","html-keyboard-response","165","527551","0.0-10.0-2.2","mjdyg2lgka","one_one","1","indirect_first","0","EL08AN01","0","24","1","1","3","1","null","","","<img src = 'targets/14.png' width = '100%;'>","null","","","","","","","","","",""
"","html-keyboard-response","166","528835","0.0-10.0-3.2","mjdyg2lgka","one_one","1","indirect_first","0","EL08AN01","0","24","1","1","3","1","1282","","","<img src = 'targets/mask.png' width = '100%;'>","75","neg","GS","GSnew","4","category4/GS1.png","targets/14.png","1","indirect","18",""
"","html-keyboard-response","167","530371","0.0-10.0-0.3","mjdyg2lgka","one_one","1","indirect_first","0","EL08AN01","0","24","1","1","3","1","null","","","<div style=""font-size:60px;"">+</div>","null","","","","","","","","","",""
"","html-keyboard-response","168","530472","0.0-10.0-1.3","mjdyg2lgka","one_one","1","indirect_first","0","EL08AN01","0","24","1","1","3","1","null","","","<img src = 'category4/GS2.png' width = '100%;'>","null","","","","","","","","","",""
"","html-keyboard-response","169","530751","0.0-10.0-2.3","mjdyg2lgka","one_one","1","indirect_first","0","EL08AN01","0","24","1","1","3","1","null","","","<img src = 'targets/5.png' width = '100%;'>","null","","","","","","","","","",""
"","html-keyboard-response","170","532107","0.0-10.0-3.3","mjdyg2lgka","one_one","1","indirect_first","0","EL08AN01","0","24","1","1","3","1","1354","","","<img src = 'targets/mask.png' width = '100%;'>","68","neg","GS","GSnew","4","category4/GS2.png","targets/5.png","0","indirect","19",""
"","html-keyboard-response","171","533642","0.0-10.0-0.4","mjdyg2lgka","one_one","1","indirect_first","0","EL08AN01","0","24","1","1","3","1","null","","","<div style=""font-size:60px;"">+</div>","null","","","","","","","","","",""
"","html-keyboard-response","172","533742","0.0-10.0-1.4","mjdyg2lgka","one_one","1","indirect_first","0","EL08AN01","0","24","1","1","3","1","null","","","<img src = 'category2/men.png' width = '100%;'>","null","","","","","","","","","",""
"","html-keyboard-response","173","534021","0.0-10.0-2.4","mjdyg2lgka","one_one","1","indirect_first","0","EL08AN01","0","24","1","1","3","1","null","","","<img src = 'targets/30.png' width = '100%;'>","null","","","","","","","","","",""
"","html-keyboard-response","174","535028","0.0-10.0-3.4","mjdyg2lgka","one_one","1","indirect_first","0","EL08AN01","0","24","1","1","3","1","1006","","","<img src = 'targets/mask.png' width = '100%;'>","75","pos","GS","abstract","2","category2/men.png","targets/30.png","1","indirect","20",""
"","html-keyboard-response","175","536541","0.0-10.0-0.5","mjdyg2lgka","one_one","1","indirect_first","0","EL08AN01","0","24","1","1","3","1","null","","","<div style=""font-size:60px;"">+</div>","null","","","","","","","","","",""
"","html-keyboard-response","176","536637","0.0-10.0-1.5","mjdyg2lgka","one_one","1","indirect_first","0","EL08AN01","0","24","1","1","3","1","null","","","<img src = 'category3/GS2.png' width = '100%;'>","null","","","","","","","","","",""
"","html-keyboard-response","177","536921","0.0-10.0-2.5","mjdyg2lgka","one_one","1","indirect_first","0","EL08AN01","0","24","1","1","3","1","null","","","<img src = 'targets/15.png' width = '100%;'>","null","","","","","","","","","",""
"","html-keyboard-response","178","538147","0.0-10.0-3.5","mjdyg2lgka","one_one","1","indirect_first","0","EL08AN01","0","24","1","1","3","1","1225","","","<img src = 'targets/mask.png' width = '100%;'>","75","pos","GS","GSnew","3","category3/GS2.png","targets/15.png","1","indirect","21",""
"","html-keyboard-response","179","539661","0.0-10.0-0.6","mjdyg2lgka","one_one","1","indirect_first","0","EL08AN01","0","24","1","1","3","1","null","","","<div style=""font-size:60px;"">+</div>","null","","","","","","","","","",""
"","html-keyboard-response","180","539762","0.0-10.0-1.6","mjdyg2lgka","one_one","1","indirect_first","0","EL08AN01","0","24","1","1","3","1","null","","","<img src = 'category2/GS3.png' width = '100%;'>","null","","","","","","","","","",""
"","html-keyboard-response","181","540041","0.0-10.0-2.6","mjdyg2lgka","one_one","1","indirect_first","0","EL08AN01","0","24","1","1","3","1","null","","","<img src = 'targets/22.png' width = '100%;'>","null","","","","","","","","","",""
"","html-keyboard-response","182","541267","0.0-10.0-3.6","mjdyg2lgka","one_one","1","indirect_first","0","EL08AN01","0","24","1","1","3","1","1225","","","<img src = 'targets/mask.png' width = '100%;'>","68","pos","GS","GSnew","2","category2/GS3.png","targets/22.png","0","indirect","22",""
"","html-keyboard-response","183","542802","0.0-10.0-0.7","mjdyg2lgka","one_one","1","indirect_first","0","EL08AN01","0","24","1","1","3","1","null","","","<div style=""font-size:60px;"">+</div>","null","","","","","","","","","",""
"","html-keyboard-response","184","542902","0.0-10.0-1.7","mjdyg2lgka","one_one","1","indirect_first","0","EL08AN01","0","24","1","1","3","1","null","","","<img src = 'category2/GS1.png' width = '100%;'>","null","","","","","","","","","",""
"","html-keyboard-response","185","543181","0.0-10.0-2.7","mjdyg2lgka","one_one","1","indirect_first","0","EL08AN01","0","24","1","1","3","1","null","","","<img src = 'targets/37.png' width = '100%;'>","null","","","","","","","","","",""
"","html-keyboard-response","186","543988","0.0-10.0-3.7","mjdyg2lgka","one_one","1","indirect_first","0","EL08AN01","0","24","1","1","3","1","805","","","<img src = 'targets/mask.png' width = '100%;'>","68","pos","GS","GSnew","2","category2/GS1.png","targets/37.png","0","indirect","23",""
"","html-keyboard-response","187","545502","0.0-10.0-0.8","mjdyg2lgka","one_one","1","indirect_first","0","EL08AN01","0","24","1","1","3","1","null","","","<div style=""font-size:60px;"">+</div>","null","","","","","","","","","",""
"","html-keyboard-response","188","545602","0.0-10.0-1.8","mjdyg2lgka","one_one","1","indirect_first","0","EL08AN01","0","24","1","1","3","1","null","","","<img src = 'category4/GS3.png' width = '100%;'>","null","","","","","","","","","",""
"","html-keyboard-response","189","545881","0.0-10.0-2.8","mjdyg2lgka","one_one","1","indirect_first","0","EL08AN01","0","24","1","1","3","1","null","","","<img src = 'targets/44.png' width = '100%;'>","null","","","","","","","","","",""
"","html-keyboard-response","190","547172","0.0-10.0-3.8","mjdyg2lgka","one_one","1","indirect_first","0","EL08AN01","0","24","1","1","3","1","1290","","","<img src = 'targets/mask.png' width = '100%;'>","75","neg","GS","GSnew","4","category4/GS3.png","targets/44.png","1","indirect","24",""
"","html-keyboard-response","191","548701","0.0-10.0-0.9","mjdyg2lgka","one_one","1","indirect_first","0","EL08AN01","0","24","1","1","3","1","null","","","<div style=""font-size:60px;"">+</div>","null","","","","","","","","","",""
"","html-keyboard-response","192","548802","0.0-10.0-1.9","mjdyg2lgka","one_one","1","indirect_first","0","EL08AN01","0","24","1","1","3","1","null","","","<img src = 'category4/lin.png' width = '100%;'>","null","","","","","","","","","",""
"","html-keyboard-response","193","549082","0.0-10.0-2.9","mjdyg2lgka","one_one","1","indirect_first","0","EL08AN01","0","24","1","1","3","1","null","","","<img src = 'targets/23.png' width = '100%;'>","null","","","","","","","","","",""
"","html-keyboard-response","194","550587","0.0-10.0-3.9","mjdyg2lgka","one_one","1","indirect_first","0","EL08AN01","0","24","1","1","3","1","1504","","","<img src = 'targets/mask.png' width = '100%;'>","75","neg","GS","abstract","4","category4/lin.png","targets/23.png","1","indirect","25",""
"","html-keyboard-response","195","552121","0.0-10.0-0.10","mjdyg2lgka","one_one","1","indirect_first","0","EL08AN01","0","24","1","1","3","1","null","","","<div style=""font-size:60px;"">+</div>","null","","","","","","","","","",""
"","html-keyboard-response","196","552221","0.0-10.0-1.10","mjdyg2lgka","one_one","1","indirect_first","0","EL08AN01","0","24","1","1","3","1","null","","","<img src = 'category3/GS1.png' width = '100%;'>","null","","","","","","","","","",""
"","html-keyboard-response","197","552501","0.0-10.0-2.10","mjdyg2lgka","one_one","1","indirect_first","0","EL08AN01","0","24","1","1","3","1","null","","","<img src = 'targets/46.png' width = '100%;'>","null","","","","","","","","","",""
"","html-keyboard-response","198","553563","0.0-10.0-3.10","mjdyg2lgka","one_one","1","indirect_first","0","EL08AN01","0","24","1","1","3","1","1060","","","<img src = 'targets/mask.png' width = '100%;'>","68","pos","GS","GSnew","3","category3/GS1.png","targets/46.png","0","indirect","26",""
"","html-keyboard-response","199","555078","0.0-10.0-0.11","mjdyg2lgka","one_one","1","indirect_first","0","EL08AN01","0","24","1","1","3","1","null","","","<div style=""font-size:60px;"">+</div>","null","","","","","","","","","",""
"","html-keyboard-response","200","555172","0.0-10.0-1.11","mjdyg2lgka","one_one","1","indirect_first","0","EL08AN01","0","24","1","1","3","1","null","","","<img src = 'category1/ma.png' width = '100%;'>","null","","","","","","","","","",""
"","html-keyboard-response","201","555451","0.0-10.0-2.11","mjdyg2lgka","one_one","1","indirect_first","0","EL08AN01","0","24","1","1","3","1","null","","","<img src = 'targets/47.png' width = '100%;'>","null","","","","","","","","","",""
"","html-keyboard-response","202","556923","0.0-10.0-3.11","mjdyg2lgka","one_one","1","indirect_first","0","EL08AN01","0","24","1","1","3","1","1470","","","<img src = 'targets/mask.png' width = '100%;'>","75","neg","GS","abstract","1","category1/ma.png","targets/47.png","1","indirect","27",""
"","html-keyboard-response","203","558451","0.0-10.0-0.12","mjdyg2lgka","one_one","1","indirect_first","0","EL08AN01","0","24","1","1","3","1","null","","","<div style=""font-size:60px;"">+</div>","null","","","","","","","","","",""
"","html-keyboard-response","204","558551","0.0-10.0-1.12","mjdyg2lgka","one_one","1","indirect_first","0","EL08AN01","0","24","1","1","3","1","null","","","<img src = 'category2/GS2.png' width = '100%;'>","null","","","","","","","","","",""
"","html-keyboard-response","205","558832","0.0-10.0-2.12","mjdyg2lgka","one_one","1","indirect_first","0","EL08AN01","0","24","1","1","3","1","null","","","<img src = 'targets/13.png' width = '100%;'>","null","","","","","","","","","",""
"","html-keyboard-response","206","561523","0.0-10.0-3.12","mjdyg2lgka","one_one","1","indirect_first","0","EL08AN01","0","24","1","1","3","1","2690","","","<img src = 'targets/mask.png' width = '100%;'>","68","pos","GS","GSnew","2","category2/GS2.png","targets/13.png","0","indirect","28",""
"","html-keyboard-response","207","563031","0.0-10.0-0.13","mjdyg2lgka","one_one","1","indirect_first","0","EL08AN01","0","24","1","1","3","1","null","","","<div style=""font-size:60px;"">+</div>","null","","","","","","","","","",""
"","html-keyboard-response","208","563131","0.0-10.0-1.13","mjdyg2lgka","one_one","1","indirect_first","0","EL08AN01","0","24","1","1","3","1","null","","","<img src = 'category1/GS1.png' width = '100%;'>","null","","","","","","","","","",""
"","html-keyboard-response","209","563411","0.0-10.0-2.13","mjdyg2lgka","one_one","1","indirect_first","0","EL08AN01","0","24","1","1","3","1","null","","","<img src = 'targets/32.png' width = '100%;'>","null","","","","","","","","","",""
"","html-keyboard-response","210","565035","0.0-10.0-3.13","mjdyg2lgka","one_one","1","indirect_first","0","EL08AN01","0","24","1","1","3","1","1623","","","<img src = 'targets/mask.png' width = '100%;'>","68","neg","GS","GSnew","1","category1/GS1.png","targets/32.png","0","indirect","29",""
"","html-keyboard-response","211","566571","0.0-10.0-0.14","mjdyg2lgka","one_one","1","indirect_first","0","EL08AN01","0","24","1","1","3","1","null","","","<div style=""font-size:60px;"">+</div>","null","","","","","","","","","",""
"","html-keyboard-response","212","566681","0.0-10.0-1.14","mjdyg2lgka","one_one","1","indirect_first","0","EL08AN01","0","24","1","1","3","1","null","","","<img src = 'category3/wang.png' width = '100%;'>","null","","","","","","","","","",""
"","html-keyboard-response","213","566961","0.0-10.0-2.14","mjdyg2lgka","one_one","1","indirect_first","0","EL08AN01","0","24","1","1","3","1","null","","","<img src = 'targets/31.png' width = '100%;'>","null","","","","","","","","","",""
"","html-keyboard-response","214","568467","0.0-10.0-3.14","mjdyg2lgka","one_one","1","indirect_first","0","EL08AN01","0","24","1","1","3","1","1504","","","<img src = 'targets/mask.png' width = '100%;'>","75","pos","GS","abstract","3","category3/wang.png","targets/31.png","1","indirect","30",""
"","html-keyboard-response","215","570001","0.0-10.0-0.15","mjdyg2lgka","one_one","1","indirect_first","0","EL08AN01","0","24","1","1","3","1","null","","","<div style=""font-size:60px;"">+</div>","null","","","","","","","","","",""
"","html-keyboard-response","216","570101","0.0-10.0-1.15","mjdyg2lgka","one_one","1","indirect_first","0","EL08AN01","0","24","1","1","3","1","null","","","<img src = 'category3/GS3.png' width = '100%;'>","null","","","","","","","","","",""
"","html-keyboard-response","217","570381","0.0-10.0-2.15","mjdyg2lgka","one_one","1","indirect_first","0","EL08AN01","0","24","1","1","3","1","null","","","<img src = 'targets/24.png' width = '100%;'>","null","","","","","","","","","",""
"","html-keyboard-response","218","571731","0.0-10.0-3.15","mjdyg2lgka","one_one","1","indirect_first","0","EL08AN01","0","24","1","1","3","1","1348","","","<img src = 'targets/mask.png' width = '100%;'>","75","pos","GS","GSnew","3","category3/GS3.png","targets/24.png","1","indirect","31",""
"","survey-html-form","219","578843","0.0-11.0","mjdyg2lgka","one_one","1","indirect_first","0","EL08AN01","0","24","1","1","3","1","6592","","{}","","","","","","","","","","","",""
"","image-slider-response","220","586682","0.0-12.0-0.0","mjdyg2lgka","one_one","1","indirect_first","0","EL08AN01","0","24","1","1","3","1","5824","","","","","pos","CS","CS","2","category2/CS7.png","targets/20.png","","direct","","64"
"","image-slider-response","221","592353","0.0-12.0-0.1","mjdyg2lgka","one_one","1","indirect_first","0","EL08AN01","0","24","1","1","3","1","5670","","","","","neg","GS","GSnew","4","category4/GS3.png","targets/44.png","","direct","","26"
"","image-slider-response","222","595393","0.0-12.0-0.2","mjdyg2lgka","one_one","1","indirect_first","0","EL08AN01","0","24","1","1","3","1","3038","","","","","pos","GS","abstract","3","category3/wang.png","targets/31.png","","direct","","-5"
"","image-slider-response","223","602482","0.0-12.0-0.3","mjdyg2lgka","one_one","1","indirect_first","0","EL08AN01","0","24","1","1","3","1","7086","","","","","neg","CS","CS","1","category1/CS10.png","targets/19.png","","direct","","15"
"","image-slider-response","224","607226","0.0-12.0-0.4","mjdyg2lgka","one_one","1","indirect_first","0","EL08AN01","0","24","1","1","3","1","4743","","","","","neg","GS","GSold","4","category4/CS8.png","targets/27.png","","direct","","-24"
"","image-slider-response","225","610874","0.0-12.0-0.5","mjdyg2lgka","one_one","1","indirect_first","0","EL08AN01","0","24","1","1","3","1","3647","","","","","neg","GS","GSnew","1","category1/GS2.png","targets/40.png","","direct","","-44"
"","image-slider-response","226","614402","0.0-12.0-0.6","mjdyg2lgka","one_one","1","indirect_first","0","EL08AN01","0","24","1","1","3","1","3526","","","","","neg","GS","GSnew","4","category4/GS1.png","targets/14.png","","direct","","-24"
"","image-slider-response","227","617962","0.0-12.0-0.7","mjdyg2lgka","one_one","1","indirect_first","0","EL08AN01","0","24","1","1","3","1","3559","","","","","pos","GS","GSnew","3","category3/GS1.png","targets/46.png","","direct","","-3"
"","image-slider-response","228","621706","0.0-12.0-0.8","mjdyg2lgka","one_one","1","indirect_first","0","EL08AN01","0","24","1","1","3","1","3742","","","","","neg","GS","GSnew","1","category1/GS3.png","targets/9.png","","direct","","13"
"","image-slider-response","229","626442","0.0-12.0-0.9","mjdyg2lgka","one_one","1","indirect_first","0","EL08AN01","0","24","1","1","3","1","4736","","","","","neg","CS","CS","4","category4/CS3.png","targets/12.png","","direct","","-52"
"","image-slider-response","230","631802","0.0-12.0-0.10","mjdyg2lgka","one_one","1","indirect_first","0","EL08AN01","0","24","1","1","3","1","5359","","","","","pos","GS","GSold","3","category3/CS10.png","targets/6.png","","direct","","-26"
"","image-slider-response","231","634882","0.0-12.0-0.11","mjdyg2lgka","one_one","1","indirect_first","0","EL08AN01","0","24","1","1","3","1","3079","","","","","pos","GS","GSnew","2","category2/GS3.png","targets/22.png","","direct","","5"
"","image-slider-response","232","637921","0.0-12.0-0.12","mjdyg2lgka","one_one","1","indirect_first","0","EL08AN01","0","24","1","1","3","1","3039","","","","","pos","GS","GSold","2","category2/CS5.png","targets/41.png","","direct","","30"
"","image-slider-response","233","644778","0.0-12.0-0.13","mjdyg2lgka","one_one","1","indirect_first","0","EL08AN01","0","24","1","1","3","1","6855","","","","","neg","GS","GSnew","1","category1/GS1.png","targets/32.png","","direct","","36"
"","image-slider-response","234","647338","0.0-12.0-0.14","mjdyg2lgka","one_one","1","indirect_first","0","EL08AN01","0","24","1","1","3","1","2559","","","","","neg","GS","abstract","1","category1/ma.png","targets/47.png","","direct","","61"
"","image-slider-response","235","651658","0.0-12.0-0.15","mjdyg2lgka","one_one","1","indirect_first","0","EL08AN01","0","24","1","1","3","1","4318","","","","","pos","CS","CS","3","category3/CS8.png","targets/21.png","","direct","","23"
"","image-slider-response","236","656178","0.0-12.0-0.16","mjdyg2lgka","one_one","1","indirect_first","0","EL08AN01","0","24","1","1","3","1","4518","","","","","pos","GS","GSnew","3","category3/GS2.png","targets/15.png","","direct","","-40"
"","image-slider-response","237","659433","0.0-12.0-0.17","mjdyg2lgka","one_one","1","indirect_first","0","EL08AN01","0","24","1","1","3","1","3255","","","","","pos","GS","GSnew","2","category2/GS2.png","targets/13.png","","direct","","5"
"","image-slider-response","238","664138","0.0-12.0-0.18","mjdyg2lgka","one_one","1","indirect_first","0","EL08AN01","0","24","1","1","3","1","4704","","","","","pos","GS","GSold","2","category2/CS9.png","targets/39.png","","direct","","66"
"","image-slider-response","239","668930","0.0-12.0-0.19","mjdyg2lgka","one_one","1","indirect_first","0","EL08AN01","0","24","1","1","3","1","4792","","","","","neg","GS","GSold","1","category1/CS8.png","targets/42.png","","direct","","-70"
"","image-slider-response","240","672666","0.0-12.0-0.20","mjdyg2lgka","one_one","1","indirect_first","0","EL08AN01","0","24","1","1","3","1","3734","","","","","neg","GS","GSold","4","category4/CS9.png","targets/18.png","","direct","","74"
"","image-slider-response","241","675178","0.0-12.0-0.21","mjdyg2lgka","one_one","1","indirect_first","0","EL08AN01","0","24","1","1","3","1","2511","","","","","pos","GS","GSold","2","category2/CS3.png","targets/1.png","","direct","","28"
"","image-slider-response","242","679442","0.0-12.0-0.22","mjdyg2lgka","one_one","1","indirect_first","0","EL08AN01","0","24","1","1","3","1","4263","","","","","neg","GS","GSnew","4","category4/GS2.png","targets/5.png","","direct","","20"
"","image-slider-response","243","682762","0.0-12.0-0.23","mjdyg2lgka","one_one","1","indirect_first","0","EL08AN01","0","24","1","1","3","1","3319","","","","","neg","GS","abstract","4","category4/lin.png","targets/23.png","","direct","","-21"
"","image-slider-response","244","686025","0.0-12.0-0.24","mjdyg2lgka","one_one","1","indirect_first","0","EL08AN01","0","24","1","1","3","1","3261","","","","","pos","GS","abstract","2","category2/men.png","targets/30.png","","direct","","-43"
"","image-slider-response","245","688170","0.0-12.0-0.25","mjdyg2lgka","one_one","1","indirect_first","0","EL08AN01","0","24","1","1","3","1","2142","","","","","neg","GS","GSold","1","category1/CS4.png","targets/25.png","","direct","","-14"
"","image-slider-response","246","691641","0.0-12.0-0.26","mjdyg2lgka","one_one","1","indirect_first","0","EL08AN01","0","24","1","1","3","1","3470","","","","","pos","GS","GSold","3","category3/CS7.png","targets/4.png","","direct","","-3"
"","image-slider-response","247","696129","0.0-12.0-0.27","mjdyg2lgka","one_one","1","indirect_first","0","EL08AN01","0","24","1","1","3","1","4487","","","","","neg","GS","GSold","1","category1/CS6.png","targets/45.png","","direct","","55"
"","image-slider-response","248","698570","0.0-12.0-0.28","mjdyg2lgka","one_one","1","indirect_first","0","EL08AN01","0","24","1","1","3","1","2438","","","","","pos","GS","GSnew","2","category2/GS1.png","targets/37.png","","direct","","12"
"","image-slider-response","249","706057","0.0-12.0-0.29","mjdyg2lgka","one_one","1","indirect_first","0","EL08AN01","0","24","1","1","3","1","7488","","","","","pos","GS","GSold","3","category3/CS1.png","targets/38.png","","direct","","1"
"","image-slider-response","250","710481","0.0-12.0-0.30","mjdyg2lgka","one_one","1","indirect_first","0","EL08AN01","0","24","1","1","3","1","4423","","","","","pos","GS","GSnew","3","category3/GS3.png","targets/24.png","","direct","","39"
"","image-slider-response","251","713826","0.0-12.0-0.31","mjdyg2lgka","one_one","1","indirect_first","0","EL08AN01","0","24","1","1","3","1","3342","","","","","neg","GS","GSold","4","category4/CS2.png","targets/43.png","","direct","","-21"
"","survey-html-form","252","718714","0.0-13.0","mjdyg2lgka","one_one","1","indirect_first","0","EL08AN01","0","24","1","1","3","1","4889","","{}","","","","","","","","","","","",""
"","image-slider-response","253","741978","0.0-14.0-0.0","mjdyg2lgka","one_one","1","indirect_first","0","EL08AN01","0","24","1","1","3","1","22245","","","","","pos","All","all","2","category2/men_all.png","","","all","","12"
"","image-slider-response","254","749250","0.0-14.0-0.1","mjdyg2lgka","one_one","1","indirect_first","0","EL08AN01","0","24","1","1","3","1","7270","","","","","neg","All","all","1","category1/ma_all.png","","","all","","-33"
"","image-slider-response","255","752937","0.0-14.0-0.2","mjdyg2lgka","one_one","1","indirect_first","0","EL08AN01","0","24","1","1","3","1","3686","","","","","neg","All","all","4","category4/lin_all.png","","","all","","-43"
"","image-slider-response","256","755897","0.0-14.0-0.3","mjdyg2lgka","one_one","1","indirect_first","0","EL08AN01","0","24","1","1","3","1","2958","","","","","pos","All","all","3","category3/wang_all.png","","","all","","-16"
"","survey-text","257","762178","0.0-15.0","mjdyg2lgka","one_one","1","indirect_first","0","EL08AN01","0","24","1","1","3","1","6278","","{""Q0"":""""}","","","","","","","","","","","",""
