"success","trial_type","trial_index","time_elapsed","internal_node_id","subject","condition","condition_code","measure","measure_code","codeword","gender","age","education","chinese","fach","handedness","comment","hinschauen","ablenkung","gewissenhaft","rt","url","responses","stimulus","key_press","val","type","type_specific","category","cs_selected","target","indirect","task","nr_pres","response"
"true","fullscreen","0","2003071","0.0-0.0","5slebo5zxa","one_one","1","indirect_first","0","al05el15","0","21","1","1","3","1","","0","1","0","","","","","","","","","","","","","","",""
"","external-html","1","2049354","0.0-1.0","5slebo5zxa","one_one","1","indirect_first","0","al05el15","0","21","1","1","3","1","","0","1","0","46156","text/information.html","","","","","","","","","","","","",""
"","external-html","2","2061487","0.0-2.0","5slebo5zxa","one_one","1","indirect_first","0","al05el15","0","21","1","1","3","1","","0","1","0","11971","text/consent.html","","","","","","","","","","","","",""
"","survey-html-form","3","2114941","0.0-3.0","5slebo5zxa","one_one","1","indirect_first","0","al05el15","0","21","1","1","3","1","","0","1","0","53446","","{""codeword_enter"":""al05el15""}","","","","","","","","","","","",""
"","survey-html-form","4","2141216","0.0-4.0","5slebo5zxa","one_one","1","indirect_first","0","al05el15","0","21","1","1","3","1","","0","1","0","26271","","{""age"":""21"",""education"":""1"",""subject"":""3"",""gender"":""0"",""handedness"":""1"",""chinese"":""1""}","","","","","","","","","","","",""
"","survey-html-form","5","2151707","0.0-5.0","5slebo5zxa","one_one","1","indirect_first","0","al05el15","0","21","1","1","3","1","","0","1","0","10488","","{}","","","","","","","","","","","",""
"","html-keyboard-response","6","2155734","0.0-6.0-0.0-0.0","5slebo5zxa","one_one","1","indirect_first","0","al05el15","0","21","1","1","3","1","","0","1","0","null","","","<div class = 'row'><div class = 'column'><img src = 'usneg/9421.bmp' width = '100%;'></div><div class = 'column'><img src = 'category4/CS8.png' width = '70%;'></div></div>","null","neg","CS","CS","4","category4/CS8.png","","","","",""
"","html-keyboard-response","7","2158263","0.0-6.0-0.0-0.1","5slebo5zxa","one_one","1","indirect_first","0","al05el15","0","21","1","1","3","1","","0","1","0","null","","","<div class = 'row'><div class = 'column'><img src = 'usneg/9000.bmp' width = '100%;'></div><div class = 'column'><img src = 'category3/CS6.png' width = '70%;'></div></div>","null","neg","CS","CS","3","category3/CS6.png","","","","",""
"","html-keyboard-response","8","2160802","0.0-6.0-0.0-0.2","5slebo5zxa","one_one","1","indirect_first","0","al05el15","0","21","1","1","3","1","","0","1","0","null","","","<div class = 'row'><div class = 'column'><img src = 'uspos/2360.bmp' width = '100%;'></div><div class = 'column'><img src = 'category2/CS5.png' width = '70%;'></div></div>","null","pos","CS","CS","2","category2/CS5.png","","","","",""
"","html-keyboard-response","9","2163342","0.0-6.0-0.0-0.3","5slebo5zxa","one_one","1","indirect_first","0","al05el15","0","21","1","1","3","1","","0","1","0","null","","","<div class = 'row'><div class = 'column'><img src = 'category3/CS6.png' width = '70%;'></div><div class = 'column'><img src = 'usneg/9000.bmp' width = '100%;'></div></div>","null","neg","CS","CS","3","category3/CS6.png","","","","",""
"","html-keyboard-response","10","2165882","0.0-6.0-0.0-0.4","5slebo5zxa","one_one","1","indirect_first","0","al05el15","0","21","1","1","3","1","","0","1","0","null","","","<div class = 'row'><div class = 'column'><img src = 'usneg/9421.bmp' width = '100%;'></div><div class = 'column'><img src = 'category4/CS8.png' width = '70%;'></div></div>","null","neg","CS","CS","4","category4/CS8.png","","","","",""
"","html-keyboard-response","11","2168422","0.0-6.0-0.0-0.5","5slebo5zxa","one_one","1","indirect_first","0","al05el15","0","21","1","1","3","1","","0","1","0","null","","","<div class = 'row'><div class = 'column'><img src = 'category1/CS7.png' width = '70%;'></div><div class = 'column'><img src = 'uspos/7325.bmp' width = '100%;'></div></div>","null","pos","CS","CS","1","category1/CS7.png","","","","",""
"","html-keyboard-response","12","2170962","0.0-6.0-0.0-0.6","5slebo5zxa","one_one","1","indirect_first","0","al05el15","0","21","1","1","3","1","","0","1","0","null","","","<div class = 'row'><div class = 'column'><img src = 'category4/CS8.png' width = '70%;'></div><div class = 'column'><img src = 'usneg/9421.bmp' width = '100%;'></div></div>","null","neg","CS","CS","4","category4/CS8.png","","","","",""
"","html-keyboard-response","13","2173492","0.0-6.0-0.0-0.7","5slebo5zxa","one_one","1","indirect_first","0","al05el15","0","21","1","1","3","1","","0","1","0","null","","","<div class = 'row'><div class = 'column'><img src = 'uspos/7325.bmp' width = '100%;'></div><div class = 'column'><img src = 'category1/CS7.png' width = '70%;'></div></div>","null","pos","CS","CS","1","category1/CS7.png","","","","",""
"","html-keyboard-response","14","2176032","0.0-6.0-0.0-0.8","5slebo5zxa","one_one","1","indirect_first","0","al05el15","0","21","1","1","3","1","","0","1","0","null","","","<div class = 'row'><div class = 'column'><img src = 'uspos/2360.bmp' width = '100%;'></div><div class = 'column'><img src = 'category2/CS5.png' width = '70%;'></div></div>","null","pos","CS","CS","2","category2/CS5.png","","","","",""
"","html-keyboard-response","15","2178572","0.0-6.0-0.0-0.9","5slebo5zxa","one_one","1","indirect_first","0","al05el15","0","21","1","1","3","1","","0","1","0","null","","","<div class = 'row'><div class = 'column'><img src = 'uspos/7325.bmp' width = '100%;'></div><div class = 'column'><img src = 'category1/CS7.png' width = '70%;'></div></div>","null","pos","CS","CS","1","category1/CS7.png","","","","",""
"","html-keyboard-response","16","2181092","0.0-6.0-0.0-0.10","5slebo5zxa","one_one","1","indirect_first","0","al05el15","0","21","1","1","3","1","","0","1","0","null","","","<div class = 'row'><div class = 'column'><img src = 'uspos/2360.bmp' width = '100%;'></div><div class = 'column'><img src = 'category2/CS5.png' width = '70%;'></div></div>","null","pos","CS","CS","2","category2/CS5.png","","","","",""
"","html-keyboard-response","17","2183612","0.0-6.0-0.0-0.11","5slebo5zxa","one_one","1","indirect_first","0","al05el15","0","21","1","1","3","1","","0","1","0","null","","","<div class = 'row'><div class = 'column'><img src = 'uspos/7325.bmp' width = '100%;'></div><div class = 'column'><img src = 'category1/CS7.png' width = '70%;'></div></div>","null","pos","CS","CS","1","category1/CS7.png","","","","",""
"","html-keyboard-response","18","2186152","0.0-6.0-0.0-0.12","5slebo5zxa","one_one","1","indirect_first","0","al05el15","0","21","1","1","3","1","","0","1","0","null","","","<div class = 'row'><div class = 'column'><img src = 'usneg/9000.bmp' width = '100%;'></div><div class = 'column'><img src = 'category3/CS6.png' width = '70%;'></div></div>","null","neg","CS","CS","3","category3/CS6.png","","","","",""
"","html-keyboard-response","19","2188692","0.0-6.0-0.0-0.13","5slebo5zxa","one_one","1","indirect_first","0","al05el15","0","21","1","1","3","1","","0","1","0","null","","","<div class = 'row'><div class = 'column'><img src = 'usneg/9421.bmp' width = '100%;'></div><div class = 'column'><img src = 'category4/CS8.png' width = '70%;'></div></div>","null","neg","CS","CS","4","category4/CS8.png","","","","",""
"","html-keyboard-response","20","2191222","0.0-6.0-0.0-0.14","5slebo5zxa","one_one","1","indirect_first","0","al05el15","0","21","1","1","3","1","","0","1","0","null","","","<div class = 'row'><div class = 'column'><img src = 'category3/CS6.png' width = '70%;'></div><div class = 'column'><img src = 'usneg/9000.bmp' width = '100%;'></div></div>","null","neg","CS","CS","3","category3/CS6.png","","","","",""
"","html-keyboard-response","21","2193752","0.0-6.0-0.0-0.15","5slebo5zxa","one_one","1","indirect_first","0","al05el15","0","21","1","1","3","1","","0","1","0","null","","","<div class = 'row'><div class = 'column'><img src = 'category4/CS8.png' width = '70%;'></div><div class = 'column'><img src = 'usneg/9421.bmp' width = '100%;'></div></div>","null","neg","CS","CS","4","category4/CS8.png","","","","",""
"","html-keyboard-response","22","2196272","0.0-6.0-0.0-0.16","5slebo5zxa","one_one","1","indirect_first","0","al05el15","0","21","1","1","3","1","","0","1","0","null","","","<div class = 'row'><div class = 'column'><img src = 'uspos/2360.bmp' width = '100%;'></div><div class = 'column'><img src = 'category2/CS5.png' width = '70%;'></div></div>","null","pos","CS","CS","2","category2/CS5.png","","","","",""
"","html-keyboard-response","23","2198802","0.0-6.0-0.0-0.17","5slebo5zxa","one_one","1","indirect_first","0","al05el15","0","21","1","1","3","1","","0","1","0","null","","","<div class = 'row'><div class = 'column'><img src = 'uspos/7325.bmp' width = '100%;'></div><div class = 'column'><img src = 'category1/CS7.png' width = '70%;'></div></div>","null","pos","CS","CS","1","category1/CS7.png","","","","",""
"","html-keyboard-response","24","2201342","0.0-6.0-0.0-0.18","5slebo5zxa","one_one","1","indirect_first","0","al05el15","0","21","1","1","3","1","","0","1","0","null","","","<div class = 'row'><div class = 'column'><img src = 'category2/CS5.png' width = '70%;'></div><div class = 'column'><img src = 'uspos/2360.bmp' width = '100%;'></div></div>","null","pos","CS","CS","2","category2/CS5.png","","","","",""
"","html-keyboard-response","25","2203881","0.0-6.0-0.0-0.19","5slebo5zxa","one_one","1","indirect_first","0","al05el15","0","21","1","1","3","1","","0","1","0","null","","","<div class = 'row'><div class = 'column'><img src = 'category3/CS6.png' width = '70%;'></div><div class = 'column'><img src = 'usneg/9000.bmp' width = '100%;'></div></div>","null","neg","CS","CS","3","category3/CS6.png","","","","",""
"","survey-html-form","26","2211004","0.0-6.0-1.0","5slebo5zxa","one_one","1","indirect_first","0","al05el15","0","21","1","1","3","1","","0","1","0","6602","","{}","","","","","","","","","","","",""
"","html-keyboard-response","27","2215042","0.0-6.0-2.0-0.0","5slebo5zxa","one_one","1","indirect_first","0","al05el15","0","21","1","1","3","1","","0","1","0","null","","","<div class = 'row'><div class = 'column'><img src = 'usneg/9421.bmp' width = '100%;'></div><div class = 'column'><img src = 'category4/CS8.png' width = '70%;'></div></div>","null","neg","CS","CS","4","category4/CS8.png","","","","",""
"","html-keyboard-response","28","2217571","0.0-6.0-2.0-0.1","5slebo5zxa","one_one","1","indirect_first","0","al05el15","0","21","1","1","3","1","","0","1","0","null","","","<div class = 'row'><div class = 'column'><img src = 'category2/CS5.png' width = '70%;'></div><div class = 'column'><img src = 'uspos/2360.bmp' width = '100%;'></div></div>","null","pos","CS","CS","2","category2/CS5.png","","","","",""
"","html-keyboard-response","29","2220091","0.0-6.0-2.0-0.2","5slebo5zxa","one_one","1","indirect_first","0","al05el15","0","21","1","1","3","1","","0","1","0","null","","","<div class = 'row'><div class = 'column'><img src = 'usneg/9000.bmp' width = '100%;'></div><div class = 'column'><img src = 'category3/CS6.png' width = '70%;'></div></div>","null","neg","CS","CS","3","category3/CS6.png","","","","",""
"","html-keyboard-response","30","2222632","0.0-6.0-2.0-0.3","5slebo5zxa","one_one","1","indirect_first","0","al05el15","0","21","1","1","3","1","","0","1","0","null","","","<div class = 'row'><div class = 'column'><img src = 'category1/CS7.png' width = '70%;'></div><div class = 'column'><img src = 'uspos/7325.bmp' width = '100%;'></div></div>","null","pos","CS","CS","1","category1/CS7.png","","","","",""
"","html-keyboard-response","31","2225171","0.0-6.0-2.0-0.4","5slebo5zxa","one_one","1","indirect_first","0","al05el15","0","21","1","1","3","1","","0","1","0","null","","","<div class = 'row'><div class = 'column'><img src = 'usneg/9000.bmp' width = '100%;'></div><div class = 'column'><img src = 'category3/CS6.png' width = '70%;'></div></div>","null","neg","CS","CS","3","category3/CS6.png","","","","",""
"","html-keyboard-response","32","2227681","0.0-6.0-2.0-0.5","5slebo5zxa","one_one","1","indirect_first","0","al05el15","0","21","1","1","3","1","","0","1","0","null","","","<div class = 'row'><div class = 'column'><img src = 'uspos/2360.bmp' width = '100%;'></div><div class = 'column'><img src = 'category2/CS5.png' width = '70%;'></div></div>","null","pos","CS","CS","2","category2/CS5.png","","","","",""
"","html-keyboard-response","33","2230211","0.0-6.0-2.0-0.6","5slebo5zxa","one_one","1","indirect_first","0","al05el15","0","21","1","1","3","1","","0","1","0","null","","","<div class = 'row'><div class = 'column'><img src = 'usneg/9421.bmp' width = '100%;'></div><div class = 'column'><img src = 'category4/CS8.png' width = '70%;'></div></div>","null","neg","CS","CS","4","category4/CS8.png","","","","",""
"","html-keyboard-response","34","2232732","0.0-6.0-2.0-0.7","5slebo5zxa","one_one","1","indirect_first","0","al05el15","0","21","1","1","3","1","","0","1","0","null","","","<div class = 'row'><div class = 'column'><img src = 'usneg/9000.bmp' width = '100%;'></div><div class = 'column'><img src = 'category3/CS6.png' width = '70%;'></div></div>","null","neg","CS","CS","3","category3/CS6.png","","","","",""
"","html-keyboard-response","35","2235272","0.0-6.0-2.0-0.8","5slebo5zxa","one_one","1","indirect_first","0","al05el15","0","21","1","1","3","1","","0","1","0","null","","","<div class = 'row'><div class = 'column'><img src = 'category2/CS5.png' width = '70%;'></div><div class = 'column'><img src = 'uspos/2360.bmp' width = '100%;'></div></div>","null","pos","CS","CS","2","category2/CS5.png","","","","",""
"","html-keyboard-response","36","2237811","0.0-6.0-2.0-0.9","5slebo5zxa","one_one","1","indirect_first","0","al05el15","0","21","1","1","3","1","","0","1","0","null","","","<div class = 'row'><div class = 'column'><img src = 'usneg/9000.bmp' width = '100%;'></div><div class = 'column'><img src = 'category3/CS6.png' width = '70%;'></div></div>","null","neg","CS","CS","3","category3/CS6.png","","","","",""
"","html-keyboard-response","37","2240342","0.0-6.0-2.0-0.10","5slebo5zxa","one_one","1","indirect_first","0","al05el15","0","21","1","1","3","1","","0","1","0","null","","","<div class = 'row'><div class = 'column'><img src = 'category4/CS8.png' width = '70%;'></div><div class = 'column'><img src = 'usneg/9421.bmp' width = '100%;'></div></div>","null","neg","CS","CS","4","category4/CS8.png","","","","",""
"","html-keyboard-response","38","2242881","0.0-6.0-2.0-0.11","5slebo5zxa","one_one","1","indirect_first","0","al05el15","0","21","1","1","3","1","","0","1","0","null","","","<div class = 'row'><div class = 'column'><img src = 'category1/CS7.png' width = '70%;'></div><div class = 'column'><img src = 'uspos/7325.bmp' width = '100%;'></div></div>","null","pos","CS","CS","1","category1/CS7.png","","","","",""
"","html-keyboard-response","39","2245422","0.0-6.0-2.0-0.12","5slebo5zxa","one_one","1","indirect_first","0","al05el15","0","21","1","1","3","1","","0","1","0","null","","","<div class = 'row'><div class = 'column'><img src = 'uspos/2360.bmp' width = '100%;'></div><div class = 'column'><img src = 'category2/CS5.png' width = '70%;'></div></div>","null","pos","CS","CS","2","category2/CS5.png","","","","",""
"","html-keyboard-response","40","2247962","0.0-6.0-2.0-0.13","5slebo5zxa","one_one","1","indirect_first","0","al05el15","0","21","1","1","3","1","","0","1","0","null","","","<div class = 'row'><div class = 'column'><img src = 'usneg/9421.bmp' width = '100%;'></div><div class = 'column'><img src = 'category4/CS8.png' width = '70%;'></div></div>","null","neg","CS","CS","4","category4/CS8.png","","","","",""
"","html-keyboard-response","41","2250491","0.0-6.0-2.0-0.14","5slebo5zxa","one_one","1","indirect_first","0","al05el15","0","21","1","1","3","1","","0","1","0","null","","","<div class = 'row'><div class = 'column'><img src = 'category1/CS7.png' width = '70%;'></div><div class = 'column'><img src = 'uspos/7325.bmp' width = '100%;'></div></div>","null","pos","CS","CS","1","category1/CS7.png","","","","",""
"","html-keyboard-response","42","2253032","0.0-6.0-2.0-0.15","5slebo5zxa","one_one","1","indirect_first","0","al05el15","0","21","1","1","3","1","","0","1","0","null","","","<div class = 'row'><div class = 'column'><img src = 'category4/CS8.png' width = '70%;'></div><div class = 'column'><img src = 'usneg/9421.bmp' width = '100%;'></div></div>","null","neg","CS","CS","4","category4/CS8.png","","","","",""
"","html-keyboard-response","43","2255562","0.0-6.0-2.0-0.16","5slebo5zxa","one_one","1","indirect_first","0","al05el15","0","21","1","1","3","1","","0","1","0","null","","","<div class = 'row'><div class = 'column'><img src = 'category1/CS7.png' width = '70%;'></div><div class = 'column'><img src = 'uspos/7325.bmp' width = '100%;'></div></div>","null","pos","CS","CS","1","category1/CS7.png","","","","",""
"","html-keyboard-response","44","2258101","0.0-6.0-2.0-0.17","5slebo5zxa","one_one","1","indirect_first","0","al05el15","0","21","1","1","3","1","","0","1","0","null","","","<div class = 'row'><div class = 'column'><img src = 'usneg/9000.bmp' width = '100%;'></div><div class = 'column'><img src = 'category3/CS6.png' width = '70%;'></div></div>","null","neg","CS","CS","3","category3/CS6.png","","","","",""
"","html-keyboard-response","45","2260642","0.0-6.0-2.0-0.18","5slebo5zxa","one_one","1","indirect_first","0","al05el15","0","21","1","1","3","1","","0","1","0","null","","","<div class = 'row'><div class = 'column'><img src = 'category1/CS7.png' width = '70%;'></div><div class = 'column'><img src = 'uspos/7325.bmp' width = '100%;'></div></div>","null","pos","CS","CS","1","category1/CS7.png","","","","",""
"","html-keyboard-response","46","2263171","0.0-6.0-2.0-0.19","5slebo5zxa","one_one","1","indirect_first","0","al05el15","0","21","1","1","3","1","","0","1","0","null","","","<div class = 'row'><div class = 'column'><img src = 'uspos/2360.bmp' width = '100%;'></div><div class = 'column'><img src = 'category2/CS5.png' width = '70%;'></div></div>","null","pos","CS","CS","2","category2/CS5.png","","","","",""
"","survey-html-form","47","2265686","0.0-6.0-3.0","5slebo5zxa","one_one","1","indirect_first","0","al05el15","0","21","1","1","3","1","","0","1","0","1994","","{}","","","","","","","","","","","",""
"","html-keyboard-response","48","2269712","0.0-6.0-4.0-0.0","5slebo5zxa","one_one","1","indirect_first","0","al05el15","0","21","1","1","3","1","","0","1","0","null","","","<div class = 'row'><div class = 'column'><img src = 'usneg/9421.bmp' width = '100%;'></div><div class = 'column'><img src = 'category4/CS8.png' width = '70%;'></div></div>","null","neg","CS","CS","4","category4/CS8.png","","","","",""
"","html-keyboard-response","49","2272252","0.0-6.0-4.0-0.1","5slebo5zxa","one_one","1","indirect_first","0","al05el15","0","21","1","1","3","1","","0","1","0","null","","","<div class = 'row'><div class = 'column'><img src = 'category2/CS5.png' width = '70%;'></div><div class = 'column'><img src = 'uspos/2360.bmp' width = '100%;'></div></div>","null","pos","CS","CS","2","category2/CS5.png","","","","",""
"","html-keyboard-response","50","2274792","0.0-6.0-4.0-0.2","5slebo5zxa","one_one","1","indirect_first","0","al05el15","0","21","1","1","3","1","","0","1","0","null","","","<div class = 'row'><div class = 'column'><img src = 'category3/CS6.png' width = '70%;'></div><div class = 'column'><img src = 'usneg/9000.bmp' width = '100%;'></div></div>","null","neg","CS","CS","3","category3/CS6.png","","","","",""
"","html-keyboard-response","51","2277332","0.0-6.0-4.0-0.3","5slebo5zxa","one_one","1","indirect_first","0","al05el15","0","21","1","1","3","1","","0","1","0","null","","","<div class = 'row'><div class = 'column'><img src = 'category2/CS5.png' width = '70%;'></div><div class = 'column'><img src = 'uspos/2360.bmp' width = '100%;'></div></div>","null","pos","CS","CS","2","category2/CS5.png","","","","",""
"","html-keyboard-response","52","2279862","0.0-6.0-4.0-0.4","5slebo5zxa","one_one","1","indirect_first","0","al05el15","0","21","1","1","3","1","","0","1","0","null","","","<div class = 'row'><div class = 'column'><img src = 'category4/CS8.png' width = '70%;'></div><div class = 'column'><img src = 'usneg/9421.bmp' width = '100%;'></div></div>","null","neg","CS","CS","4","category4/CS8.png","","","","",""
"","html-keyboard-response","53","2282382","0.0-6.0-4.0-0.5","5slebo5zxa","one_one","1","indirect_first","0","al05el15","0","21","1","1","3","1","","0","1","0","null","","","<div class = 'row'><div class = 'column'><img src = 'category1/CS7.png' width = '70%;'></div><div class = 'column'><img src = 'uspos/7325.bmp' width = '100%;'></div></div>","null","pos","CS","CS","1","category1/CS7.png","","","","",""
"","html-keyboard-response","54","2284911","0.0-6.0-4.0-0.6","5slebo5zxa","one_one","1","indirect_first","0","al05el15","0","21","1","1","3","1","","0","1","0","null","","","<div class = 'row'><div class = 'column'><img src = 'category2/CS5.png' width = '70%;'></div><div class = 'column'><img src = 'uspos/2360.bmp' width = '100%;'></div></div>","null","pos","CS","CS","2","category2/CS5.png","","","","",""
"","html-keyboard-response","55","2287420","0.0-6.0-4.0-0.7","5slebo5zxa","one_one","1","indirect_first","0","al05el15","0","21","1","1","3","1","","0","1","0","null","","","<div class = 'row'><div class = 'column'><img src = 'usneg/9000.bmp' width = '100%;'></div><div class = 'column'><img src = 'category3/CS6.png' width = '70%;'></div></div>","null","neg","CS","CS","3","category3/CS6.png","","","","",""
"","html-keyboard-response","56","2289942","0.0-6.0-4.0-0.8","5slebo5zxa","one_one","1","indirect_first","0","al05el15","0","21","1","1","3","1","","0","1","0","null","","","<div class = 'row'><div class = 'column'><img src = 'category2/CS5.png' width = '70%;'></div><div class = 'column'><img src = 'uspos/2360.bmp' width = '100%;'></div></div>","null","pos","CS","CS","2","category2/CS5.png","","","","",""
"","html-keyboard-response","57","2292482","0.0-6.0-4.0-0.9","5slebo5zxa","one_one","1","indirect_first","0","al05el15","0","21","1","1","3","1","","0","1","0","null","","","<div class = 'row'><div class = 'column'><img src = 'category1/CS7.png' width = '70%;'></div><div class = 'column'><img src = 'uspos/7325.bmp' width = '100%;'></div></div>","null","pos","CS","CS","1","category1/CS7.png","","","","",""
"","html-keyboard-response","58","2295022","0.0-6.0-4.0-0.10","5slebo5zxa","one_one","1","indirect_first","0","al05el15","0","21","1","1","3","1","","0","1","0","null","","","<div class = 'row'><div class = 'column'><img src = 'usneg/9421.bmp' width = '100%;'></div><div class = 'column'><img src = 'category4/CS8.png' width = '70%;'></div></div>","null","neg","CS","CS","4","category4/CS8.png","","","","",""
"","html-keyboard-response","59","2297551","0.0-6.0-4.0-0.11","5slebo5zxa","one_one","1","indirect_first","0","al05el15","0","21","1","1","3","1","","0","1","0","null","","","<div class = 'row'><div class = 'column'><img src = 'category3/CS6.png' width = '70%;'></div><div class = 'column'><img src = 'usneg/9000.bmp' width = '100%;'></div></div>","null","neg","CS","CS","3","category3/CS6.png","","","","",""
"","html-keyboard-response","60","2300091","0.0-6.0-4.0-0.12","5slebo5zxa","one_one","1","indirect_first","0","al05el15","0","21","1","1","3","1","","0","1","0","null","","","<div class = 'row'><div class = 'column'><img src = 'category1/CS7.png' width = '70%;'></div><div class = 'column'><img src = 'uspos/7325.bmp' width = '100%;'></div></div>","null","pos","CS","CS","1","category1/CS7.png","","","","",""
"","html-keyboard-response","61","2302622","0.0-6.0-4.0-0.13","5slebo5zxa","one_one","1","indirect_first","0","al05el15","0","21","1","1","3","1","","0","1","0","null","","","<div class = 'row'><div class = 'column'><img src = 'category4/CS8.png' width = '70%;'></div><div class = 'column'><img src = 'usneg/9421.bmp' width = '100%;'></div></div>","null","neg","CS","CS","4","category4/CS8.png","","","","",""
"","html-keyboard-response","62","2305147","0.0-6.0-4.0-0.14","5slebo5zxa","one_one","1","indirect_first","0","al05el15","0","21","1","1","3","1","","0","1","0","null","","","<div class = 'row'><div class = 'column'><img src = 'usneg/9000.bmp' width = '100%;'></div><div class = 'column'><img src = 'category3/CS6.png' width = '70%;'></div></div>","null","neg","CS","CS","3","category3/CS6.png","","","","",""
"","html-keyboard-response","63","2307651","0.0-6.0-4.0-0.15","5slebo5zxa","one_one","1","indirect_first","0","al05el15","0","21","1","1","3","1","","0","1","0","null","","","<div class = 'row'><div class = 'column'><img src = 'category4/CS8.png' width = '70%;'></div><div class = 'column'><img src = 'usneg/9421.bmp' width = '100%;'></div></div>","null","neg","CS","CS","4","category4/CS8.png","","","","",""
"","html-keyboard-response","64","2310193","0.0-6.0-4.0-0.16","5slebo5zxa","one_one","1","indirect_first","0","al05el15","0","21","1","1","3","1","","0","1","0","null","","","<div class = 'row'><div class = 'column'><img src = 'category1/CS7.png' width = '70%;'></div><div class = 'column'><img src = 'uspos/7325.bmp' width = '100%;'></div></div>","null","pos","CS","CS","1","category1/CS7.png","","","","",""
"","html-keyboard-response","65","2312731","0.0-6.0-4.0-0.17","5slebo5zxa","one_one","1","indirect_first","0","al05el15","0","21","1","1","3","1","","0","1","0","null","","","<div class = 'row'><div class = 'column'><img src = 'category3/CS6.png' width = '70%;'></div><div class = 'column'><img src = 'usneg/9000.bmp' width = '100%;'></div></div>","null","neg","CS","CS","3","category3/CS6.png","","","","",""
"","html-keyboard-response","66","2315273","0.0-6.0-4.0-0.18","5slebo5zxa","one_one","1","indirect_first","0","al05el15","0","21","1","1","3","1","","0","1","0","null","","","<div class = 'row'><div class = 'column'><img src = 'uspos/2360.bmp' width = '100%;'></div><div class = 'column'><img src = 'category2/CS5.png' width = '70%;'></div></div>","null","pos","CS","CS","2","category2/CS5.png","","","","",""
"","html-keyboard-response","67","2317812","0.0-6.0-4.0-0.19","5slebo5zxa","one_one","1","indirect_first","0","al05el15","0","21","1","1","3","1","","0","1","0","null","","","<div class = 'row'><div class = 'column'><img src = 'category1/CS7.png' width = '70%;'></div><div class = 'column'><img src = 'uspos/7325.bmp' width = '100%;'></div></div>","null","pos","CS","CS","1","category1/CS7.png","","","","",""
"","survey-html-form","68","2319687","0.0-6.0-5.0","5slebo5zxa","one_one","1","indirect_first","0","al05el15","0","21","1","1","3","1","","0","1","0","1354","","{}","","","","","","","","","","","",""
"","html-keyboard-response","69","2323732","0.0-6.0-6.0-0.0","5slebo5zxa","one_one","1","indirect_first","0","al05el15","0","21","1","1","3","1","","0","1","0","null","","","<div class = 'row'><div class = 'column'><img src = 'usneg/9421.bmp' width = '100%;'></div><div class = 'column'><img src = 'category4/CS8.png' width = '70%;'></div></div>","null","neg","CS","CS","4","category4/CS8.png","","","","",""
"","html-keyboard-response","70","2326272","0.0-6.0-6.0-0.1","5slebo5zxa","one_one","1","indirect_first","0","al05el15","0","21","1","1","3","1","","0","1","0","null","","","<div class = 'row'><div class = 'column'><img src = 'usneg/9000.bmp' width = '100%;'></div><div class = 'column'><img src = 'category3/CS6.png' width = '70%;'></div></div>","null","neg","CS","CS","3","category3/CS6.png","","","","",""
"","html-keyboard-response","71","2328801","0.0-6.0-6.0-0.2","5slebo5zxa","one_one","1","indirect_first","0","al05el15","0","21","1","1","3","1","","0","1","0","null","","","<div class = 'row'><div class = 'column'><img src = 'category1/CS7.png' width = '70%;'></div><div class = 'column'><img src = 'uspos/7325.bmp' width = '100%;'></div></div>","null","pos","CS","CS","1","category1/CS7.png","","","","",""
"","html-keyboard-response","72","2331342","0.0-6.0-6.0-0.3","5slebo5zxa","one_one","1","indirect_first","0","al05el15","0","21","1","1","3","1","","0","1","0","null","","","<div class = 'row'><div class = 'column'><img src = 'usneg/9000.bmp' width = '100%;'></div><div class = 'column'><img src = 'category3/CS6.png' width = '70%;'></div></div>","null","neg","CS","CS","3","category3/CS6.png","","","","",""
"","html-keyboard-response","73","2333881","0.0-6.0-6.0-0.4","5slebo5zxa","one_one","1","indirect_first","0","al05el15","0","21","1","1","3","1","","0","1","0","null","","","<div class = 'row'><div class = 'column'><img src = 'usneg/9421.bmp' width = '100%;'></div><div class = 'column'><img src = 'category4/CS8.png' width = '70%;'></div></div>","null","neg","CS","CS","4","category4/CS8.png","","","","",""
"","html-keyboard-response","74","2336401","0.0-6.0-6.0-0.5","5slebo5zxa","one_one","1","indirect_first","0","al05el15","0","21","1","1","3","1","","0","1","0","null","","","<div class = 'row'><div class = 'column'><img src = 'usneg/9000.bmp' width = '100%;'></div><div class = 'column'><img src = 'category3/CS6.png' width = '70%;'></div></div>","null","neg","CS","CS","3","category3/CS6.png","","","","",""
"","html-keyboard-response","75","2338942","0.0-6.0-6.0-0.6","5slebo5zxa","one_one","1","indirect_first","0","al05el15","0","21","1","1","3","1","","0","1","0","null","","","<div class = 'row'><div class = 'column'><img src = 'category2/CS5.png' width = '70%;'></div><div class = 'column'><img src = 'uspos/2360.bmp' width = '100%;'></div></div>","null","pos","CS","CS","2","category2/CS5.png","","","","",""
"","html-keyboard-response","76","2341481","0.0-6.0-6.0-0.7","5slebo5zxa","one_one","1","indirect_first","0","al05el15","0","21","1","1","3","1","","0","1","0","null","","","<div class = 'row'><div class = 'column'><img src = 'usneg/9421.bmp' width = '100%;'></div><div class = 'column'><img src = 'category4/CS8.png' width = '70%;'></div></div>","null","neg","CS","CS","4","category4/CS8.png","","","","",""
"","html-keyboard-response","77","2344022","0.0-6.0-6.0-0.8","5slebo5zxa","one_one","1","indirect_first","0","al05el15","0","21","1","1","3","1","","0","1","0","null","","","<div class = 'row'><div class = 'column'><img src = 'category2/CS5.png' width = '70%;'></div><div class = 'column'><img src = 'uspos/2360.bmp' width = '100%;'></div></div>","null","pos","CS","CS","2","category2/CS5.png","","","","",""
"","html-keyboard-response","78","2346561","0.0-6.0-6.0-0.9","5slebo5zxa","one_one","1","indirect_first","0","al05el15","0","21","1","1","3","1","","0","1","0","null","","","<div class = 'row'><div class = 'column'><img src = 'category1/CS7.png' width = '70%;'></div><div class = 'column'><img src = 'uspos/7325.bmp' width = '100%;'></div></div>","null","pos","CS","CS","1","category1/CS7.png","","","","",""
"","html-keyboard-response","79","2349092","0.0-6.0-6.0-0.10","5slebo5zxa","one_one","1","indirect_first","0","al05el15","0","21","1","1","3","1","","0","1","0","null","","","<div class = 'row'><div class = 'column'><img src = 'usneg/9421.bmp' width = '100%;'></div><div class = 'column'><img src = 'category4/CS8.png' width = '70%;'></div></div>","null","neg","CS","CS","4","category4/CS8.png","","","","",""
"","html-keyboard-response","80","2351631","0.0-6.0-6.0-0.11","5slebo5zxa","one_one","1","indirect_first","0","al05el15","0","21","1","1","3","1","","0","1","0","null","","","<div class = 'row'><div class = 'column'><img src = 'category3/CS6.png' width = '70%;'></div><div class = 'column'><img src = 'usneg/9000.bmp' width = '100%;'></div></div>","null","neg","CS","CS","3","category3/CS6.png","","","","",""
"","html-keyboard-response","81","2354172","0.0-6.0-6.0-0.12","5slebo5zxa","one_one","1","indirect_first","0","al05el15","0","21","1","1","3","1","","0","1","0","null","","","<div class = 'row'><div class = 'column'><img src = 'uspos/7325.bmp' width = '100%;'></div><div class = 'column'><img src = 'category1/CS7.png' width = '70%;'></div></div>","null","pos","CS","CS","1","category1/CS7.png","","","","",""
"","html-keyboard-response","82","2356702","0.0-6.0-6.0-0.13","5slebo5zxa","one_one","1","indirect_first","0","al05el15","0","21","1","1","3","1","","0","1","0","null","","","<div class = 'row'><div class = 'column'><img src = 'usneg/9000.bmp' width = '100%;'></div><div class = 'column'><img src = 'category3/CS6.png' width = '70%;'></div></div>","null","neg","CS","CS","3","category3/CS6.png","","","","",""
"","html-keyboard-response","83","2359232","0.0-6.0-6.0-0.14","5slebo5zxa","one_one","1","indirect_first","0","al05el15","0","21","1","1","3","1","","0","1","0","null","","","<div class = 'row'><div class = 'column'><img src = 'category2/CS5.png' width = '70%;'></div><div class = 'column'><img src = 'uspos/2360.bmp' width = '100%;'></div></div>","null","pos","CS","CS","2","category2/CS5.png","","","","",""
"","html-keyboard-response","84","2361772","0.0-6.0-6.0-0.15","5slebo5zxa","one_one","1","indirect_first","0","al05el15","0","21","1","1","3","1","","0","1","0","null","","","<div class = 'row'><div class = 'column'><img src = 'uspos/7325.bmp' width = '100%;'></div><div class = 'column'><img src = 'category1/CS7.png' width = '70%;'></div></div>","null","pos","CS","CS","1","category1/CS7.png","","","","",""
"","html-keyboard-response","85","2364311","0.0-6.0-6.0-0.16","5slebo5zxa","one_one","1","indirect_first","0","al05el15","0","21","1","1","3","1","","0","1","0","null","","","<div class = 'row'><div class = 'column'><img src = 'uspos/2360.bmp' width = '100%;'></div><div class = 'column'><img src = 'category2/CS5.png' width = '70%;'></div></div>","null","pos","CS","CS","2","category2/CS5.png","","","","",""
"","html-keyboard-response","86","2366851","0.0-6.0-6.0-0.17","5slebo5zxa","one_one","1","indirect_first","0","al05el15","0","21","1","1","3","1","","0","1","0","null","","","<div class = 'row'><div class = 'column'><img src = 'category1/CS7.png' width = '70%;'></div><div class = 'column'><img src = 'uspos/7325.bmp' width = '100%;'></div></div>","null","pos","CS","CS","1","category1/CS7.png","","","","",""
"","html-keyboard-response","87","2369391","0.0-6.0-6.0-0.18","5slebo5zxa","one_one","1","indirect_first","0","al05el15","0","21","1","1","3","1","","0","1","0","null","","","<div class = 'row'><div class = 'column'><img src = 'category4/CS8.png' width = '70%;'></div><div class = 'column'><img src = 'usneg/9421.bmp' width = '100%;'></div></div>","null","neg","CS","CS","4","category4/CS8.png","","","","",""
"","html-keyboard-response","88","2371911","0.0-6.0-6.0-0.19","5slebo5zxa","one_one","1","indirect_first","0","al05el15","0","21","1","1","3","1","","0","1","0","null","","","<div class = 'row'><div class = 'column'><img src = 'uspos/2360.bmp' width = '100%;'></div><div class = 'column'><img src = 'category2/CS5.png' width = '70%;'></div></div>","null","pos","CS","CS","2","category2/CS5.png","","","","",""
"","html-keyboard-response","89","2402271","0.0-7.0","5slebo5zxa","one_one","1","indirect_first","0","al05el15","0","21","1","1","3","1","","0","1","0","29838","","","<p>Sie sehen nun die chinesischen Zeichen nur ganz kurz. Danach sehen Sie die jeweilige Aussprache der Zeichen als Silbe auf dem Bildschrim. Ihre Aufgabe ist es, für jede Silbe anzugeben, ob diese etwas angenehmes, oder unangenehmes bedeuten könnte. Verlassen Sie sich hier vor allem auf Ihre Intuition.<br><br>Die Zeichen werden nur zur Orientierung dargestellt, beachten Sie sie deshalb nicht. Konzentrieren Sie sich vor allem auf die Silben. <br>Reagieren Sie mit folgenden zwei Tasten: <br><br><b>'D' </b> wenn die Silbe etwas <b>unangenehmes</b> bedeuten könnte. <br><b>'K'</b> wenn die Silbe etwas <b>angenehmes</b> bedeuten könnte. <br><br>Bitte legen Sie nun den Zeigefinger der linken Hand auf die Taste 'D' und den Zeigefinger der rechten Hand auf die Taste 'K'. <br>Reagieren Sie auf jede Silbe so schnell wie möglich. Uns interessiert Ihre spontane Reaktion. <br> <br> <br>Drücken Sie 'D' oder 'K', um die nächste Aufgabe zu starten. </p>","75","","","","","","","","","",""
"","html-keyboard-response","90","2405310","0.0-8.0-0.0","5slebo5zxa","one_one","1","indirect_first","0","al05el15","0","21","1","1","3","1","","0","1","0","null","","","<div style=""font-size:60px;"">+</div>","null","","","","","","","","","",""
"","html-keyboard-response","91","2405410","0.0-8.0-1.0","5slebo5zxa","one_one","1","indirect_first","0","al05el15","0","21","1","1","3","1","","0","1","0","null","","","<img src = 'category1/CS7.png' width = '100%;'>","null","","","","","","","","","",""
"","html-keyboard-response","92","2405691","0.0-8.0-2.0","5slebo5zxa","one_one","1","indirect_first","0","al05el15","0","21","1","1","3","1","","0","1","0","null","","","<img src = 'targets/39.png' width = '100%;'>","null","","","","","","","","","",""
"","html-keyboard-response","93","2407656","0.0-8.0-3.0","5slebo5zxa","one_one","1","indirect_first","0","al05el15","0","21","1","1","3","1","","0","1","0","1960","","","<img src = 'targets/mask.png' width = '100%;'>","75","pos","CS","CS","1","category1/CS7.png","targets/39.png","1","indirect","0",""
"","html-keyboard-response","94","2409171","0.0-8.0-0.1","5slebo5zxa","one_one","1","indirect_first","0","al05el15","0","21","1","1","3","1","","0","1","0","null","","","<div style=""font-size:60px;"">+</div>","null","","","","","","","","","",""
"","html-keyboard-response","95","2409271","0.0-8.0-1.1","5slebo5zxa","one_one","1","indirect_first","0","al05el15","0","21","1","1","3","1","","0","1","0","null","","","<img src = 'category1/CS9.png' width = '100%;'>","null","","","","","","","","","",""
"","html-keyboard-response","96","2409551","0.0-8.0-2.1","5slebo5zxa","one_one","1","indirect_first","0","al05el15","0","21","1","1","3","1","","0","1","0","null","","","<img src = 'targets/43.png' width = '100%;'>","null","","","","","","","","","",""
"","html-keyboard-response","97","2410715","0.0-8.0-3.1","5slebo5zxa","one_one","1","indirect_first","0","al05el15","0","21","1","1","3","1","","0","1","0","1163","","","<img src = 'targets/mask.png' width = '100%;'>","68","pos","GS","GSold","1","category1/CS9.png","targets/43.png","0","indirect","1",""
"","html-keyboard-response","98","2412251","0.0-8.0-0.2","5slebo5zxa","one_one","1","indirect_first","0","al05el15","0","21","1","1","3","1","","0","1","0","null","","","<div style=""font-size:60px;"">+</div>","null","","","","","","","","","",""
"","html-keyboard-response","99","2412352","0.0-8.0-1.2","5slebo5zxa","one_one","1","indirect_first","0","al05el15","0","21","1","1","3","1","","0","1","0","null","","","<img src = 'category2/CS7.png' width = '100%;'>","null","","","","","","","","","",""
"","html-keyboard-response","100","2412631","0.0-8.0-2.2","5slebo5zxa","one_one","1","indirect_first","0","al05el15","0","21","1","1","3","1","","0","1","0","null","","","<img src = 'targets/25.png' width = '100%;'>","null","","","","","","","","","",""
"","html-keyboard-response","101","2413253","0.0-8.0-3.2","5slebo5zxa","one_one","1","indirect_first","0","al05el15","0","21","1","1","3","1","","0","1","0","620","","","<img src = 'targets/mask.png' width = '100%;'>","75","pos","GS","GSold","2","category2/CS7.png","targets/25.png","1","indirect","2",""
"","html-keyboard-response","102","2414776","0.0-8.0-0.3","5slebo5zxa","one_one","1","indirect_first","0","al05el15","0","21","1","1","3","1","","0","1","0","null","","","<div style=""font-size:60px;"">+</div>","null","","","","","","","","","",""
"","html-keyboard-response","103","2414881","0.0-8.0-1.3","5slebo5zxa","one_one","1","indirect_first","0","al05el15","0","21","1","1","3","1","","0","1","0","null","","","<img src = 'category3/CS1.png' width = '100%;'>","null","","","","","","","","","",""
"","html-keyboard-response","104","2415143","0.0-8.0-2.3","5slebo5zxa","one_one","1","indirect_first","0","al05el15","0","21","1","1","3","1","","0","1","0","null","","","<img src = 'targets/44.png' width = '100%;'>","null","","","","","","","","","",""
"","html-keyboard-response","105","2415865","0.0-8.0-3.3","5slebo5zxa","one_one","1","indirect_first","0","al05el15","0","21","1","1","3","1","","0","1","0","721","","","<img src = 'targets/mask.png' width = '100%;'>","75","neg","GS","GSold","3","category3/CS1.png","targets/44.png","1","indirect","3",""
"","html-keyboard-response","106","2417390","0.0-8.0-0.4","5slebo5zxa","one_one","1","indirect_first","0","al05el15","0","21","1","1","3","1","","0","1","0","null","","","<div style=""font-size:60px;"">+</div>","null","","","","","","","","","",""
"","html-keyboard-response","107","2417486","0.0-8.0-1.4","5slebo5zxa","one_one","1","indirect_first","0","al05el15","0","21","1","1","3","1","","0","1","0","null","","","<img src = 'category4/CS1.png' width = '100%;'>","null","","","","","","","","","",""
"","html-keyboard-response","108","2417771","0.0-8.0-2.4","5slebo5zxa","one_one","1","indirect_first","0","al05el15","0","21","1","1","3","1","","0","1","0","null","","","<img src = 'targets/16.png' width = '100%;'>","null","","","","","","","","","",""
"","html-keyboard-response","109","2418427","0.0-8.0-3.4","5slebo5zxa","one_one","1","indirect_first","0","al05el15","0","21","1","1","3","1","","0","1","0","654","","","<img src = 'targets/mask.png' width = '100%;'>","75","neg","GS","GSold","4","category4/CS1.png","targets/16.png","1","indirect","4",""
"","html-keyboard-response","110","2419941","0.0-8.0-0.5","5slebo5zxa","one_one","1","indirect_first","0","al05el15","0","21","1","1","3","1","","0","1","0","null","","","<div style=""font-size:60px;"">+</div>","null","","","","","","","","","",""
"","html-keyboard-response","111","2420036","0.0-8.0-1.5","5slebo5zxa","one_one","1","indirect_first","0","al05el15","0","21","1","1","3","1","","0","1","0","null","","","<img src = 'category2/CS9.png' width = '100%;'>","null","","","","","","","","","",""
"","html-keyboard-response","112","2420321","0.0-8.0-2.5","5slebo5zxa","one_one","1","indirect_first","0","al05el15","0","21","1","1","3","1","","0","1","0","null","","","<img src = 'targets/41.png' width = '100%;'>","null","","","","","","","","","",""
"","html-keyboard-response","113","2420669","0.0-8.0-3.5","5slebo5zxa","one_one","1","indirect_first","0","al05el15","0","21","1","1","3","1","","0","1","0","346","","","<img src = 'targets/mask.png' width = '100%;'>","68","pos","GS","GSold","2","category2/CS9.png","targets/41.png","0","indirect","5",""
"","html-keyboard-response","114","2422181","0.0-8.0-0.6","5slebo5zxa","one_one","1","indirect_first","0","al05el15","0","21","1","1","3","1","","0","1","0","null","","","<div style=""font-size:60px;"">+</div>","null","","","","","","","","","",""
"","html-keyboard-response","115","2422272","0.0-8.0-1.6","5slebo5zxa","one_one","1","indirect_first","0","al05el15","0","21","1","1","3","1","","0","1","0","null","","","<img src = 'category2/CS5.png' width = '100%;'>","null","","","","","","","","","",""
"","html-keyboard-response","116","2422546","0.0-8.0-2.6","5slebo5zxa","one_one","1","indirect_first","0","al05el15","0","21","1","1","3","1","","0","1","0","null","","","<img src = 'targets/8.png' width = '100%;'>","null","","","","","","","","","",""
"","html-keyboard-response","117","2423341","0.0-8.0-3.6","5slebo5zxa","one_one","1","indirect_first","0","al05el15","0","21","1","1","3","1","","0","1","0","793","","","<img src = 'targets/mask.png' width = '100%;'>","75","pos","CS","CS","2","category2/CS5.png","targets/8.png","1","indirect","6",""
"","html-keyboard-response","118","2424871","0.0-8.0-0.7","5slebo5zxa","one_one","1","indirect_first","0","al05el15","0","21","1","1","3","1","","0","1","0","null","","","<div style=""font-size:60px;"">+</div>","null","","","","","","","","","",""
"","html-keyboard-response","119","2424976","0.0-8.0-1.7","5slebo5zxa","one_one","1","indirect_first","0","al05el15","0","21","1","1","3","1","","0","1","0","null","","","<img src = 'category3/CS6.png' width = '100%;'>","null","","","","","","","","","",""
"","html-keyboard-response","120","2425261","0.0-8.0-2.7","5slebo5zxa","one_one","1","indirect_first","0","al05el15","0","21","1","1","3","1","","0","1","0","null","","","<img src = 'targets/21.png' width = '100%;'>","null","","","","","","","","","",""
"","html-keyboard-response","121","2425975","0.0-8.0-3.7","5slebo5zxa","one_one","1","indirect_first","0","al05el15","0","21","1","1","3","1","","0","1","0","713","","","<img src = 'targets/mask.png' width = '100%;'>","68","neg","CS","CS","3","category3/CS6.png","targets/21.png","0","indirect","7",""
"","html-keyboard-response","122","2427501","0.0-8.0-0.8","5slebo5zxa","one_one","1","indirect_first","0","al05el15","0","21","1","1","3","1","","0","1","0","null","","","<div style=""font-size:60px;"">+</div>","null","","","","","","","","","",""
"","html-keyboard-response","123","2427601","0.0-8.0-1.8","5slebo5zxa","one_one","1","indirect_first","0","al05el15","0","21","1","1","3","1","","0","1","0","null","","","<img src = 'category1/CS1.png' width = '100%;'>","null","","","","","","","","","",""
"","html-keyboard-response","124","2427879","0.0-8.0-2.8","5slebo5zxa","one_one","1","indirect_first","0","al05el15","0","21","1","1","3","1","","0","1","0","null","","","<img src = 'targets/6.png' width = '100%;'>","null","","","","","","","","","",""
"","html-keyboard-response","125","2428299","0.0-8.0-3.8","5slebo5zxa","one_one","1","indirect_first","0","al05el15","0","21","1","1","3","1","","0","1","0","418","","","<img src = 'targets/mask.png' width = '100%;'>","68","pos","GS","GSold","1","category1/CS1.png","targets/6.png","0","indirect","8",""
"","html-keyboard-response","126","2429811","0.0-8.0-0.9","5slebo5zxa","one_one","1","indirect_first","0","al05el15","0","21","1","1","3","1","","0","1","0","null","","","<div style=""font-size:60px;"">+</div>","null","","","","","","","","","",""
"","html-keyboard-response","127","2429906","0.0-8.0-1.9","5slebo5zxa","one_one","1","indirect_first","0","al05el15","0","21","1","1","3","1","","0","1","0","null","","","<img src = 'category3/CS8.png' width = '100%;'>","null","","","","","","","","","",""
"","html-keyboard-response","128","2430181","0.0-8.0-2.9","5slebo5zxa","one_one","1","indirect_first","0","al05el15","0","21","1","1","3","1","","0","1","0","null","","","<img src = 'targets/35.png' width = '100%;'>","null","","","","","","","","","",""
"","html-keyboard-response","129","2430532","0.0-8.0-3.9","5slebo5zxa","one_one","1","indirect_first","0","al05el15","0","21","1","1","3","1","","0","1","0","349","","","<img src = 'targets/mask.png' width = '100%;'>","75","neg","GS","GSold","3","category3/CS8.png","targets/35.png","1","indirect","9",""
"","html-keyboard-response","130","2432051","0.0-8.0-0.10","5slebo5zxa","one_one","1","indirect_first","0","al05el15","0","21","1","1","3","1","","0","1","0","null","","","<div style=""font-size:60px;"">+</div>","null","","","","","","","","","",""
"","html-keyboard-response","131","2432150","0.0-8.0-1.10","5slebo5zxa","one_one","1","indirect_first","0","al05el15","0","21","1","1","3","1","","0","1","0","null","","","<img src = 'category3/CS7.png' width = '100%;'>","null","","","","","","","","","",""
"","html-keyboard-response","132","2432411","0.0-8.0-2.10","5slebo5zxa","one_one","1","indirect_first","0","al05el15","0","21","1","1","3","1","","0","1","0","null","","","<img src = 'targets/19.png' width = '100%;'>","null","","","","","","","","","",""
"","html-keyboard-response","133","2432901","0.0-8.0-3.10","5slebo5zxa","one_one","1","indirect_first","0","al05el15","0","21","1","1","3","1","","0","1","0","490","","","<img src = 'targets/mask.png' width = '100%;'>","68","neg","GS","GSold","3","category3/CS7.png","targets/19.png","0","indirect","10",""
"","html-keyboard-response","134","2434422","0.0-8.0-0.11","5slebo5zxa","one_one","1","indirect_first","0","al05el15","0","21","1","1","3","1","","0","1","0","null","","","<div style=""font-size:60px;"">+</div>","null","","","","","","","","","",""
"","html-keyboard-response","135","2434521","0.0-8.0-1.11","5slebo5zxa","one_one","1","indirect_first","0","al05el15","0","21","1","1","3","1","","0","1","0","null","","","<img src = 'category1/CS3.png' width = '100%;'>","null","","","","","","","","","",""
"","html-keyboard-response","136","2434801","0.0-8.0-2.11","5slebo5zxa","one_one","1","indirect_first","0","al05el15","0","21","1","1","3","1","","0","1","0","null","","","<img src = 'targets/2.png' width = '100%;'>","null","","","","","","","","","",""
"","html-keyboard-response","137","2435386","0.0-8.0-3.11","5slebo5zxa","one_one","1","indirect_first","0","al05el15","0","21","1","1","3","1","","0","1","0","582","","","<img src = 'targets/mask.png' width = '100%;'>","75","pos","GS","GSold","1","category1/CS3.png","targets/2.png","1","indirect","11",""
"","html-keyboard-response","138","2436921","0.0-8.0-0.12","5slebo5zxa","one_one","1","indirect_first","0","al05el15","0","21","1","1","3","1","","0","1","0","null","","","<div style=""font-size:60px;"">+</div>","null","","","","","","","","","",""
"","html-keyboard-response","139","2437021","0.0-8.0-1.12","5slebo5zxa","one_one","1","indirect_first","0","al05el15","0","21","1","1","3","1","","0","1","0","null","","","<img src = 'category4/CS3.png' width = '100%;'>","null","","","","","","","","","",""
"","html-keyboard-response","140","2437289","0.0-8.0-2.12","5slebo5zxa","one_one","1","indirect_first","0","al05el15","0","21","1","1","3","1","","0","1","0","null","","","<img src = 'targets/23.png' width = '100%;'>","null","","","","","","","","","",""
"","html-keyboard-response","141","2437706","0.0-8.0-3.12","5slebo5zxa","one_one","1","indirect_first","0","al05el15","0","21","1","1","3","1","","0","1","0","416","","","<img src = 'targets/mask.png' width = '100%;'>","75","neg","GS","GSold","4","category4/CS3.png","targets/23.png","1","indirect","12",""
"","html-keyboard-response","142","2439231","0.0-8.0-0.13","5slebo5zxa","one_one","1","indirect_first","0","al05el15","0","21","1","1","3","1","","0","1","0","null","","","<div style=""font-size:60px;"">+</div>","null","","","","","","","","","",""
"","html-keyboard-response","143","2439332","0.0-8.0-1.13","5slebo5zxa","one_one","1","indirect_first","0","al05el15","0","21","1","1","3","1","","0","1","0","null","","","<img src = 'category4/CS8.png' width = '100%;'>","null","","","","","","","","","",""
"","html-keyboard-response","144","2439612","0.0-8.0-2.13","5slebo5zxa","one_one","1","indirect_first","0","al05el15","0","21","1","1","3","1","","0","1","0","null","","","<img src = 'targets/47.png' width = '100%;'>","null","","","","","","","","","",""
"","html-keyboard-response","145","2440343","0.0-8.0-3.13","5slebo5zxa","one_one","1","indirect_first","0","al05el15","0","21","1","1","3","1","","0","1","0","729","","","<img src = 'targets/mask.png' width = '100%;'>","75","neg","CS","CS","4","category4/CS8.png","targets/47.png","1","indirect","13",""
"","html-keyboard-response","146","2441871","0.0-8.0-0.14","5slebo5zxa","one_one","1","indirect_first","0","al05el15","0","21","1","1","3","1","","0","1","0","null","","","<div style=""font-size:60px;"">+</div>","null","","","","","","","","","",""
"","html-keyboard-response","147","2441972","0.0-8.0-1.14","5slebo5zxa","one_one","1","indirect_first","0","al05el15","0","21","1","1","3","1","","0","1","0","null","","","<img src = 'category2/CS6.png' width = '100%;'>","null","","","","","","","","","",""
"","html-keyboard-response","148","2442252","0.0-8.0-2.14","5slebo5zxa","one_one","1","indirect_first","0","al05el15","0","21","1","1","3","1","","0","1","0","null","","","<img src = 'targets/28.png' width = '100%;'>","null","","","","","","","","","",""
"","html-keyboard-response","149","2442689","0.0-8.0-3.14","5slebo5zxa","one_one","1","indirect_first","0","al05el15","0","21","1","1","3","1","","0","1","0","435","","","<img src = 'targets/mask.png' width = '100%;'>","68","pos","GS","GSold","2","category2/CS6.png","targets/28.png","0","indirect","14",""
"","html-keyboard-response","150","2444211","0.0-8.0-0.15","5slebo5zxa","one_one","1","indirect_first","0","al05el15","0","21","1","1","3","1","","0","1","0","null","","","<div style=""font-size:60px;"">+</div>","null","","","","","","","","","",""
"","html-keyboard-response","151","2444311","0.0-8.0-1.15","5slebo5zxa","one_one","1","indirect_first","0","al05el15","0","21","1","1","3","1","","0","1","0","null","","","<img src = 'category4/CS2.png' width = '100%;'>","null","","","","","","","","","",""
"","html-keyboard-response","152","2444592","0.0-8.0-2.15","5slebo5zxa","one_one","1","indirect_first","0","al05el15","0","21","1","1","3","1","","0","1","0","null","","","<img src = 'targets/48.png' width = '100%;'>","null","","","","","","","","","",""
"","html-keyboard-response","153","2444965","0.0-8.0-3.15","5slebo5zxa","one_one","1","indirect_first","0","al05el15","0","21","1","1","3","1","","0","1","0","372","","","<img src = 'targets/mask.png' width = '100%;'>","68","neg","GS","GSold","4","category4/CS2.png","targets/48.png","0","indirect","15",""
"","survey-html-form","154","2452377","0.0-9.0","5slebo5zxa","one_one","1","indirect_first","0","al05el15","0","21","1","1","3","1","","0","1","0","6905","","{}","","","","","","","","","","","",""
"","html-keyboard-response","155","2455411","0.0-10.0-0.0","5slebo5zxa","one_one","1","indirect_first","0","al05el15","0","21","1","1","3","1","","0","1","0","null","","","<div style=""font-size:60px;"">+</div>","null","","","","","","","","","",""
"","html-keyboard-response","156","2455511","0.0-10.0-1.0","5slebo5zxa","one_one","1","indirect_first","0","al05el15","0","21","1","1","3","1","","0","1","0","null","","","<img src = 'category4/GS3.png' width = '100%;'>","null","","","","","","","","","",""
"","html-keyboard-response","157","2455792","0.0-10.0-2.0","5slebo5zxa","one_one","1","indirect_first","0","al05el15","0","21","1","1","3","1","","0","1","0","null","","","<img src = 'targets/17.png' width = '100%;'>","null","","","","","","","","","",""
"","html-keyboard-response","158","2456402","0.0-10.0-3.0","5slebo5zxa","one_one","1","indirect_first","0","al05el15","0","21","1","1","3","1","","0","1","0","607","","","<img src = 'targets/mask.png' width = '100%;'>","68","neg","GS","GSnew","4","category4/GS3.png","targets/17.png","0","indirect","16",""
"","html-keyboard-response","159","2457931","0.0-10.0-0.1","5slebo5zxa","one_one","1","indirect_first","0","al05el15","0","21","1","1","3","1","","0","1","0","null","","","<div style=""font-size:60px;"">+</div>","null","","","","","","","","","",""
"","html-keyboard-response","160","2458031","0.0-10.0-1.1","5slebo5zxa","one_one","1","indirect_first","0","al05el15","0","21","1","1","3","1","","0","1","0","null","","","<img src = 'category1/GS2.png' width = '100%;'>","null","","","","","","","","","",""
"","html-keyboard-response","161","2458311","0.0-10.0-2.1","5slebo5zxa","one_one","1","indirect_first","0","al05el15","0","21","1","1","3","1","","0","1","0","null","","","<img src = 'targets/7.png' width = '100%;'>","null","","","","","","","","","",""
"","html-keyboard-response","162","2458547","0.0-10.0-3.1","5slebo5zxa","one_one","1","indirect_first","0","al05el15","0","21","1","1","3","1","","0","1","0","233","","","<img src = 'targets/mask.png' width = '100%;'>","75","pos","GS","GSnew","1","category1/GS2.png","targets/7.png","1","indirect","17",""
"","html-keyboard-response","163","2460061","0.0-10.0-0.2","5slebo5zxa","one_one","1","indirect_first","0","al05el15","0","21","1","1","3","1","","0","1","0","null","","","<div style=""font-size:60px;"">+</div>","null","","","","","","","","","",""
"","html-keyboard-response","164","2460161","0.0-10.0-1.2","5slebo5zxa","one_one","1","indirect_first","0","al05el15","0","21","1","1","3","1","","0","1","0","null","","","<img src = 'category3/GS1.png' width = '100%;'>","null","","","","","","","","","",""
"","html-keyboard-response","165","2460442","0.0-10.0-2.2","5slebo5zxa","one_one","1","indirect_first","0","al05el15","0","21","1","1","3","1","","0","1","0","null","","","<img src = 'targets/1.png' width = '100%;'>","null","","","","","","","","","",""
"","html-keyboard-response","166","2460875","0.0-10.0-3.2","5slebo5zxa","one_one","1","indirect_first","0","al05el15","0","21","1","1","3","1","","0","1","0","432","","","<img src = 'targets/mask.png' width = '100%;'>","68","neg","GS","GSnew","3","category3/GS1.png","targets/1.png","0","indirect","18",""
"","html-keyboard-response","167","2462401","0.0-10.0-0.3","5slebo5zxa","one_one","1","indirect_first","0","al05el15","0","21","1","1","3","1","","0","1","0","null","","","<div style=""font-size:60px;"">+</div>","null","","","","","","","","","",""
"","html-keyboard-response","168","2462501","0.0-10.0-1.3","5slebo5zxa","one_one","1","indirect_first","0","al05el15","0","21","1","1","3","1","","0","1","0","null","","","<img src = 'category4/lin.png' width = '100%;'>","null","","","","","","","","","",""
"","html-keyboard-response","169","2462781","0.0-10.0-2.3","5slebo5zxa","one_one","1","indirect_first","0","al05el15","0","21","1","1","3","1","","0","1","0","null","","","<img src = 'targets/18.png' width = '100%;'>","null","","","","","","","","","",""
"","html-keyboard-response","170","2463469","0.0-10.0-3.3","5slebo5zxa","one_one","1","indirect_first","0","al05el15","0","21","1","1","3","1","","0","1","0","688","","","<img src = 'targets/mask.png' width = '100%;'>","68","neg","GS","abstract","4","category4/lin.png","targets/18.png","0","indirect","19",""
"","html-keyboard-response","171","2464990","0.0-10.0-0.4","5slebo5zxa","one_one","1","indirect_first","0","al05el15","0","21","1","1","3","1","","0","1","0","null","","","<div style=""font-size:60px;"">+</div>","null","","","","","","","","","",""
"","html-keyboard-response","172","2465092","0.0-10.0-1.4","5slebo5zxa","one_one","1","indirect_first","0","al05el15","0","21","1","1","3","1","","0","1","0","null","","","<img src = 'category2/GS2.png' width = '100%;'>","null","","","","","","","","","",""
"","html-keyboard-response","173","2465372","0.0-10.0-2.4","5slebo5zxa","one_one","1","indirect_first","0","al05el15","0","21","1","1","3","1","","0","1","0","null","","","<img src = 'targets/26.png' width = '100%;'>","null","","","","","","","","","",""
"","html-keyboard-response","174","2465756","0.0-10.0-3.4","5slebo5zxa","one_one","1","indirect_first","0","al05el15","0","21","1","1","3","1","","0","1","0","383","","","<img src = 'targets/mask.png' width = '100%;'>","75","pos","GS","GSnew","2","category2/GS2.png","targets/26.png","1","indirect","20",""
"","html-keyboard-response","175","2467281","0.0-10.0-0.5","5slebo5zxa","one_one","1","indirect_first","0","al05el15","0","21","1","1","3","1","","0","1","0","null","","","<div style=""font-size:60px;"">+</div>","null","","","","","","","","","",""
"","html-keyboard-response","176","2467391","0.0-10.0-1.5","5slebo5zxa","one_one","1","indirect_first","0","al05el15","0","21","1","1","3","1","","0","1","0","null","","","<img src = 'category3/GS3.png' width = '100%;'>","null","","","","","","","","","",""
"","html-keyboard-response","177","2467671","0.0-10.0-2.5","5slebo5zxa","one_one","1","indirect_first","0","al05el15","0","21","1","1","3","1","","0","1","0","null","","","<img src = 'targets/9.png' width = '100%;'>","null","","","","","","","","","",""
"","html-keyboard-response","178","2468070","0.0-10.0-3.5","5slebo5zxa","one_one","1","indirect_first","0","al05el15","0","21","1","1","3","1","","0","1","0","398","","","<img src = 'targets/mask.png' width = '100%;'>","75","neg","GS","GSnew","3","category3/GS3.png","targets/9.png","1","indirect","21",""
"","html-keyboard-response","179","2469601","0.0-10.0-0.6","5slebo5zxa","one_one","1","indirect_first","0","al05el15","0","21","1","1","3","1","","0","1","0","null","","","<div style=""font-size:60px;"">+</div>","null","","","","","","","","","",""
"","html-keyboard-response","180","2469701","0.0-10.0-1.6","5slebo5zxa","one_one","1","indirect_first","0","al05el15","0","21","1","1","3","1","","0","1","0","null","","","<img src = 'category4/GS2.png' width = '100%;'>","null","","","","","","","","","",""
"","html-keyboard-response","181","2469981","0.0-10.0-2.6","5slebo5zxa","one_one","1","indirect_first","0","al05el15","0","21","1","1","3","1","","0","1","0","null","","","<img src = 'targets/40.png' width = '100%;'>","null","","","","","","","","","",""
"","html-keyboard-response","182","2470386","0.0-10.0-3.6","5slebo5zxa","one_one","1","indirect_first","0","al05el15","0","21","1","1","3","1","","0","1","0","401","","","<img src = 'targets/mask.png' width = '100%;'>","68","neg","GS","GSnew","4","category4/GS2.png","targets/40.png","0","indirect","22",""
"","html-keyboard-response","183","2471901","0.0-10.0-0.7","5slebo5zxa","one_one","1","indirect_first","0","al05el15","0","21","1","1","3","1","","0","1","0","null","","","<div style=""font-size:60px;"">+</div>","null","","","","","","","","","",""
"","html-keyboard-response","184","2472002","0.0-10.0-1.7","5slebo5zxa","one_one","1","indirect_first","0","al05el15","0","21","1","1","3","1","","0","1","0","null","","","<img src = 'category2/GS1.png' width = '100%;'>","null","","","","","","","","","",""
"","html-keyboard-response","185","2472282","0.0-10.0-2.7","5slebo5zxa","one_one","1","indirect_first","0","al05el15","0","21","1","1","3","1","","0","1","0","null","","","<img src = 'targets/33.png' width = '100%;'>","null","","","","","","","","","",""
"","html-keyboard-response","186","2472676","0.0-10.0-3.7","5slebo5zxa","one_one","1","indirect_first","0","al05el15","0","21","1","1","3","1","","0","1","0","393","","","<img src = 'targets/mask.png' width = '100%;'>","75","pos","GS","GSnew","2","category2/GS1.png","targets/33.png","1","indirect","23",""
"","html-keyboard-response","187","2474201","0.0-10.0-0.8","5slebo5zxa","one_one","1","indirect_first","0","al05el15","0","21","1","1","3","1","","0","1","0","null","","","<div style=""font-size:60px;"">+</div>","null","","","","","","","","","",""
"","html-keyboard-response","188","2474301","0.0-10.0-1.8","5slebo5zxa","one_one","1","indirect_first","0","al05el15","0","21","1","1","3","1","","0","1","0","null","","","<img src = 'category1/GS1.png' width = '100%;'>","null","","","","","","","","","",""
"","html-keyboard-response","189","2474581","0.0-10.0-2.8","5slebo5zxa","one_one","1","indirect_first","0","al05el15","0","21","1","1","3","1","","0","1","0","null","","","<img src = 'targets/32.png' width = '100%;'>","null","","","","","","","","","",""
"","html-keyboard-response","190","2475675","0.0-10.0-3.8","5slebo5zxa","one_one","1","indirect_first","0","al05el15","0","21","1","1","3","1","","0","1","0","1092","","","<img src = 'targets/mask.png' width = '100%;'>","68","pos","GS","GSnew","1","category1/GS1.png","targets/32.png","0","indirect","24",""
"","html-keyboard-response","191","2477191","0.0-10.0-0.9","5slebo5zxa","one_one","1","indirect_first","0","al05el15","0","21","1","1","3","1","","0","1","0","null","","","<div style=""font-size:60px;"">+</div>","null","","","","","","","","","",""
"","html-keyboard-response","192","2477301","0.0-10.0-1.9","5slebo5zxa","one_one","1","indirect_first","0","al05el15","0","21","1","1","3","1","","0","1","0","null","","","<img src = 'category2/GS3.png' width = '100%;'>","null","","","","","","","","","",""
"","html-keyboard-response","193","2477582","0.0-10.0-2.9","5slebo5zxa","one_one","1","indirect_first","0","al05el15","0","21","1","1","3","1","","0","1","0","null","","","<img src = 'targets/20.png' width = '100%;'>","null","","","","","","","","","",""
"","html-keyboard-response","194","2477999","0.0-10.0-3.9","5slebo5zxa","one_one","1","indirect_first","0","al05el15","0","21","1","1","3","1","","0","1","0","415","","","<img src = 'targets/mask.png' width = '100%;'>","75","pos","GS","GSnew","2","category2/GS3.png","targets/20.png","1","indirect","25",""
"","html-keyboard-response","195","2479521","0.0-10.0-0.10","5slebo5zxa","one_one","1","indirect_first","0","al05el15","0","21","1","1","3","1","","0","1","0","null","","","<div style=""font-size:60px;"">+</div>","null","","","","","","","","","",""
"","html-keyboard-response","196","2479622","0.0-10.0-1.10","5slebo5zxa","one_one","1","indirect_first","0","al05el15","0","21","1","1","3","1","","0","1","0","null","","","<img src = 'category1/GS3.png' width = '100%;'>","null","","","","","","","","","",""
"","html-keyboard-response","197","2479901","0.0-10.0-2.10","5slebo5zxa","one_one","1","indirect_first","0","al05el15","0","21","1","1","3","1","","0","1","0","null","","","<img src = 'targets/38.png' width = '100%;'>","null","","","","","","","","","",""
"","html-keyboard-response","198","2480709","0.0-10.0-3.10","5slebo5zxa","one_one","1","indirect_first","0","al05el15","0","21","1","1","3","1","","0","1","0","806","","","<img src = 'targets/mask.png' width = '100%;'>","68","pos","GS","GSnew","1","category1/GS3.png","targets/38.png","0","indirect","26",""
"","html-keyboard-response","199","2482231","0.0-10.0-0.11","5slebo5zxa","one_one","1","indirect_first","0","al05el15","0","21","1","1","3","1","","0","1","0","null","","","<div style=""font-size:60px;"">+</div>","null","","","","","","","","","",""
"","html-keyboard-response","200","2482331","0.0-10.0-1.11","5slebo5zxa","one_one","1","indirect_first","0","al05el15","0","21","1","1","3","1","","0","1","0","null","","","<img src = 'category4/GS1.png' width = '100%;'>","null","","","","","","","","","",""
"","html-keyboard-response","201","2482611","0.0-10.0-2.11","5slebo5zxa","one_one","1","indirect_first","0","al05el15","0","21","1","1","3","1","","0","1","0","null","","","<img src = 'targets/3.png' width = '100%;'>","null","","","","","","","","","",""
"","html-keyboard-response","202","2483231","0.0-10.0-3.11","5slebo5zxa","one_one","1","indirect_first","0","al05el15","0","21","1","1","3","1","","0","1","0","618","","","<img src = 'targets/mask.png' width = '100%;'>","68","neg","GS","GSnew","4","category4/GS1.png","targets/3.png","0","indirect","27",""
"","html-keyboard-response","203","2484770","0.0-10.0-0.12","5slebo5zxa","one_one","1","indirect_first","0","al05el15","0","21","1","1","3","1","","0","1","0","null","","","<div style=""font-size:60px;"">+</div>","null","","","","","","","","","",""
"","html-keyboard-response","204","2484870","0.0-10.0-1.12","5slebo5zxa","one_one","1","indirect_first","0","al05el15","0","21","1","1","3","1","","0","1","0","null","","","<img src = 'category1/ma.png' width = '100%;'>","null","","","","","","","","","",""
"","html-keyboard-response","205","2485151","0.0-10.0-2.12","5slebo5zxa","one_one","1","indirect_first","0","al05el15","0","21","1","1","3","1","","0","1","0","null","","","<img src = 'targets/24.png' width = '100%;'>","null","","","","","","","","","",""
"","html-keyboard-response","206","2485740","0.0-10.0-3.12","5slebo5zxa","one_one","1","indirect_first","0","al05el15","0","21","1","1","3","1","","0","1","0","586","","","<img src = 'targets/mask.png' width = '100%;'>","68","pos","GS","abstract","1","category1/ma.png","targets/24.png","0","indirect","28",""
"","html-keyboard-response","207","2487271","0.0-10.0-0.13","5slebo5zxa","one_one","1","indirect_first","0","al05el15","0","21","1","1","3","1","","0","1","0","null","","","<div style=""font-size:60px;"">+</div>","null","","","","","","","","","",""
"","html-keyboard-response","208","2487371","0.0-10.0-1.13","5slebo5zxa","one_one","1","indirect_first","0","al05el15","0","21","1","1","3","1","","0","1","0","null","","","<img src = 'category3/wang.png' width = '100%;'>","null","","","","","","","","","",""
"","html-keyboard-response","209","2487651","0.0-10.0-2.13","5slebo5zxa","one_one","1","indirect_first","0","al05el15","0","21","1","1","3","1","","0","1","0","null","","","<img src = 'targets/34.png' width = '100%;'>","null","","","","","","","","","",""
"","html-keyboard-response","210","2488075","0.0-10.0-3.13","5slebo5zxa","one_one","1","indirect_first","0","al05el15","0","21","1","1","3","1","","0","1","0","422","","","<img src = 'targets/mask.png' width = '100%;'>","75","neg","GS","abstract","3","category3/wang.png","targets/34.png","1","indirect","29",""
"","html-keyboard-response","211","2489611","0.0-10.0-0.14","5slebo5zxa","one_one","1","indirect_first","0","al05el15","0","21","1","1","3","1","","0","1","0","null","","","<div style=""font-size:60px;"">+</div>","null","","","","","","","","","",""
"","html-keyboard-response","212","2489712","0.0-10.0-1.14","5slebo5zxa","one_one","1","indirect_first","0","al05el15","0","21","1","1","3","1","","0","1","0","null","","","<img src = 'category3/GS2.png' width = '100%;'>","null","","","","","","","","","",""
"","html-keyboard-response","213","2489992","0.0-10.0-2.14","5slebo5zxa","one_one","1","indirect_first","0","al05el15","0","21","1","1","3","1","","0","1","0","null","","","<img src = 'targets/42.png' width = '100%;'>","null","","","","","","","","","",""
"","html-keyboard-response","214","2490373","0.0-10.0-3.14","5slebo5zxa","one_one","1","indirect_first","0","al05el15","0","21","1","1","3","1","","0","1","0","381","","","<img src = 'targets/mask.png' width = '100%;'>","75","neg","GS","GSnew","3","category3/GS2.png","targets/42.png","1","indirect","30",""
"","html-keyboard-response","215","2491891","0.0-10.0-0.15","5slebo5zxa","one_one","1","indirect_first","0","al05el15","0","21","1","1","3","1","","0","1","0","null","","","<div style=""font-size:60px;"">+</div>","null","","","","","","","","","",""
"","html-keyboard-response","216","2491991","0.0-10.0-1.15","5slebo5zxa","one_one","1","indirect_first","0","al05el15","0","21","1","1","3","1","","0","1","0","null","","","<img src = 'category2/men.png' width = '100%;'>","null","","","","","","","","","",""
"","html-keyboard-response","217","2492272","0.0-10.0-2.15","5slebo5zxa","one_one","1","indirect_first","0","al05el15","0","21","1","1","3","1","","0","1","0","null","","","<img src = 'targets/11.png' width = '100%;'>","null","","","","","","","","","",""
"","html-keyboard-response","218","2492800","0.0-10.0-3.15","5slebo5zxa","one_one","1","indirect_first","0","al05el15","0","21","1","1","3","1","","0","1","0","527","","","<img src = 'targets/mask.png' width = '100%;'>","75","pos","GS","abstract","2","category2/men.png","targets/11.png","1","indirect","31",""
"","survey-html-form","219","2502786","0.0-11.0","5slebo5zxa","one_one","1","indirect_first","0","al05el15","0","21","1","1","3","1","","0","1","0","9475","","{}","","","","","","","","","","","",""
"","image-slider-response","220","2511093","0.0-12.0-0.0","5slebo5zxa","one_one","1","indirect_first","0","al05el15","0","21","1","1","3","1","","0","1","0","6274","","","","","pos","GS","GSnew","2","category2/GS3.png","targets/20.png","","direct","","-21"
"","image-slider-response","221","2514871","0.0-12.0-0.1","5slebo5zxa","one_one","1","indirect_first","0","al05el15","0","21","1","1","3","1","","0","1","0","3770","","","","","neg","GS","GSold","4","category4/CS2.png","targets/48.png","","direct","","23"
"","image-slider-response","222","2518690","0.0-12.0-0.2","5slebo5zxa","one_one","1","indirect_first","0","al05el15","0","21","1","1","3","1","","0","1","0","3812","","","","","pos","GS","GSold","2","category2/CS6.png","targets/28.png","","direct","","30"
"","image-slider-response","223","2522570","0.0-12.0-0.3","5slebo5zxa","one_one","1","indirect_first","0","al05el15","0","21","1","1","3","1","","0","1","0","3872","","","","","pos","GS","GSold","1","category1/CS1.png","targets/6.png","","direct","","44"
"","image-slider-response","224","2525443","0.0-12.0-0.4","5slebo5zxa","one_one","1","indirect_first","0","al05el15","0","21","1","1","3","1","","0","1","0","2865","","","","","neg","GS","GSold","3","category3/CS1.png","targets/44.png","","direct","","-40"
"","image-slider-response","225","2528438","0.0-12.0-0.5","5slebo5zxa","one_one","1","indirect_first","0","al05el15","0","21","1","1","3","1","","0","1","0","2989","","","","","pos","GS","GSnew","2","category2/GS2.png","targets/26.png","","direct","","-21"
"","image-slider-response","226","2531929","0.0-12.0-0.6","5slebo5zxa","one_one","1","indirect_first","0","al05el15","0","21","1","1","3","1","","0","1","0","3482","","","","","neg","CS","CS","3","category3/CS6.png","targets/21.png","","direct","","87"
"","image-slider-response","227","2535575","0.0-12.0-0.7","5slebo5zxa","one_one","1","indirect_first","0","al05el15","0","21","1","1","3","1","","0","1","0","3638","","","","","neg","GS","GSold","3","category3/CS7.png","targets/19.png","","direct","","73"
"","image-slider-response","228","2538516","0.0-12.0-0.8","5slebo5zxa","one_one","1","indirect_first","0","al05el15","0","21","1","1","3","1","","0","1","0","2934","","","","","neg","GS","GSold","3","category3/CS8.png","targets/35.png","","direct","","68"
"","image-slider-response","229","2541576","0.0-12.0-0.9","5slebo5zxa","one_one","1","indirect_first","0","al05el15","0","21","1","1","3","1","","0","1","0","3053","","","","","neg","GS","GSold","4","category4/CS3.png","targets/23.png","","direct","","-64"
"","image-slider-response","230","2548883","0.0-12.0-0.10","5slebo5zxa","one_one","1","indirect_first","0","al05el15","0","21","1","1","3","1","","0","1","0","7299","","","","","neg","GS","GSnew","4","category4/GS2.png","targets/40.png","","direct","","2"
"","image-slider-response","231","2553548","0.0-12.0-0.11","5slebo5zxa","one_one","1","indirect_first","0","al05el15","0","21","1","1","3","1","","0","1","0","4656","","","","","pos","GS","abstract","1","category1/ma.png","targets/24.png","","direct","","8"
"","image-slider-response","232","2556463","0.0-12.0-0.12","5slebo5zxa","one_one","1","indirect_first","0","al05el15","0","21","1","1","3","1","","0","1","0","2907","","","","","neg","GS","GSold","4","category4/CS1.png","targets/16.png","","direct","","-28"
"","image-slider-response","233","2560645","0.0-12.0-0.13","5slebo5zxa","one_one","1","indirect_first","0","al05el15","0","21","1","1","3","1","","0","1","0","4179","","","","","neg","GS","GSnew","3","category3/GS1.png","targets/1.png","","direct","","25"
"","image-slider-response","234","2563485","0.0-12.0-0.14","5slebo5zxa","one_one","1","indirect_first","0","al05el15","0","21","1","1","3","1","","0","1","0","2833","","","","","pos","GS","GSold","2","category2/CS9.png","targets/41.png","","direct","","68"
"","image-slider-response","235","2566601","0.0-12.0-0.15","5slebo5zxa","one_one","1","indirect_first","0","al05el15","0","21","1","1","3","1","","0","1","0","3108","","","","","pos","GS","GSnew","1","category1/GS3.png","targets/38.png","","direct","","-39"
"","image-slider-response","236","2569563","0.0-12.0-0.16","5slebo5zxa","one_one","1","indirect_first","0","al05el15","0","21","1","1","3","1","","0","1","0","2955","","","","","pos","GS","GSnew","2","category2/GS1.png","targets/33.png","","direct","","-39"
"","image-slider-response","237","2573135","0.0-12.0-0.17","5slebo5zxa","one_one","1","indirect_first","0","al05el15","0","21","1","1","3","1","","0","1","0","3569","","","","","pos","GS","GSold","1","category1/CS9.png","targets/43.png","","direct","","30"
"","image-slider-response","238","2575895","0.0-12.0-0.18","5slebo5zxa","one_one","1","indirect_first","0","al05el15","0","21","1","1","3","1","","0","1","0","2751","","","","","neg","GS","abstract","3","category3/wang.png","targets/34.png","","direct","","66"
"","image-slider-response","239","2578695","0.0-12.0-0.19","5slebo5zxa","one_one","1","indirect_first","0","al05el15","0","21","1","1","3","1","","0","1","0","2793","","","","","neg","GS","GSnew","3","category3/GS3.png","targets/9.png","","direct","","53"
"","image-slider-response","240","2583475","0.0-12.0-0.20","5slebo5zxa","one_one","1","indirect_first","0","al05el15","0","21","1","1","3","1","","0","1","0","4773","","","","","neg","GS","GSnew","4","category4/GS3.png","targets/17.png","","direct","","15"
"","image-slider-response","241","2586675","0.0-12.0-0.21","5slebo5zxa","one_one","1","indirect_first","0","al05el15","0","21","1","1","3","1","","0","1","0","3193","","","","","neg","GS","abstract","4","category4/lin.png","targets/18.png","","direct","","2"
"","image-slider-response","242","2590015","0.0-12.0-0.22","5slebo5zxa","one_one","1","indirect_first","0","al05el15","0","21","1","1","3","1","","0","1","0","3334","","","","","pos","GS","GSnew","1","category1/GS1.png","targets/32.png","","direct","","-43"
"","image-slider-response","243","2592585","0.0-12.0-0.23","5slebo5zxa","one_one","1","indirect_first","0","al05el15","0","21","1","1","3","1","","0","1","0","2562","","","","","pos","GS","GSold","2","category2/CS7.png","targets/25.png","","direct","","59"
"","image-slider-response","244","2595585","0.0-12.0-0.24","5slebo5zxa","one_one","1","indirect_first","0","al05el15","0","21","1","1","3","1","","0","1","0","2994","","","","","pos","GS","GSold","1","category1/CS3.png","targets/2.png","","direct","","55"
"","image-slider-response","245","2598865","0.0-12.0-0.25","5slebo5zxa","one_one","1","indirect_first","0","al05el15","0","21","1","1","3","1","","0","1","0","3272","","","","","neg","GS","GSnew","4","category4/GS1.png","targets/3.png","","direct","","7"
"","image-slider-response","246","2601386","0.0-12.0-0.26","5slebo5zxa","one_one","1","indirect_first","0","al05el15","0","21","1","1","3","1","","0","1","0","2514","","","","","pos","CS","CS","2","category2/CS5.png","targets/8.png","","direct","","75"
"","image-slider-response","247","2605946","0.0-12.0-0.27","5slebo5zxa","one_one","1","indirect_first","0","al05el15","0","21","1","1","3","1","","0","1","0","4554","","","","","pos","GS","GSnew","1","category1/GS2.png","targets/7.png","","direct","","-35"
"","image-slider-response","248","2608646","0.0-12.0-0.28","5slebo5zxa","one_one","1","indirect_first","0","al05el15","0","21","1","1","3","1","","0","1","0","2692","","","","","pos","GS","abstract","2","category2/men.png","targets/11.png","","direct","","44"
"","image-slider-response","249","2612685","0.0-12.0-0.29","5slebo5zxa","one_one","1","indirect_first","0","al05el15","0","21","1","1","3","1","","0","1","0","4032","","","","","pos","CS","CS","1","category1/CS7.png","targets/39.png","","direct","","45"
"","image-slider-response","250","2615875","0.0-12.0-0.30","5slebo5zxa","one_one","1","indirect_first","0","al05el15","0","21","1","1","3","1","","0","1","0","3183","","","","","neg","CS","CS","4","category4/CS8.png","targets/47.png","","direct","","-50"
"","image-slider-response","251","2618495","0.0-12.0-0.31","5slebo5zxa","one_one","1","indirect_first","0","al05el15","0","21","1","1","3","1","","0","1","0","2614","","","","","neg","GS","GSnew","3","category3/GS2.png","targets/42.png","","direct","","26"
"","survey-html-form","252","2623897","0.0-13.0","5slebo5zxa","one_one","1","indirect_first","0","al05el15","0","21","1","1","3","1","","0","1","0","5398","","{}","","","","","","","","","","","",""
"","image-slider-response","253","2628394","0.0-14.0-0.0","5slebo5zxa","one_one","1","indirect_first","0","al05el15","0","21","1","1","3","1","","0","1","0","3476","","","","","pos","All","all","2","category2/men_all.png","","","all","","39"
"","image-slider-response","254","2632334","0.0-14.0-0.1","5slebo5zxa","one_one","1","indirect_first","0","al05el15","0","21","1","1","3","1","","0","1","0","3933","","","","","neg","All","all","4","category4/lin_all.png","","","all","","-30"
"","image-slider-response","255","2635035","0.0-14.0-0.2","5slebo5zxa","one_one","1","indirect_first","0","al05el15","0","21","1","1","3","1","","0","1","0","2693","","","","","pos","All","all","1","category1/ma_all.png","","","all","","38"
"","image-slider-response","256","2638805","0.0-14.0-0.3","5slebo5zxa","one_one","1","indirect_first","0","al05el15","0","21","1","1","3","1","","0","1","0","3762","","","","","neg","All","all","3","category3/wang_all.png","","","all","","38"
"","survey-text","257","2643048","0.0-15.0","5slebo5zxa","one_one","1","indirect_first","0","al05el15","0","21","1","1","3","1","","0","1","0","4218","","{""comment"":""""}","","","","","","","","","","","",""
"","survey-html-form","258","2659758","0.0-16.0","5slebo5zxa","one_one","1","indirect_first","0","al05el15","0","21","1","1","3","1","","0","1","0","16704","","{""hinschauen"":""0"",""ablenkung"":""1"",""gewissenhaft"":""0""}","","","","","","","","","","","",""
