"success","trial_type","trial_index","time_elapsed","internal_node_id","subject","condition","condition_code","measure","measure_code","codeword","gender","age","education","chinese","fach","handedness","comment","hinschauen","ablenkung","gewissenhaft","rt","url","responses","stimulus","key_press","val","type","type_specific","category","cs_selected","target","indirect","task","nr_pres","response"
"true","fullscreen","0","3417","0.0-0.0","j669pqqyae","many_one","0","indirect_first","0","er04as06","0","20","1","2","3","1","","0","0","0","","","","","","","","","","","","","","",""
"","external-html","1","13608","0.0-1.0","j669pqqyae","many_one","0","indirect_first","0","er04as06","0","20","1","2","3","1","","0","0","0","10143.430000171065","text/information.html","","","","","","","","","","","","",""
"","external-html","2","34328","0.0-2.0","j669pqqyae","many_one","0","indirect_first","0","er04as06","0","20","1","2","3","1","","0","0","0","20666.57999996096","text/consent.html","","","","","","","","","","","","",""
"","survey-html-form","3","61979","0.0-3.0","j669pqqyae","many_one","0","indirect_first","0","er04as06","0","20","1","2","3","1","","0","0","0","27646.69999992475","","{""codeword_enter"":""er04as06""}","","","","","","","","","","","",""
"","survey-html-form","4","88285","0.0-4.0","j669pqqyae","many_one","0","indirect_first","0","er04as06","0","20","1","2","3","1","","0","0","0","26303.29000018537","","{""age"":""20"",""education"":""1"",""subject"":""3"",""gender"":""0"",""handedness"":""1"",""chinese"":""2""}","","","","","","","","","","","",""
"","survey-html-form","5","90140","0.0-5.0","j669pqqyae","many_one","0","indirect_first","0","er04as06","0","20","1","2","3","1","","0","0","0","1853.1349999830127","","{}","","","","","","","","","","","",""
"","html-keyboard-response","6","94144","0.0-6.0-0.0-0.0","j669pqqyae","many_one","0","indirect_first","0","er04as06","0","20","1","2","3","1","","0","0","0","null","","","<div class = 'row'><div class = 'column'><img src = 'usneg/9050.bmp' width = '100%;'></div><div class = 'column'><img src = 'category3/CS10.png' width = '70%;'></div></div>","null","neg","CS","CS","3","category3/CS10.png","","","","",""
"","html-keyboard-response","7","96658","0.0-6.0-0.0-0.1","j669pqqyae","many_one","0","indirect_first","0","er04as06","0","20","1","2","3","1","","0","0","0","null","","","<div class = 'row'><div class = 'column'><img src = 'usneg/9180.bmp' width = '100%;'></div><div class = 'column'><img src = 'category3/CS7.png' width = '70%;'></div></div>","null","neg","CS","CS","3","category3/CS7.png","","","","",""
"","html-keyboard-response","8","99164","0.0-6.0-0.0-0.2","j669pqqyae","many_one","0","indirect_first","0","er04as06","0","20","1","2","3","1","","0","0","0","null","","","<div class = 'row'><div class = 'column'><img src = 'category4/CS8.png' width = '70%;'></div><div class = 'column'><img src = 'uspos/5629.bmp' width = '100%;'></div></div>","null","pos","CS","CS","4","category4/CS8.png","","","","",""
"","html-keyboard-response","9","101678","0.0-6.0-0.0-0.3","j669pqqyae","many_one","0","indirect_first","0","er04as06","0","20","1","2","3","1","","0","0","0","null","","","<div class = 'row'><div class = 'column'><img src = 'category1/CS1.png' width = '70%;'></div><div class = 'column'><img src = 'usneg/9340.bmp' width = '100%;'></div></div>","null","neg","CS","CS","1","category1/CS1.png","","","","",""
"","html-keyboard-response","10","104200","0.0-6.0-0.0-0.4","j669pqqyae","many_one","0","indirect_first","0","er04as06","0","20","1","2","3","1","","0","0","0","null","","","<div class = 'row'><div class = 'column'><img src = 'category2/CS8.png' width = '70%;'></div><div class = 'column'><img src = 'uspos/5470.bmp' width = '100%;'></div></div>","null","pos","CS","CS","2","category2/CS8.png","","","","",""
"","html-keyboard-response","11","106717","0.0-6.0-0.0-0.5","j669pqqyae","many_one","0","indirect_first","0","er04as06","0","20","1","2","3","1","","0","0","0","null","","","<div class = 'row'><div class = 'column'><img src = 'uspos/5700.bmp' width = '100%;'></div><div class = 'column'><img src = 'category4/CS9.png' width = '70%;'></div></div>","null","pos","CS","CS","4","category4/CS9.png","","","","",""
"","html-keyboard-response","12","109241","0.0-6.0-0.0-0.6","j669pqqyae","many_one","0","indirect_first","0","er04as06","0","20","1","2","3","1","","0","0","0","null","","","<div class = 'row'><div class = 'column'><img src = 'usneg/9561.bmp' width = '100%;'></div><div class = 'column'><img src = 'category1/CS4.png' width = '70%;'></div></div>","null","neg","CS","CS","1","category1/CS4.png","","","","",""
"","html-keyboard-response","13","111759","0.0-6.0-0.0-0.7","j669pqqyae","many_one","0","indirect_first","0","er04as06","0","20","1","2","3","1","","0","0","0","null","","","<div class = 'row'><div class = 'column'><img src = 'usneg/9635.2.bmp' width = '100%;'></div><div class = 'column'><img src = 'category1/CS8.png' width = '70%;'></div></div>","null","neg","CS","CS","1","category1/CS8.png","","","","",""
"","html-keyboard-response","14","114272","0.0-6.0-0.0-0.8","j669pqqyae","many_one","0","indirect_first","0","er04as06","0","20","1","2","3","1","","0","0","0","null","","","<div class = 'row'><div class = 'column'><img src = 'category4/CS6.png' width = '70%;'></div><div class = 'column'><img src = 'uspos/2208.bmp' width = '100%;'></div></div>","null","pos","CS","CS","4","category4/CS6.png","","","","",""
"","html-keyboard-response","15","116784","0.0-6.0-0.0-0.9","j669pqqyae","many_one","0","indirect_first","0","er04as06","0","20","1","2","3","1","","0","0","0","null","","","<div class = 'row'><div class = 'column'><img src = 'category2/CS3.png' width = '70%;'></div><div class = 'column'><img src = 'uspos/4625.bmp' width = '100%;'></div></div>","null","pos","CS","CS","2","category2/CS3.png","","","","",""
"","html-keyboard-response","16","119309","0.0-6.0-0.0-0.10","j669pqqyae","many_one","0","indirect_first","0","er04as06","0","20","1","2","3","1","","0","0","0","null","","","<div class = 'row'><div class = 'column'><img src = 'usneg/9181.bmp' width = '100%;'></div><div class = 'column'><img src = 'category3/CS8.png' width = '70%;'></div></div>","null","neg","CS","CS","3","category3/CS8.png","","","","",""
"","html-keyboard-response","17","121821","0.0-6.0-0.0-0.11","j669pqqyae","many_one","0","indirect_first","0","er04as06","0","20","1","2","3","1","","0","0","0","null","","","<div class = 'row'><div class = 'column'><img src = 'category2/CS4.png' width = '70%;'></div><div class = 'column'><img src = 'uspos/2165.bmp' width = '100%;'></div></div>","null","pos","CS","CS","2","category2/CS4.png","","","","",""
"","html-keyboard-response","18","124334","0.0-6.0-0.0-0.12","j669pqqyae","many_one","0","indirect_first","0","er04as06","0","20","1","2","3","1","","0","0","0","null","","","<div class = 'row'><div class = 'column'><img src = 'category4/CS3.png' width = '70%;'></div><div class = 'column'><img src = 'uspos/2311.bmp' width = '100%;'></div></div>","null","pos","CS","CS","4","category4/CS3.png","","","","",""
"","html-keyboard-response","19","126844","0.0-6.0-0.0-0.13","j669pqqyae","many_one","0","indirect_first","0","er04as06","0","20","1","2","3","1","","0","0","0","null","","","<div class = 'row'><div class = 'column'><img src = 'category4/CS4.png' width = '70%;'></div><div class = 'column'><img src = 'uspos/8540.bmp' width = '100%;'></div></div>","null","pos","CS","CS","4","category4/CS4.png","","","","",""
"","html-keyboard-response","20","129369","0.0-6.0-0.0-0.14","j669pqqyae","many_one","0","indirect_first","0","er04as06","0","20","1","2","3","1","","0","0","0","null","","","<div class = 'row'><div class = 'column'><img src = 'category2/CS6.png' width = '70%;'></div><div class = 'column'><img src = 'uspos/2340.bmp' width = '100%;'></div></div>","null","pos","CS","CS","2","category2/CS6.png","","","","",""
"","html-keyboard-response","21","131874","0.0-6.0-0.0-0.15","j669pqqyae","many_one","0","indirect_first","0","er04as06","0","20","1","2","3","1","","0","0","0","null","","","<div class = 'row'><div class = 'column'><img src = 'category1/CS6.png' width = '70%;'></div><div class = 'column'><img src = 'usneg/9415.bmp' width = '100%;'></div></div>","null","neg","CS","CS","1","category1/CS6.png","","","","",""
"","html-keyboard-response","22","134386","0.0-6.0-0.0-0.16","j669pqqyae","many_one","0","indirect_first","0","er04as06","0","20","1","2","3","1","","0","0","0","null","","","<div class = 'row'><div class = 'column'><img src = 'usneg/6020.bmp' width = '100%;'></div><div class = 'column'><img src = 'category1/CS7.png' width = '70%;'></div></div>","null","neg","CS","CS","1","category1/CS7.png","","","","",""
"","html-keyboard-response","23","136896","0.0-6.0-0.0-0.17","j669pqqyae","many_one","0","indirect_first","0","er04as06","0","20","1","2","3","1","","0","0","0","null","","","<div class = 'row'><div class = 'column'><img src = 'uspos/7580.bmp' width = '100%;'></div><div class = 'column'><img src = 'category2/CS9.png' width = '70%;'></div></div>","null","pos","CS","CS","2","category2/CS9.png","","","","",""
"","html-keyboard-response","24","139425","0.0-6.0-0.0-0.18","j669pqqyae","many_one","0","indirect_first","0","er04as06","0","20","1","2","3","1","","0","0","0","null","","","<div class = 'row'><div class = 'column'><img src = 'usneg/9330.bmp' width = '100%;'></div><div class = 'column'><img src = 'category3/CS2.png' width = '70%;'></div></div>","null","neg","CS","CS","3","category3/CS2.png","","","","",""
"","html-keyboard-response","25","141936","0.0-6.0-0.0-0.19","j669pqqyae","many_one","0","indirect_first","0","er04as06","0","20","1","2","3","1","","0","0","0","null","","","<div class = 'row'><div class = 'column'><img src = 'usneg/9830.bmp' width = '100%;'></div><div class = 'column'><img src = 'category3/CS6.png' width = '70%;'></div></div>","null","neg","CS","CS","3","category3/CS6.png","","","","",""
"","survey-html-form","26","145518","0.0-6.0-1.0","j669pqqyae","many_one","0","indirect_first","0","er04as06","0","20","1","2","3","1","","0","0","0","3072.304999921471","","{}","","","","","","","","","","","",""
"","html-keyboard-response","27","149536","0.0-6.0-2.0-0.0","j669pqqyae","many_one","0","indirect_first","0","er04as06","0","20","1","2","3","1","","0","0","0","null","","","<div class = 'row'><div class = 'column'><img src = 'usneg/9050.bmp' width = '100%;'></div><div class = 'column'><img src = 'category3/CS10.png' width = '70%;'></div></div>","null","neg","CS","CS","3","category3/CS10.png","","","","",""
"","html-keyboard-response","28","152068","0.0-6.0-2.0-0.1","j669pqqyae","many_one","0","indirect_first","0","er04as06","0","20","1","2","3","1","","0","0","0","null","","","<div class = 'row'><div class = 'column'><img src = 'uspos/5470.bmp' width = '100%;'></div><div class = 'column'><img src = 'category2/CS8.png' width = '70%;'></div></div>","null","pos","CS","CS","2","category2/CS8.png","","","","",""
"","html-keyboard-response","29","154583","0.0-6.0-2.0-0.2","j669pqqyae","many_one","0","indirect_first","0","er04as06","0","20","1","2","3","1","","0","0","0","null","","","<div class = 'row'><div class = 'column'><img src = 'category1/CS8.png' width = '70%;'></div><div class = 'column'><img src = 'usneg/9635.2.bmp' width = '100%;'></div></div>","null","neg","CS","CS","1","category1/CS8.png","","","","",""
"","html-keyboard-response","30","157109","0.0-6.0-2.0-0.3","j669pqqyae","many_one","0","indirect_first","0","er04as06","0","20","1","2","3","1","","0","0","0","null","","","<div class = 'row'><div class = 'column'><img src = 'category1/CS1.png' width = '70%;'></div><div class = 'column'><img src = 'usneg/9340.bmp' width = '100%;'></div></div>","null","neg","CS","CS","1","category1/CS1.png","","","","",""
"","html-keyboard-response","31","159634","0.0-6.0-2.0-0.4","j669pqqyae","many_one","0","indirect_first","0","er04as06","0","20","1","2","3","1","","0","0","0","null","","","<div class = 'row'><div class = 'column'><img src = 'category4/CS8.png' width = '70%;'></div><div class = 'column'><img src = 'uspos/5629.bmp' width = '100%;'></div></div>","null","pos","CS","CS","4","category4/CS8.png","","","","",""
"","html-keyboard-response","32","162147","0.0-6.0-2.0-0.5","j669pqqyae","many_one","0","indirect_first","0","er04as06","0","20","1","2","3","1","","0","0","0","null","","","<div class = 'row'><div class = 'column'><img src = 'uspos/2340.bmp' width = '100%;'></div><div class = 'column'><img src = 'category2/CS6.png' width = '70%;'></div></div>","null","pos","CS","CS","2","category2/CS6.png","","","","",""
"","html-keyboard-response","33","164662","0.0-6.0-2.0-0.6","j669pqqyae","many_one","0","indirect_first","0","er04as06","0","20","1","2","3","1","","0","0","0","null","","","<div class = 'row'><div class = 'column'><img src = 'uspos/2311.bmp' width = '100%;'></div><div class = 'column'><img src = 'category4/CS3.png' width = '70%;'></div></div>","null","pos","CS","CS","4","category4/CS3.png","","","","",""
"","html-keyboard-response","34","167167","0.0-6.0-2.0-0.7","j669pqqyae","many_one","0","indirect_first","0","er04as06","0","20","1","2","3","1","","0","0","0","null","","","<div class = 'row'><div class = 'column'><img src = 'category4/CS6.png' width = '70%;'></div><div class = 'column'><img src = 'uspos/2208.bmp' width = '100%;'></div></div>","null","pos","CS","CS","4","category4/CS6.png","","","","",""
"","html-keyboard-response","35","169691","0.0-6.0-2.0-0.8","j669pqqyae","many_one","0","indirect_first","0","er04as06","0","20","1","2","3","1","","0","0","0","null","","","<div class = 'row'><div class = 'column'><img src = 'usneg/6020.bmp' width = '100%;'></div><div class = 'column'><img src = 'category1/CS7.png' width = '70%;'></div></div>","null","neg","CS","CS","1","category1/CS7.png","","","","",""
"","html-keyboard-response","36","172208","0.0-6.0-2.0-0.9","j669pqqyae","many_one","0","indirect_first","0","er04as06","0","20","1","2","3","1","","0","0","0","null","","","<div class = 'row'><div class = 'column'><img src = 'category3/CS2.png' width = '70%;'></div><div class = 'column'><img src = 'usneg/9330.bmp' width = '100%;'></div></div>","null","neg","CS","CS","3","category3/CS2.png","","","","",""
"","html-keyboard-response","37","174735","0.0-6.0-2.0-0.10","j669pqqyae","many_one","0","indirect_first","0","er04as06","0","20","1","2","3","1","","0","0","0","null","","","<div class = 'row'><div class = 'column'><img src = 'usneg/9415.bmp' width = '100%;'></div><div class = 'column'><img src = 'category1/CS6.png' width = '70%;'></div></div>","null","neg","CS","CS","1","category1/CS6.png","","","","",""
"","html-keyboard-response","38","177255","0.0-6.0-2.0-0.11","j669pqqyae","many_one","0","indirect_first","0","er04as06","0","20","1","2","3","1","","0","0","0","null","","","<div class = 'row'><div class = 'column'><img src = 'uspos/7580.bmp' width = '100%;'></div><div class = 'column'><img src = 'category2/CS9.png' width = '70%;'></div></div>","null","pos","CS","CS","2","category2/CS9.png","","","","",""
"","html-keyboard-response","39","179778","0.0-6.0-2.0-0.12","j669pqqyae","many_one","0","indirect_first","0","er04as06","0","20","1","2","3","1","","0","0","0","null","","","<div class = 'row'><div class = 'column'><img src = 'category3/CS6.png' width = '70%;'></div><div class = 'column'><img src = 'usneg/9830.bmp' width = '100%;'></div></div>","null","neg","CS","CS","3","category3/CS6.png","","","","",""
"","html-keyboard-response","40","182292","0.0-6.0-2.0-0.13","j669pqqyae","many_one","0","indirect_first","0","er04as06","0","20","1","2","3","1","","0","0","0","null","","","<div class = 'row'><div class = 'column'><img src = 'category3/CS7.png' width = '70%;'></div><div class = 'column'><img src = 'usneg/9180.bmp' width = '100%;'></div></div>","null","neg","CS","CS","3","category3/CS7.png","","","","",""
"","html-keyboard-response","41","184810","0.0-6.0-2.0-0.14","j669pqqyae","many_one","0","indirect_first","0","er04as06","0","20","1","2","3","1","","0","0","0","null","","","<div class = 'row'><div class = 'column'><img src = 'uspos/4625.bmp' width = '100%;'></div><div class = 'column'><img src = 'category2/CS3.png' width = '70%;'></div></div>","null","pos","CS","CS","2","category2/CS3.png","","","","",""
"","html-keyboard-response","42","187333","0.0-6.0-2.0-0.15","j669pqqyae","many_one","0","indirect_first","0","er04as06","0","20","1","2","3","1","","0","0","0","null","","","<div class = 'row'><div class = 'column'><img src = 'uspos/8540.bmp' width = '100%;'></div><div class = 'column'><img src = 'category4/CS4.png' width = '70%;'></div></div>","null","pos","CS","CS","4","category4/CS4.png","","","","",""
"","html-keyboard-response","43","189855","0.0-6.0-2.0-0.16","j669pqqyae","many_one","0","indirect_first","0","er04as06","0","20","1","2","3","1","","0","0","0","null","","","<div class = 'row'><div class = 'column'><img src = 'category1/CS4.png' width = '70%;'></div><div class = 'column'><img src = 'usneg/9561.bmp' width = '100%;'></div></div>","null","neg","CS","CS","1","category1/CS4.png","","","","",""
"","html-keyboard-response","44","192381","0.0-6.0-2.0-0.17","j669pqqyae","many_one","0","indirect_first","0","er04as06","0","20","1","2","3","1","","0","0","0","null","","","<div class = 'row'><div class = 'column'><img src = 'category3/CS8.png' width = '70%;'></div><div class = 'column'><img src = 'usneg/9181.bmp' width = '100%;'></div></div>","null","neg","CS","CS","3","category3/CS8.png","","","","",""
"","html-keyboard-response","45","194889","0.0-6.0-2.0-0.18","j669pqqyae","many_one","0","indirect_first","0","er04as06","0","20","1","2","3","1","","0","0","0","null","","","<div class = 'row'><div class = 'column'><img src = 'uspos/5700.bmp' width = '100%;'></div><div class = 'column'><img src = 'category4/CS9.png' width = '70%;'></div></div>","null","pos","CS","CS","4","category4/CS9.png","","","","",""
"","html-keyboard-response","46","197413","0.0-6.0-2.0-0.19","j669pqqyae","many_one","0","indirect_first","0","er04as06","0","20","1","2","3","1","","0","0","0","null","","","<div class = 'row'><div class = 'column'><img src = 'category2/CS4.png' width = '70%;'></div><div class = 'column'><img src = 'uspos/2165.bmp' width = '100%;'></div></div>","null","pos","CS","CS","2","category2/CS4.png","","","","",""
"","survey-html-form","47","200860","0.0-6.0-3.0","j669pqqyae","many_one","0","indirect_first","0","er04as06","0","20","1","2","3","1","","0","0","0","2938.575000036508","","{}","","","","","","","","","","","",""
"","html-keyboard-response","48","204879","0.0-6.0-4.0-0.0","j669pqqyae","many_one","0","indirect_first","0","er04as06","0","20","1","2","3","1","","0","0","0","null","","","<div class = 'row'><div class = 'column'><img src = 'category3/CS10.png' width = '70%;'></div><div class = 'column'><img src = 'usneg/9050.bmp' width = '100%;'></div></div>","null","neg","CS","CS","3","category3/CS10.png","","","","",""
"","html-keyboard-response","49","207400","0.0-6.0-4.0-0.1","j669pqqyae","many_one","0","indirect_first","0","er04as06","0","20","1","2","3","1","","0","0","0","null","","","<div class = 'row'><div class = 'column'><img src = 'usneg/9330.bmp' width = '100%;'></div><div class = 'column'><img src = 'category3/CS2.png' width = '70%;'></div></div>","null","neg","CS","CS","3","category3/CS2.png","","","","",""
"","html-keyboard-response","50","209923","0.0-6.0-4.0-0.2","j669pqqyae","many_one","0","indirect_first","0","er04as06","0","20","1","2","3","1","","0","0","0","null","","","<div class = 'row'><div class = 'column'><img src = 'uspos/2311.bmp' width = '100%;'></div><div class = 'column'><img src = 'category4/CS3.png' width = '70%;'></div></div>","null","pos","CS","CS","4","category4/CS3.png","","","","",""
"","html-keyboard-response","51","212448","0.0-6.0-4.0-0.3","j669pqqyae","many_one","0","indirect_first","0","er04as06","0","20","1","2","3","1","","0","0","0","null","","","<div class = 'row'><div class = 'column'><img src = 'uspos/2208.bmp' width = '100%;'></div><div class = 'column'><img src = 'category4/CS6.png' width = '70%;'></div></div>","null","pos","CS","CS","4","category4/CS6.png","","","","",""
"","html-keyboard-response","52","214970","0.0-6.0-4.0-0.4","j669pqqyae","many_one","0","indirect_first","0","er04as06","0","20","1","2","3","1","","0","0","0","null","","","<div class = 'row'><div class = 'column'><img src = 'category2/CS4.png' width = '70%;'></div><div class = 'column'><img src = 'uspos/2165.bmp' width = '100%;'></div></div>","null","pos","CS","CS","2","category2/CS4.png","","","","",""
"","html-keyboard-response","53","217482","0.0-6.0-4.0-0.5","j669pqqyae","many_one","0","indirect_first","0","er04as06","0","20","1","2","3","1","","0","0","0","null","","","<div class = 'row'><div class = 'column'><img src = 'category4/CS4.png' width = '70%;'></div><div class = 'column'><img src = 'uspos/8540.bmp' width = '100%;'></div></div>","null","pos","CS","CS","4","category4/CS4.png","","","","",""
"","html-keyboard-response","54","219991","0.0-6.0-4.0-0.6","j669pqqyae","many_one","0","indirect_first","0","er04as06","0","20","1","2","3","1","","0","0","0","null","","","<div class = 'row'><div class = 'column'><img src = 'usneg/9635.2.bmp' width = '100%;'></div><div class = 'column'><img src = 'category1/CS8.png' width = '70%;'></div></div>","null","neg","CS","CS","1","category1/CS8.png","","","","",""
"","html-keyboard-response","55","222501","0.0-6.0-4.0-0.7","j669pqqyae","many_one","0","indirect_first","0","er04as06","0","20","1","2","3","1","","0","0","0","null","","","<div class = 'row'><div class = 'column'><img src = 'usneg/9830.bmp' width = '100%;'></div><div class = 'column'><img src = 'category3/CS6.png' width = '70%;'></div></div>","null","neg","CS","CS","3","category3/CS6.png","","","","",""
"","html-keyboard-response","56","225020","0.0-6.0-4.0-0.8","j669pqqyae","many_one","0","indirect_first","0","er04as06","0","20","1","2","3","1","","0","0","0","null","","","<div class = 'row'><div class = 'column'><img src = 'uspos/2340.bmp' width = '100%;'></div><div class = 'column'><img src = 'category2/CS6.png' width = '70%;'></div></div>","null","pos","CS","CS","2","category2/CS6.png","","","","",""
"","html-keyboard-response","57","227534","0.0-6.0-4.0-0.9","j669pqqyae","many_one","0","indirect_first","0","er04as06","0","20","1","2","3","1","","0","0","0","null","","","<div class = 'row'><div class = 'column'><img src = 'category3/CS7.png' width = '70%;'></div><div class = 'column'><img src = 'usneg/9180.bmp' width = '100%;'></div></div>","null","neg","CS","CS","3","category3/CS7.png","","","","",""
"","html-keyboard-response","58","230046","0.0-6.0-4.0-0.10","j669pqqyae","many_one","0","indirect_first","0","er04as06","0","20","1","2","3","1","","0","0","0","null","","","<div class = 'row'><div class = 'column'><img src = 'usneg/9561.bmp' width = '100%;'></div><div class = 'column'><img src = 'category1/CS4.png' width = '70%;'></div></div>","null","neg","CS","CS","1","category1/CS4.png","","","","",""
"","html-keyboard-response","59","232554","0.0-6.0-4.0-0.11","j669pqqyae","many_one","0","indirect_first","0","er04as06","0","20","1","2","3","1","","0","0","0","null","","","<div class = 'row'><div class = 'column'><img src = 'category3/CS8.png' width = '70%;'></div><div class = 'column'><img src = 'usneg/9181.bmp' width = '100%;'></div></div>","null","neg","CS","CS","3","category3/CS8.png","","","","",""
"","html-keyboard-response","60","235070","0.0-6.0-4.0-0.12","j669pqqyae","many_one","0","indirect_first","0","er04as06","0","20","1","2","3","1","","0","0","0","null","","","<div class = 'row'><div class = 'column'><img src = 'category4/CS8.png' width = '70%;'></div><div class = 'column'><img src = 'uspos/5629.bmp' width = '100%;'></div></div>","null","pos","CS","CS","4","category4/CS8.png","","","","",""
"","html-keyboard-response","61","237594","0.0-6.0-4.0-0.13","j669pqqyae","many_one","0","indirect_first","0","er04as06","0","20","1","2","3","1","","0","0","0","null","","","<div class = 'row'><div class = 'column'><img src = 'uspos/5700.bmp' width = '100%;'></div><div class = 'column'><img src = 'category4/CS9.png' width = '70%;'></div></div>","null","pos","CS","CS","4","category4/CS9.png","","","","",""
"","html-keyboard-response","62","240122","0.0-6.0-4.0-0.14","j669pqqyae","many_one","0","indirect_first","0","er04as06","0","20","1","2","3","1","","0","0","0","null","","","<div class = 'row'><div class = 'column'><img src = 'uspos/5470.bmp' width = '100%;'></div><div class = 'column'><img src = 'category2/CS8.png' width = '70%;'></div></div>","null","pos","CS","CS","2","category2/CS8.png","","","","",""
"","html-keyboard-response","63","242627","0.0-6.0-4.0-0.15","j669pqqyae","many_one","0","indirect_first","0","er04as06","0","20","1","2","3","1","","0","0","0","null","","","<div class = 'row'><div class = 'column'><img src = 'usneg/6020.bmp' width = '100%;'></div><div class = 'column'><img src = 'category1/CS7.png' width = '70%;'></div></div>","null","neg","CS","CS","1","category1/CS7.png","","","","",""
"","html-keyboard-response","64","245154","0.0-6.0-4.0-0.16","j669pqqyae","many_one","0","indirect_first","0","er04as06","0","20","1","2","3","1","","0","0","0","null","","","<div class = 'row'><div class = 'column'><img src = 'uspos/7580.bmp' width = '100%;'></div><div class = 'column'><img src = 'category2/CS9.png' width = '70%;'></div></div>","null","pos","CS","CS","2","category2/CS9.png","","","","",""
"","html-keyboard-response","65","247674","0.0-6.0-4.0-0.17","j669pqqyae","many_one","0","indirect_first","0","er04as06","0","20","1","2","3","1","","0","0","0","null","","","<div class = 'row'><div class = 'column'><img src = 'category2/CS3.png' width = '70%;'></div><div class = 'column'><img src = 'uspos/4625.bmp' width = '100%;'></div></div>","null","pos","CS","CS","2","category2/CS3.png","","","","",""
"","html-keyboard-response","66","250180","0.0-6.0-4.0-0.18","j669pqqyae","many_one","0","indirect_first","0","er04as06","0","20","1","2","3","1","","0","0","0","null","","","<div class = 'row'><div class = 'column'><img src = 'usneg/9340.bmp' width = '100%;'></div><div class = 'column'><img src = 'category1/CS1.png' width = '70%;'></div></div>","null","neg","CS","CS","1","category1/CS1.png","","","","",""
"","html-keyboard-response","67","252700","0.0-6.0-4.0-0.19","j669pqqyae","many_one","0","indirect_first","0","er04as06","0","20","1","2","3","1","","0","0","0","null","","","<div class = 'row'><div class = 'column'><img src = 'usneg/9415.bmp' width = '100%;'></div><div class = 'column'><img src = 'category1/CS6.png' width = '70%;'></div></div>","null","neg","CS","CS","1","category1/CS6.png","","","","",""
"","survey-html-form","68","255980","0.0-6.0-5.0","j669pqqyae","many_one","0","indirect_first","0","er04as06","0","20","1","2","3","1","","0","0","0","2775.324999820441","","{}","","","","","","","","","","","",""
"","html-keyboard-response","69","260006","0.0-6.0-6.0-0.0","j669pqqyae","many_one","0","indirect_first","0","er04as06","0","20","1","2","3","1","","0","0","0","null","","","<div class = 'row'><div class = 'column'><img src = 'usneg/6020.bmp' width = '100%;'></div><div class = 'column'><img src = 'category1/CS7.png' width = '70%;'></div></div>","null","neg","CS","CS","1","category1/CS7.png","","","","",""
"","html-keyboard-response","70","262532","0.0-6.0-6.0-0.1","j669pqqyae","many_one","0","indirect_first","0","er04as06","0","20","1","2","3","1","","0","0","0","null","","","<div class = 'row'><div class = 'column'><img src = 'category3/CS7.png' width = '70%;'></div><div class = 'column'><img src = 'usneg/9180.bmp' width = '100%;'></div></div>","null","neg","CS","CS","3","category3/CS7.png","","","","",""
"","html-keyboard-response","71","265060","0.0-6.0-6.0-0.2","j669pqqyae","many_one","0","indirect_first","0","er04as06","0","20","1","2","3","1","","0","0","0","null","","","<div class = 'row'><div class = 'column'><img src = 'uspos/2165.bmp' width = '100%;'></div><div class = 'column'><img src = 'category2/CS4.png' width = '70%;'></div></div>","null","pos","CS","CS","2","category2/CS4.png","","","","",""
"","html-keyboard-response","72","267587","0.0-6.0-6.0-0.3","j669pqqyae","many_one","0","indirect_first","0","er04as06","0","20","1","2","3","1","","0","0","0","null","","","<div class = 'row'><div class = 'column'><img src = 'uspos/5629.bmp' width = '100%;'></div><div class = 'column'><img src = 'category4/CS8.png' width = '70%;'></div></div>","null","pos","CS","CS","4","category4/CS8.png","","","","",""
"","html-keyboard-response","73","270098","0.0-6.0-6.0-0.4","j669pqqyae","many_one","0","indirect_first","0","er04as06","0","20","1","2","3","1","","0","0","0","null","","","<div class = 'row'><div class = 'column'><img src = 'category1/CS6.png' width = '70%;'></div><div class = 'column'><img src = 'usneg/9415.bmp' width = '100%;'></div></div>","null","neg","CS","CS","1","category1/CS6.png","","","","",""
"","html-keyboard-response","74","272609","0.0-6.0-6.0-0.5","j669pqqyae","many_one","0","indirect_first","0","er04as06","0","20","1","2","3","1","","0","0","0","null","","","<div class = 'row'><div class = 'column'><img src = 'category4/CS9.png' width = '70%;'></div><div class = 'column'><img src = 'uspos/5700.bmp' width = '100%;'></div></div>","null","pos","CS","CS","4","category4/CS9.png","","","","",""
"","html-keyboard-response","75","275114","0.0-6.0-6.0-0.6","j669pqqyae","many_one","0","indirect_first","0","er04as06","0","20","1","2","3","1","","0","0","0","null","","","<div class = 'row'><div class = 'column'><img src = 'uspos/8540.bmp' width = '100%;'></div><div class = 'column'><img src = 'category4/CS4.png' width = '70%;'></div></div>","null","pos","CS","CS","4","category4/CS4.png","","","","",""
"","html-keyboard-response","76","277640","0.0-6.0-6.0-0.7","j669pqqyae","many_one","0","indirect_first","0","er04as06","0","20","1","2","3","1","","0","0","0","null","","","<div class = 'row'><div class = 'column'><img src = 'usneg/9561.bmp' width = '100%;'></div><div class = 'column'><img src = 'category1/CS4.png' width = '70%;'></div></div>","null","neg","CS","CS","1","category1/CS4.png","","","","",""
"","html-keyboard-response","77","280156","0.0-6.0-6.0-0.8","j669pqqyae","many_one","0","indirect_first","0","er04as06","0","20","1","2","3","1","","0","0","0","null","","","<div class = 'row'><div class = 'column'><img src = 'uspos/2311.bmp' width = '100%;'></div><div class = 'column'><img src = 'category4/CS3.png' width = '70%;'></div></div>","null","pos","CS","CS","4","category4/CS3.png","","","","",""
"","html-keyboard-response","78","282679","0.0-6.0-6.0-0.9","j669pqqyae","many_one","0","indirect_first","0","er04as06","0","20","1","2","3","1","","0","0","0","null","","","<div class = 'row'><div class = 'column'><img src = 'category3/CS6.png' width = '70%;'></div><div class = 'column'><img src = 'usneg/9830.bmp' width = '100%;'></div></div>","null","neg","CS","CS","3","category3/CS6.png","","","","",""
"","html-keyboard-response","79","285203","0.0-6.0-6.0-0.10","j669pqqyae","many_one","0","indirect_first","0","er04as06","0","20","1","2","3","1","","0","0","0","null","","","<div class = 'row'><div class = 'column'><img src = 'usneg/9050.bmp' width = '100%;'></div><div class = 'column'><img src = 'category3/CS10.png' width = '70%;'></div></div>","null","neg","CS","CS","3","category3/CS10.png","","","","",""
"","html-keyboard-response","80","287719","0.0-6.0-6.0-0.11","j669pqqyae","many_one","0","indirect_first","0","er04as06","0","20","1","2","3","1","","0","0","0","null","","","<div class = 'row'><div class = 'column'><img src = 'category2/CS6.png' width = '70%;'></div><div class = 'column'><img src = 'uspos/2340.bmp' width = '100%;'></div></div>","null","pos","CS","CS","2","category2/CS6.png","","","","",""
"","html-keyboard-response","81","290244","0.0-6.0-6.0-0.12","j669pqqyae","many_one","0","indirect_first","0","er04as06","0","20","1","2","3","1","","0","0","0","null","","","<div class = 'row'><div class = 'column'><img src = 'usneg/9330.bmp' width = '100%;'></div><div class = 'column'><img src = 'category3/CS2.png' width = '70%;'></div></div>","null","neg","CS","CS","3","category3/CS2.png","","","","",""
"","html-keyboard-response","82","292758","0.0-6.0-6.0-0.13","j669pqqyae","many_one","0","indirect_first","0","er04as06","0","20","1","2","3","1","","0","0","0","null","","","<div class = 'row'><div class = 'column'><img src = 'category4/CS6.png' width = '70%;'></div><div class = 'column'><img src = 'uspos/2208.bmp' width = '100%;'></div></div>","null","pos","CS","CS","4","category4/CS6.png","","","","",""
"","html-keyboard-response","83","295280","0.0-6.0-6.0-0.14","j669pqqyae","many_one","0","indirect_first","0","er04as06","0","20","1","2","3","1","","0","0","0","null","","","<div class = 'row'><div class = 'column'><img src = 'category2/CS8.png' width = '70%;'></div><div class = 'column'><img src = 'uspos/5470.bmp' width = '100%;'></div></div>","null","pos","CS","CS","2","category2/CS8.png","","","","",""
"","html-keyboard-response","84","297802","0.0-6.0-6.0-0.15","j669pqqyae","many_one","0","indirect_first","0","er04as06","0","20","1","2","3","1","","0","0","0","null","","","<div class = 'row'><div class = 'column'><img src = 'category2/CS3.png' width = '70%;'></div><div class = 'column'><img src = 'uspos/4625.bmp' width = '100%;'></div></div>","null","pos","CS","CS","2","category2/CS3.png","","","","",""
"","html-keyboard-response","85","300321","0.0-6.0-6.0-0.16","j669pqqyae","many_one","0","indirect_first","0","er04as06","0","20","1","2","3","1","","0","0","0","null","","","<div class = 'row'><div class = 'column'><img src = 'usneg/9635.2.bmp' width = '100%;'></div><div class = 'column'><img src = 'category1/CS8.png' width = '70%;'></div></div>","null","neg","CS","CS","1","category1/CS8.png","","","","",""
"","html-keyboard-response","86","302835","0.0-6.0-6.0-0.17","j669pqqyae","many_one","0","indirect_first","0","er04as06","0","20","1","2","3","1","","0","0","0","null","","","<div class = 'row'><div class = 'column'><img src = 'uspos/7580.bmp' width = '100%;'></div><div class = 'column'><img src = 'category2/CS9.png' width = '70%;'></div></div>","null","pos","CS","CS","2","category2/CS9.png","","","","",""
"","html-keyboard-response","87","305343","0.0-6.0-6.0-0.18","j669pqqyae","many_one","0","indirect_first","0","er04as06","0","20","1","2","3","1","","0","0","0","null","","","<div class = 'row'><div class = 'column'><img src = 'usneg/9181.bmp' width = '100%;'></div><div class = 'column'><img src = 'category3/CS8.png' width = '70%;'></div></div>","null","neg","CS","CS","3","category3/CS8.png","","","","",""
"","html-keyboard-response","88","307863","0.0-6.0-6.0-0.19","j669pqqyae","many_one","0","indirect_first","0","er04as06","0","20","1","2","3","1","","0","0","0","null","","","<div class = 'row'><div class = 'column'><img src = 'usneg/9340.bmp' width = '100%;'></div><div class = 'column'><img src = 'category1/CS1.png' width = '70%;'></div></div>","null","neg","CS","CS","1","category1/CS1.png","","","","",""
"","html-keyboard-response","89","339201","0.0-7.0","j669pqqyae","many_one","0","indirect_first","0","er04as06","0","20","1","2","3","1","","0","0","0","30828.095000237226","","","<p>Sie sehen nun die chinesischen Zeichen nur ganz kurz. Danach sehen Sie die jeweilige Aussprache der Zeichen als Silbe auf dem Bildschrim. Ihre Aufgabe ist es, für jede Silbe anzugeben, ob diese etwas angenehmes, oder unangenehmes bedeuten könnte. Verlassen Sie sich hier vor allem auf Ihre Intuition.<br><br>Die Zeichen werden nur zur Orientierung dargestellt, beachten Sie sie deshalb nicht. Konzentrieren Sie sich vor allem auf die Silben. <br>Reagieren Sie mit folgenden zwei Tasten: <br><br><b>'D' </b> wenn die Silbe etwas <b>unangenehmes</b> bedeuten könnte. <br><b>'K'</b> wenn die Silbe etwas <b>angenehmes</b> bedeuten könnte. <br><br>Bitte legen Sie nun den Zeigefinger der linken Hand auf die Taste 'D' und den Zeigefinger der rechten Hand auf die Taste 'K'. <br>Reagieren Sie auf jede Silbe so schnell wie möglich. Uns interessiert Ihre spontane Reaktion. <br> <br> <br>Drücken Sie 'D' oder 'K', um die nächste Aufgabe zu starten. </p>","75","","","","","","","","","",""
"","html-keyboard-response","90","342222","0.0-8.0-0.0","j669pqqyae","many_one","0","indirect_first","0","er04as06","0","20","1","2","3","1","","0","0","0","null","","","<div style=""font-size:60px;"">+</div>","null","","","","","","","","","",""
"","html-keyboard-response","91","342317","0.0-8.0-1.0","j669pqqyae","many_one","0","indirect_first","0","er04as06","0","20","1","2","3","1","","0","0","0","null","","","<img src = 'category3/CS7.png' width = '100%;'>","null","","","","","","","","","",""
"","html-keyboard-response","92","342598","0.0-8.0-2.0","j669pqqyae","many_one","0","indirect_first","0","er04as06","0","20","1","2","3","1","","0","0","0","null","","","<img src = 'targets/38.png' width = '100%;'>","null","","","","","","","","","",""
"","html-keyboard-response","93","345205","0.0-8.0-3.0","j669pqqyae","many_one","0","indirect_first","0","er04as06","0","20","1","2","3","1","","0","0","0","2605.659999884665","","","<img src = 'targets/mask.png' width = '100%;'>","68","neg","CS","CS","3","category3/CS7.png","targets/38.png","0","indirect","0",""
"","html-keyboard-response","94","346734","0.0-8.0-0.1","j669pqqyae","many_one","0","indirect_first","0","er04as06","0","20","1","2","3","1","","0","0","0","null","","","<div style=""font-size:60px;"">+</div>","null","","","","","","","","","",""
"","html-keyboard-response","95","346829","0.0-8.0-1.1","j669pqqyae","many_one","0","indirect_first","0","er04as06","0","20","1","2","3","1","","0","0","0","null","","","<img src = 'category3/CS2.png' width = '100%;'>","null","","","","","","","","","",""
"","html-keyboard-response","96","347083","0.0-8.0-2.1","j669pqqyae","many_one","0","indirect_first","0","er04as06","0","20","1","2","3","1","","0","0","0","null","","","<img src = 'targets/2.png' width = '100%;'>","null","","","","","","","","","",""
"","html-keyboard-response","97","347566","0.0-8.0-3.1","j669pqqyae","many_one","0","indirect_first","0","er04as06","0","20","1","2","3","1","","0","0","0","481.2400001101196","","","<img src = 'targets/mask.png' width = '100%;'>","75","neg","CS","CS","3","category3/CS2.png","targets/2.png","1","indirect","1",""
"","html-keyboard-response","98","349096","0.0-8.0-0.2","j669pqqyae","many_one","0","indirect_first","0","er04as06","0","20","1","2","3","1","","0","0","0","null","","","<div style=""font-size:60px;"">+</div>","null","","","","","","","","","",""
"","html-keyboard-response","99","349188","0.0-8.0-1.2","j669pqqyae","many_one","0","indirect_first","0","er04as06","0","20","1","2","3","1","","0","0","0","null","","","<img src = 'category1/CS6.png' width = '100%;'>","null","","","","","","","","","",""
"","html-keyboard-response","100","349446","0.0-8.0-2.2","j669pqqyae","many_one","0","indirect_first","0","er04as06","0","20","1","2","3","1","","0","0","0","null","","","<img src = 'targets/1.png' width = '100%;'>","null","","","","","","","","","",""
"","html-keyboard-response","101","6103075","0.0-8.0-3.2","j669pqqyae","many_one","0","indirect_first","0","er04as06","0","20","1","2","3","1","","0","0","0","5753635.8150001615","","","<img src = 'targets/mask.png' width = '100%;'>","75","neg","CS","CS","1","category1/CS6.png","targets/1.png","1","indirect","2",""
"","html-keyboard-response","102","6104595","0.0-8.0-0.3","j669pqqyae","many_one","0","indirect_first","0","er04as06","0","20","1","2","3","1","","0","0","0","null","","","<div style=""font-size:60px;"">+</div>","null","","","","","","","","","",""
"","html-keyboard-response","103","6104690","0.0-8.0-1.3","j669pqqyae","many_one","0","indirect_first","0","er04as06","0","20","1","2","3","1","","0","0","0","null","","","<img src = 'category1/CS1.png' width = '100%;'>","null","","","","","","","","","",""
"","html-keyboard-response","104","6104946","0.0-8.0-2.3","j669pqqyae","many_one","0","indirect_first","0","er04as06","0","20","1","2","3","1","","0","0","0","null","","","<img src = 'targets/24.png' width = '100%;'>","null","","","","","","","","","",""
"","html-keyboard-response","105","6106589","0.0-8.0-3.3","j669pqqyae","many_one","0","indirect_first","0","er04as06","0","20","1","2","3","1","","0","0","0","1641.0400001332164","","","<img src = 'targets/mask.png' width = '100%;'>","75","neg","CS","CS","1","category1/CS1.png","targets/24.png","1","indirect","3",""
"","html-keyboard-response","106","6108103","0.0-8.0-0.4","j669pqqyae","many_one","0","indirect_first","0","er04as06","0","20","1","2","3","1","","0","0","0","null","","","<div style=""font-size:60px;"">+</div>","null","","","","","","","","","",""
"","html-keyboard-response","107","6108198","0.0-8.0-1.4","j669pqqyae","many_one","0","indirect_first","0","er04as06","0","20","1","2","3","1","","0","0","0","null","","","<img src = 'category1/CS7.png' width = '100%;'>","null","","","","","","","","","",""
"","html-keyboard-response","108","6108464","0.0-8.0-2.4","j669pqqyae","many_one","0","indirect_first","0","er04as06","0","20","1","2","3","1","","0","0","0","null","","","<img src = 'targets/5.png' width = '100%;'>","null","","","","","","","","","",""
"","html-keyboard-response","109","6109392","0.0-8.0-3.4","j669pqqyae","many_one","0","indirect_first","0","er04as06","0","20","1","2","3","1","","0","0","0","926.5049998648465","","","<img src = 'targets/mask.png' width = '100%;'>","68","neg","CS","CS","1","category1/CS7.png","targets/5.png","0","indirect","4",""
"","html-keyboard-response","110","6110917","0.0-8.0-0.5","j669pqqyae","many_one","0","indirect_first","0","er04as06","0","20","1","2","3","1","","0","0","0","null","","","<div style=""font-size:60px;"">+</div>","null","","","","","","","","","",""
"","html-keyboard-response","111","6111013","0.0-8.0-1.5","j669pqqyae","many_one","0","indirect_first","0","er04as06","0","20","1","2","3","1","","0","0","0","null","","","<img src = 'category3/CS9.png' width = '100%;'>","null","","","","","","","","","",""
"","html-keyboard-response","112","6111270","0.0-8.0-2.5","j669pqqyae","many_one","0","indirect_first","0","er04as06","0","20","1","2","3","1","","0","0","0","null","","","<img src = 'targets/8.png' width = '100%;'>","null","","","","","","","","","",""
"","html-keyboard-response","113","6112400","0.0-8.0-3.5","j669pqqyae","many_one","0","indirect_first","0","er04as06","0","20","1","2","3","1","","0","0","0","1128.9300001226366","","","<img src = 'targets/mask.png' width = '100%;'>","75","neg","GS","GSold","3","category3/CS9.png","targets/8.png","1","indirect","5",""
"","html-keyboard-response","114","6113917","0.0-8.0-0.6","j669pqqyae","many_one","0","indirect_first","0","er04as06","0","20","1","2","3","1","","0","0","0","null","","","<div style=""font-size:60px;"">+</div>","null","","","","","","","","","",""
"","html-keyboard-response","115","6114015","0.0-8.0-1.6","j669pqqyae","many_one","0","indirect_first","0","er04as06","0","20","1","2","3","1","","0","0","0","null","","","<img src = 'category4/CS8.png' width = '100%;'>","null","","","","","","","","","",""
"","html-keyboard-response","116","6114268","0.0-8.0-2.6","j669pqqyae","many_one","0","indirect_first","0","er04as06","0","20","1","2","3","1","","0","0","0","null","","","<img src = 'targets/27.png' width = '100%;'>","null","","","","","","","","","",""
"","html-keyboard-response","117","6115159","0.0-8.0-3.6","j669pqqyae","many_one","0","indirect_first","0","er04as06","0","20","1","2","3","1","","0","0","0","889.7549998946488","","","<img src = 'targets/mask.png' width = '100%;'>","68","pos","CS","CS","4","category4/CS8.png","targets/27.png","0","indirect","6",""
"","html-keyboard-response","118","6116682","0.0-8.0-0.7","j669pqqyae","many_one","0","indirect_first","0","er04as06","0","20","1","2","3","1","","0","0","0","null","","","<div style=""font-size:60px;"">+</div>","null","","","","","","","","","",""
"","html-keyboard-response","119","6116773","0.0-8.0-1.7","j669pqqyae","many_one","0","indirect_first","0","er04as06","0","20","1","2","3","1","","0","0","0","null","","","<img src = 'category2/CS4.png' width = '100%;'>","null","","","","","","","","","",""
"","html-keyboard-response","120","6117035","0.0-8.0-2.7","j669pqqyae","many_one","0","indirect_first","0","er04as06","0","20","1","2","3","1","","0","0","0","null","","","<img src = 'targets/9.png' width = '100%;'>","null","","","","","","","","","",""
"","html-keyboard-response","121","6117798","0.0-8.0-3.7","j669pqqyae","many_one","0","indirect_first","0","er04as06","0","20","1","2","3","1","","0","0","0","761.6650001145899","","","<img src = 'targets/mask.png' width = '100%;'>","75","pos","CS","CS","2","category2/CS4.png","targets/9.png","1","indirect","7",""
"","html-keyboard-response","122","6119312","0.0-8.0-0.8","j669pqqyae","many_one","0","indirect_first","0","er04as06","0","20","1","2","3","1","","0","0","0","null","","","<div style=""font-size:60px;"">+</div>","null","","","","","","","","","",""
"","html-keyboard-response","123","6119408","0.0-8.0-1.8","j669pqqyae","many_one","0","indirect_first","0","er04as06","0","20","1","2","3","1","","0","0","0","null","","","<img src = 'category4/CS4.png' width = '100%;'>","null","","","","","","","","","",""
"","html-keyboard-response","124","6119662","0.0-8.0-2.8","j669pqqyae","many_one","0","indirect_first","0","er04as06","0","20","1","2","3","1","","0","0","0","null","","","<img src = 'targets/10.png' width = '100%;'>","null","","","","","","","","","",""
"","html-keyboard-response","125","6121825","0.0-8.0-3.8","j669pqqyae","many_one","0","indirect_first","0","er04as06","0","20","1","2","3","1","","0","0","0","2161.8249998427927","","","<img src = 'targets/mask.png' width = '100%;'>","75","pos","CS","CS","4","category4/CS4.png","targets/10.png","1","indirect","8",""
"","html-keyboard-response","126","6123343","0.0-8.0-0.9","j669pqqyae","many_one","0","indirect_first","0","er04as06","0","20","1","2","3","1","","0","0","0","null","","","<div style=""font-size:60px;"">+</div>","null","","","","","","","","","",""
"","html-keyboard-response","127","6123435","0.0-8.0-1.9","j669pqqyae","many_one","0","indirect_first","0","er04as06","0","20","1","2","3","1","","0","0","0","null","","","<img src = 'category3/CS6.png' width = '100%;'>","null","","","","","","","","","",""
"","html-keyboard-response","128","6123687","0.0-8.0-2.9","j669pqqyae","many_one","0","indirect_first","0","er04as06","0","20","1","2","3","1","","0","0","0","null","","","<img src = 'targets/7.png' width = '100%;'>","null","","","","","","","","","",""
"","html-keyboard-response","129","6124774","0.0-8.0-3.9","j669pqqyae","many_one","0","indirect_first","0","er04as06","0","20","1","2","3","1","","0","0","0","1085.9199999831617","","","<img src = 'targets/mask.png' width = '100%;'>","75","neg","CS","CS","3","category3/CS6.png","targets/7.png","1","indirect","9",""
"","html-keyboard-response","130","6126298","0.0-8.0-0.10","j669pqqyae","many_one","0","indirect_first","0","er04as06","0","20","1","2","3","1","","0","0","0","null","","","<div style=""font-size:60px;"">+</div>","null","","","","","","","","","",""
"","html-keyboard-response","131","6126390","0.0-8.0-1.10","j669pqqyae","many_one","0","indirect_first","0","er04as06","0","20","1","2","3","1","","0","0","0","null","","","<img src = 'category4/CS9.png' width = '100%;'>","null","","","","","","","","","",""
"","html-keyboard-response","132","6126643","0.0-8.0-2.10","j669pqqyae","many_one","0","indirect_first","0","er04as06","0","20","1","2","3","1","","0","0","0","null","","","<img src = 'targets/3.png' width = '100%;'>","null","","","","","","","","","",""
"","html-keyboard-response","133","6127220","0.0-8.0-3.10","j669pqqyae","many_one","0","indirect_first","0","er04as06","0","20","1","2","3","1","","0","0","0","575.4700000397861","","","<img src = 'targets/mask.png' width = '100%;'>","68","pos","CS","CS","4","category4/CS9.png","targets/3.png","0","indirect","10",""
"","html-keyboard-response","134","6128739","0.0-8.0-0.11","j669pqqyae","many_one","0","indirect_first","0","er04as06","0","20","1","2","3","1","","0","0","0","null","","","<div style=""font-size:60px;"">+</div>","null","","","","","","","","","",""
"","html-keyboard-response","135","6128831","0.0-8.0-1.11","j669pqqyae","many_one","0","indirect_first","0","er04as06","0","20","1","2","3","1","","0","0","0","null","","","<img src = 'category3/CS10.png' width = '100%;'>","null","","","","","","","","","",""
"","html-keyboard-response","136","6129091","0.0-8.0-2.11","j669pqqyae","many_one","0","indirect_first","0","er04as06","0","20","1","2","3","1","","0","0","0","null","","","<img src = 'targets/15.png' width = '100%;'>","null","","","","","","","","","",""
"","html-keyboard-response","137","6132105","0.0-8.0-3.11","j669pqqyae","many_one","0","indirect_first","0","er04as06","0","20","1","2","3","1","","0","0","0","3012.830000370741","","","<img src = 'targets/mask.png' width = '100%;'>","68","neg","CS","CS","3","category3/CS10.png","targets/15.png","0","indirect","11",""
"","html-keyboard-response","138","6133620","0.0-8.0-0.12","j669pqqyae","many_one","0","indirect_first","0","er04as06","0","20","1","2","3","1","","0","0","0","null","","","<div style=""font-size:60px;"">+</div>","null","","","","","","","","","",""
"","html-keyboard-response","139","6133714","0.0-8.0-1.12","j669pqqyae","many_one","0","indirect_first","0","er04as06","0","20","1","2","3","1","","0","0","0","null","","","<img src = 'category2/CS3.png' width = '100%;'>","null","","","","","","","","","",""
"","html-keyboard-response","140","6133967","0.0-8.0-2.12","j669pqqyae","many_one","0","indirect_first","0","er04as06","0","20","1","2","3","1","","0","0","0","null","","","<img src = 'targets/13.png' width = '100%;'>","null","","","","","","","","","",""
"","html-keyboard-response","141","6134498","0.0-8.0-3.12","j669pqqyae","many_one","0","indirect_first","0","er04as06","0","20","1","2","3","1","","0","0","0","529.670000076294","","","<img src = 'targets/mask.png' width = '100%;'>","75","pos","CS","CS","2","category2/CS3.png","targets/13.png","1","indirect","12",""
"","html-keyboard-response","142","6136024","0.0-8.0-0.13","j669pqqyae","many_one","0","indirect_first","0","er04as06","0","20","1","2","3","1","","0","0","0","null","","","<div style=""font-size:60px;"">+</div>","null","","","","","","","","","",""
"","html-keyboard-response","143","6136117","0.0-8.0-1.13","j669pqqyae","many_one","0","indirect_first","0","er04as06","0","20","1","2","3","1","","0","0","0","null","","","<img src = 'category3/CS8.png' width = '100%;'>","null","","","","","","","","","",""
"","html-keyboard-response","144","6136368","0.0-8.0-2.13","j669pqqyae","many_one","0","indirect_first","0","er04as06","0","20","1","2","3","1","","0","0","0","null","","","<img src = 'targets/12.png' width = '100%;'>","null","","","","","","","","","",""
"","html-keyboard-response","145","6137668","0.0-8.0-3.13","j669pqqyae","many_one","0","indirect_first","0","er04as06","0","20","1","2","3","1","","0","0","0","1298.4000002034009","","","<img src = 'targets/mask.png' width = '100%;'>","68","neg","CS","CS","3","category3/CS8.png","targets/12.png","0","indirect","13",""
"","html-keyboard-response","146","6139173","0.0-8.0-0.14","j669pqqyae","many_one","0","indirect_first","0","er04as06","0","20","1","2","3","1","","0","0","0","null","","","<div style=""font-size:60px;"">+</div>","null","","","","","","","","","",""
"","html-keyboard-response","147","6139264","0.0-8.0-1.14","j669pqqyae","many_one","0","indirect_first","0","er04as06","0","20","1","2","3","1","","0","0","0","null","","","<img src = 'category4/CS6.png' width = '100%;'>","null","","","","","","","","","",""
"","html-keyboard-response","148","6139517","0.0-8.0-2.14","j669pqqyae","many_one","0","indirect_first","0","er04as06","0","20","1","2","3","1","","0","0","0","null","","","<img src = 'targets/28.png' width = '100%;'>","null","","","","","","","","","",""
"","html-keyboard-response","149","6140128","0.0-8.0-3.14","j669pqqyae","many_one","0","indirect_first","0","er04as06","0","20","1","2","3","1","","0","0","0","609.1700000688434","","","<img src = 'targets/mask.png' width = '100%;'>","75","pos","CS","CS","4","category4/CS6.png","targets/28.png","1","indirect","14",""
"","html-keyboard-response","150","6141640","0.0-8.0-0.15","j669pqqyae","many_one","0","indirect_first","0","er04as06","0","20","1","2","3","1","","0","0","0","null","","","<div style=""font-size:60px;"">+</div>","null","","","","","","","","","",""
"","html-keyboard-response","151","6141731","0.0-8.0-1.15","j669pqqyae","many_one","0","indirect_first","0","er04as06","0","20","1","2","3","1","","0","0","0","null","","","<img src = 'category4/CS3.png' width = '100%;'>","null","","","","","","","","","",""
"","html-keyboard-response","152","6141984","0.0-8.0-2.15","j669pqqyae","many_one","0","indirect_first","0","er04as06","0","20","1","2","3","1","","0","0","0","null","","","<img src = 'targets/40.png' width = '100%;'>","null","","","","","","","","","",""
"","html-keyboard-response","153","6142672","0.0-8.0-3.15","j669pqqyae","many_one","0","indirect_first","0","er04as06","0","20","1","2","3","1","","0","0","0","687.5","","","<img src = 'targets/mask.png' width = '100%;'>","68","pos","CS","CS","4","category4/CS3.png","targets/40.png","0","indirect","15",""
"","html-keyboard-response","154","6144192","0.0-8.0-0.16","j669pqqyae","many_one","0","indirect_first","0","er04as06","0","20","1","2","3","1","","0","0","0","null","","","<div style=""font-size:60px;"">+</div>","null","","","","","","","","","",""
"","html-keyboard-response","155","6144288","0.0-8.0-1.16","j669pqqyae","many_one","0","indirect_first","0","er04as06","0","20","1","2","3","1","","0","0","0","null","","","<img src = 'category2/CS1.png' width = '100%;'>","null","","","","","","","","","",""
"","html-keyboard-response","156","6144541","0.0-8.0-2.16","j669pqqyae","many_one","0","indirect_first","0","er04as06","0","20","1","2","3","1","","0","0","0","null","","","<img src = 'targets/16.png' width = '100%;'>","null","","","","","","","","","",""
"","html-keyboard-response","157","6145175","0.0-8.0-3.16","j669pqqyae","many_one","0","indirect_first","0","er04as06","0","20","1","2","3","1","","0","0","0","632.7999997884035","","","<img src = 'targets/mask.png' width = '100%;'>","75","pos","GS","GSold","2","category2/CS1.png","targets/16.png","1","indirect","16",""
"","html-keyboard-response","158","6146694","0.0-8.0-0.17","j669pqqyae","many_one","0","indirect_first","0","er04as06","0","20","1","2","3","1","","0","0","0","null","","","<div style=""font-size:60px;"">+</div>","null","","","","","","","","","",""
"","html-keyboard-response","159","6146790","0.0-8.0-1.17","j669pqqyae","many_one","0","indirect_first","0","er04as06","0","20","1","2","3","1","","0","0","0","null","","","<img src = 'category2/CS6.png' width = '100%;'>","null","","","","","","","","","",""
"","html-keyboard-response","160","6147045","0.0-8.0-2.17","j669pqqyae","many_one","0","indirect_first","0","er04as06","0","20","1","2","3","1","","0","0","0","null","","","<img src = 'targets/6.png' width = '100%;'>","null","","","","","","","","","",""
"","html-keyboard-response","161","6147928","0.0-8.0-3.17","j669pqqyae","many_one","0","indirect_first","0","er04as06","0","20","1","2","3","1","","0","0","0","881.7500001750886","","","<img src = 'targets/mask.png' width = '100%;'>","68","pos","CS","CS","2","category2/CS6.png","targets/6.png","0","indirect","17",""
"","html-keyboard-response","162","6149442","0.0-8.0-0.18","j669pqqyae","many_one","0","indirect_first","0","er04as06","0","20","1","2","3","1","","0","0","0","null","","","<div style=""font-size:60px;"">+</div>","null","","","","","","","","","",""
"","html-keyboard-response","163","6149538","0.0-8.0-1.18","j669pqqyae","many_one","0","indirect_first","0","er04as06","0","20","1","2","3","1","","0","0","0","null","","","<img src = 'category3/CS1.png' width = '100%;'>","null","","","","","","","","","",""
"","html-keyboard-response","164","6149793","0.0-8.0-2.18","j669pqqyae","many_one","0","indirect_first","0","er04as06","0","20","1","2","3","1","","0","0","0","null","","","<img src = 'targets/29.png' width = '100%;'>","null","","","","","","","","","",""
"","html-keyboard-response","165","6151126","0.0-8.0-3.18","j669pqqyae","many_one","0","indirect_first","0","er04as06","0","20","1","2","3","1","","0","0","0","1331.8099998869002","","","<img src = 'targets/mask.png' width = '100%;'>","75","neg","GS","GSold","3","category3/CS1.png","targets/29.png","1","indirect","18",""
"","html-keyboard-response","166","6152650","0.0-8.0-0.19","j669pqqyae","many_one","0","indirect_first","0","er04as06","0","20","1","2","3","1","","0","0","0","null","","","<div style=""font-size:60px;"">+</div>","null","","","","","","","","","",""
"","html-keyboard-response","167","6152741","0.0-8.0-1.19","j669pqqyae","many_one","0","indirect_first","0","er04as06","0","20","1","2","3","1","","0","0","0","null","","","<img src = 'category2/CS9.png' width = '100%;'>","null","","","","","","","","","",""
"","html-keyboard-response","168","6153003","0.0-8.0-2.19","j669pqqyae","many_one","0","indirect_first","0","er04as06","0","20","1","2","3","1","","0","0","0","null","","","<img src = 'targets/26.png' width = '100%;'>","null","","","","","","","","","",""
"","html-keyboard-response","169","6154077","0.0-8.0-3.19","j669pqqyae","many_one","0","indirect_first","0","er04as06","0","20","1","2","3","1","","0","0","0","1073.7450001761317","","","<img src = 'targets/mask.png' width = '100%;'>","68","pos","CS","CS","2","category2/CS9.png","targets/26.png","0","indirect","19",""
"","html-keyboard-response","170","6155602","0.0-8.0-0.20","j669pqqyae","many_one","0","indirect_first","0","er04as06","0","20","1","2","3","1","","0","0","0","null","","","<div style=""font-size:60px;"">+</div>","null","","","","","","","","","",""
"","html-keyboard-response","171","6155697","0.0-8.0-1.20","j669pqqyae","many_one","0","indirect_first","0","er04as06","0","20","1","2","3","1","","0","0","0","null","","","<img src = 'category3/CS4.png' width = '100%;'>","null","","","","","","","","","",""
"","html-keyboard-response","172","6155953","0.0-8.0-2.20","j669pqqyae","many_one","0","indirect_first","0","er04as06","0","20","1","2","3","1","","0","0","0","null","","","<img src = 'targets/25.png' width = '100%;'>","null","","","","","","","","","",""
"","html-keyboard-response","173","6156622","0.0-8.0-3.20","j669pqqyae","many_one","0","indirect_first","0","er04as06","0","20","1","2","3","1","","0","0","0","668.3650002814829","","","<img src = 'targets/mask.png' width = '100%;'>","75","neg","GS","GSold","3","category3/CS4.png","targets/25.png","1","indirect","20",""
"","html-keyboard-response","174","6158141","0.0-8.0-0.21","j669pqqyae","many_one","0","indirect_first","0","er04as06","0","20","1","2","3","1","","0","0","0","null","","","<div style=""font-size:60px;"">+</div>","null","","","","","","","","","",""
"","html-keyboard-response","175","6158237","0.0-8.0-1.21","j669pqqyae","many_one","0","indirect_first","0","er04as06","0","20","1","2","3","1","","0","0","0","null","","","<img src = 'category1/CS4.png' width = '100%;'>","null","","","","","","","","","",""
"","html-keyboard-response","176","6158492","0.0-8.0-2.21","j669pqqyae","many_one","0","indirect_first","0","er04as06","0","20","1","2","3","1","","0","0","0","null","","","<img src = 'targets/48.png' width = '100%;'>","null","","","","","","","","","",""
"","html-keyboard-response","177","6159316","0.0-8.0-3.21","j669pqqyae","many_one","0","indirect_first","0","er04as06","0","20","1","2","3","1","","0","0","0","821.9850002788007","","","<img src = 'targets/mask.png' width = '100%;'>","68","neg","CS","CS","1","category1/CS4.png","targets/48.png","0","indirect","21",""
"","html-keyboard-response","178","6160827","0.0-8.0-0.22","j669pqqyae","many_one","0","indirect_first","0","er04as06","0","20","1","2","3","1","","0","0","0","null","","","<div style=""font-size:60px;"">+</div>","null","","","","","","","","","",""
"","html-keyboard-response","179","6160922","0.0-8.0-1.22","j669pqqyae","many_one","0","indirect_first","0","er04as06","0","20","1","2","3","1","","0","0","0","null","","","<img src = 'category1/CS8.png' width = '100%;'>","null","","","","","","","","","",""
"","html-keyboard-response","180","6161176","0.0-8.0-2.22","j669pqqyae","many_one","0","indirect_first","0","er04as06","0","20","1","2","3","1","","0","0","0","null","","","<img src = 'targets/34.png' width = '100%;'>","null","","","","","","","","","",""
"","html-keyboard-response","181","6162027","0.0-8.0-3.22","j669pqqyae","many_one","0","indirect_first","0","er04as06","0","20","1","2","3","1","","0","0","0","847.8350001387298","","","<img src = 'targets/mask.png' width = '100%;'>","75","neg","CS","CS","1","category1/CS8.png","targets/34.png","1","indirect","22",""
"","html-keyboard-response","182","6163555","0.0-8.0-0.23","j669pqqyae","many_one","0","indirect_first","0","er04as06","0","20","1","2","3","1","","0","0","0","null","","","<div style=""font-size:60px;"">+</div>","null","","","","","","","","","",""
"","html-keyboard-response","183","6163649","0.0-8.0-1.23","j669pqqyae","many_one","0","indirect_first","0","er04as06","0","20","1","2","3","1","","0","0","0","null","","","<img src = 'category2/CS8.png' width = '100%;'>","null","","","","","","","","","",""
"","html-keyboard-response","184","6163935","0.0-8.0-2.23","j669pqqyae","many_one","0","indirect_first","0","er04as06","0","20","1","2","3","1","","0","0","0","null","","","<img src = 'targets/20.png' width = '100%;'>","null","","","","","","","","","",""
"","html-keyboard-response","185","6164524","0.0-8.0-3.23","j669pqqyae","many_one","0","indirect_first","0","er04as06","0","20","1","2","3","1","","0","0","0","586.5950002335012","","","<img src = 'targets/mask.png' width = '100%;'>","68","pos","CS","CS","2","category2/CS8.png","targets/20.png","0","indirect","23",""
"","survey-html-form","186","6167127","0.0-9.0","j669pqqyae","many_one","0","indirect_first","0","er04as06","0","20","1","2","3","1","","0","0","0","2096.610000357032","","{}","","","","","","","","","","","",""
"","html-keyboard-response","187","6170145","0.0-10.0-0.0","j669pqqyae","many_one","0","indirect_first","0","er04as06","0","20","1","2","3","1","","0","0","0","null","","","<div style=""font-size:60px;"">+</div>","null","","","","","","","","","",""
"","html-keyboard-response","188","6170240","0.0-10.0-1.0","j669pqqyae","many_one","0","indirect_first","0","er04as06","0","20","1","2","3","1","","0","0","0","null","","","<img src = 'category4/CS2.png' width = '100%;'>","null","","","","","","","","","",""
"","html-keyboard-response","189","6170497","0.0-10.0-2.0","j669pqqyae","many_one","0","indirect_first","0","er04as06","0","20","1","2","3","1","","0","0","0","null","","","<img src = 'targets/21.png' width = '100%;'>","null","","","","","","","","","",""
"","html-keyboard-response","190","6170505","0.0-10.0-3.0","j669pqqyae","many_one","0","indirect_first","0","er04as06","0","20","1","2","3","1","","0","0","0","6.120000034570694","","","<img src = 'targets/mask.png' width = '100%;'>","75","pos","GS","GSold","4","category4/CS2.png","targets/21.png","1","indirect","24",""
"","html-keyboard-response","191","6172030","0.0-10.0-0.1","j669pqqyae","many_one","0","indirect_first","0","er04as06","0","20","1","2","3","1","","0","0","0","null","","","<div style=""font-size:60px;"">+</div>","null","","","","","","","","","",""
"","html-keyboard-response","192","6172122","0.0-10.0-1.1","j669pqqyae","many_one","0","indirect_first","0","er04as06","0","20","1","2","3","1","","0","0","0","null","","","<img src = 'category1/GS2.png' width = '100%;'>","null","","","","","","","","","",""
"","html-keyboard-response","193","6172379","0.0-10.0-2.1","j669pqqyae","many_one","0","indirect_first","0","er04as06","0","20","1","2","3","1","","0","0","0","null","","","<img src = 'targets/17.png' width = '100%;'>","null","","","","","","","","","",""
"","html-keyboard-response","194","6172816","0.0-10.0-3.1","j669pqqyae","many_one","0","indirect_first","0","er04as06","0","20","1","2","3","1","","0","0","0","435.92499988153577","","","<img src = 'targets/mask.png' width = '100%;'>","68","neg","GS","GSnew","1","category1/GS2.png","targets/17.png","0","indirect","25",""
"","html-keyboard-response","195","6174345","0.0-10.0-0.2","j669pqqyae","many_one","0","indirect_first","0","er04as06","0","20","1","2","3","1","","0","0","0","null","","","<div style=""font-size:60px;"">+</div>","null","","","","","","","","","",""
"","html-keyboard-response","196","6174441","0.0-10.0-1.2","j669pqqyae","many_one","0","indirect_first","0","er04as06","0","20","1","2","3","1","","0","0","0","null","","","<img src = 'category4/GS1.png' width = '100%;'>","null","","","","","","","","","",""
"","html-keyboard-response","197","6174725","0.0-10.0-2.2","j669pqqyae","many_one","0","indirect_first","0","er04as06","0","20","1","2","3","1","","0","0","0","null","","","<img src = 'targets/47.png' width = '100%;'>","null","","","","","","","","","",""
"","html-keyboard-response","198","6175752","0.0-10.0-3.2","j669pqqyae","many_one","0","indirect_first","0","er04as06","0","20","1","2","3","1","","0","0","0","1025.1450003124774","","","<img src = 'targets/mask.png' width = '100%;'>","68","pos","GS","GSnew","4","category4/GS1.png","targets/47.png","0","indirect","26",""
"","html-keyboard-response","199","6177281","0.0-10.0-0.3","j669pqqyae","many_one","0","indirect_first","0","er04as06","0","20","1","2","3","1","","0","0","0","null","","","<div style=""font-size:60px;"">+</div>","null","","","","","","","","","",""
"","html-keyboard-response","200","6177376","0.0-10.0-1.3","j669pqqyae","many_one","0","indirect_first","0","er04as06","0","20","1","2","3","1","","0","0","0","null","","","<img src = 'category1/GS3.png' width = '100%;'>","null","","","","","","","","","",""
"","html-keyboard-response","201","6177659","0.0-10.0-2.3","j669pqqyae","many_one","0","indirect_first","0","er04as06","0","20","1","2","3","1","","0","0","0","null","","","<img src = 'targets/37.png' width = '100%;'>","null","","","","","","","","","",""
"","html-keyboard-response","202","6178433","0.0-10.0-3.3","j669pqqyae","many_one","0","indirect_first","0","er04as06","0","20","1","2","3","1","","0","0","0","771.4299997314811","","","<img src = 'targets/mask.png' width = '100%;'>","75","neg","GS","GSnew","1","category1/GS3.png","targets/37.png","1","indirect","27",""
"","html-keyboard-response","203","6179953","0.0-10.0-0.4","j669pqqyae","many_one","0","indirect_first","0","er04as06","0","20","1","2","3","1","","0","0","0","null","","","<div style=""font-size:60px;"">+</div>","null","","","","","","","","","",""
"","html-keyboard-response","204","6180049","0.0-10.0-1.4","j669pqqyae","many_one","0","indirect_first","0","er04as06","0","20","1","2","3","1","","0","0","0","null","","","<img src = 'category2/GS2.png' width = '100%;'>","null","","","","","","","","","",""
"","html-keyboard-response","205","6180317","0.0-10.0-2.4","j669pqqyae","many_one","0","indirect_first","0","er04as06","0","20","1","2","3","1","","0","0","0","null","","","<img src = 'targets/23.png' width = '100%;'>","null","","","","","","","","","",""
"","html-keyboard-response","206","6181553","0.0-10.0-3.4","j669pqqyae","many_one","0","indirect_first","0","er04as06","0","20","1","2","3","1","","0","0","0","1233.219999819994","","","<img src = 'targets/mask.png' width = '100%;'>","68","pos","GS","GSnew","2","category2/GS2.png","targets/23.png","0","indirect","28",""
"","html-keyboard-response","207","6183077","0.0-10.0-0.5","j669pqqyae","many_one","0","indirect_first","0","er04as06","0","20","1","2","3","1","","0","0","0","null","","","<div style=""font-size:60px;"">+</div>","null","","","","","","","","","",""
"","html-keyboard-response","208","6183169","0.0-10.0-1.5","j669pqqyae","many_one","0","indirect_first","0","er04as06","0","20","1","2","3","1","","0","0","0","null","","","<img src = 'category4/lin.png' width = '100%;'>","null","","","","","","","","","",""
"","html-keyboard-response","209","6183426","0.0-10.0-2.5","j669pqqyae","many_one","0","indirect_first","0","er04as06","0","20","1","2","3","1","","0","0","0","null","","","<img src = 'targets/19.png' width = '100%;'>","null","","","","","","","","","",""
"","html-keyboard-response","210","6183960","0.0-10.0-3.5","j669pqqyae","many_one","0","indirect_first","0","er04as06","0","20","1","2","3","1","","0","0","0","532.134999986738","","","<img src = 'targets/mask.png' width = '100%;'>","75","pos","GS","abstract","4","category4/lin.png","targets/19.png","1","indirect","29",""
"","html-keyboard-response","211","6185489","0.0-10.0-0.6","j669pqqyae","many_one","0","indirect_first","0","er04as06","0","20","1","2","3","1","","0","0","0","null","","","<div style=""font-size:60px;"">+</div>","null","","","","","","","","","",""
"","html-keyboard-response","212","6185599","0.0-10.0-1.6","j669pqqyae","many_one","0","indirect_first","0","er04as06","0","20","1","2","3","1","","0","0","0","null","","","<img src = 'category1/CS10.png' width = '100%;'>","null","","","","","","","","","",""
"","html-keyboard-response","213","6185867","0.0-10.0-2.6","j669pqqyae","many_one","0","indirect_first","0","er04as06","0","20","1","2","3","1","","0","0","0","null","","","<img src = 'targets/18.png' width = '100%;'>","null","","","","","","","","","",""
"","html-keyboard-response","214","6187081","0.0-10.0-3.6","j669pqqyae","many_one","0","indirect_first","0","er04as06","0","20","1","2","3","1","","0","0","0","1212.4350001104176","","","<img src = 'targets/mask.png' width = '100%;'>","68","neg","GS","GSold","1","category1/CS10.png","targets/18.png","0","indirect","30",""
"","html-keyboard-response","215","6188606","0.0-10.0-0.7","j669pqqyae","many_one","0","indirect_first","0","er04as06","0","20","1","2","3","1","","0","0","0","null","","","<div style=""font-size:60px;"">+</div>","null","","","","","","","","","",""
"","html-keyboard-response","216","6188698","0.0-10.0-1.7","j669pqqyae","many_one","0","indirect_first","0","er04as06","0","20","1","2","3","1","","0","0","0","null","","","<img src = 'category2/GS1.png' width = '100%;'>","null","","","","","","","","","",""
"","html-keyboard-response","217","6188956","0.0-10.0-2.7","j669pqqyae","many_one","0","indirect_first","0","er04as06","0","20","1","2","3","1","","0","0","0","null","","","<img src = 'targets/32.png' width = '100%;'>","null","","","","","","","","","",""
"","html-keyboard-response","218","6189978","0.0-10.0-3.7","j669pqqyae","many_one","0","indirect_first","0","er04as06","0","20","1","2","3","1","","0","0","0","1020.2549998648465","","","<img src = 'targets/mask.png' width = '100%;'>","75","pos","GS","GSnew","2","category2/GS1.png","targets/32.png","1","indirect","31",""
"","html-keyboard-response","219","6191496","0.0-10.0-0.8","j669pqqyae","many_one","0","indirect_first","0","er04as06","0","20","1","2","3","1","","0","0","0","null","","","<div style=""font-size:60px;"">+</div>","null","","","","","","","","","",""
"","html-keyboard-response","220","6191592","0.0-10.0-1.8","j669pqqyae","many_one","0","indirect_first","0","er04as06","0","20","1","2","3","1","","0","0","0","null","","","<img src = 'category3/GS3.png' width = '100%;'>","null","","","","","","","","","",""
"","html-keyboard-response","221","6191861","0.0-10.0-2.8","j669pqqyae","many_one","0","indirect_first","0","er04as06","0","20","1","2","3","1","","0","0","0","null","","","<img src = 'targets/42.png' width = '100%;'>","null","","","","","","","","","",""
"","html-keyboard-response","222","6192394","0.0-10.0-3.8","j669pqqyae","many_one","0","indirect_first","0","er04as06","0","20","1","2","3","1","","0","0","0","530.0850002095103","","","<img src = 'targets/mask.png' width = '100%;'>","68","neg","GS","GSnew","3","category3/GS3.png","targets/42.png","0","indirect","32",""
"","html-keyboard-response","223","6193908","0.0-10.0-0.9","j669pqqyae","many_one","0","indirect_first","0","er04as06","0","20","1","2","3","1","","0","0","0","null","","","<div style=""font-size:60px;"">+</div>","null","","","","","","","","","",""
"","html-keyboard-response","224","6194002","0.0-10.0-1.9","j669pqqyae","many_one","0","indirect_first","0","er04as06","0","20","1","2","3","1","","0","0","0","null","","","<img src = 'category3/wang.png' width = '100%;'>","null","","","","","","","","","",""
"","html-keyboard-response","225","6194271","0.0-10.0-2.9","j669pqqyae","many_one","0","indirect_first","0","er04as06","0","20","1","2","3","1","","0","0","0","null","","","<img src = 'targets/31.png' width = '100%;'>","null","","","","","","","","","",""
"","html-keyboard-response","226","6194807","0.0-10.0-3.9","j669pqqyae","many_one","0","indirect_first","0","er04as06","0","20","1","2","3","1","","0","0","0","533.2799996249378","","","<img src = 'targets/mask.png' width = '100%;'>","75","neg","GS","abstract","3","category3/wang.png","targets/31.png","1","indirect","33",""
"","html-keyboard-response","227","6196332","0.0-10.0-0.10","j669pqqyae","many_one","0","indirect_first","0","er04as06","0","20","1","2","3","1","","0","0","0","null","","","<div style=""font-size:60px;"">+</div>","null","","","","","","","","","",""
"","html-keyboard-response","228","6196424","0.0-10.0-1.10","j669pqqyae","many_one","0","indirect_first","0","er04as06","0","20","1","2","3","1","","0","0","0","null","","","<img src = 'category2/CS7.png' width = '100%;'>","null","","","","","","","","","",""
"","html-keyboard-response","229","6196678","0.0-10.0-2.10","j669pqqyae","many_one","0","indirect_first","0","er04as06","0","20","1","2","3","1","","0","0","0","null","","","<img src = 'targets/45.png' width = '100%;'>","null","","","","","","","","","",""
"","html-keyboard-response","230","6197739","0.0-10.0-3.10","j669pqqyae","many_one","0","indirect_first","0","er04as06","0","20","1","2","3","1","","0","0","0","1059.7399999387562","","","<img src = 'targets/mask.png' width = '100%;'>","75","pos","GS","GSold","2","category2/CS7.png","targets/45.png","1","indirect","34",""
"","html-keyboard-response","231","6199265","0.0-10.0-0.11","j669pqqyae","many_one","0","indirect_first","0","er04as06","0","20","1","2","3","1","","0","0","0","null","","","<div style=""font-size:60px;"">+</div>","null","","","","","","","","","",""
"","html-keyboard-response","232","6199357","0.0-10.0-1.11","j669pqqyae","many_one","0","indirect_first","0","er04as06","0","20","1","2","3","1","","0","0","0","null","","","<img src = 'category3/GS1.png' width = '100%;'>","null","","","","","","","","","",""
"","html-keyboard-response","233","6199630","0.0-10.0-2.11","j669pqqyae","many_one","0","indirect_first","0","er04as06","0","20","1","2","3","1","","0","0","0","null","","","<img src = 'targets/44.png' width = '100%;'>","null","","","","","","","","","",""
"","html-keyboard-response","234","6200575","0.0-10.0-3.11","j669pqqyae","many_one","0","indirect_first","0","er04as06","0","20","1","2","3","1","","0","0","0","942.6899999380112","","","<img src = 'targets/mask.png' width = '100%;'>","75","neg","GS","GSnew","3","category3/GS1.png","targets/44.png","1","indirect","35",""
"","html-keyboard-response","235","6202091","0.0-10.0-0.12","j669pqqyae","many_one","0","indirect_first","0","er04as06","0","20","1","2","3","1","","0","0","0","null","","","<div style=""font-size:60px;"">+</div>","null","","","","","","","","","",""
"","html-keyboard-response","236","6202186","0.0-10.0-1.12","j669pqqyae","many_one","0","indirect_first","0","er04as06","0","20","1","2","3","1","","0","0","0","null","","","<img src = 'category4/GS3.png' width = '100%;'>","null","","","","","","","","","",""
"","html-keyboard-response","237","6202441","0.0-10.0-2.12","j669pqqyae","many_one","0","indirect_first","0","er04as06","0","20","1","2","3","1","","0","0","0","null","","","<img src = 'targets/39.png' width = '100%;'>","null","","","","","","","","","",""
"","html-keyboard-response","238","6203560","0.0-10.0-3.12","j669pqqyae","many_one","0","indirect_first","0","er04as06","0","20","1","2","3","1","","0","0","0","1117.1499998308718","","","<img src = 'targets/mask.png' width = '100%;'>","75","pos","GS","GSnew","4","category4/GS3.png","targets/39.png","1","indirect","36",""
"","html-keyboard-response","239","6205080","0.0-10.0-0.13","j669pqqyae","many_one","0","indirect_first","0","er04as06","0","20","1","2","3","1","","0","0","0","null","","","<div style=""font-size:60px;"">+</div>","null","","","","","","","","","",""
"","html-keyboard-response","240","6205175","0.0-10.0-1.13","j669pqqyae","many_one","0","indirect_first","0","er04as06","0","20","1","2","3","1","","0","0","0","null","","","<img src = 'category4/CS10.png' width = '100%;'>","null","","","","","","","","","",""
"","html-keyboard-response","241","6205442","0.0-10.0-2.13","j669pqqyae","many_one","0","indirect_first","0","er04as06","0","20","1","2","3","1","","0","0","0","null","","","<img src = 'targets/22.png' width = '100%;'>","null","","","","","","","","","",""
"","html-keyboard-response","242","6205967","0.0-10.0-3.13","j669pqqyae","many_one","0","indirect_first","0","er04as06","0","20","1","2","3","1","","0","0","0","521.184999961406","","","<img src = 'targets/mask.png' width = '100%;'>","75","pos","GS","GSold","4","category4/CS10.png","targets/22.png","1","indirect","37",""
"","html-keyboard-response","243","6207490","0.0-10.0-0.14","j669pqqyae","many_one","0","indirect_first","0","er04as06","0","20","1","2","3","1","","0","0","0","null","","","<div style=""font-size:60px;"">+</div>","null","","","","","","","","","",""
"","html-keyboard-response","244","6207584","0.0-10.0-1.14","j669pqqyae","many_one","0","indirect_first","0","er04as06","0","20","1","2","3","1","","0","0","0","null","","","<img src = 'category1/GS1.png' width = '100%;'>","null","","","","","","","","","",""
"","html-keyboard-response","245","6207837","0.0-10.0-2.14","j669pqqyae","many_one","0","indirect_first","0","er04as06","0","20","1","2","3","1","","0","0","0","null","","","<img src = 'targets/4.png' width = '100%;'>","null","","","","","","","","","",""
"","html-keyboard-response","246","6208298","0.0-10.0-3.14","j669pqqyae","many_one","0","indirect_first","0","er04as06","0","20","1","2","3","1","","0","0","0","459.34499986469746","","","<img src = 'targets/mask.png' width = '100%;'>","75","neg","GS","GSnew","1","category1/GS1.png","targets/4.png","1","indirect","38",""
"","html-keyboard-response","247","6209823","0.0-10.0-0.15","j669pqqyae","many_one","0","indirect_first","0","er04as06","0","20","1","2","3","1","","0","0","0","null","","","<div style=""font-size:60px;"">+</div>","null","","","","","","","","","",""
"","html-keyboard-response","248","6209916","0.0-10.0-1.15","j669pqqyae","many_one","0","indirect_first","0","er04as06","0","20","1","2","3","1","","0","0","0","null","","","<img src = 'category2/GS3.png' width = '100%;'>","null","","","","","","","","","",""
"","html-keyboard-response","249","6210187","0.0-10.0-2.15","j669pqqyae","many_one","0","indirect_first","0","er04as06","0","20","1","2","3","1","","0","0","0","null","","","<img src = 'targets/43.png' width = '100%;'>","null","","","","","","","","","",""
"","html-keyboard-response","250","6211010","0.0-10.0-3.15","j669pqqyae","many_one","0","indirect_first","0","er04as06","0","20","1","2","3","1","","0","0","0","821.044999640435","","","<img src = 'targets/mask.png' width = '100%;'>","75","pos","GS","GSnew","2","category2/GS3.png","targets/43.png","1","indirect","39",""
"","html-keyboard-response","251","6212531","0.0-10.0-0.16","j669pqqyae","many_one","0","indirect_first","0","er04as06","0","20","1","2","3","1","","0","0","0","null","","","<div style=""font-size:60px;"">+</div>","null","","","","","","","","","",""
"","html-keyboard-response","252","6212623","0.0-10.0-1.16","j669pqqyae","many_one","0","indirect_first","0","er04as06","0","20","1","2","3","1","","0","0","0","null","","","<img src = 'category1/ma.png' width = '100%;'>","null","","","","","","","","","",""
"","html-keyboard-response","253","6212875","0.0-10.0-2.16","j669pqqyae","many_one","0","indirect_first","0","er04as06","0","20","1","2","3","1","","0","0","0","null","","","<img src = 'targets/11.png' width = '100%;'>","null","","","","","","","","","",""
"","html-keyboard-response","254","6213334","0.0-10.0-3.16","j669pqqyae","many_one","0","indirect_first","0","er04as06","0","20","1","2","3","1","","0","0","0","456.4249999821186","","","<img src = 'targets/mask.png' width = '100%;'>","68","neg","GS","abstract","1","category1/ma.png","targets/11.png","0","indirect","40",""
"","html-keyboard-response","255","6214839","0.0-10.0-0.17","j669pqqyae","many_one","0","indirect_first","0","er04as06","0","20","1","2","3","1","","0","0","0","null","","","<div style=""font-size:60px;"">+</div>","null","","","","","","","","","",""
"","html-keyboard-response","256","6214934","0.0-10.0-1.17","j669pqqyae","many_one","0","indirect_first","0","er04as06","0","20","1","2","3","1","","0","0","0","null","","","<img src = 'category1/CS3.png' width = '100%;'>","null","","","","","","","","","",""
"","html-keyboard-response","257","6215190","0.0-10.0-2.17","j669pqqyae","many_one","0","indirect_first","0","er04as06","0","20","1","2","3","1","","0","0","0","null","","","<img src = 'targets/41.png' width = '100%;'>","null","","","","","","","","","",""
"","html-keyboard-response","258","6215937","0.0-10.0-3.17","j669pqqyae","many_one","0","indirect_first","0","er04as06","0","20","1","2","3","1","","0","0","0","744.5549997501075","","","<img src = 'targets/mask.png' width = '100%;'>","68","neg","GS","GSold","1","category1/CS3.png","targets/41.png","0","indirect","41",""
"","html-keyboard-response","259","6217457","0.0-10.0-0.18","j669pqqyae","many_one","0","indirect_first","0","er04as06","0","20","1","2","3","1","","0","0","0","null","","","<div style=""font-size:60px;"">+</div>","null","","","","","","","","","",""
"","html-keyboard-response","260","6217552","0.0-10.0-1.18","j669pqqyae","many_one","0","indirect_first","0","er04as06","0","20","1","2","3","1","","0","0","0","null","","","<img src = 'category4/GS2.png' width = '100%;'>","null","","","","","","","","","",""
"","html-keyboard-response","261","6217807","0.0-10.0-2.18","j669pqqyae","many_one","0","indirect_first","0","er04as06","0","20","1","2","3","1","","0","0","0","null","","","<img src = 'targets/36.png' width = '100%;'>","null","","","","","","","","","",""
"","html-keyboard-response","262","6218290","0.0-10.0-3.18","j669pqqyae","many_one","0","indirect_first","0","er04as06","0","20","1","2","3","1","","0","0","0","479.8200000077486","","","<img src = 'targets/mask.png' width = '100%;'>","75","pos","GS","GSnew","4","category4/GS2.png","targets/36.png","1","indirect","42",""
"","html-keyboard-response","263","6219805","0.0-10.0-0.19","j669pqqyae","many_one","0","indirect_first","0","er04as06","0","20","1","2","3","1","","0","0","0","null","","","<div style=""font-size:60px;"">+</div>","null","","","","","","","","","",""
"","html-keyboard-response","264","6219897","0.0-10.0-1.19","j669pqqyae","many_one","0","indirect_first","0","er04as06","0","20","1","2","3","1","","0","0","0","null","","","<img src = 'category1/CS5.png' width = '100%;'>","null","","","","","","","","","",""
"","html-keyboard-response","265","6220158","0.0-10.0-2.19","j669pqqyae","many_one","0","indirect_first","0","er04as06","0","20","1","2","3","1","","0","0","0","null","","","<img src = 'targets/33.png' width = '100%;'>","null","","","","","","","","","",""
"","html-keyboard-response","266","6220591","0.0-10.0-3.19","j669pqqyae","many_one","0","indirect_first","0","er04as06","0","20","1","2","3","1","","0","0","0","431.319999974221","","","<img src = 'targets/mask.png' width = '100%;'>","75","neg","GS","GSold","1","category1/CS5.png","targets/33.png","1","indirect","43",""
"","html-keyboard-response","267","6222112","0.0-10.0-0.20","j669pqqyae","many_one","0","indirect_first","0","er04as06","0","20","1","2","3","1","","0","0","0","null","","","<div style=""font-size:60px;"">+</div>","null","","","","","","","","","",""
"","html-keyboard-response","268","6222207","0.0-10.0-1.20","j669pqqyae","many_one","0","indirect_first","0","er04as06","0","20","1","2","3","1","","0","0","0","null","","","<img src = 'category4/CS5.png' width = '100%;'>","null","","","","","","","","","",""
"","html-keyboard-response","269","6222477","0.0-10.0-2.20","j669pqqyae","many_one","0","indirect_first","0","er04as06","0","20","1","2","3","1","","0","0","0","null","","","<img src = 'targets/30.png' width = '100%;'>","null","","","","","","","","","",""
"","html-keyboard-response","270","6223059","0.0-10.0-3.20","j669pqqyae","many_one","0","indirect_first","0","er04as06","0","20","1","2","3","1","","0","0","0","580.2150000818074","","","<img src = 'targets/mask.png' width = '100%;'>","68","pos","GS","GSold","4","category4/CS5.png","targets/30.png","0","indirect","44",""
"","html-keyboard-response","271","6224588","0.0-10.0-0.21","j669pqqyae","many_one","0","indirect_first","0","er04as06","0","20","1","2","3","1","","0","0","0","null","","","<div style=""font-size:60px;"">+</div>","null","","","","","","","","","",""
"","html-keyboard-response","272","6224680","0.0-10.0-1.21","j669pqqyae","many_one","0","indirect_first","0","er04as06","0","20","1","2","3","1","","0","0","0","null","","","<img src = 'category2/men.png' width = '100%;'>","null","","","","","","","","","",""
"","html-keyboard-response","273","6224938","0.0-10.0-2.21","j669pqqyae","many_one","0","indirect_first","0","er04as06","0","20","1","2","3","1","","0","0","0","null","","","<img src = 'targets/14.png' width = '100%;'>","null","","","","","","","","","",""
"","html-keyboard-response","274","6225930","0.0-10.0-3.21","j669pqqyae","many_one","0","indirect_first","0","er04as06","0","20","1","2","3","1","","0","0","0","989.7749996744096","","","<img src = 'targets/mask.png' width = '100%;'>","68","pos","GS","abstract","2","category2/men.png","targets/14.png","0","indirect","45",""
"","html-keyboard-response","275","6227458","0.0-10.0-0.22","j669pqqyae","many_one","0","indirect_first","0","er04as06","0","20","1","2","3","1","","0","0","0","null","","","<div style=""font-size:60px;"">+</div>","null","","","","","","","","","",""
"","html-keyboard-response","276","6227551","0.0-10.0-1.22","j669pqqyae","many_one","0","indirect_first","0","er04as06","0","20","1","2","3","1","","0","0","0","null","","","<img src = 'category2/CS5.png' width = '100%;'>","null","","","","","","","","","",""
"","html-keyboard-response","277","6227807","0.0-10.0-2.22","j669pqqyae","many_one","0","indirect_first","0","er04as06","0","20","1","2","3","1","","0","0","0","null","","","<img src = 'targets/46.png' width = '100%;'>","null","","","","","","","","","",""
"","html-keyboard-response","278","6228111","0.0-10.0-3.22","j669pqqyae","many_one","0","indirect_first","0","er04as06","0","20","1","2","3","1","","0","0","0","301.47500010207295","","","<img src = 'targets/mask.png' width = '100%;'>","75","pos","GS","GSold","2","category2/CS5.png","targets/46.png","1","indirect","46",""
"","html-keyboard-response","279","6229626","0.0-10.0-0.23","j669pqqyae","many_one","0","indirect_first","0","er04as06","0","20","1","2","3","1","","0","0","0","null","","","<div style=""font-size:60px;"">+</div>","null","","","","","","","","","",""
"","html-keyboard-response","280","6229720","0.0-10.0-1.23","j669pqqyae","many_one","0","indirect_first","0","er04as06","0","20","1","2","3","1","","0","0","0","null","","","<img src = 'category3/GS2.png' width = '100%;'>","null","","","","","","","","","",""
"","html-keyboard-response","281","6229974","0.0-10.0-2.23","j669pqqyae","many_one","0","indirect_first","0","er04as06","0","20","1","2","3","1","","0","0","0","null","","","<img src = 'targets/35.png' width = '100%;'>","null","","","","","","","","","",""
"","html-keyboard-response","282","6230519","0.0-10.0-3.23","j669pqqyae","many_one","0","indirect_first","0","er04as06","0","20","1","2","3","1","","0","0","0","543.5100002214313","","","<img src = 'targets/mask.png' width = '100%;'>","75","neg","GS","GSnew","3","category3/GS2.png","targets/35.png","1","indirect","47",""
"","survey-html-form","283","6239916","0.0-11.0","j669pqqyae","many_one","0","indirect_first","0","er04as06","0","20","1","2","3","1","","0","0","0","8894.240000285208","","{}","","","","","","","","","","","",""
"","image-slider-response","284","6250466","0.0-12.0-0.0","j669pqqyae","many_one","0","indirect_first","0","er04as06","0","20","1","2","3","1","","0","0","0","8536.694999784231","","","","","pos","GS","GSold","4","category4/CS10.png","targets/22.png","","direct","","19"
"","image-slider-response","285","6255758","0.0-12.0-0.1","j669pqqyae","many_one","0","indirect_first","0","er04as06","0","20","1","2","3","1","","0","0","0","5290.310000069439","","","","","pos","CS","CS","4","category4/CS9.png","targets/3.png","","direct","","-34"
"","image-slider-response","286","6259754","0.0-12.0-0.2","j669pqqyae","many_one","0","indirect_first","0","er04as06","0","20","1","2","3","1","","0","0","0","3994.540000334382","","","","","neg","CS","CS","1","category1/CS6.png","targets/1.png","","direct","","32"
"","image-slider-response","287","6263466","0.0-12.0-0.3","j669pqqyae","many_one","0","indirect_first","0","er04as06","0","20","1","2","3","1","","0","0","0","3710.359999909997","","","","","pos","GS","GSnew","4","category4/GS3.png","targets/39.png","","direct","","46"
"","image-slider-response","288","6266147","0.0-12.0-0.4","j669pqqyae","many_one","0","indirect_first","0","er04as06","0","20","1","2","3","1","","0","0","0","2679.13500033319","","","","","pos","CS","CS","4","category4/CS8.png","targets/27.png","","direct","","-19"
"","image-slider-response","289","6269949","0.0-12.0-0.5","j669pqqyae","many_one","0","indirect_first","0","er04as06","0","20","1","2","3","1","","0","0","0","3799.9849999323487","","","","","pos","CS","CS","2","category2/CS9.png","targets/26.png","","direct","","37"
"","image-slider-response","290","6276420","0.0-12.0-0.6","j669pqqyae","many_one","0","indirect_first","0","er04as06","0","20","1","2","3","1","","0","0","0","6469.694999977946","","","","","neg","GS","abstract","1","category1/ma.png","targets/11.png","","direct","","30"
"","image-slider-response","291","6279253","0.0-12.0-0.7","j669pqqyae","many_one","0","indirect_first","0","er04as06","0","20","1","2","3","1","","0","0","0","2830.9350004419684","","","","","pos","CS","CS","2","category2/CS8.png","targets/20.png","","direct","","-33"
"","image-slider-response","292","6282004","0.0-12.0-0.8","j669pqqyae","many_one","0","indirect_first","0","er04as06","0","20","1","2","3","1","","0","0","0","2749.920000322163","","","","","neg","GS","GSold","1","category1/CS5.png","targets/33.png","","direct","","34"
"","image-slider-response","293","6286699","0.0-12.0-0.9","j669pqqyae","many_one","0","indirect_first","0","er04as06","0","20","1","2","3","1","","0","0","0","4694.365000352263","","","","","neg","CS","CS","1","category1/CS4.png","targets/48.png","","direct","","-31"
"","image-slider-response","294","6293035","0.0-12.0-0.10","j669pqqyae","many_one","0","indirect_first","0","er04as06","0","20","1","2","3","1","","0","0","0","6334.035000298172","","","","","neg","GS","GSnew","1","category1/GS2.png","targets/17.png","","direct","","58"
"","image-slider-response","295","6297335","0.0-12.0-0.11","j669pqqyae","many_one","0","indirect_first","0","er04as06","0","20","1","2","3","1","","0","0","0","4297.67999984324","","","","","neg","GS","GSnew","3","category3/GS3.png","targets/42.png","","direct","","-17"
"","image-slider-response","296","6300329","0.0-12.0-0.12","j669pqqyae","many_one","0","indirect_first","0","er04as06","0","20","1","2","3","1","","0","0","0","2992.4399997107685","","","","","neg","GS","GSold","3","category3/CS9.png","targets/8.png","","direct","","-19"
"","image-slider-response","297","6303017","0.0-12.0-0.13","j669pqqyae","many_one","0","indirect_first","0","er04as06","0","20","1","2","3","1","","0","0","0","2685.8500000089407","","","","","pos","CS","CS","2","category2/CS3.png","targets/13.png","","direct","","22"
"","image-slider-response","298","6307111","0.0-12.0-0.14","j669pqqyae","many_one","0","indirect_first","0","er04as06","0","20","1","2","3","1","","0","0","0","4092.325000092387","","","","","pos","GS","GSnew","4","category4/GS2.png","targets/36.png","","direct","","29"
"","image-slider-response","299","6310309","0.0-12.0-0.15","j669pqqyae","many_one","0","indirect_first","0","er04as06","0","20","1","2","3","1","","0","0","0","3196.605000179261","","","","","neg","CS","CS","3","category3/CS8.png","targets/12.png","","direct","","-34"
"","image-slider-response","300","6312671","0.0-12.0-0.16","j669pqqyae","many_one","0","indirect_first","0","er04as06","0","20","1","2","3","1","","0","0","0","2360.9050000086427","","","","","pos","GS","GSnew","2","category2/GS2.png","targets/23.png","","direct","","-15"
"","image-slider-response","301","6316233","0.0-12.0-0.17","j669pqqyae","many_one","0","indirect_first","0","er04as06","0","20","1","2","3","1","","0","0","0","3559.8749998025596","","","","","neg","GS","GSold","3","category3/CS4.png","targets/25.png","","direct","","-26"
"","image-slider-response","302","6319013","0.0-12.0-0.18","j669pqqyae","many_one","0","indirect_first","0","er04as06","0","20","1","2","3","1","","0","0","0","2779.1599999181926","","","","","pos","GS","GSnew","2","category2/GS3.png","targets/43.png","","direct","","-32"
"","image-slider-response","303","6321274","0.0-12.0-0.19","j669pqqyae","many_one","0","indirect_first","0","er04as06","0","20","1","2","3","1","","0","0","0","2259.275000076741","","","","","neg","GS","GSnew","3","category3/GS1.png","targets/44.png","","direct","","57"
"","image-slider-response","304","6323543","0.0-12.0-0.20","j669pqqyae","many_one","0","indirect_first","0","er04as06","0","20","1","2","3","1","","0","0","0","2267.039999831468","","","","","neg","CS","CS","1","category1/CS7.png","targets/5.png","","direct","","41"
"","image-slider-response","305","6326209","0.0-12.0-0.21","j669pqqyae","many_one","0","indirect_first","0","er04as06","0","20","1","2","3","1","","0","0","0","2664.9650000035763","","","","","pos","GS","GSold","4","category4/CS5.png","targets/30.png","","direct","","6"
"","image-slider-response","306","6330281","0.0-12.0-0.22","j669pqqyae","many_one","0","indirect_first","0","er04as06","0","20","1","2","3","1","","0","0","0","4070.449999999255","","","","","neg","CS","CS","3","category3/CS7.png","targets/38.png","","direct","","-6"
"","image-slider-response","307","6332337","0.0-12.0-0.23","j669pqqyae","many_one","0","indirect_first","0","er04as06","0","20","1","2","3","1","","0","0","0","2054.2500000447035","","","","","pos","CS","CS","2","category2/CS4.png","targets/9.png","","direct","","8"
"","image-slider-response","308","6335542","0.0-12.0-0.24","j669pqqyae","many_one","0","indirect_first","0","er04as06","0","20","1","2","3","1","","0","0","0","3202.8799997642636","","","","","neg","GS","GSnew","3","category3/GS2.png","targets/35.png","","direct","","-19"
"","image-slider-response","309","6338117","0.0-12.0-0.25","j669pqqyae","many_one","0","indirect_first","0","er04as06","0","20","1","2","3","1","","0","0","0","2573.4799997881055","","","","","pos","CS","CS","4","category4/CS6.png","targets/28.png","","direct","","19"
"","image-slider-response","310","6342198","0.0-12.0-0.26","j669pqqyae","many_one","0","indirect_first","0","er04as06","0","20","1","2","3","1","","0","0","0","4079.8299997113645","","","","","neg","GS","abstract","3","category3/wang.png","targets/31.png","","direct","","-2"
"","image-slider-response","311","6346127","0.0-12.0-0.27","j669pqqyae","many_one","0","indirect_first","0","er04as06","0","20","1","2","3","1","","0","0","0","3926.719999872148","","","","","neg","GS","GSnew","1","category1/GS3.png","targets/37.png","","direct","","30"
"","image-slider-response","312","6349433","0.0-12.0-0.28","j669pqqyae","many_one","0","indirect_first","0","er04as06","0","20","1","2","3","1","","0","0","0","3304.3899997137487","","","","","neg","GS","GSold","1","category1/CS10.png","targets/18.png","","direct","","-13"
"","image-slider-response","313","6352354","0.0-12.0-0.29","j669pqqyae","many_one","0","indirect_first","0","er04as06","0","20","1","2","3","1","","0","0","0","2919.2649996839464","","","","","pos","CS","CS","4","category4/CS4.png","targets/10.png","","direct","","23"
"","image-slider-response","314","6355723","0.0-12.0-0.30","j669pqqyae","many_one","0","indirect_first","0","er04as06","0","20","1","2","3","1","","0","0","0","3367.575000040233","","","","","neg","CS","CS","3","category3/CS6.png","targets/7.png","","direct","","4"
"","image-slider-response","315","6360324","0.0-12.0-0.31","j669pqqyae","many_one","0","indirect_first","0","er04as06","0","20","1","2","3","1","","0","0","0","4599.315000232309","","","","","pos","GS","GSold","4","category4/CS2.png","targets/21.png","","direct","","23"
"","image-slider-response","316","6363733","0.0-12.0-0.32","j669pqqyae","many_one","0","indirect_first","0","er04as06","0","20","1","2","3","1","","0","0","0","3407.5250001624227","","","","","pos","GS","GSnew","2","category2/GS1.png","targets/32.png","","direct","","-9"
"","image-slider-response","317","6366115","0.0-12.0-0.33","j669pqqyae","many_one","0","indirect_first","0","er04as06","0","20","1","2","3","1","","0","0","0","2379.765000194311","","","","","pos","GS","GSold","2","category2/CS1.png","targets/16.png","","direct","","-16"
"","image-slider-response","318","6369445","0.0-12.0-0.34","j669pqqyae","many_one","0","indirect_first","0","er04as06","0","20","1","2","3","1","","0","0","0","3328.6799998022616","","","","","pos","CS","CS","2","category2/CS6.png","targets/6.png","","direct","","18"
"","image-slider-response","319","6373791","0.0-12.0-0.35","j669pqqyae","many_one","0","indirect_first","0","er04as06","0","20","1","2","3","1","","0","0","0","4345.0299999676645","","","","","neg","CS","CS","3","category3/CS10.png","targets/15.png","","direct","","20"
"","image-slider-response","320","6377599","0.0-12.0-0.36","j669pqqyae","many_one","0","indirect_first","0","er04as06","0","20","1","2","3","1","","0","0","0","3805.3000001236796","","","","","neg","CS","CS","3","category3/CS2.png","targets/2.png","","direct","","-17"
"","image-slider-response","321","6380215","0.0-12.0-0.37","j669pqqyae","many_one","0","indirect_first","0","er04as06","0","20","1","2","3","1","","0","0","0","2614.9150002747774","","","","","pos","GS","abstract","2","category2/men.png","targets/14.png","","direct","","-10"
"","image-slider-response","322","6383453","0.0-12.0-0.38","j669pqqyae","many_one","0","indirect_first","0","er04as06","0","20","1","2","3","1","","0","0","0","3236.504999920726","","","","","neg","GS","GSold","1","category1/CS3.png","targets/41.png","","direct","","36"
"","image-slider-response","323","6386008","0.0-12.0-0.39","j669pqqyae","many_one","0","indirect_first","0","er04as06","0","20","1","2","3","1","","0","0","0","2553.685000166297","","","","","pos","CS","CS","4","category4/CS3.png","targets/40.png","","direct","","15"
"","image-slider-response","324","6388452","0.0-12.0-0.40","j669pqqyae","many_one","0","indirect_first","0","er04as06","0","20","1","2","3","1","","0","0","0","2441.6000000201166","","","","","pos","GS","GSold","2","category2/CS7.png","targets/45.png","","direct","","29"
