"success","trial_type","trial_index","time_elapsed","internal_node_id","subject","condition","condition_code","measure","measure_code","codeword","gender","age","education","chinese","fach","handedness","comment","hinschauen","ablenkung","gewissenhaft","rt","url","responses","stimulus","key_press","val","type","type_specific","category","cs_selected","target","indirect","task","nr_pres","response"
"true","fullscreen","0","6827","0.0-0.0","4d661end2v","many_one","0","indirect_first","0","er05us08","0","19","1","1","3","1","","0","1","0","","","","","","","","","","","","","","",""
"","external-html","1","67448","0.0-1.0","4d661end2v","many_one","0","indirect_first","0","er05us08","0","19","1","1","3","1","","0","1","0","60581.98500005528","text/information.html","","","","","","","","","","","","",""
"","external-html","2","112718","0.0-2.0","4d661end2v","many_one","0","indirect_first","0","er05us08","0","19","1","1","3","1","","0","1","0","45212.684999918565","text/consent.html","","","","","","","","","","","","",""
"","survey-html-form","3","177938","0.0-3.0","4d661end2v","many_one","0","indirect_first","0","er05us08","0","19","1","1","3","1","","0","1","0","65214.739999966696","","{""codeword_enter"":""er05us08""}","","","","","","","","","","","",""
"","survey-html-form","4","216181","0.0-4.0","4d661end2v","many_one","0","indirect_first","0","er05us08","0","19","1","1","3","1","","0","1","0","38234.84000004828","","{""age"":""19"",""education"":""1"",""subject"":""3"",""gender"":""0"",""handedness"":""1"",""chinese"":""1""}","","","","","","","","","","","",""
"","survey-html-form","5","225841","0.0-5.0","4d661end2v","many_one","0","indirect_first","0","er05us08","0","19","1","1","3","1","","0","1","0","9657.739999936894","","{}","","","","","","","","","","","",""
"","html-keyboard-response","6","229849","0.0-6.0-0.0-0.0","4d661end2v","many_one","0","indirect_first","0","er05us08","0","19","1","1","3","1","","0","1","0","null","","","<div class = 'row'><div class = 'column'><img src = 'category1/CS9.png' width = '70%;'></div><div class = 'column'><img src = 'usneg/9050.bmp' width = '100%;'></div></div>","null","neg","CS","CS","1","category1/CS9.png","","","","",""
"","html-keyboard-response","7","232361","0.0-6.0-0.0-0.1","4d661end2v","many_one","0","indirect_first","0","er05us08","0","19","1","1","3","1","","0","1","0","null","","","<div class = 'row'><div class = 'column'><img src = 'usneg/9435.bmp' width = '100%;'></div><div class = 'column'><img src = 'category1/CS5.png' width = '70%;'></div></div>","null","neg","CS","CS","1","category1/CS5.png","","","","",""
"","html-keyboard-response","8","234868","0.0-6.0-0.0-0.2","4d661end2v","many_one","0","indirect_first","0","er05us08","0","19","1","1","3","1","","0","1","0","null","","","<div class = 'row'><div class = 'column'><img src = 'uspos/2340.bmp' width = '100%;'></div><div class = 'column'><img src = 'category4/CS5.png' width = '70%;'></div></div>","null","pos","CS","CS","4","category4/CS5.png","","","","",""
"","html-keyboard-response","9","237372","0.0-6.0-0.0-0.3","4d661end2v","many_one","0","indirect_first","0","er05us08","0","19","1","1","3","1","","0","1","0","null","","","<div class = 'row'><div class = 'column'><img src = 'uspos/2208.bmp' width = '100%;'></div><div class = 'column'><img src = 'category2/CS8.png' width = '70%;'></div></div>","null","pos","CS","CS","2","category2/CS8.png","","","","",""
"","html-keyboard-response","10","239881","0.0-6.0-0.0-0.4","4d661end2v","many_one","0","indirect_first","0","er05us08","0","19","1","1","3","1","","0","1","0","null","","","<div class = 'row'><div class = 'column'><img src = 'category3/CS9.png' width = '70%;'></div><div class = 'column'><img src = 'usneg/9635.2.bmp' width = '100%;'></div></div>","null","neg","CS","CS","3","category3/CS9.png","","","","",""
"","html-keyboard-response","11","242390","0.0-6.0-0.0-0.5","4d661end2v","many_one","0","indirect_first","0","er05us08","0","19","1","1","3","1","","0","1","0","null","","","<div class = 'row'><div class = 'column'><img src = 'usneg/9342.bmp' width = '100%;'></div><div class = 'column'><img src = 'category3/CS8.png' width = '70%;'></div></div>","null","neg","CS","CS","3","category3/CS8.png","","","","",""
"","html-keyboard-response","12","244903","0.0-6.0-0.0-0.6","4d661end2v","many_one","0","indirect_first","0","er05us08","0","19","1","1","3","1","","0","1","0","null","","","<div class = 'row'><div class = 'column'><img src = 'category3/CS7.png' width = '70%;'></div><div class = 'column'><img src = 'usneg/9404.bmp' width = '100%;'></div></div>","null","neg","CS","CS","3","category3/CS7.png","","","","",""
"","html-keyboard-response","13","247416","0.0-6.0-0.0-0.7","4d661end2v","many_one","0","indirect_first","0","er05us08","0","19","1","1","3","1","","0","1","0","null","","","<div class = 'row'><div class = 'column'><img src = 'usneg/9330.bmp' width = '100%;'></div><div class = 'column'><img src = 'category1/CS6.png' width = '70%;'></div></div>","null","neg","CS","CS","1","category1/CS6.png","","","","",""
"","html-keyboard-response","14","249929","0.0-6.0-0.0-0.8","4d661end2v","many_one","0","indirect_first","0","er05us08","0","19","1","1","3","1","","0","1","0","null","","","<div class = 'row'><div class = 'column'><img src = 'usneg/9415.bmp' width = '100%;'></div><div class = 'column'><img src = 'category1/CS10.png' width = '70%;'></div></div>","null","neg","CS","CS","1","category1/CS10.png","","","","",""
"","html-keyboard-response","15","252436","0.0-6.0-0.0-0.9","4d661end2v","many_one","0","indirect_first","0","er05us08","0","19","1","1","3","1","","0","1","0","null","","","<div class = 'row'><div class = 'column'><img src = 'uspos/8490.bmp' width = '100%;'></div><div class = 'column'><img src = 'category4/CS2.png' width = '70%;'></div></div>","null","pos","CS","CS","4","category4/CS2.png","","","","",""
"","html-keyboard-response","16","254946","0.0-6.0-0.0-0.10","4d661end2v","many_one","0","indirect_first","0","er05us08","0","19","1","1","3","1","","0","1","0","null","","","<div class = 'row'><div class = 'column'><img src = 'usneg/6020.bmp' width = '100%;'></div><div class = 'column'><img src = 'category1/CS7.png' width = '70%;'></div></div>","null","neg","CS","CS","1","category1/CS7.png","","","","",""
"","html-keyboard-response","17","257452","0.0-6.0-0.0-0.11","4d661end2v","many_one","0","indirect_first","0","er05us08","0","19","1","1","3","1","","0","1","0","null","","","<div class = 'row'><div class = 'column'><img src = 'usneg/9520.bmp' width = '100%;'></div><div class = 'column'><img src = 'category3/CS2.png' width = '70%;'></div></div>","null","neg","CS","CS","3","category3/CS2.png","","","","",""
"","html-keyboard-response","18","259955","0.0-6.0-0.0-0.12","4d661end2v","many_one","0","indirect_first","0","er05us08","0","19","1","1","3","1","","0","1","0","null","","","<div class = 'row'><div class = 'column'><img src = 'category4/CS4.png' width = '70%;'></div><div class = 'column'><img src = 'uspos/2341.bmp' width = '100%;'></div></div>","null","pos","CS","CS","4","category4/CS4.png","","","","",""
"","html-keyboard-response","19","262468","0.0-6.0-0.0-0.13","4d661end2v","many_one","0","indirect_first","0","er05us08","0","19","1","1","3","1","","0","1","0","null","","","<div class = 'row'><div class = 'column'><img src = 'uspos/1440.bmp' width = '100%;'></div><div class = 'column'><img src = 'category4/CS9.png' width = '70%;'></div></div>","null","pos","CS","CS","4","category4/CS9.png","","","","",""
"","html-keyboard-response","20","264973","0.0-6.0-0.0-0.14","4d661end2v","many_one","0","indirect_first","0","er05us08","0","19","1","1","3","1","","0","1","0","null","","","<div class = 'row'><div class = 'column'><img src = 'category2/CS10.png' width = '70%;'></div><div class = 'column'><img src = 'uspos/2900.2.bmp' width = '100%;'></div></div>","null","pos","CS","CS","2","category2/CS10.png","","","","",""
"","html-keyboard-response","21","267486","0.0-6.0-0.0-0.15","4d661end2v","many_one","0","indirect_first","0","er05us08","0","19","1","1","3","1","","0","1","0","null","","","<div class = 'row'><div class = 'column'><img src = 'uspos/4599.bmp' width = '100%;'></div><div class = 'column'><img src = 'category2/CS2.png' width = '70%;'></div></div>","null","pos","CS","CS","2","category2/CS2.png","","","","",""
"","html-keyboard-response","22","269992","0.0-6.0-0.0-0.16","4d661end2v","many_one","0","indirect_first","0","er05us08","0","19","1","1","3","1","","0","1","0","null","","","<div class = 'row'><div class = 'column'><img src = 'category3/CS10.png' width = '70%;'></div><div class = 'column'><img src = 'usneg/6212.bmp' width = '100%;'></div></div>","null","neg","CS","CS","3","category3/CS10.png","","","","",""
"","html-keyboard-response","23","272502","0.0-6.0-0.0-0.17","4d661end2v","many_one","0","indirect_first","0","er05us08","0","19","1","1","3","1","","0","1","0","null","","","<div class = 'row'><div class = 'column'><img src = 'category4/CS6.png' width = '70%;'></div><div class = 'column'><img src = 'uspos/1460.bmp' width = '100%;'></div></div>","null","pos","CS","CS","4","category4/CS6.png","","","","",""
"","html-keyboard-response","24","275012","0.0-6.0-0.0-0.18","4d661end2v","many_one","0","indirect_first","0","er05us08","0","19","1","1","3","1","","0","1","0","null","","","<div class = 'row'><div class = 'column'><img src = 'uspos/8080.bmp' width = '100%;'></div><div class = 'column'><img src = 'category2/CS7.png' width = '70%;'></div></div>","null","pos","CS","CS","2","category2/CS7.png","","","","",""
"","html-keyboard-response","25","277525","0.0-6.0-0.0-0.19","4d661end2v","many_one","0","indirect_first","0","er05us08","0","19","1","1","3","1","","0","1","0","null","","","<div class = 'row'><div class = 'column'><img src = 'uspos/8461.bmp' width = '100%;'></div><div class = 'column'><img src = 'category2/CS1.png' width = '70%;'></div></div>","null","pos","CS","CS","2","category2/CS1.png","","","","",""
"","survey-html-form","26","282886","0.0-6.0-1.0","4d661end2v","many_one","0","indirect_first","0","er05us08","0","19","1","1","3","1","","0","1","0","4859.874999849126","","{}","","","","","","","","","","","",""
"","html-keyboard-response","27","286897","0.0-6.0-2.0-0.0","4d661end2v","many_one","0","indirect_first","0","er05us08","0","19","1","1","3","1","","0","1","0","null","","","<div class = 'row'><div class = 'column'><img src = 'uspos/8080.bmp' width = '100%;'></div><div class = 'column'><img src = 'category2/CS7.png' width = '70%;'></div></div>","null","pos","CS","CS","2","category2/CS7.png","","","","",""
"","html-keyboard-response","28","289410","0.0-6.0-2.0-0.1","4d661end2v","many_one","0","indirect_first","0","er05us08","0","19","1","1","3","1","","0","1","0","null","","","<div class = 'row'><div class = 'column'><img src = 'category1/CS9.png' width = '70%;'></div><div class = 'column'><img src = 'usneg/9050.bmp' width = '100%;'></div></div>","null","neg","CS","CS","1","category1/CS9.png","","","","",""
"","html-keyboard-response","29","291922","0.0-6.0-2.0-0.2","4d661end2v","many_one","0","indirect_first","0","er05us08","0","19","1","1","3","1","","0","1","0","null","","","<div class = 'row'><div class = 'column'><img src = 'category3/CS9.png' width = '70%;'></div><div class = 'column'><img src = 'usneg/9635.2.bmp' width = '100%;'></div></div>","null","neg","CS","CS","3","category3/CS9.png","","","","",""
"","html-keyboard-response","30","294435","0.0-6.0-2.0-0.3","4d661end2v","many_one","0","indirect_first","0","er05us08","0","19","1","1","3","1","","0","1","0","null","","","<div class = 'row'><div class = 'column'><img src = 'category4/CS9.png' width = '70%;'></div><div class = 'column'><img src = 'uspos/1440.bmp' width = '100%;'></div></div>","null","pos","CS","CS","4","category4/CS9.png","","","","",""
"","html-keyboard-response","31","296946","0.0-6.0-2.0-0.4","4d661end2v","many_one","0","indirect_first","0","er05us08","0","19","1","1","3","1","","0","1","0","null","","","<div class = 'row'><div class = 'column'><img src = 'usneg/9404.bmp' width = '100%;'></div><div class = 'column'><img src = 'category3/CS7.png' width = '70%;'></div></div>","null","neg","CS","CS","3","category3/CS7.png","","","","",""
"","html-keyboard-response","32","299451","0.0-6.0-2.0-0.5","4d661end2v","many_one","0","indirect_first","0","er05us08","0","19","1","1","3","1","","0","1","0","null","","","<div class = 'row'><div class = 'column'><img src = 'uspos/8490.bmp' width = '100%;'></div><div class = 'column'><img src = 'category4/CS2.png' width = '70%;'></div></div>","null","pos","CS","CS","4","category4/CS2.png","","","","",""
"","html-keyboard-response","33","301961","0.0-6.0-2.0-0.6","4d661end2v","many_one","0","indirect_first","0","er05us08","0","19","1","1","3","1","","0","1","0","null","","","<div class = 'row'><div class = 'column'><img src = 'category3/CS10.png' width = '70%;'></div><div class = 'column'><img src = 'usneg/6212.bmp' width = '100%;'></div></div>","null","neg","CS","CS","3","category3/CS10.png","","","","",""
"","html-keyboard-response","34","304468","0.0-6.0-2.0-0.7","4d661end2v","many_one","0","indirect_first","0","er05us08","0","19","1","1","3","1","","0","1","0","null","","","<div class = 'row'><div class = 'column'><img src = 'uspos/4599.bmp' width = '100%;'></div><div class = 'column'><img src = 'category2/CS2.png' width = '70%;'></div></div>","null","pos","CS","CS","2","category2/CS2.png","","","","",""
"","html-keyboard-response","35","306977","0.0-6.0-2.0-0.8","4d661end2v","many_one","0","indirect_first","0","er05us08","0","19","1","1","3","1","","0","1","0","null","","","<div class = 'row'><div class = 'column'><img src = 'category2/CS1.png' width = '70%;'></div><div class = 'column'><img src = 'uspos/8461.bmp' width = '100%;'></div></div>","null","pos","CS","CS","2","category2/CS1.png","","","","",""
"","html-keyboard-response","36","309487","0.0-6.0-2.0-0.9","4d661end2v","many_one","0","indirect_first","0","er05us08","0","19","1","1","3","1","","0","1","0","null","","","<div class = 'row'><div class = 'column'><img src = 'category1/CS6.png' width = '70%;'></div><div class = 'column'><img src = 'usneg/9330.bmp' width = '100%;'></div></div>","null","neg","CS","CS","1","category1/CS6.png","","","","",""
"","html-keyboard-response","37","311997","0.0-6.0-2.0-0.10","4d661end2v","many_one","0","indirect_first","0","er05us08","0","19","1","1","3","1","","0","1","0","null","","","<div class = 'row'><div class = 'column'><img src = 'category4/CS4.png' width = '70%;'></div><div class = 'column'><img src = 'uspos/2341.bmp' width = '100%;'></div></div>","null","pos","CS","CS","4","category4/CS4.png","","","","",""
"","html-keyboard-response","38","314503","0.0-6.0-2.0-0.11","4d661end2v","many_one","0","indirect_first","0","er05us08","0","19","1","1","3","1","","0","1","0","null","","","<div class = 'row'><div class = 'column'><img src = 'uspos/1460.bmp' width = '100%;'></div><div class = 'column'><img src = 'category4/CS6.png' width = '70%;'></div></div>","null","pos","CS","CS","4","category4/CS6.png","","","","",""
"","html-keyboard-response","39","317016","0.0-6.0-2.0-0.12","4d661end2v","many_one","0","indirect_first","0","er05us08","0","19","1","1","3","1","","0","1","0","null","","","<div class = 'row'><div class = 'column'><img src = 'category2/CS10.png' width = '70%;'></div><div class = 'column'><img src = 'uspos/2900.2.bmp' width = '100%;'></div></div>","null","pos","CS","CS","2","category2/CS10.png","","","","",""
"","html-keyboard-response","40","319525","0.0-6.0-2.0-0.13","4d661end2v","many_one","0","indirect_first","0","er05us08","0","19","1","1","3","1","","0","1","0","null","","","<div class = 'row'><div class = 'column'><img src = 'usneg/9435.bmp' width = '100%;'></div><div class = 'column'><img src = 'category1/CS5.png' width = '70%;'></div></div>","null","neg","CS","CS","1","category1/CS5.png","","","","",""
"","html-keyboard-response","41","322038","0.0-6.0-2.0-0.14","4d661end2v","many_one","0","indirect_first","0","er05us08","0","19","1","1","3","1","","0","1","0","null","","","<div class = 'row'><div class = 'column'><img src = 'usneg/9415.bmp' width = '100%;'></div><div class = 'column'><img src = 'category1/CS10.png' width = '70%;'></div></div>","null","neg","CS","CS","1","category1/CS10.png","","","","",""
"","html-keyboard-response","42","324547","0.0-6.0-2.0-0.15","4d661end2v","many_one","0","indirect_first","0","er05us08","0","19","1","1","3","1","","0","1","0","null","","","<div class = 'row'><div class = 'column'><img src = 'usneg/9342.bmp' width = '100%;'></div><div class = 'column'><img src = 'category3/CS8.png' width = '70%;'></div></div>","null","neg","CS","CS","3","category3/CS8.png","","","","",""
"","html-keyboard-response","43","327060","0.0-6.0-2.0-0.16","4d661end2v","many_one","0","indirect_first","0","er05us08","0","19","1","1","3","1","","0","1","0","null","","","<div class = 'row'><div class = 'column'><img src = 'usneg/6020.bmp' width = '100%;'></div><div class = 'column'><img src = 'category1/CS7.png' width = '70%;'></div></div>","null","neg","CS","CS","1","category1/CS7.png","","","","",""
"","html-keyboard-response","44","329569","0.0-6.0-2.0-0.17","4d661end2v","many_one","0","indirect_first","0","er05us08","0","19","1","1","3","1","","0","1","0","null","","","<div class = 'row'><div class = 'column'><img src = 'category2/CS8.png' width = '70%;'></div><div class = 'column'><img src = 'uspos/2208.bmp' width = '100%;'></div></div>","null","pos","CS","CS","2","category2/CS8.png","","","","",""
"","html-keyboard-response","45","332078","0.0-6.0-2.0-0.18","4d661end2v","many_one","0","indirect_first","0","er05us08","0","19","1","1","3","1","","0","1","0","null","","","<div class = 'row'><div class = 'column'><img src = 'usneg/9520.bmp' width = '100%;'></div><div class = 'column'><img src = 'category3/CS2.png' width = '70%;'></div></div>","null","neg","CS","CS","3","category3/CS2.png","","","","",""
"","html-keyboard-response","46","334588","0.0-6.0-2.0-0.19","4d661end2v","many_one","0","indirect_first","0","er05us08","0","19","1","1","3","1","","0","1","0","null","","","<div class = 'row'><div class = 'column'><img src = 'uspos/2340.bmp' width = '100%;'></div><div class = 'column'><img src = 'category4/CS5.png' width = '70%;'></div></div>","null","pos","CS","CS","4","category4/CS5.png","","","","",""
"","survey-html-form","47","338037","0.0-6.0-3.0","4d661end2v","many_one","0","indirect_first","0","er05us08","0","19","1","1","3","1","","0","1","0","2947.670000139624","","{}","","","","","","","","","","","",""
"","html-keyboard-response","48","342048","0.0-6.0-4.0-0.0","4d661end2v","many_one","0","indirect_first","0","er05us08","0","19","1","1","3","1","","0","1","0","null","","","<div class = 'row'><div class = 'column'><img src = 'category4/CS9.png' width = '70%;'></div><div class = 'column'><img src = 'uspos/1440.bmp' width = '100%;'></div></div>","null","pos","CS","CS","4","category4/CS9.png","","","","",""
"","html-keyboard-response","49","344560","0.0-6.0-4.0-0.1","4d661end2v","many_one","0","indirect_first","0","er05us08","0","19","1","1","3","1","","0","1","0","null","","","<div class = 'row'><div class = 'column'><img src = 'uspos/2208.bmp' width = '100%;'></div><div class = 'column'><img src = 'category2/CS8.png' width = '70%;'></div></div>","null","pos","CS","CS","2","category2/CS8.png","","","","",""
"","html-keyboard-response","50","347069","0.0-6.0-4.0-0.2","4d661end2v","many_one","0","indirect_first","0","er05us08","0","19","1","1","3","1","","0","1","0","null","","","<div class = 'row'><div class = 'column'><img src = 'uspos/4599.bmp' width = '100%;'></div><div class = 'column'><img src = 'category2/CS2.png' width = '70%;'></div></div>","null","pos","CS","CS","2","category2/CS2.png","","","","",""
"","html-keyboard-response","51","349582","0.0-6.0-4.0-0.3","4d661end2v","many_one","0","indirect_first","0","er05us08","0","19","1","1","3","1","","0","1","0","null","","","<div class = 'row'><div class = 'column'><img src = 'category3/CS8.png' width = '70%;'></div><div class = 'column'><img src = 'usneg/9342.bmp' width = '100%;'></div></div>","null","neg","CS","CS","3","category3/CS8.png","","","","",""
"","html-keyboard-response","52","352095","0.0-6.0-4.0-0.4","4d661end2v","many_one","0","indirect_first","0","er05us08","0","19","1","1","3","1","","0","1","0","null","","","<div class = 'row'><div class = 'column'><img src = 'category4/CS5.png' width = '70%;'></div><div class = 'column'><img src = 'uspos/2340.bmp' width = '100%;'></div></div>","null","pos","CS","CS","4","category4/CS5.png","","","","",""
"","html-keyboard-response","53","354608","0.0-6.0-4.0-0.5","4d661end2v","many_one","0","indirect_first","0","er05us08","0","19","1","1","3","1","","0","1","0","null","","","<div class = 'row'><div class = 'column'><img src = 'category4/CS6.png' width = '70%;'></div><div class = 'column'><img src = 'uspos/1460.bmp' width = '100%;'></div></div>","null","pos","CS","CS","4","category4/CS6.png","","","","",""
"","html-keyboard-response","54","357121","0.0-6.0-4.0-0.6","4d661end2v","many_one","0","indirect_first","0","er05us08","0","19","1","1","3","1","","0","1","0","null","","","<div class = 'row'><div class = 'column'><img src = 'category2/CS7.png' width = '70%;'></div><div class = 'column'><img src = 'uspos/8080.bmp' width = '100%;'></div></div>","null","pos","CS","CS","2","category2/CS7.png","","","","",""
"","html-keyboard-response","55","359630","0.0-6.0-4.0-0.7","4d661end2v","many_one","0","indirect_first","0","er05us08","0","19","1","1","3","1","","0","1","0","null","","","<div class = 'row'><div class = 'column'><img src = 'category1/CS10.png' width = '70%;'></div><div class = 'column'><img src = 'usneg/9415.bmp' width = '100%;'></div></div>","null","neg","CS","CS","1","category1/CS10.png","","","","",""
"","html-keyboard-response","56","362140","0.0-6.0-4.0-0.8","4d661end2v","many_one","0","indirect_first","0","er05us08","0","19","1","1","3","1","","0","1","0","null","","","<div class = 'row'><div class = 'column'><img src = 'usneg/6020.bmp' width = '100%;'></div><div class = 'column'><img src = 'category1/CS7.png' width = '70%;'></div></div>","null","neg","CS","CS","1","category1/CS7.png","","","","",""
"","html-keyboard-response","57","364643","0.0-6.0-4.0-0.9","4d661end2v","many_one","0","indirect_first","0","er05us08","0","19","1","1","3","1","","0","1","0","null","","","<div class = 'row'><div class = 'column'><img src = 'usneg/9330.bmp' width = '100%;'></div><div class = 'column'><img src = 'category1/CS6.png' width = '70%;'></div></div>","null","neg","CS","CS","1","category1/CS6.png","","","","",""
"","html-keyboard-response","58","367156","0.0-6.0-4.0-0.10","4d661end2v","many_one","0","indirect_first","0","er05us08","0","19","1","1","3","1","","0","1","0","null","","","<div class = 'row'><div class = 'column'><img src = 'category2/CS10.png' width = '70%;'></div><div class = 'column'><img src = 'uspos/2900.2.bmp' width = '100%;'></div></div>","null","pos","CS","CS","2","category2/CS10.png","","","","",""
"","html-keyboard-response","59","369663","0.0-6.0-4.0-0.11","4d661end2v","many_one","0","indirect_first","0","er05us08","0","19","1","1","3","1","","0","1","0","null","","","<div class = 'row'><div class = 'column'><img src = 'usneg/9435.bmp' width = '100%;'></div><div class = 'column'><img src = 'category1/CS5.png' width = '70%;'></div></div>","null","neg","CS","CS","1","category1/CS5.png","","","","",""
"","html-keyboard-response","60","372230","0.0-6.0-4.0-0.12","4d661end2v","many_one","0","indirect_first","0","er05us08","0","19","1","1","3","1","","0","1","0","null","","","<div class = 'row'><div class = 'column'><img src = 'usneg/6212.bmp' width = '100%;'></div><div class = 'column'><img src = 'category3/CS10.png' width = '70%;'></div></div>","null","neg","CS","CS","3","category3/CS10.png","","","","",""
"","html-keyboard-response","61","374740","0.0-6.0-4.0-0.13","4d661end2v","many_one","0","indirect_first","0","er05us08","0","19","1","1","3","1","","0","1","0","null","","","<div class = 'row'><div class = 'column'><img src = 'category4/CS2.png' width = '70%;'></div><div class = 'column'><img src = 'uspos/8490.bmp' width = '100%;'></div></div>","null","pos","CS","CS","4","category4/CS2.png","","","","",""
"","html-keyboard-response","62","377253","0.0-6.0-4.0-0.14","4d661end2v","many_one","0","indirect_first","0","er05us08","0","19","1","1","3","1","","0","1","0","null","","","<div class = 'row'><div class = 'column'><img src = 'usneg/9404.bmp' width = '100%;'></div><div class = 'column'><img src = 'category3/CS7.png' width = '70%;'></div></div>","null","neg","CS","CS","3","category3/CS7.png","","","","",""
"","html-keyboard-response","63","379765","0.0-6.0-4.0-0.15","4d661end2v","many_one","0","indirect_first","0","er05us08","0","19","1","1","3","1","","0","1","0","null","","","<div class = 'row'><div class = 'column'><img src = 'category3/CS9.png' width = '70%;'></div><div class = 'column'><img src = 'usneg/9635.2.bmp' width = '100%;'></div></div>","null","neg","CS","CS","3","category3/CS9.png","","","","",""
"","html-keyboard-response","64","382278","0.0-6.0-4.0-0.16","4d661end2v","many_one","0","indirect_first","0","er05us08","0","19","1","1","3","1","","0","1","0","null","","","<div class = 'row'><div class = 'column'><img src = 'category4/CS4.png' width = '70%;'></div><div class = 'column'><img src = 'uspos/2341.bmp' width = '100%;'></div></div>","null","pos","CS","CS","4","category4/CS4.png","","","","",""
"","html-keyboard-response","65","384787","0.0-6.0-4.0-0.17","4d661end2v","many_one","0","indirect_first","0","er05us08","0","19","1","1","3","1","","0","1","0","null","","","<div class = 'row'><div class = 'column'><img src = 'usneg/9520.bmp' width = '100%;'></div><div class = 'column'><img src = 'category3/CS2.png' width = '70%;'></div></div>","null","neg","CS","CS","3","category3/CS2.png","","","","",""
"","html-keyboard-response","66","387300","0.0-6.0-4.0-0.18","4d661end2v","many_one","0","indirect_first","0","er05us08","0","19","1","1","3","1","","0","1","0","null","","","<div class = 'row'><div class = 'column'><img src = 'category1/CS9.png' width = '70%;'></div><div class = 'column'><img src = 'usneg/9050.bmp' width = '100%;'></div></div>","null","neg","CS","CS","1","category1/CS9.png","","","","",""
"","html-keyboard-response","67","389813","0.0-6.0-4.0-0.19","4d661end2v","many_one","0","indirect_first","0","er05us08","0","19","1","1","3","1","","0","1","0","null","","","<div class = 'row'><div class = 'column'><img src = 'uspos/8461.bmp' width = '100%;'></div><div class = 'column'><img src = 'category2/CS1.png' width = '70%;'></div></div>","null","pos","CS","CS","2","category2/CS1.png","","","","",""
"","survey-html-form","68","392938","0.0-6.0-5.0","4d661end2v","many_one","0","indirect_first","0","er05us08","0","19","1","1","3","1","","0","1","0","2618.60500019975","","{}","","","","","","","","","","","",""
"","html-keyboard-response","69","396953","0.0-6.0-6.0-0.0","4d661end2v","many_one","0","indirect_first","0","er05us08","0","19","1","1","3","1","","0","1","0","null","","","<div class = 'row'><div class = 'column'><img src = 'category3/CS10.png' width = '70%;'></div><div class = 'column'><img src = 'usneg/6212.bmp' width = '100%;'></div></div>","null","neg","CS","CS","3","category3/CS10.png","","","","",""
"","html-keyboard-response","70","399462","0.0-6.0-6.0-0.1","4d661end2v","many_one","0","indirect_first","0","er05us08","0","19","1","1","3","1","","0","1","0","null","","","<div class = 'row'><div class = 'column'><img src = 'usneg/6020.bmp' width = '100%;'></div><div class = 'column'><img src = 'category1/CS7.png' width = '70%;'></div></div>","null","neg","CS","CS","1","category1/CS7.png","","","","",""
"","html-keyboard-response","71","401970","0.0-6.0-6.0-0.2","4d661end2v","many_one","0","indirect_first","0","er05us08","0","19","1","1","3","1","","0","1","0","null","","","<div class = 'row'><div class = 'column'><img src = 'usneg/9050.bmp' width = '100%;'></div><div class = 'column'><img src = 'category1/CS9.png' width = '70%;'></div></div>","null","neg","CS","CS","1","category1/CS9.png","","","","",""
"","html-keyboard-response","72","404483","0.0-6.0-6.0-0.3","4d661end2v","many_one","0","indirect_first","0","er05us08","0","19","1","1","3","1","","0","1","0","null","","","<div class = 'row'><div class = 'column'><img src = 'category4/CS5.png' width = '70%;'></div><div class = 'column'><img src = 'uspos/2340.bmp' width = '100%;'></div></div>","null","pos","CS","CS","4","category4/CS5.png","","","","",""
"","html-keyboard-response","73","406996","0.0-6.0-6.0-0.4","4d661end2v","many_one","0","indirect_first","0","er05us08","0","19","1","1","3","1","","0","1","0","null","","","<div class = 'row'><div class = 'column'><img src = 'category3/CS9.png' width = '70%;'></div><div class = 'column'><img src = 'usneg/9635.2.bmp' width = '100%;'></div></div>","null","neg","CS","CS","3","category3/CS9.png","","","","",""
"","html-keyboard-response","74","409502","0.0-6.0-6.0-0.5","4d661end2v","many_one","0","indirect_first","0","er05us08","0","19","1","1","3","1","","0","1","0","null","","","<div class = 'row'><div class = 'column'><img src = 'category4/CS2.png' width = '70%;'></div><div class = 'column'><img src = 'uspos/8490.bmp' width = '100%;'></div></div>","null","pos","CS","CS","4","category4/CS2.png","","","","",""
"","html-keyboard-response","75","412009","0.0-6.0-6.0-0.6","4d661end2v","many_one","0","indirect_first","0","er05us08","0","19","1","1","3","1","","0","1","0","null","","","<div class = 'row'><div class = 'column'><img src = 'usneg/9330.bmp' width = '100%;'></div><div class = 'column'><img src = 'category1/CS6.png' width = '70%;'></div></div>","null","neg","CS","CS","1","category1/CS6.png","","","","",""
"","html-keyboard-response","76","414518","0.0-6.0-6.0-0.7","4d661end2v","many_one","0","indirect_first","0","er05us08","0","19","1","1","3","1","","0","1","0","null","","","<div class = 'row'><div class = 'column'><img src = 'usneg/9342.bmp' width = '100%;'></div><div class = 'column'><img src = 'category3/CS8.png' width = '70%;'></div></div>","null","neg","CS","CS","3","category3/CS8.png","","","","",""
"","html-keyboard-response","77","417030","0.0-6.0-6.0-0.8","4d661end2v","many_one","0","indirect_first","0","er05us08","0","19","1","1","3","1","","0","1","0","null","","","<div class = 'row'><div class = 'column'><img src = 'usneg/9435.bmp' width = '100%;'></div><div class = 'column'><img src = 'category1/CS5.png' width = '70%;'></div></div>","null","neg","CS","CS","1","category1/CS5.png","","","","",""
"","html-keyboard-response","78","419540","0.0-6.0-6.0-0.9","4d661end2v","many_one","0","indirect_first","0","er05us08","0","19","1","1","3","1","","0","1","0","null","","","<div class = 'row'><div class = 'column'><img src = 'uspos/4599.bmp' width = '100%;'></div><div class = 'column'><img src = 'category2/CS2.png' width = '70%;'></div></div>","null","pos","CS","CS","2","category2/CS2.png","","","","",""
"","html-keyboard-response","79","422053","0.0-6.0-6.0-0.10","4d661end2v","many_one","0","indirect_first","0","er05us08","0","19","1","1","3","1","","0","1","0","null","","","<div class = 'row'><div class = 'column'><img src = 'category3/CS7.png' width = '70%;'></div><div class = 'column'><img src = 'usneg/9404.bmp' width = '100%;'></div></div>","null","neg","CS","CS","3","category3/CS7.png","","","","",""
"","html-keyboard-response","80","424565","0.0-6.0-6.0-0.11","4d661end2v","many_one","0","indirect_first","0","er05us08","0","19","1","1","3","1","","0","1","0","null","","","<div class = 'row'><div class = 'column'><img src = 'uspos/2341.bmp' width = '100%;'></div><div class = 'column'><img src = 'category4/CS4.png' width = '70%;'></div></div>","null","pos","CS","CS","4","category4/CS4.png","","","","",""
"","html-keyboard-response","81","427069","0.0-6.0-6.0-0.12","4d661end2v","many_one","0","indirect_first","0","er05us08","0","19","1","1","3","1","","0","1","0","null","","","<div class = 'row'><div class = 'column'><img src = 'category2/CS8.png' width = '70%;'></div><div class = 'column'><img src = 'uspos/2208.bmp' width = '100%;'></div></div>","null","pos","CS","CS","2","category2/CS8.png","","","","",""
"","html-keyboard-response","82","429579","0.0-6.0-6.0-0.13","4d661end2v","many_one","0","indirect_first","0","er05us08","0","19","1","1","3","1","","0","1","0","null","","","<div class = 'row'><div class = 'column'><img src = 'uspos/2900.2.bmp' width = '100%;'></div><div class = 'column'><img src = 'category2/CS10.png' width = '70%;'></div></div>","null","pos","CS","CS","2","category2/CS10.png","","","","",""
"","html-keyboard-response","83","432088","0.0-6.0-6.0-0.14","4d661end2v","many_one","0","indirect_first","0","er05us08","0","19","1","1","3","1","","0","1","0","null","","","<div class = 'row'><div class = 'column'><img src = 'category2/CS7.png' width = '70%;'></div><div class = 'column'><img src = 'uspos/8080.bmp' width = '100%;'></div></div>","null","pos","CS","CS","2","category2/CS7.png","","","","",""
"","html-keyboard-response","84","434590","0.0-6.0-6.0-0.15","4d661end2v","many_one","0","indirect_first","0","er05us08","0","19","1","1","3","1","","0","1","0","null","","","<div class = 'row'><div class = 'column'><img src = 'uspos/1460.bmp' width = '100%;'></div><div class = 'column'><img src = 'category4/CS6.png' width = '70%;'></div></div>","null","pos","CS","CS","4","category4/CS6.png","","","","",""
"","html-keyboard-response","85","437100","0.0-6.0-6.0-0.16","4d661end2v","many_one","0","indirect_first","0","er05us08","0","19","1","1","3","1","","0","1","0","null","","","<div class = 'row'><div class = 'column'><img src = 'uspos/1440.bmp' width = '100%;'></div><div class = 'column'><img src = 'category4/CS9.png' width = '70%;'></div></div>","null","pos","CS","CS","4","category4/CS9.png","","","","",""
"","html-keyboard-response","86","439606","0.0-6.0-6.0-0.17","4d661end2v","many_one","0","indirect_first","0","er05us08","0","19","1","1","3","1","","0","1","0","null","","","<div class = 'row'><div class = 'column'><img src = 'category1/CS10.png' width = '70%;'></div><div class = 'column'><img src = 'usneg/9415.bmp' width = '100%;'></div></div>","null","neg","CS","CS","1","category1/CS10.png","","","","",""
"","html-keyboard-response","87","442119","0.0-6.0-6.0-0.18","4d661end2v","many_one","0","indirect_first","0","er05us08","0","19","1","1","3","1","","0","1","0","null","","","<div class = 'row'><div class = 'column'><img src = 'uspos/8461.bmp' width = '100%;'></div><div class = 'column'><img src = 'category2/CS1.png' width = '70%;'></div></div>","null","pos","CS","CS","2","category2/CS1.png","","","","",""
"","html-keyboard-response","88","444622","0.0-6.0-6.0-0.19","4d661end2v","many_one","0","indirect_first","0","er05us08","0","19","1","1","3","1","","0","1","0","null","","","<div class = 'row'><div class = 'column'><img src = 'category3/CS2.png' width = '70%;'></div><div class = 'column'><img src = 'usneg/9520.bmp' width = '100%;'></div></div>","null","neg","CS","CS","3","category3/CS2.png","","","","",""
"","html-keyboard-response","89","499264","0.0-7.0","4d661end2v","many_one","0","indirect_first","0","er05us08","0","19","1","1","3","1","","0","1","0","54135.490000015125","","","<p>Sie sehen nun die chinesischen Zeichen nur ganz kurz. Danach sehen Sie die jeweilige Aussprache der Zeichen als Silbe auf dem Bildschrim. Ihre Aufgabe ist es, für jede Silbe anzugeben, ob diese etwas angenehmes, oder unangenehmes bedeuten könnte. Verlassen Sie sich hier vor allem auf Ihre Intuition.<br><br>Die Zeichen werden nur zur Orientierung dargestellt, beachten Sie sie deshalb nicht. Konzentrieren Sie sich vor allem auf die Silben. <br>Reagieren Sie mit folgenden zwei Tasten: <br><br><b>'D' </b> wenn die Silbe etwas <b>unangenehmes</b> bedeuten könnte. <br><b>'K'</b> wenn die Silbe etwas <b>angenehmes</b> bedeuten könnte. <br><br>Bitte legen Sie nun den Zeigefinger der linken Hand auf die Taste 'D' und den Zeigefinger der rechten Hand auf die Taste 'K'. <br>Reagieren Sie auf jede Silbe so schnell wie möglich. Uns interessiert Ihre spontane Reaktion. <br> <br> <br>Drücken Sie 'D' oder 'K', um die nächste Aufgabe zu starten. </p>","68","","","","","","","","","",""
"","html-keyboard-response","90","502270","0.0-8.0-0.0","4d661end2v","many_one","0","indirect_first","0","er05us08","0","19","1","1","3","1","","0","1","0","null","","","<div style=""font-size:60px;"">+</div>","null","","","","","","","","","",""
"","html-keyboard-response","91","502362","0.0-8.0-1.0","4d661end2v","many_one","0","indirect_first","0","er05us08","0","19","1","1","3","1","","0","1","0","null","","","<img src = 'category1/CS9.png' width = '100%;'>","null","","","","","","","","","",""
"","html-keyboard-response","92","502620","0.0-8.0-2.0","4d661end2v","many_one","0","indirect_first","0","er05us08","0","19","1","1","3","1","","0","1","0","null","","","<img src = 'targets/42.png' width = '100%;'>","null","","","","","","","","","",""
"","html-keyboard-response","93","512076","0.0-8.0-3.0","4d661end2v","many_one","0","indirect_first","0","er05us08","0","19","1","1","3","1","","0","1","0","9454.720000037923","","","<img src = 'targets/mask.png' width = '100%;'>","68","neg","CS","CS","1","category1/CS9.png","targets/42.png","0","indirect","0",""
"","html-keyboard-response","94","513587","0.0-8.0-0.1","4d661end2v","many_one","0","indirect_first","0","er05us08","0","19","1","1","3","1","","0","1","0","null","","","<div style=""font-size:60px;"">+</div>","null","","","","","","","","","",""
"","html-keyboard-response","95","513679","0.0-8.0-1.1","4d661end2v","many_one","0","indirect_first","0","er05us08","0","19","1","1","3","1","","0","1","0","null","","","<img src = 'category1/CS6.png' width = '100%;'>","null","","","","","","","","","",""
"","html-keyboard-response","96","513936","0.0-8.0-2.1","4d661end2v","many_one","0","indirect_first","0","er05us08","0","19","1","1","3","1","","0","1","0","null","","","<img src = 'targets/2.png' width = '100%;'>","null","","","","","","","","","",""
"","html-keyboard-response","97","518471","0.0-8.0-3.1","4d661end2v","many_one","0","indirect_first","0","er05us08","0","19","1","1","3","1","","0","1","0","4533.549999818206","","","<img src = 'targets/mask.png' width = '100%;'>","68","neg","CS","CS","1","category1/CS6.png","targets/2.png","0","indirect","1",""
"","html-keyboard-response","98","519982","0.0-8.0-0.2","4d661end2v","many_one","0","indirect_first","0","er05us08","0","19","1","1","3","1","","0","1","0","null","","","<div style=""font-size:60px;"">+</div>","null","","","","","","","","","",""
"","html-keyboard-response","99","520079","0.0-8.0-1.2","4d661end2v","many_one","0","indirect_first","0","er05us08","0","19","1","1","3","1","","0","1","0","null","","","<img src = 'category1/CS10.png' width = '100%;'>","null","","","","","","","","","",""
"","html-keyboard-response","100","520335","0.0-8.0-2.2","4d661end2v","many_one","0","indirect_first","0","er05us08","0","19","1","1","3","1","","0","1","0","null","","","<img src = 'targets/27.png' width = '100%;'>","null","","","","","","","","","",""
"","html-keyboard-response","101","522957","0.0-8.0-3.2","4d661end2v","many_one","0","indirect_first","0","er05us08","0","19","1","1","3","1","","0","1","0","2620.939999818802","","","<img src = 'targets/mask.png' width = '100%;'>","75","neg","CS","CS","1","category1/CS10.png","targets/27.png","1","indirect","2",""
"","html-keyboard-response","102","524467","0.0-8.0-0.3","4d661end2v","many_one","0","indirect_first","0","er05us08","0","19","1","1","3","1","","0","1","0","null","","","<div style=""font-size:60px;"">+</div>","null","","","","","","","","","",""
"","html-keyboard-response","103","524564","0.0-8.0-1.3","4d661end2v","many_one","0","indirect_first","0","er05us08","0","19","1","1","3","1","","0","1","0","null","","","<img src = 'category3/CS5.png' width = '100%;'>","null","","","","","","","","","",""
"","html-keyboard-response","104","524826","0.0-8.0-2.3","4d661end2v","many_one","0","indirect_first","0","er05us08","0","19","1","1","3","1","","0","1","0","null","","","<img src = 'targets/10.png' width = '100%;'>","null","","","","","","","","","",""
"","html-keyboard-response","105","525936","0.0-8.0-3.3","4d661end2v","many_one","0","indirect_first","0","er05us08","0","19","1","1","3","1","","0","1","0","1108.8049998506904","","","<img src = 'targets/mask.png' width = '100%;'>","75","neg","GS","GSold","3","category3/CS5.png","targets/10.png","1","indirect","3",""
"","html-keyboard-response","106","527446","0.0-8.0-0.4","4d661end2v","many_one","0","indirect_first","0","er05us08","0","19","1","1","3","1","","0","1","0","null","","","<div style=""font-size:60px;"">+</div>","null","","","","","","","","","",""
"","html-keyboard-response","107","527540","0.0-8.0-1.4","4d661end2v","many_one","0","indirect_first","0","er05us08","0","19","1","1","3","1","","0","1","0","null","","","<img src = 'category1/CS5.png' width = '100%;'>","null","","","","","","","","","",""
"","html-keyboard-response","108","527797","0.0-8.0-2.4","4d661end2v","many_one","0","indirect_first","0","er05us08","0","19","1","1","3","1","","0","1","0","null","","","<img src = 'targets/3.png' width = '100%;'>","null","","","","","","","","","",""
"","html-keyboard-response","109","530779","0.0-8.0-3.4","4d661end2v","many_one","0","indirect_first","0","er05us08","0","19","1","1","3","1","","0","1","0","2980.555000016466","","","<img src = 'targets/mask.png' width = '100%;'>","68","neg","CS","CS","1","category1/CS5.png","targets/3.png","0","indirect","4",""
"","html-keyboard-response","110","532286","0.0-8.0-0.5","4d661end2v","many_one","0","indirect_first","0","er05us08","0","19","1","1","3","1","","0","1","0","null","","","<div style=""font-size:60px;"">+</div>","null","","","","","","","","","",""
"","html-keyboard-response","111","532381","0.0-8.0-1.5","4d661end2v","many_one","0","indirect_first","0","er05us08","0","19","1","1","3","1","","0","1","0","null","","","<img src = 'category3/CS9.png' width = '100%;'>","null","","","","","","","","","",""
"","html-keyboard-response","112","532638","0.0-8.0-2.5","4d661end2v","many_one","0","indirect_first","0","er05us08","0","19","1","1","3","1","","0","1","0","null","","","<img src = 'targets/46.png' width = '100%;'>","null","","","","","","","","","",""
"","html-keyboard-response","113","535034","0.0-8.0-3.5","4d661end2v","many_one","0","indirect_first","0","er05us08","0","19","1","1","3","1","","0","1","0","2393.550000153482","","","<img src = 'targets/mask.png' width = '100%;'>","68","neg","CS","CS","3","category3/CS9.png","targets/46.png","0","indirect","5",""
"","html-keyboard-response","114","536540","0.0-8.0-0.6","4d661end2v","many_one","0","indirect_first","0","er05us08","0","19","1","1","3","1","","0","1","0","null","","","<div style=""font-size:60px;"">+</div>","null","","","","","","","","","",""
"","html-keyboard-response","115","536635","0.0-8.0-1.6","4d661end2v","many_one","0","indirect_first","0","er05us08","0","19","1","1","3","1","","0","1","0","null","","","<img src = 'category4/CS2.png' width = '100%;'>","null","","","","","","","","","",""
"","html-keyboard-response","116","536895","0.0-8.0-2.6","4d661end2v","many_one","0","indirect_first","0","er05us08","0","19","1","1","3","1","","0","1","0","null","","","<img src = 'targets/22.png' width = '100%;'>","null","","","","","","","","","",""
"","html-keyboard-response","117","538670","0.0-8.0-3.6","4d661end2v","many_one","0","indirect_first","0","er05us08","0","19","1","1","3","1","","0","1","0","1772.9400000534952","","","<img src = 'targets/mask.png' width = '100%;'>","75","pos","CS","CS","4","category4/CS2.png","targets/22.png","1","indirect","6",""
"","html-keyboard-response","118","540177","0.0-8.0-0.7","4d661end2v","many_one","0","indirect_first","0","er05us08","0","19","1","1","3","1","","0","1","0","null","","","<div style=""font-size:60px;"">+</div>","null","","","","","","","","","",""
"","html-keyboard-response","119","540270","0.0-8.0-1.7","4d661end2v","many_one","0","indirect_first","0","er05us08","0","19","1","1","3","1","","0","1","0","null","","","<img src = 'category4/CS5.png' width = '100%;'>","null","","","","","","","","","",""
"","html-keyboard-response","120","540527","0.0-8.0-2.7","4d661end2v","many_one","0","indirect_first","0","er05us08","0","19","1","1","3","1","","0","1","0","null","","","<img src = 'targets/6.png' width = '100%;'>","null","","","","","","","","","",""
"","html-keyboard-response","121","544064","0.0-8.0-3.7","4d661end2v","many_one","0","indirect_first","0","er05us08","0","19","1","1","3","1","","0","1","0","3535.9700000844896","","","<img src = 'targets/mask.png' width = '100%;'>","68","pos","CS","CS","4","category4/CS5.png","targets/6.png","0","indirect","7",""
"","html-keyboard-response","122","545569","0.0-8.0-0.8","4d661end2v","many_one","0","indirect_first","0","er05us08","0","19","1","1","3","1","","0","1","0","null","","","<div style=""font-size:60px;"">+</div>","null","","","","","","","","","",""
"","html-keyboard-response","123","545665","0.0-8.0-1.8","4d661end2v","many_one","0","indirect_first","0","er05us08","0","19","1","1","3","1","","0","1","0","null","","","<img src = 'category2/CS7.png' width = '100%;'>","null","","","","","","","","","",""
"","html-keyboard-response","124","545927","0.0-8.0-2.8","4d661end2v","many_one","0","indirect_first","0","er05us08","0","19","1","1","3","1","","0","1","0","null","","","<img src = 'targets/15.png' width = '100%;'>","null","","","","","","","","","",""
"","html-keyboard-response","125","551733","0.0-8.0-3.8","4d661end2v","many_one","0","indirect_first","0","er05us08","0","19","1","1","3","1","","0","1","0","5804.4199999421835","","","<img src = 'targets/mask.png' width = '100%;'>","68","pos","CS","CS","2","category2/CS7.png","targets/15.png","0","indirect","8",""
"","html-keyboard-response","126","553240","0.0-8.0-0.9","4d661end2v","many_one","0","indirect_first","0","er05us08","0","19","1","1","3","1","","0","1","0","null","","","<div style=""font-size:60px;"">+</div>","null","","","","","","","","","",""
"","html-keyboard-response","127","553336","0.0-8.0-1.9","4d661end2v","many_one","0","indirect_first","0","er05us08","0","19","1","1","3","1","","0","1","0","null","","","<img src = 'category2/CS4.png' width = '100%;'>","null","","","","","","","","","",""
"","html-keyboard-response","128","553597","0.0-8.0-2.9","4d661end2v","many_one","0","indirect_first","0","er05us08","0","19","1","1","3","1","","0","1","0","null","","","<img src = 'targets/20.png' width = '100%;'>","null","","","","","","","","","",""
"","html-keyboard-response","129","556284","0.0-8.0-3.9","4d661end2v","many_one","0","indirect_first","0","er05us08","0","19","1","1","3","1","","0","1","0","2684.510000050068","","","<img src = 'targets/mask.png' width = '100%;'>","68","pos","GS","GSold","2","category2/CS4.png","targets/20.png","0","indirect","9",""
"","html-keyboard-response","130","557795","0.0-8.0-0.10","4d661end2v","many_one","0","indirect_first","0","er05us08","0","19","1","1","3","1","","0","1","0","null","","","<div style=""font-size:60px;"">+</div>","null","","","","","","","","","",""
"","html-keyboard-response","131","557886","0.0-8.0-1.10","4d661end2v","many_one","0","indirect_first","0","er05us08","0","19","1","1","3","1","","0","1","0","null","","","<img src = 'category2/CS2.png' width = '100%;'>","null","","","","","","","","","",""
"","html-keyboard-response","132","558146","0.0-8.0-2.10","4d661end2v","many_one","0","indirect_first","0","er05us08","0","19","1","1","3","1","","0","1","0","null","","","<img src = 'targets/23.png' width = '100%;'>","null","","","","","","","","","",""
"","html-keyboard-response","133","561021","0.0-8.0-3.10","4d661end2v","many_one","0","indirect_first","0","er05us08","0","19","1","1","3","1","","0","1","0","2872.4399998318404","","","<img src = 'targets/mask.png' width = '100%;'>","75","pos","CS","CS","2","category2/CS2.png","targets/23.png","1","indirect","10",""
"","html-keyboard-response","134","562532","0.0-8.0-0.11","4d661end2v","many_one","0","indirect_first","0","er05us08","0","19","1","1","3","1","","0","1","0","null","","","<div style=""font-size:60px;"">+</div>","null","","","","","","","","","",""
"","html-keyboard-response","135","562623","0.0-8.0-1.11","4d661end2v","many_one","0","indirect_first","0","er05us08","0","19","1","1","3","1","","0","1","0","null","","","<img src = 'category4/CS4.png' width = '100%;'>","null","","","","","","","","","",""
"","html-keyboard-response","136","562885","0.0-8.0-2.11","4d661end2v","many_one","0","indirect_first","0","er05us08","0","19","1","1","3","1","","0","1","0","null","","","<img src = 'targets/18.png' width = '100%;'>","null","","","","","","","","","",""
"","html-keyboard-response","137","564537","0.0-8.0-3.11","4d661end2v","many_one","0","indirect_first","0","er05us08","0","19","1","1","3","1","","0","1","0","1650.3650001250207","","","<img src = 'targets/mask.png' width = '100%;'>","68","pos","CS","CS","4","category4/CS4.png","targets/18.png","0","indirect","11",""
"","html-keyboard-response","138","566045","0.0-8.0-0.12","4d661end2v","many_one","0","indirect_first","0","er05us08","0","19","1","1","3","1","","0","1","0","null","","","<div style=""font-size:60px;"">+</div>","null","","","","","","","","","",""
"","html-keyboard-response","139","566140","0.0-8.0-1.12","4d661end2v","many_one","0","indirect_first","0","er05us08","0","19","1","1","3","1","","0","1","0","null","","","<img src = 'category3/CS10.png' width = '100%;'>","null","","","","","","","","","",""
"","html-keyboard-response","140","566396","0.0-8.0-2.12","4d661end2v","many_one","0","indirect_first","0","er05us08","0","19","1","1","3","1","","0","1","0","null","","","<img src = 'targets/17.png' width = '100%;'>","null","","","","","","","","","",""
"","html-keyboard-response","141","568538","0.0-8.0-3.12","4d661end2v","many_one","0","indirect_first","0","er05us08","0","19","1","1","3","1","","0","1","0","2140.205000061542","","","<img src = 'targets/mask.png' width = '100%;'>","68","neg","CS","CS","3","category3/CS10.png","targets/17.png","0","indirect","12",""
"","html-keyboard-response","142","570040","0.0-8.0-0.13","4d661end2v","many_one","0","indirect_first","0","er05us08","0","19","1","1","3","1","","0","1","0","null","","","<div style=""font-size:60px;"">+</div>","null","","","","","","","","","",""
"","html-keyboard-response","143","570137","0.0-8.0-1.13","4d661end2v","many_one","0","indirect_first","0","er05us08","0","19","1","1","3","1","","0","1","0","null","","","<img src = 'category2/CS10.png' width = '100%;'>","null","","","","","","","","","",""
"","html-keyboard-response","144","570396","0.0-8.0-2.13","4d661end2v","many_one","0","indirect_first","0","er05us08","0","19","1","1","3","1","","0","1","0","null","","","<img src = 'targets/36.png' width = '100%;'>","null","","","","","","","","","",""
"","html-keyboard-response","145","573229","0.0-8.0-3.13","4d661end2v","many_one","0","indirect_first","0","er05us08","0","19","1","1","3","1","","0","1","0","2830.705000087619","","","<img src = 'targets/mask.png' width = '100%;'>","68","pos","CS","CS","2","category2/CS10.png","targets/36.png","0","indirect","13",""
"","html-keyboard-response","146","574740","0.0-8.0-0.14","4d661end2v","many_one","0","indirect_first","0","er05us08","0","19","1","1","3","1","","0","1","0","null","","","<div style=""font-size:60px;"">+</div>","null","","","","","","","","","",""
"","html-keyboard-response","147","574836","0.0-8.0-1.14","4d661end2v","many_one","0","indirect_first","0","er05us08","0","19","1","1","3","1","","0","1","0","null","","","<img src = 'category2/CS8.png' width = '100%;'>","null","","","","","","","","","",""
"","html-keyboard-response","148","575097","0.0-8.0-2.14","4d661end2v","many_one","0","indirect_first","0","er05us08","0","19","1","1","3","1","","0","1","0","null","","","<img src = 'targets/19.png' width = '100%;'>","null","","","","","","","","","",""
"","html-keyboard-response","149","576496","0.0-8.0-3.14","4d661end2v","many_one","0","indirect_first","0","er05us08","0","19","1","1","3","1","","0","1","0","1397.215000120923","","","<img src = 'targets/mask.png' width = '100%;'>","75","pos","CS","CS","2","category2/CS8.png","targets/19.png","1","indirect","14",""
"","html-keyboard-response","150","578003","0.0-8.0-0.15","4d661end2v","many_one","0","indirect_first","0","er05us08","0","19","1","1","3","1","","0","1","0","null","","","<div style=""font-size:60px;"">+</div>","null","","","","","","","","","",""
"","html-keyboard-response","151","578099","0.0-8.0-1.15","4d661end2v","many_one","0","indirect_first","0","er05us08","0","19","1","1","3","1","","0","1","0","null","","","<img src = 'category3/CS8.png' width = '100%;'>","null","","","","","","","","","",""
"","html-keyboard-response","152","578361","0.0-8.0-2.15","4d661end2v","many_one","0","indirect_first","0","er05us08","0","19","1","1","3","1","","0","1","0","null","","","<img src = 'targets/25.png' width = '100%;'>","null","","","","","","","","","",""
"","html-keyboard-response","153","580678","0.0-8.0-3.15","4d661end2v","many_one","0","indirect_first","0","er05us08","0","19","1","1","3","1","","0","1","0","2315.4349999967963","","","<img src = 'targets/mask.png' width = '100%;'>","68","neg","CS","CS","3","category3/CS8.png","targets/25.png","0","indirect","15",""
"","html-keyboard-response","154","582190","0.0-8.0-0.16","4d661end2v","many_one","0","indirect_first","0","er05us08","0","19","1","1","3","1","","0","1","0","null","","","<div style=""font-size:60px;"">+</div>","null","","","","","","","","","",""
"","html-keyboard-response","155","582283","0.0-8.0-1.16","4d661end2v","many_one","0","indirect_first","0","er05us08","0","19","1","1","3","1","","0","1","0","null","","","<img src = 'category3/CS3.png' width = '100%;'>","null","","","","","","","","","",""
"","html-keyboard-response","156","582545","0.0-8.0-2.16","4d661end2v","many_one","0","indirect_first","0","er05us08","0","19","1","1","3","1","","0","1","0","null","","","<img src = 'targets/9.png' width = '100%;'>","null","","","","","","","","","",""
"","html-keyboard-response","157","584395","0.0-8.0-3.16","4d661end2v","many_one","0","indirect_first","0","er05us08","0","19","1","1","3","1","","0","1","0","1847.7750001475215","","","<img src = 'targets/mask.png' width = '100%;'>","68","neg","GS","GSold","3","category3/CS3.png","targets/9.png","0","indirect","16",""
"","html-keyboard-response","158","585902","0.0-8.0-0.17","4d661end2v","many_one","0","indirect_first","0","er05us08","0","19","1","1","3","1","","0","1","0","null","","","<div style=""font-size:60px;"">+</div>","null","","","","","","","","","",""
"","html-keyboard-response","159","585995","0.0-8.0-1.17","4d661end2v","many_one","0","indirect_first","0","er05us08","0","19","1","1","3","1","","0","1","0","null","","","<img src = 'category3/CS7.png' width = '100%;'>","null","","","","","","","","","",""
"","html-keyboard-response","160","586251","0.0-8.0-2.17","4d661end2v","many_one","0","indirect_first","0","er05us08","0","19","1","1","3","1","","0","1","0","null","","","<img src = 'targets/39.png' width = '100%;'>","null","","","","","","","","","",""
"","html-keyboard-response","161","587622","0.0-8.0-3.17","4d661end2v","many_one","0","indirect_first","0","er05us08","0","19","1","1","3","1","","0","1","0","1368.7549999449402","","","<img src = 'targets/mask.png' width = '100%;'>","68","neg","CS","CS","3","category3/CS7.png","targets/39.png","0","indirect","17",""
"","html-keyboard-response","162","589131","0.0-8.0-0.18","4d661end2v","many_one","0","indirect_first","0","er05us08","0","19","1","1","3","1","","0","1","0","null","","","<div style=""font-size:60px;"">+</div>","null","","","","","","","","","",""
"","html-keyboard-response","163","589223","0.0-8.0-1.18","4d661end2v","many_one","0","indirect_first","0","er05us08","0","19","1","1","3","1","","0","1","0","null","","","<img src = 'category3/CS6.png' width = '100%;'>","null","","","","","","","","","",""
"","html-keyboard-response","164","589485","0.0-8.0-2.18","4d661end2v","many_one","0","indirect_first","0","er05us08","0","19","1","1","3","1","","0","1","0","null","","","<img src = 'targets/21.png' width = '100%;'>","null","","","","","","","","","",""
"","html-keyboard-response","165","591474","0.0-8.0-3.18","4d661end2v","many_one","0","indirect_first","0","er05us08","0","19","1","1","3","1","","0","1","0","1987.4899999704212","","","<img src = 'targets/mask.png' width = '100%;'>","75","neg","GS","GSold","3","category3/CS6.png","targets/21.png","1","indirect","18",""
"","html-keyboard-response","166","592985","0.0-8.0-0.19","4d661end2v","many_one","0","indirect_first","0","er05us08","0","19","1","1","3","1","","0","1","0","null","","","<div style=""font-size:60px;"">+</div>","null","","","","","","","","","",""
"","html-keyboard-response","167","593081","0.0-8.0-1.19","4d661end2v","many_one","0","indirect_first","0","er05us08","0","19","1","1","3","1","","0","1","0","null","","","<img src = 'category2/CS1.png' width = '100%;'>","null","","","","","","","","","",""
"","html-keyboard-response","168","593336","0.0-8.0-2.19","4d661end2v","many_one","0","indirect_first","0","er05us08","0","19","1","1","3","1","","0","1","0","null","","","<img src = 'targets/12.png' width = '100%;'>","null","","","","","","","","","",""
"","html-keyboard-response","169","594542","0.0-8.0-3.19","4d661end2v","many_one","0","indirect_first","0","er05us08","0","19","1","1","3","1","","0","1","0","1205.0950000993907","","","<img src = 'targets/mask.png' width = '100%;'>","75","pos","CS","CS","2","category2/CS1.png","targets/12.png","1","indirect","19",""
"","html-keyboard-response","170","596049","0.0-8.0-0.20","4d661end2v","many_one","0","indirect_first","0","er05us08","0","19","1","1","3","1","","0","1","0","null","","","<div style=""font-size:60px;"">+</div>","null","","","","","","","","","",""
"","html-keyboard-response","171","596142","0.0-8.0-1.20","4d661end2v","many_one","0","indirect_first","0","er05us08","0","19","1","1","3","1","","0","1","0","null","","","<img src = 'category3/CS2.png' width = '100%;'>","null","","","","","","","","","",""
"","html-keyboard-response","172","596396","0.0-8.0-2.20","4d661end2v","many_one","0","indirect_first","0","er05us08","0","19","1","1","3","1","","0","1","0","null","","","<img src = 'targets/11.png' width = '100%;'>","null","","","","","","","","","",""
"","html-keyboard-response","173","597884","0.0-8.0-3.20","4d661end2v","many_one","0","indirect_first","0","er05us08","0","19","1","1","3","1","","0","1","0","1485.6300000101328","","","<img src = 'targets/mask.png' width = '100%;'>","75","neg","CS","CS","3","category3/CS2.png","targets/11.png","1","indirect","20",""
"","html-keyboard-response","174","599385","0.0-8.0-0.21","4d661end2v","many_one","0","indirect_first","0","er05us08","0","19","1","1","3","1","","0","1","0","null","","","<div style=""font-size:60px;"">+</div>","null","","","","","","","","","",""
"","html-keyboard-response","175","599482","0.0-8.0-1.21","4d661end2v","many_one","0","indirect_first","0","er05us08","0","19","1","1","3","1","","0","1","0","null","","","<img src = 'category1/CS7.png' width = '100%;'>","null","","","","","","","","","",""
"","html-keyboard-response","176","599740","0.0-8.0-2.21","4d661end2v","many_one","0","indirect_first","0","er05us08","0","19","1","1","3","1","","0","1","0","null","","","<img src = 'targets/45.png' width = '100%;'>","null","","","","","","","","","",""
"","html-keyboard-response","177","601477","0.0-8.0-3.21","4d661end2v","many_one","0","indirect_first","0","er05us08","0","19","1","1","3","1","","0","1","0","1735.3599998168647","","","<img src = 'targets/mask.png' width = '100%;'>","68","neg","CS","CS","1","category1/CS7.png","targets/45.png","0","indirect","21",""
"","html-keyboard-response","178","602986","0.0-8.0-0.22","4d661end2v","many_one","0","indirect_first","0","er05us08","0","19","1","1","3","1","","0","1","0","null","","","<div style=""font-size:60px;"">+</div>","null","","","","","","","","","",""
"","html-keyboard-response","179","603083","0.0-8.0-1.22","4d661end2v","many_one","0","indirect_first","0","er05us08","0","19","1","1","3","1","","0","1","0","null","","","<img src = 'category4/CS9.png' width = '100%;'>","null","","","","","","","","","",""
"","html-keyboard-response","180","603339","0.0-8.0-2.22","4d661end2v","many_one","0","indirect_first","0","er05us08","0","19","1","1","3","1","","0","1","0","null","","","<img src = 'targets/1.png' width = '100%;'>","null","","","","","","","","","",""
"","html-keyboard-response","181","606192","0.0-8.0-3.22","4d661end2v","many_one","0","indirect_first","0","er05us08","0","19","1","1","3","1","","0","1","0","2852.3450000211596","","","<img src = 'targets/mask.png' width = '100%;'>","68","pos","CS","CS","4","category4/CS9.png","targets/1.png","0","indirect","22",""
"","html-keyboard-response","182","607696","0.0-8.0-0.23","4d661end2v","many_one","0","indirect_first","0","er05us08","0","19","1","1","3","1","","0","1","0","null","","","<div style=""font-size:60px;"">+</div>","null","","","","","","","","","",""
"","html-keyboard-response","183","607792","0.0-8.0-1.23","4d661end2v","many_one","0","indirect_first","0","er05us08","0","19","1","1","3","1","","0","1","0","null","","","<img src = 'category4/CS6.png' width = '100%;'>","null","","","","","","","","","",""
"","html-keyboard-response","184","608054","0.0-8.0-2.23","4d661end2v","many_one","0","indirect_first","0","er05us08","0","19","1","1","3","1","","0","1","0","null","","","<img src = 'targets/43.png' width = '100%;'>","null","","","","","","","","","",""
"","html-keyboard-response","185","611852","0.0-8.0-3.23","4d661end2v","many_one","0","indirect_first","0","er05us08","0","19","1","1","3","1","","0","1","0","3795.5449998844415","","","<img src = 'targets/mask.png' width = '100%;'>","75","pos","CS","CS","4","category4/CS6.png","targets/43.png","1","indirect","23",""
"","survey-html-form","186","615134","0.0-9.0","4d661end2v","many_one","0","indirect_first","0","er05us08","0","19","1","1","3","1","","0","1","0","2781.0349999926984","","{}","","","","","","","","","","","",""
"","html-keyboard-response","187","618145","0.0-10.0-0.0","4d661end2v","many_one","0","indirect_first","0","er05us08","0","19","1","1","3","1","","0","1","0","null","","","<div style=""font-size:60px;"">+</div>","null","","","","","","","","","",""
"","html-keyboard-response","188","618238","0.0-10.0-1.0","4d661end2v","many_one","0","indirect_first","0","er05us08","0","19","1","1","3","1","","0","1","0","null","","","<img src = 'category1/CS2.png' width = '100%;'>","null","","","","","","","","","",""
"","html-keyboard-response","189","618494","0.0-10.0-2.0","4d661end2v","many_one","0","indirect_first","0","er05us08","0","19","1","1","3","1","","0","1","0","null","","","<img src = 'targets/31.png' width = '100%;'>","null","","","","","","","","","",""
"","html-keyboard-response","190","620965","0.0-10.0-3.0","4d661end2v","many_one","0","indirect_first","0","er05us08","0","19","1","1","3","1","","0","1","0","2468.4699999634176","","","<img src = 'targets/mask.png' width = '100%;'>","68","neg","GS","GSold","1","category1/CS2.png","targets/31.png","0","indirect","24",""
"","html-keyboard-response","191","622475","0.0-10.0-0.1","4d661end2v","many_one","0","indirect_first","0","er05us08","0","19","1","1","3","1","","0","1","0","null","","","<div style=""font-size:60px;"">+</div>","null","","","","","","","","","",""
"","html-keyboard-response","192","622566","0.0-10.0-1.1","4d661end2v","many_one","0","indirect_first","0","er05us08","0","19","1","1","3","1","","0","1","0","null","","","<img src = 'category4/lin.png' width = '100%;'>","null","","","","","","","","","",""
"","html-keyboard-response","193","622826","0.0-10.0-2.1","4d661end2v","many_one","0","indirect_first","0","er05us08","0","19","1","1","3","1","","0","1","0","null","","","<img src = 'targets/5.png' width = '100%;'>","null","","","","","","","","","",""
"","html-keyboard-response","194","624706","0.0-10.0-3.1","4d661end2v","many_one","0","indirect_first","0","er05us08","0","19","1","1","3","1","","0","1","0","1877.3700001183897","","","<img src = 'targets/mask.png' width = '100%;'>","75","pos","GS","abstract","4","category4/lin.png","targets/5.png","1","indirect","25",""
"","html-keyboard-response","195","626216","0.0-10.0-0.2","4d661end2v","many_one","0","indirect_first","0","er05us08","0","19","1","1","3","1","","0","1","0","null","","","<div style=""font-size:60px;"">+</div>","null","","","","","","","","","",""
"","html-keyboard-response","196","626312","0.0-10.0-1.2","4d661end2v","many_one","0","indirect_first","0","er05us08","0","19","1","1","3","1","","0","1","0","null","","","<img src = 'category3/wang.png' width = '100%;'>","null","","","","","","","","","",""
"","html-keyboard-response","197","626567","0.0-10.0-2.2","4d661end2v","many_one","0","indirect_first","0","er05us08","0","19","1","1","3","1","","0","1","0","null","","","<img src = 'targets/41.png' width = '100%;'>","null","","","","","","","","","",""
"","html-keyboard-response","198","629793","0.0-10.0-3.2","4d661end2v","many_one","0","indirect_first","0","er05us08","0","19","1","1","3","1","","0","1","0","3224.225000012666","","","<img src = 'targets/mask.png' width = '100%;'>","75","neg","GS","abstract","3","category3/wang.png","targets/41.png","1","indirect","26",""
"","html-keyboard-response","199","631298","0.0-10.0-0.3","4d661end2v","many_one","0","indirect_first","0","er05us08","0","19","1","1","3","1","","0","1","0","null","","","<div style=""font-size:60px;"">+</div>","null","","","","","","","","","",""
"","html-keyboard-response","200","631389","0.0-10.0-1.3","4d661end2v","many_one","0","indirect_first","0","er05us08","0","19","1","1","3","1","","0","1","0","null","","","<img src = 'category3/GS1.png' width = '100%;'>","null","","","","","","","","","",""
"","html-keyboard-response","201","631649","0.0-10.0-2.3","4d661end2v","many_one","0","indirect_first","0","er05us08","0","19","1","1","3","1","","0","1","0","null","","","<img src = 'targets/30.png' width = '100%;'>","null","","","","","","","","","",""
"","html-keyboard-response","202","634323","0.0-10.0-3.3","4d661end2v","many_one","0","indirect_first","0","er05us08","0","19","1","1","3","1","","0","1","0","2671.5450000483543","","","<img src = 'targets/mask.png' width = '100%;'>","68","neg","GS","GSnew","3","category3/GS1.png","targets/30.png","0","indirect","27",""
"","html-keyboard-response","203","635829","0.0-10.0-0.4","4d661end2v","many_one","0","indirect_first","0","er05us08","0","19","1","1","3","1","","0","1","0","null","","","<div style=""font-size:60px;"">+</div>","null","","","","","","","","","",""
"","html-keyboard-response","204","635924","0.0-10.0-1.4","4d661end2v","many_one","0","indirect_first","0","er05us08","0","19","1","1","3","1","","0","1","0","null","","","<img src = 'category3/GS3.png' width = '100%;'>","null","","","","","","","","","",""
"","html-keyboard-response","205","636186","0.0-10.0-2.4","4d661end2v","many_one","0","indirect_first","0","er05us08","0","19","1","1","3","1","","0","1","0","null","","","<img src = 'targets/16.png' width = '100%;'>","null","","","","","","","","","",""
"","html-keyboard-response","206","638040","0.0-10.0-3.4","4d661end2v","many_one","0","indirect_first","0","er05us08","0","19","1","1","3","1","","0","1","0","1851.7599999904633","","","<img src = 'targets/mask.png' width = '100%;'>","68","neg","GS","GSnew","3","category3/GS3.png","targets/16.png","0","indirect","28",""
"","html-keyboard-response","207","639546","0.0-10.0-0.5","4d661end2v","many_one","0","indirect_first","0","er05us08","0","19","1","1","3","1","","0","1","0","null","","","<div style=""font-size:60px;"">+</div>","null","","","","","","","","","",""
"","html-keyboard-response","208","639639","0.0-10.0-1.5","4d661end2v","many_one","0","indirect_first","0","er05us08","0","19","1","1","3","1","","0","1","0","null","","","<img src = 'category4/GS3.png' width = '100%;'>","null","","","","","","","","","",""
"","html-keyboard-response","209","639896","0.0-10.0-2.5","4d661end2v","many_one","0","indirect_first","0","er05us08","0","19","1","1","3","1","","0","1","0","null","","","<img src = 'targets/4.png' width = '100%;'>","null","","","","","","","","","",""
"","html-keyboard-response","210","641240","0.0-10.0-3.5","4d661end2v","many_one","0","indirect_first","0","er05us08","0","19","1","1","3","1","","0","1","0","1341.5749999694526","","","<img src = 'targets/mask.png' width = '100%;'>","68","pos","GS","GSnew","4","category4/GS3.png","targets/4.png","0","indirect","29",""
"","html-keyboard-response","211","642746","0.0-10.0-0.6","4d661end2v","many_one","0","indirect_first","0","er05us08","0","19","1","1","3","1","","0","1","0","null","","","<div style=""font-size:60px;"">+</div>","null","","","","","","","","","",""
"","html-keyboard-response","212","642839","0.0-10.0-1.6","4d661end2v","many_one","0","indirect_first","0","er05us08","0","19","1","1","3","1","","0","1","0","null","","","<img src = 'category1/GS3.png' width = '100%;'>","null","","","","","","","","","",""
"","html-keyboard-response","213","643096","0.0-10.0-2.6","4d661end2v","many_one","0","indirect_first","0","er05us08","0","19","1","1","3","1","","0","1","0","null","","","<img src = 'targets/47.png' width = '100%;'>","null","","","","","","","","","",""
"","html-keyboard-response","214","646343","0.0-10.0-3.6","4d661end2v","many_one","0","indirect_first","0","er05us08","0","19","1","1","3","1","","0","1","0","3245.9849999286234","","","<img src = 'targets/mask.png' width = '100%;'>","68","neg","GS","GSnew","1","category1/GS3.png","targets/47.png","0","indirect","30",""
"","html-keyboard-response","215","647854","0.0-10.0-0.7","4d661end2v","many_one","0","indirect_first","0","er05us08","0","19","1","1","3","1","","0","1","0","null","","","<div style=""font-size:60px;"">+</div>","null","","","","","","","","","",""
"","html-keyboard-response","216","647946","0.0-10.0-1.7","4d661end2v","many_one","0","indirect_first","0","er05us08","0","19","1","1","3","1","","0","1","0","null","","","<img src = 'category4/CS7.png' width = '100%;'>","null","","","","","","","","","",""
"","html-keyboard-response","217","648206","0.0-10.0-2.7","4d661end2v","many_one","0","indirect_first","0","er05us08","0","19","1","1","3","1","","0","1","0","null","","","<img src = 'targets/33.png' width = '100%;'>","null","","","","","","","","","",""
"","html-keyboard-response","218","649334","0.0-10.0-3.7","4d661end2v","many_one","0","indirect_first","0","er05us08","0","19","1","1","3","1","","0","1","0","1126.2799999676645","","","<img src = 'targets/mask.png' width = '100%;'>","75","pos","GS","GSold","4","category4/CS7.png","targets/33.png","1","indirect","31",""
"","html-keyboard-response","219","650839","0.0-10.0-0.8","4d661end2v","many_one","0","indirect_first","0","er05us08","0","19","1","1","3","1","","0","1","0","null","","","<div style=""font-size:60px;"">+</div>","null","","","","","","","","","",""
"","html-keyboard-response","220","650935","0.0-10.0-1.8","4d661end2v","many_one","0","indirect_first","0","er05us08","0","19","1","1","3","1","","0","1","0","null","","","<img src = 'category1/CS1.png' width = '100%;'>","null","","","","","","","","","",""
"","html-keyboard-response","221","651195","0.0-10.0-2.8","4d661end2v","many_one","0","indirect_first","0","er05us08","0","19","1","1","3","1","","0","1","0","null","","","<img src = 'targets/40.png' width = '100%;'>","null","","","","","","","","","",""
"","html-keyboard-response","222","652223","0.0-10.0-3.8","4d661end2v","many_one","0","indirect_first","0","er05us08","0","19","1","1","3","1","","0","1","0","1026.2549999170005","","","<img src = 'targets/mask.png' width = '100%;'>","75","neg","GS","GSold","1","category1/CS1.png","targets/40.png","1","indirect","32",""
"","html-keyboard-response","223","653734","0.0-10.0-0.9","4d661end2v","many_one","0","indirect_first","0","er05us08","0","19","1","1","3","1","","0","1","0","null","","","<div style=""font-size:60px;"">+</div>","null","","","","","","","","","",""
"","html-keyboard-response","224","653830","0.0-10.0-1.9","4d661end2v","many_one","0","indirect_first","0","er05us08","0","19","1","1","3","1","","0","1","0","null","","","<img src = 'category4/GS2.png' width = '100%;'>","null","","","","","","","","","",""
"","html-keyboard-response","225","654088","0.0-10.0-2.9","4d661end2v","many_one","0","indirect_first","0","er05us08","0","19","1","1","3","1","","0","1","0","null","","","<img src = 'targets/32.png' width = '100%;'>","null","","","","","","","","","",""
"","html-keyboard-response","226","656578","0.0-10.0-3.9","4d661end2v","many_one","0","indirect_first","0","er05us08","0","19","1","1","3","1","","0","1","0","2489.079999970272","","","<img src = 'targets/mask.png' width = '100%;'>","75","pos","GS","GSnew","4","category4/GS2.png","targets/32.png","1","indirect","33",""
"","html-keyboard-response","227","658088","0.0-10.0-0.10","4d661end2v","many_one","0","indirect_first","0","er05us08","0","19","1","1","3","1","","0","1","0","null","","","<div style=""font-size:60px;"">+</div>","null","","","","","","","","","",""
"","html-keyboard-response","228","658184","0.0-10.0-1.10","4d661end2v","many_one","0","indirect_first","0","er05us08","0","19","1","1","3","1","","0","1","0","null","","","<img src = 'category2/GS1.png' width = '100%;'>","null","","","","","","","","","",""
"","html-keyboard-response","229","658446","0.0-10.0-2.10","4d661end2v","many_one","0","indirect_first","0","er05us08","0","19","1","1","3","1","","0","1","0","null","","","<img src = 'targets/37.png' width = '100%;'>","null","","","","","","","","","",""
"","html-keyboard-response","230","660573","0.0-10.0-3.10","4d661end2v","many_one","0","indirect_first","0","er05us08","0","19","1","1","3","1","","0","1","0","2125.7199998945","","","<img src = 'targets/mask.png' width = '100%;'>","68","pos","GS","GSnew","2","category2/GS1.png","targets/37.png","0","indirect","34",""
"","html-keyboard-response","231","662084","0.0-10.0-0.11","4d661end2v","many_one","0","indirect_first","0","er05us08","0","19","1","1","3","1","","0","1","0","null","","","<div style=""font-size:60px;"">+</div>","null","","","","","","","","","",""
"","html-keyboard-response","232","662181","0.0-10.0-1.11","4d661end2v","many_one","0","indirect_first","0","er05us08","0","19","1","1","3","1","","0","1","0","null","","","<img src = 'category2/GS2.png' width = '100%;'>","null","","","","","","","","","",""
"","html-keyboard-response","233","662436","0.0-10.0-2.11","4d661end2v","many_one","0","indirect_first","0","er05us08","0","19","1","1","3","1","","0","1","0","null","","","<img src = 'targets/24.png' width = '100%;'>","null","","","","","","","","","",""
"","html-keyboard-response","234","664705","0.0-10.0-3.11","4d661end2v","many_one","0","indirect_first","0","er05us08","0","19","1","1","3","1","","0","1","0","2266.889999853447","","","<img src = 'targets/mask.png' width = '100%;'>","68","pos","GS","GSnew","2","category2/GS2.png","targets/24.png","0","indirect","35",""
"","html-keyboard-response","235","666216","0.0-10.0-0.12","4d661end2v","many_one","0","indirect_first","0","er05us08","0","19","1","1","3","1","","0","1","0","null","","","<div style=""font-size:60px;"">+</div>","null","","","","","","","","","",""
"","html-keyboard-response","236","666312","0.0-10.0-1.12","4d661end2v","many_one","0","indirect_first","0","er05us08","0","19","1","1","3","1","","0","1","0","null","","","<img src = 'category4/GS1.png' width = '100%;'>","null","","","","","","","","","",""
"","html-keyboard-response","237","666566","0.0-10.0-2.12","4d661end2v","many_one","0","indirect_first","0","er05us08","0","19","1","1","3","1","","0","1","0","null","","","<img src = 'targets/34.png' width = '100%;'>","null","","","","","","","","","",""
"","html-keyboard-response","238","670848","0.0-10.0-3.12","4d661end2v","many_one","0","indirect_first","0","er05us08","0","19","1","1","3","1","","0","1","0","4281.015000073239","","","<img src = 'targets/mask.png' width = '100%;'>","75","pos","GS","GSnew","4","category4/GS1.png","targets/34.png","1","indirect","36",""
"","html-keyboard-response","239","672360","0.0-10.0-0.13","4d661end2v","many_one","0","indirect_first","0","er05us08","0","19","1","1","3","1","","0","1","0","null","","","<div style=""font-size:60px;"">+</div>","null","","","","","","","","","",""
"","html-keyboard-response","240","672454","0.0-10.0-1.13","4d661end2v","many_one","0","indirect_first","0","er05us08","0","19","1","1","3","1","","0","1","0","null","","","<img src = 'category4/CS8.png' width = '100%;'>","null","","","","","","","","","",""
"","html-keyboard-response","241","672714","0.0-10.0-2.13","4d661end2v","many_one","0","indirect_first","0","er05us08","0","19","1","1","3","1","","0","1","0","null","","","<img src = 'targets/35.png' width = '100%;'>","null","","","","","","","","","",""
"","html-keyboard-response","242","674722","0.0-10.0-3.13","4d661end2v","many_one","0","indirect_first","0","er05us08","0","19","1","1","3","1","","0","1","0","2005.97000005655","","","<img src = 'targets/mask.png' width = '100%;'>","75","pos","GS","GSold","4","category4/CS8.png","targets/35.png","1","indirect","37",""
"","html-keyboard-response","243","676233","0.0-10.0-0.14","4d661end2v","many_one","0","indirect_first","0","er05us08","0","19","1","1","3","1","","0","1","0","null","","","<div style=""font-size:60px;"">+</div>","null","","","","","","","","","",""
"","html-keyboard-response","244","676325","0.0-10.0-1.14","4d661end2v","many_one","0","indirect_first","0","er05us08","0","19","1","1","3","1","","0","1","0","null","","","<img src = 'category2/men.png' width = '100%;'>","null","","","","","","","","","",""
"","html-keyboard-response","245","676581","0.0-10.0-2.14","4d661end2v","many_one","0","indirect_first","0","er05us08","0","19","1","1","3","1","","0","1","0","null","","","<img src = 'targets/38.png' width = '100%;'>","null","","","","","","","","","",""
"","html-keyboard-response","246","678975","0.0-10.0-3.14","4d661end2v","many_one","0","indirect_first","0","er05us08","0","19","1","1","3","1","","0","1","0","2393.204999854788","","","<img src = 'targets/mask.png' width = '100%;'>","68","pos","GS","abstract","2","category2/men.png","targets/38.png","0","indirect","38",""
"","html-keyboard-response","247","680487","0.0-10.0-0.15","4d661end2v","many_one","0","indirect_first","0","er05us08","0","19","1","1","3","1","","0","1","0","null","","","<div style=""font-size:60px;"">+</div>","null","","","","","","","","","",""
"","html-keyboard-response","248","680579","0.0-10.0-1.15","4d661end2v","many_one","0","indirect_first","0","er05us08","0","19","1","1","3","1","","0","1","0","null","","","<img src = 'category1/CS3.png' width = '100%;'>","null","","","","","","","","","",""
"","html-keyboard-response","249","680839","0.0-10.0-2.15","4d661end2v","many_one","0","indirect_first","0","er05us08","0","19","1","1","3","1","","0","1","0","null","","","<img src = 'targets/44.png' width = '100%;'>","null","","","","","","","","","",""
"","html-keyboard-response","250","683766","0.0-10.0-3.15","4d661end2v","many_one","0","indirect_first","0","er05us08","0","19","1","1","3","1","","0","1","0","2925.455000018701","","","<img src = 'targets/mask.png' width = '100%;'>","75","neg","GS","GSold","1","category1/CS3.png","targets/44.png","1","indirect","39",""
"","html-keyboard-response","251","685270","0.0-10.0-0.16","4d661end2v","many_one","0","indirect_first","0","er05us08","0","19","1","1","3","1","","0","1","0","null","","","<div style=""font-size:60px;"">+</div>","null","","","","","","","","","",""
"","html-keyboard-response","252","685367","0.0-10.0-1.16","4d661end2v","many_one","0","indirect_first","0","er05us08","0","19","1","1","3","1","","0","1","0","null","","","<img src = 'category2/GS3.png' width = '100%;'>","null","","","","","","","","","",""
"","html-keyboard-response","253","685628","0.0-10.0-2.16","4d661end2v","many_one","0","indirect_first","0","er05us08","0","19","1","1","3","1","","0","1","0","null","","","<img src = 'targets/29.png' width = '100%;'>","null","","","","","","","","","",""
"","html-keyboard-response","254","687138","0.0-10.0-3.16","4d661end2v","many_one","0","indirect_first","0","er05us08","0","19","1","1","3","1","","0","1","0","1507.949999999255","","","<img src = 'targets/mask.png' width = '100%;'>","75","pos","GS","GSnew","2","category2/GS3.png","targets/29.png","1","indirect","40",""
"","html-keyboard-response","255","688645","0.0-10.0-0.17","4d661end2v","many_one","0","indirect_first","0","er05us08","0","19","1","1","3","1","","0","1","0","null","","","<div style=""font-size:60px;"">+</div>","null","","","","","","","","","",""
"","html-keyboard-response","256","688739","0.0-10.0-1.17","4d661end2v","many_one","0","indirect_first","0","er05us08","0","19","1","1","3","1","","0","1","0","null","","","<img src = 'category1/GS2.png' width = '100%;'>","null","","","","","","","","","",""
"","html-keyboard-response","257","689001","0.0-10.0-2.17","4d661end2v","many_one","0","indirect_first","0","er05us08","0","19","1","1","3","1","","0","1","0","null","","","<img src = 'targets/26.png' width = '100%;'>","null","","","","","","","","","",""
"","html-keyboard-response","258","693896","0.0-10.0-3.17","4d661end2v","many_one","0","indirect_first","0","er05us08","0","19","1","1","3","1","","0","1","0","4893.69500009343","","","<img src = 'targets/mask.png' width = '100%;'>","68","neg","GS","GSnew","1","category1/GS2.png","targets/26.png","0","indirect","41",""
"","html-keyboard-response","259","695403","0.0-10.0-0.18","4d661end2v","many_one","0","indirect_first","0","er05us08","0","19","1","1","3","1","","0","1","0","null","","","<div style=""font-size:60px;"">+</div>","null","","","","","","","","","",""
"","html-keyboard-response","260","695499","0.0-10.0-1.18","4d661end2v","many_one","0","indirect_first","0","er05us08","0","19","1","1","3","1","","0","1","0","null","","","<img src = 'category2/CS6.png' width = '100%;'>","null","","","","","","","","","",""
"","html-keyboard-response","261","695761","0.0-10.0-2.18","4d661end2v","many_one","0","indirect_first","0","er05us08","0","19","1","1","3","1","","0","1","0","null","","","<img src = 'targets/28.png' width = '100%;'>","null","","","","","","","","","",""
"","html-keyboard-response","262","697481","0.0-10.0-3.18","4d661end2v","many_one","0","indirect_first","0","er05us08","0","19","1","1","3","1","","0","1","0","1718.4499998111278","","","<img src = 'targets/mask.png' width = '100%;'>","68","pos","GS","GSold","2","category2/CS6.png","targets/28.png","0","indirect","42",""
"","html-keyboard-response","263","698990","0.0-10.0-0.19","4d661end2v","many_one","0","indirect_first","0","er05us08","0","19","1","1","3","1","","0","1","0","null","","","<div style=""font-size:60px;"">+</div>","null","","","","","","","","","",""
"","html-keyboard-response","264","699086","0.0-10.0-1.19","4d661end2v","many_one","0","indirect_first","0","er05us08","0","19","1","1","3","1","","0","1","0","null","","","<img src = 'category2/CS3.png' width = '100%;'>","null","","","","","","","","","",""
"","html-keyboard-response","265","699344","0.0-10.0-2.19","4d661end2v","many_one","0","indirect_first","0","er05us08","0","19","1","1","3","1","","0","1","0","null","","","<img src = 'targets/14.png' width = '100%;'>","null","","","","","","","","","",""
"","html-keyboard-response","266","701042","0.0-10.0-3.19","4d661end2v","many_one","0","indirect_first","0","er05us08","0","19","1","1","3","1","","0","1","0","1696.0299999918789","","","<img src = 'targets/mask.png' width = '100%;'>","68","pos","GS","GSold","2","category2/CS3.png","targets/14.png","0","indirect","43",""
"","html-keyboard-response","267","702553","0.0-10.0-0.20","4d661end2v","many_one","0","indirect_first","0","er05us08","0","19","1","1","3","1","","0","1","0","null","","","<div style=""font-size:60px;"">+</div>","null","","","","","","","","","",""
"","html-keyboard-response","268","702648","0.0-10.0-1.20","4d661end2v","many_one","0","indirect_first","0","er05us08","0","19","1","1","3","1","","0","1","0","null","","","<img src = 'category1/GS1.png' width = '100%;'>","null","","","","","","","","","",""
"","html-keyboard-response","269","702904","0.0-10.0-2.20","4d661end2v","many_one","0","indirect_first","0","er05us08","0","19","1","1","3","1","","0","1","0","null","","","<img src = 'targets/8.png' width = '100%;'>","null","","","","","","","","","",""
"","html-keyboard-response","270","704531","0.0-10.0-3.20","4d661end2v","many_one","0","indirect_first","0","er05us08","0","19","1","1","3","1","","0","1","0","1625.8549999911338","","","<img src = 'targets/mask.png' width = '100%;'>","68","neg","GS","GSnew","1","category1/GS1.png","targets/8.png","0","indirect","44",""
"","html-keyboard-response","271","706040","0.0-10.0-0.21","4d661end2v","many_one","0","indirect_first","0","er05us08","0","19","1","1","3","1","","0","1","0","null","","","<div style=""font-size:60px;"">+</div>","null","","","","","","","","","",""
"","html-keyboard-response","272","706136","0.0-10.0-1.21","4d661end2v","many_one","0","indirect_first","0","er05us08","0","19","1","1","3","1","","0","1","0","null","","","<img src = 'category3/GS2.png' width = '100%;'>","null","","","","","","","","","",""
"","html-keyboard-response","273","706397","0.0-10.0-2.21","4d661end2v","many_one","0","indirect_first","0","er05us08","0","19","1","1","3","1","","0","1","0","null","","","<img src = 'targets/7.png' width = '100%;'>","null","","","","","","","","","",""
"","html-keyboard-response","274","707529","0.0-10.0-3.21","4d661end2v","many_one","0","indirect_first","0","er05us08","0","19","1","1","3","1","","0","1","0","1131.3449998851866","","","<img src = 'targets/mask.png' width = '100%;'>","68","neg","GS","GSnew","3","category3/GS2.png","targets/7.png","0","indirect","45",""
"","html-keyboard-response","275","709040","0.0-10.0-0.22","4d661end2v","many_one","0","indirect_first","0","er05us08","0","19","1","1","3","1","","0","1","0","null","","","<div style=""font-size:60px;"">+</div>","null","","","","","","","","","",""
"","html-keyboard-response","276","709131","0.0-10.0-1.22","4d661end2v","many_one","0","indirect_first","0","er05us08","0","19","1","1","3","1","","0","1","0","null","","","<img src = 'category1/ma.png' width = '100%;'>","null","","","","","","","","","",""
"","html-keyboard-response","277","709393","0.0-10.0-2.22","4d661end2v","many_one","0","indirect_first","0","er05us08","0","19","1","1","3","1","","0","1","0","null","","","<img src = 'targets/48.png' width = '100%;'>","null","","","","","","","","","",""
"","html-keyboard-response","278","711041","0.0-10.0-3.22","4d661end2v","many_one","0","indirect_first","0","er05us08","0","19","1","1","3","1","","0","1","0","1646.7349999584258","","","<img src = 'targets/mask.png' width = '100%;'>","68","neg","GS","abstract","1","category1/ma.png","targets/48.png","0","indirect","46",""
"","html-keyboard-response","279","712552","0.0-10.0-0.23","4d661end2v","many_one","0","indirect_first","0","er05us08","0","19","1","1","3","1","","0","1","0","null","","","<div style=""font-size:60px;"">+</div>","null","","","","","","","","","",""
"","html-keyboard-response","280","712644","0.0-10.0-1.23","4d661end2v","many_one","0","indirect_first","0","er05us08","0","19","1","1","3","1","","0","1","0","null","","","<img src = 'category4/CS3.png' width = '100%;'>","null","","","","","","","","","",""
"","html-keyboard-response","281","712896","0.0-10.0-2.23","4d661end2v","many_one","0","indirect_first","0","er05us08","0","19","1","1","3","1","","0","1","0","null","","","<img src = 'targets/13.png' width = '100%;'>","null","","","","","","","","","",""
"","html-keyboard-response","282","716879","0.0-10.0-3.23","4d661end2v","many_one","0","indirect_first","0","er05us08","0","19","1","1","3","1","","0","1","0","3981.260000029579","","","<img src = 'targets/mask.png' width = '100%;'>","75","pos","GS","GSold","4","category4/CS3.png","targets/13.png","1","indirect","47",""
"","survey-html-form","283","723269","0.0-11.0","4d661end2v","many_one","0","indirect_first","0","er05us08","0","19","1","1","3","1","","0","1","0","5883.974999887869","","{}","","","","","","","","","","","",""
"","image-slider-response","284","748179","0.0-12.0-0.0","4d661end2v","many_one","0","indirect_first","0","er05us08","0","19","1","1","3","1","","0","1","0","22902.964999899268","","","","","pos","GS","GSnew","4","category4/GS2.png","targets/32.png","","direct","","31"
"","image-slider-response","285","756427","0.0-12.0-0.1","4d661end2v","many_one","0","indirect_first","0","er05us08","0","19","1","1","3","1","","0","1","0","8245.224999962375","","","","","pos","GS","GSold","2","category2/CS3.png","targets/14.png","","direct","","-17"
"","image-slider-response","286","763464","0.0-12.0-0.2","4d661end2v","many_one","0","indirect_first","0","er05us08","0","19","1","1","3","1","","0","1","0","7034.375000046566","","","","","neg","GS","GSold","3","category3/CS5.png","targets/10.png","","direct","","-68"
"","image-slider-response","287","773679","0.0-12.0-0.3","4d661end2v","many_one","0","indirect_first","0","er05us08","0","19","1","1","3","1","","0","1","0","10212.664999999106","","","","","pos","GS","GSold","4","category4/CS7.png","targets/33.png","","direct","","-42"
"","image-slider-response","288","779042","0.0-12.0-0.4","4d661end2v","many_one","0","indirect_first","0","er05us08","0","19","1","1","3","1","","0","1","0","5360.704999882728","","","","","neg","GS","GSold","3","category3/CS3.png","targets/9.png","","direct","","-60"
"","image-slider-response","289","785113","0.0-12.0-0.5","4d661end2v","many_one","0","indirect_first","0","er05us08","0","19","1","1","3","1","","0","1","0","6068.194999825209","","","","","neg","GS","GSnew","1","category1/GS2.png","targets/26.png","","direct","","-2"
"","image-slider-response","290","789379","0.0-12.0-0.6","4d661end2v","many_one","0","indirect_first","0","er05us08","0","19","1","1","3","1","","0","1","0","4263.995000161231","","","","","neg","CS","CS","3","category3/CS9.png","targets/46.png","","direct","","-56"
"","image-slider-response","291","795929","0.0-12.0-0.7","4d661end2v","many_one","0","indirect_first","0","er05us08","0","19","1","1","3","1","","0","1","0","6547.544999979436","","","","","pos","CS","CS","2","category2/CS7.png","targets/15.png","","direct","","1"
"","image-slider-response","292","801795","0.0-12.0-0.8","4d661end2v","many_one","0","indirect_first","0","er05us08","0","19","1","1","3","1","","0","1","0","5861.649999860674","","","","","pos","CS","CS","4","category4/CS6.png","targets/43.png","","direct","","-36"
"","image-slider-response","293","809734","0.0-12.0-0.9","4d661end2v","many_one","0","indirect_first","0","er05us08","0","19","1","1","3","1","","0","1","0","7936.8749998975545","","","","","pos","CS","CS","4","category4/CS5.png","targets/6.png","","direct","","16"
"","image-slider-response","294","815398","0.0-12.0-0.10","4d661end2v","many_one","0","indirect_first","0","er05us08","0","19","1","1","3","1","","0","1","0","5661.665000021458","","","","","pos","CS","CS","2","category2/CS2.png","targets/23.png","","direct","","-1"
"","image-slider-response","295","820956","0.0-12.0-0.11","4d661end2v","many_one","0","indirect_first","0","er05us08","0","19","1","1","3","1","","0","1","0","5555.310000199825","","","","","neg","GS","GSnew","3","category3/GS3.png","targets/16.png","","direct","","-62"
"","image-slider-response","296","826385","0.0-12.0-0.12","4d661end2v","many_one","0","indirect_first","0","er05us08","0","19","1","1","3","1","","0","1","0","5426.035000011325","","","","","neg","GS","GSnew","3","category3/GS1.png","targets/30.png","","direct","","-72"
"","image-slider-response","297","830433","0.0-12.0-0.13","4d661end2v","many_one","0","indirect_first","0","er05us08","0","19","1","1","3","1","","0","1","0","4044.4199999328703","","","","","neg","CS","CS","3","category3/CS2.png","targets/11.png","","direct","","-67"
"","image-slider-response","298","833763","0.0-12.0-0.14","4d661end2v","many_one","0","indirect_first","0","er05us08","0","19","1","1","3","1","","0","1","0","3328.010000055656","","","","","pos","GS","GSnew","2","category2/GS3.png","targets/29.png","","direct","","-67"
"","image-slider-response","299","839037","0.0-12.0-0.15","4d661end2v","many_one","0","indirect_first","0","er05us08","0","19","1","1","3","1","","0","1","0","5271.2400001473725","","","","","pos","CS","CS","2","category2/CS10.png","targets/36.png","","direct","","100"
"","image-slider-response","300","843180","0.0-12.0-0.16","4d661end2v","many_one","0","indirect_first","0","er05us08","0","19","1","1","3","1","","0","1","0","4140.274999896064","","","","","pos","GS","GSold","4","category4/CS3.png","targets/13.png","","direct","","-61"
"","image-slider-response","301","846798","0.0-12.0-0.17","4d661end2v","many_one","0","indirect_first","0","er05us08","0","19","1","1","3","1","","0","1","0","3616.5299999993294","","","","","pos","GS","abstract","2","category2/men.png","targets/38.png","","direct","","-100"
"","image-slider-response","302","856126","0.0-12.0-0.18","4d661end2v","many_one","0","indirect_first","0","er05us08","0","19","1","1","3","1","","0","1","0","9326.099999947473","","","","","pos","GS","GSold","4","category4/CS8.png","targets/35.png","","direct","","1"
"","image-slider-response","303","859710","0.0-12.0-0.19","4d661end2v","many_one","0","indirect_first","0","er05us08","0","19","1","1","3","1","","0","1","0","3581.514999968931","","","","","neg","CS","CS","3","category3/CS7.png","targets/39.png","","direct","","-69"
"","image-slider-response","304","864131","0.0-12.0-0.20","4d661end2v","many_one","0","indirect_first","0","er05us08","0","19","1","1","3","1","","0","1","0","4418.610000051558","","","","","pos","CS","CS","2","category2/CS8.png","targets/19.png","","direct","","-90"
"","image-slider-response","305","867138","0.0-12.0-0.21","4d661end2v","many_one","0","indirect_first","0","er05us08","0","19","1","1","3","1","","0","1","0","3004.33999998495","","","","","neg","CS","CS","1","category1/CS10.png","targets/27.png","","direct","","-24"
"","image-slider-response","306","870819","0.0-12.0-0.22","4d661end2v","many_one","0","indirect_first","0","er05us08","0","19","1","1","3","1","","0","1","0","3678.3599997870624","","","","","pos","CS","CS","4","category4/CS4.png","targets/18.png","","direct","","70"
"","image-slider-response","307","874930","0.0-12.0-0.23","4d661end2v","many_one","0","indirect_first","0","er05us08","0","19","1","1","3","1","","0","1","0","4109.12000015378","","","","","neg","GS","abstract","1","category1/ma.png","targets/48.png","","direct","","37"
"","image-slider-response","308","878059","0.0-12.0-0.24","4d661end2v","many_one","0","indirect_first","0","er05us08","0","19","1","1","3","1","","0","1","0","3126.494999974966","","","","","neg","GS","abstract","3","category3/wang.png","targets/41.png","","direct","","-100"
"","image-slider-response","309","883122","0.0-12.0-0.25","4d661end2v","many_one","0","indirect_first","0","er05us08","0","19","1","1","3","1","","0","1","0","5060.850000008941","","","","","pos","GS","GSnew","2","category2/GS2.png","targets/24.png","","direct","","-70"
"","image-slider-response","310","890476","0.0-12.0-0.26","4d661end2v","many_one","0","indirect_first","0","er05us08","0","19","1","1","3","1","","0","1","0","7351.860000053421","","","","","pos","GS","GSnew","4","category4/GS1.png","targets/34.png","","direct","","31"
"","image-slider-response","311","894091","0.0-12.0-0.27","4d661end2v","many_one","0","indirect_first","0","er05us08","0","19","1","1","3","1","","0","1","0","3612.584999995306","","","","","pos","CS","CS","4","category4/CS2.png","targets/22.png","","direct","","-45"
"","image-slider-response","312","899968","0.0-12.0-0.28","4d661end2v","many_one","0","indirect_first","0","er05us08","0","19","1","1","3","1","","0","1","0","5875.639999983832","","","","","neg","GS","GSnew","1","category1/GS1.png","targets/8.png","","direct","","3"
"","image-slider-response","313","902755","0.0-12.0-0.29","4d661end2v","many_one","0","indirect_first","0","er05us08","0","19","1","1","3","1","","0","1","0","2784.6049999352545","","","","","neg","GS","GSnew","3","category3/GS2.png","targets/7.png","","direct","","-73"
"","image-slider-response","314","908581","0.0-12.0-0.30","4d661end2v","many_one","0","indirect_first","0","er05us08","0","19","1","1","3","1","","0","1","0","5824.305000016466","","","","","neg","CS","CS","1","category1/CS5.png","targets/3.png","","direct","","23"
"","image-slider-response","315","912442","0.0-12.0-0.31","4d661end2v","many_one","0","indirect_first","0","er05us08","0","19","1","1","3","1","","0","1","0","3857.429999858141","","","","","neg","GS","GSold","1","category1/CS3.png","targets/44.png","","direct","","6"
"","image-slider-response","316","918203","0.0-12.0-0.32","4d661end2v","many_one","0","indirect_first","0","er05us08","0","19","1","1","3","1","","0","1","0","5760.0600000005215","","","","","neg","CS","CS","3","category3/CS8.png","targets/25.png","","direct","","-81"
"","image-slider-response","317","921779","0.0-12.0-0.33","4d661end2v","many_one","0","indirect_first","0","er05us08","0","19","1","1","3","1","","0","1","0","3573.1500000692904","","","","","neg","CS","CS","3","category3/CS10.png","targets/17.png","","direct","","-66"
"","image-slider-response","318","925159","0.0-12.0-0.34","4d661end2v","many_one","0","indirect_first","0","er05us08","0","19","1","1","3","1","","0","1","0","3378.044999903068","","","","","neg","GS","GSnew","1","category1/GS3.png","targets/47.png","","direct","","-23"
"","image-slider-response","319","928491","0.0-12.0-0.35","4d661end2v","many_one","0","indirect_first","0","er05us08","0","19","1","1","3","1","","0","1","0","3329.3749999720603","","","","","pos","GS","GSnew","4","category4/GS3.png","targets/4.png","","direct","","8"
"","image-slider-response","320","931823","0.0-12.0-0.36","4d661end2v","many_one","0","indirect_first","0","er05us08","0","19","1","1","3","1","","0","1","0","3329.829999944195","","","","","neg","GS","GSold","1","category1/CS1.png","targets/40.png","","direct","","-71"
"","image-slider-response","321","934415","0.0-12.0-0.37","4d661end2v","many_one","0","indirect_first","0","er05us08","0","19","1","1","3","1","","0","1","0","2589.715000009164","","","","","pos","GS","GSnew","2","category2/GS1.png","targets/37.png","","direct","","-65"
"","image-slider-response","322","939021","0.0-12.0-0.38","4d661end2v","many_one","0","indirect_first","0","er05us08","0","19","1","1","3","1","","0","1","0","4604.079999960959","","","","","neg","GS","GSold","1","category1/CS2.png","targets/31.png","","direct","","-34"
"","image-slider-response","323","943606","0.0-12.0-0.39","4d661end2v","many_one","0","indirect_first","0","er05us08","0","19","1","1","3","1","","0","1","0","4583.6799999233335","","","","","pos","GS","abstract","4","category4/lin.png","targets/5.png","","direct","","-39"
"","image-slider-response","324","947036","0.0-12.0-0.40","4d661end2v","many_one","0","indirect_first","0","er05us08","0","19","1","1","3","1","","0","1","0","3426.9699999131262","","","","","neg","GS","GSold","3","category3/CS6.png","targets/21.png","","direct","","-83"
