"success","trial_type","trial_index","time_elapsed","internal_node_id","subject","condition","condition_code","measure","measure_code","codeword","gender","age","education","chinese","fach","handedness","comment","hinschauen","ablenkung","gewissenhaft","rt","url","responses","stimulus","key_press","val","type","type_specific","category","cs_selected","response","target","task","indirect","nr_pres"
"true","fullscreen","0","7358","0.0-0.0","98rrbc2jur","one_one","1","direct_first","1","ca09ao09","0","21","1","0","3","1","","0","1","0","","","","","","","","","","","","","","",""
"","external-html","1","156932","0.0-1.0","98rrbc2jur","one_one","1","direct_first","1","ca09ao09","0","21","1","0","3","1","","0","1","0","149522.45000004768","text/information.html","","","","","","","","","","","","",""
"","external-html","2","237469","0.0-2.0","98rrbc2jur","one_one","1","direct_first","1","ca09ao09","0","21","1","0","3","1","","0","1","0","80378.78500018269","text/consent.html","","","","","","","","","","","","",""
"","survey-html-form","3","325897","0.0-3.0","98rrbc2jur","one_one","1","direct_first","1","ca09ao09","0","21","1","0","3","1","","0","1","0","88422.46499983594","","{""codeword_enter"":""ca09ao09""}","","","","","","","","","","","",""
"","survey-html-form","4","345961","0.0-4.0","98rrbc2jur","one_one","1","direct_first","1","ca09ao09","0","21","1","0","3","1","","0","1","0","20062.105000019073","","{""age"":""21"",""education"":""1"",""subject"":""3"",""gender"":""0"",""handedness"":""1"",""chinese"":""0""}","","","","","","","","","","","",""
"","survey-html-form","5","364097","0.0-5.0","98rrbc2jur","one_one","1","direct_first","1","ca09ao09","0","21","1","0","3","1","","0","1","0","18134.624999947846","","{}","","","","","","","","","","","",""
"","html-keyboard-response","6","368104","0.0-6.0-0.0-0.0","98rrbc2jur","one_one","1","direct_first","1","ca09ao09","0","21","1","0","3","1","","0","1","0","null","","","<div class = 'row'><div class = 'column'><img src = 'category1/CS3.png' width = '70%;'></div><div class = 'column'><img src = 'uspos/1460.bmp' width = '100%;'></div></div>","null","pos","CS","CS","1","category1/CS3.png","","","","",""
"","html-keyboard-response","7","370619","0.0-6.0-0.0-0.1","98rrbc2jur","one_one","1","direct_first","1","ca09ao09","0","21","1","0","3","1","","0","1","0","null","","","<div class = 'row'><div class = 'column'><img src = 'category3/CS6.png' width = '70%;'></div><div class = 'column'><img src = 'uspos/1440.bmp' width = '100%;'></div></div>","null","pos","CS","CS","3","category3/CS6.png","","","","",""
"","html-keyboard-response","8","373129","0.0-6.0-0.0-0.2","98rrbc2jur","one_one","1","direct_first","1","ca09ao09","0","21","1","0","3","1","","0","1","0","null","","","<div class = 'row'><div class = 'column'><img src = 'usneg/9342.bmp' width = '100%;'></div><div class = 'column'><img src = 'category2/CS1.png' width = '70%;'></div></div>","null","neg","CS","CS","2","category2/CS1.png","","","","",""
"","html-keyboard-response","9","375640","0.0-6.0-0.0-0.3","98rrbc2jur","one_one","1","direct_first","1","ca09ao09","0","21","1","0","3","1","","0","1","0","null","","","<div class = 'row'><div class = 'column'><img src = 'uspos/1460.bmp' width = '100%;'></div><div class = 'column'><img src = 'category1/CS3.png' width = '70%;'></div></div>","null","pos","CS","CS","1","category1/CS3.png","","","","",""
"","html-keyboard-response","10","378159","0.0-6.0-0.0-0.4","98rrbc2jur","one_one","1","direct_first","1","ca09ao09","0","21","1","0","3","1","","0","1","0","null","","","<div class = 'row'><div class = 'column'><img src = 'category3/CS6.png' width = '70%;'></div><div class = 'column'><img src = 'uspos/1440.bmp' width = '100%;'></div></div>","null","pos","CS","CS","3","category3/CS6.png","","","","",""
"","html-keyboard-response","11","380669","0.0-6.0-0.0-0.5","98rrbc2jur","one_one","1","direct_first","1","ca09ao09","0","21","1","0","3","1","","0","1","0","null","","","<div class = 'row'><div class = 'column'><img src = 'category2/CS1.png' width = '70%;'></div><div class = 'column'><img src = 'usneg/9342.bmp' width = '100%;'></div></div>","null","neg","CS","CS","2","category2/CS1.png","","","","",""
"","html-keyboard-response","12","383183","0.0-6.0-0.0-0.6","98rrbc2jur","one_one","1","direct_first","1","ca09ao09","0","21","1","0","3","1","","0","1","0","null","","","<div class = 'row'><div class = 'column'><img src = 'category4/CS5.png' width = '70%;'></div><div class = 'column'><img src = 'usneg/2750.bmp' width = '100%;'></div></div>","null","neg","CS","CS","4","category4/CS5.png","","","","",""
"","html-keyboard-response","13","385699","0.0-6.0-0.0-0.7","98rrbc2jur","one_one","1","direct_first","1","ca09ao09","0","21","1","0","3","1","","0","1","0","null","","","<div class = 'row'><div class = 'column'><img src = 'category3/CS6.png' width = '70%;'></div><div class = 'column'><img src = 'uspos/1440.bmp' width = '100%;'></div></div>","null","pos","CS","CS","3","category3/CS6.png","","","","",""
"","html-keyboard-response","14","388211","0.0-6.0-0.0-0.8","98rrbc2jur","one_one","1","direct_first","1","ca09ao09","0","21","1","0","3","1","","0","1","0","null","","","<div class = 'row'><div class = 'column'><img src = 'usneg/2750.bmp' width = '100%;'></div><div class = 'column'><img src = 'category4/CS5.png' width = '70%;'></div></div>","null","neg","CS","CS","4","category4/CS5.png","","","","",""
"","html-keyboard-response","15","390727","0.0-6.0-0.0-0.9","98rrbc2jur","one_one","1","direct_first","1","ca09ao09","0","21","1","0","3","1","","0","1","0","null","","","<div class = 'row'><div class = 'column'><img src = 'uspos/1460.bmp' width = '100%;'></div><div class = 'column'><img src = 'category1/CS3.png' width = '70%;'></div></div>","null","pos","CS","CS","1","category1/CS3.png","","","","",""
"","html-keyboard-response","16","393240","0.0-6.0-0.0-0.10","98rrbc2jur","one_one","1","direct_first","1","ca09ao09","0","21","1","0","3","1","","0","1","0","null","","","<div class = 'row'><div class = 'column'><img src = 'category2/CS1.png' width = '70%;'></div><div class = 'column'><img src = 'usneg/9342.bmp' width = '100%;'></div></div>","null","neg","CS","CS","2","category2/CS1.png","","","","",""
"","html-keyboard-response","17","395754","0.0-6.0-0.0-0.11","98rrbc2jur","one_one","1","direct_first","1","ca09ao09","0","21","1","0","3","1","","0","1","0","null","","","<div class = 'row'><div class = 'column'><img src = 'category3/CS6.png' width = '70%;'></div><div class = 'column'><img src = 'uspos/1440.bmp' width = '100%;'></div></div>","null","pos","CS","CS","3","category3/CS6.png","","","","",""
"","html-keyboard-response","18","398264","0.0-6.0-0.0-0.12","98rrbc2jur","one_one","1","direct_first","1","ca09ao09","0","21","1","0","3","1","","0","1","0","null","","","<div class = 'row'><div class = 'column'><img src = 'usneg/2750.bmp' width = '100%;'></div><div class = 'column'><img src = 'category4/CS5.png' width = '70%;'></div></div>","null","neg","CS","CS","4","category4/CS5.png","","","","",""
"","html-keyboard-response","19","400780","0.0-6.0-0.0-0.13","98rrbc2jur","one_one","1","direct_first","1","ca09ao09","0","21","1","0","3","1","","0","1","0","null","","","<div class = 'row'><div class = 'column'><img src = 'uspos/1440.bmp' width = '100%;'></div><div class = 'column'><img src = 'category3/CS6.png' width = '70%;'></div></div>","null","pos","CS","CS","3","category3/CS6.png","","","","",""
"","html-keyboard-response","20","403294","0.0-6.0-0.0-0.14","98rrbc2jur","one_one","1","direct_first","1","ca09ao09","0","21","1","0","3","1","","0","1","0","null","","","<div class = 'row'><div class = 'column'><img src = 'category2/CS1.png' width = '70%;'></div><div class = 'column'><img src = 'usneg/9342.bmp' width = '100%;'></div></div>","null","neg","CS","CS","2","category2/CS1.png","","","","",""
"","html-keyboard-response","21","405808","0.0-6.0-0.0-0.15","98rrbc2jur","one_one","1","direct_first","1","ca09ao09","0","21","1","0","3","1","","0","1","0","null","","","<div class = 'row'><div class = 'column'><img src = 'usneg/2750.bmp' width = '100%;'></div><div class = 'column'><img src = 'category4/CS5.png' width = '70%;'></div></div>","null","neg","CS","CS","4","category4/CS5.png","","","","",""
"","html-keyboard-response","22","408323","0.0-6.0-0.0-0.16","98rrbc2jur","one_one","1","direct_first","1","ca09ao09","0","21","1","0","3","1","","0","1","0","null","","","<div class = 'row'><div class = 'column'><img src = 'category1/CS3.png' width = '70%;'></div><div class = 'column'><img src = 'uspos/1460.bmp' width = '100%;'></div></div>","null","pos","CS","CS","1","category1/CS3.png","","","","",""
"","html-keyboard-response","23","410839","0.0-6.0-0.0-0.17","98rrbc2jur","one_one","1","direct_first","1","ca09ao09","0","21","1","0","3","1","","0","1","0","null","","","<div class = 'row'><div class = 'column'><img src = 'usneg/2750.bmp' width = '100%;'></div><div class = 'column'><img src = 'category4/CS5.png' width = '70%;'></div></div>","null","neg","CS","CS","4","category4/CS5.png","","","","",""
"","html-keyboard-response","24","413345","0.0-6.0-0.0-0.18","98rrbc2jur","one_one","1","direct_first","1","ca09ao09","0","21","1","0","3","1","","0","1","0","null","","","<div class = 'row'><div class = 'column'><img src = 'usneg/9342.bmp' width = '100%;'></div><div class = 'column'><img src = 'category2/CS1.png' width = '70%;'></div></div>","null","neg","CS","CS","2","category2/CS1.png","","","","",""
"","html-keyboard-response","25","415858","0.0-6.0-0.0-0.19","98rrbc2jur","one_one","1","direct_first","1","ca09ao09","0","21","1","0","3","1","","0","1","0","null","","","<div class = 'row'><div class = 'column'><img src = 'uspos/1460.bmp' width = '100%;'></div><div class = 'column'><img src = 'category1/CS3.png' width = '70%;'></div></div>","null","pos","CS","CS","1","category1/CS3.png","","","","",""
"","survey-html-form","26","448711","0.0-6.0-1.0","98rrbc2jur","one_one","1","direct_first","1","ca09ao09","0","21","1","0","3","1","","0","1","0","32346.624999772757","","{}","","","","","","","","","","","",""
"","html-keyboard-response","27","452722","0.0-6.0-2.0-0.0","98rrbc2jur","one_one","1","direct_first","1","ca09ao09","0","21","1","0","3","1","","0","1","0","null","","","<div class = 'row'><div class = 'column'><img src = 'usneg/2750.bmp' width = '100%;'></div><div class = 'column'><img src = 'category4/CS5.png' width = '70%;'></div></div>","null","neg","CS","CS","4","category4/CS5.png","","","","",""
"","html-keyboard-response","28","455228","0.0-6.0-2.0-0.1","98rrbc2jur","one_one","1","direct_first","1","ca09ao09","0","21","1","0","3","1","","0","1","0","null","","","<div class = 'row'><div class = 'column'><img src = 'uspos/1440.bmp' width = '100%;'></div><div class = 'column'><img src = 'category3/CS6.png' width = '70%;'></div></div>","null","pos","CS","CS","3","category3/CS6.png","","","","",""
"","html-keyboard-response","29","457740","0.0-6.0-2.0-0.2","98rrbc2jur","one_one","1","direct_first","1","ca09ao09","0","21","1","0","3","1","","0","1","0","null","","","<div class = 'row'><div class = 'column'><img src = 'usneg/9342.bmp' width = '100%;'></div><div class = 'column'><img src = 'category2/CS1.png' width = '70%;'></div></div>","null","neg","CS","CS","2","category2/CS1.png","","","","",""
"","html-keyboard-response","30","460250","0.0-6.0-2.0-0.3","98rrbc2jur","one_one","1","direct_first","1","ca09ao09","0","21","1","0","3","1","","0","1","0","null","","","<div class = 'row'><div class = 'column'><img src = 'category4/CS5.png' width = '70%;'></div><div class = 'column'><img src = 'usneg/2750.bmp' width = '100%;'></div></div>","null","neg","CS","CS","4","category4/CS5.png","","","","",""
"","html-keyboard-response","31","462764","0.0-6.0-2.0-0.4","98rrbc2jur","one_one","1","direct_first","1","ca09ao09","0","21","1","0","3","1","","0","1","0","null","","","<div class = 'row'><div class = 'column'><img src = 'category3/CS6.png' width = '70%;'></div><div class = 'column'><img src = 'uspos/1440.bmp' width = '100%;'></div></div>","null","pos","CS","CS","3","category3/CS6.png","","","","",""
"","html-keyboard-response","32","465271","0.0-6.0-2.0-0.5","98rrbc2jur","one_one","1","direct_first","1","ca09ao09","0","21","1","0","3","1","","0","1","0","null","","","<div class = 'row'><div class = 'column'><img src = 'category1/CS3.png' width = '70%;'></div><div class = 'column'><img src = 'uspos/1460.bmp' width = '100%;'></div></div>","null","pos","CS","CS","1","category1/CS3.png","","","","",""
"","html-keyboard-response","33","467782","0.0-6.0-2.0-0.6","98rrbc2jur","one_one","1","direct_first","1","ca09ao09","0","21","1","0","3","1","","0","1","0","null","","","<div class = 'row'><div class = 'column'><img src = 'usneg/9342.bmp' width = '100%;'></div><div class = 'column'><img src = 'category2/CS1.png' width = '70%;'></div></div>","null","neg","CS","CS","2","category2/CS1.png","","","","",""
"","html-keyboard-response","34","470291","0.0-6.0-2.0-0.7","98rrbc2jur","one_one","1","direct_first","1","ca09ao09","0","21","1","0","3","1","","0","1","0","null","","","<div class = 'row'><div class = 'column'><img src = 'uspos/1460.bmp' width = '100%;'></div><div class = 'column'><img src = 'category1/CS3.png' width = '70%;'></div></div>","null","pos","CS","CS","1","category1/CS3.png","","","","",""
"","html-keyboard-response","35","472804","0.0-6.0-2.0-0.8","98rrbc2jur","one_one","1","direct_first","1","ca09ao09","0","21","1","0","3","1","","0","1","0","null","","","<div class = 'row'><div class = 'column'><img src = 'usneg/2750.bmp' width = '100%;'></div><div class = 'column'><img src = 'category4/CS5.png' width = '70%;'></div></div>","null","neg","CS","CS","4","category4/CS5.png","","","","",""
"","html-keyboard-response","36","475323","0.0-6.0-2.0-0.9","98rrbc2jur","one_one","1","direct_first","1","ca09ao09","0","21","1","0","3","1","","0","1","0","null","","","<div class = 'row'><div class = 'column'><img src = 'category2/CS1.png' width = '70%;'></div><div class = 'column'><img src = 'usneg/9342.bmp' width = '100%;'></div></div>","null","neg","CS","CS","2","category2/CS1.png","","","","",""
"","html-keyboard-response","37","477830","0.0-6.0-2.0-0.10","98rrbc2jur","one_one","1","direct_first","1","ca09ao09","0","21","1","0","3","1","","0","1","0","null","","","<div class = 'row'><div class = 'column'><img src = 'uspos/1440.bmp' width = '100%;'></div><div class = 'column'><img src = 'category3/CS6.png' width = '70%;'></div></div>","null","pos","CS","CS","3","category3/CS6.png","","","","",""
"","html-keyboard-response","38","480344","0.0-6.0-2.0-0.11","98rrbc2jur","one_one","1","direct_first","1","ca09ao09","0","21","1","0","3","1","","0","1","0","null","","","<div class = 'row'><div class = 'column'><img src = 'category1/CS3.png' width = '70%;'></div><div class = 'column'><img src = 'uspos/1460.bmp' width = '100%;'></div></div>","null","pos","CS","CS","1","category1/CS3.png","","","","",""
"","html-keyboard-response","39","482850","0.0-6.0-2.0-0.12","98rrbc2jur","one_one","1","direct_first","1","ca09ao09","0","21","1","0","3","1","","0","1","0","null","","","<div class = 'row'><div class = 'column'><img src = 'uspos/1440.bmp' width = '100%;'></div><div class = 'column'><img src = 'category3/CS6.png' width = '70%;'></div></div>","null","pos","CS","CS","3","category3/CS6.png","","","","",""
"","html-keyboard-response","40","485356","0.0-6.0-2.0-0.13","98rrbc2jur","one_one","1","direct_first","1","ca09ao09","0","21","1","0","3","1","","0","1","0","null","","","<div class = 'row'><div class = 'column'><img src = 'category2/CS1.png' width = '70%;'></div><div class = 'column'><img src = 'usneg/9342.bmp' width = '100%;'></div></div>","null","neg","CS","CS","2","category2/CS1.png","","","","",""
"","html-keyboard-response","41","487864","0.0-6.0-2.0-0.14","98rrbc2jur","one_one","1","direct_first","1","ca09ao09","0","21","1","0","3","1","","0","1","0","null","","","<div class = 'row'><div class = 'column'><img src = 'category1/CS3.png' width = '70%;'></div><div class = 'column'><img src = 'uspos/1460.bmp' width = '100%;'></div></div>","null","pos","CS","CS","1","category1/CS3.png","","","","",""
"","html-keyboard-response","42","490375","0.0-6.0-2.0-0.15","98rrbc2jur","one_one","1","direct_first","1","ca09ao09","0","21","1","0","3","1","","0","1","0","null","","","<div class = 'row'><div class = 'column'><img src = 'usneg/2750.bmp' width = '100%;'></div><div class = 'column'><img src = 'category4/CS5.png' width = '70%;'></div></div>","null","neg","CS","CS","4","category4/CS5.png","","","","",""
"","html-keyboard-response","43","492892","0.0-6.0-2.0-0.16","98rrbc2jur","one_one","1","direct_first","1","ca09ao09","0","21","1","0","3","1","","0","1","0","null","","","<div class = 'row'><div class = 'column'><img src = 'category1/CS3.png' width = '70%;'></div><div class = 'column'><img src = 'uspos/1460.bmp' width = '100%;'></div></div>","null","pos","CS","CS","1","category1/CS3.png","","","","",""
"","html-keyboard-response","44","495404","0.0-6.0-2.0-0.17","98rrbc2jur","one_one","1","direct_first","1","ca09ao09","0","21","1","0","3","1","","0","1","0","null","","","<div class = 'row'><div class = 'column'><img src = 'usneg/9342.bmp' width = '100%;'></div><div class = 'column'><img src = 'category2/CS1.png' width = '70%;'></div></div>","null","neg","CS","CS","2","category2/CS1.png","","","","",""
"","html-keyboard-response","45","497918","0.0-6.0-2.0-0.18","98rrbc2jur","one_one","1","direct_first","1","ca09ao09","0","21","1","0","3","1","","0","1","0","null","","","<div class = 'row'><div class = 'column'><img src = 'uspos/1440.bmp' width = '100%;'></div><div class = 'column'><img src = 'category3/CS6.png' width = '70%;'></div></div>","null","pos","CS","CS","3","category3/CS6.png","","","","",""
"","html-keyboard-response","46","500431","0.0-6.0-2.0-0.19","98rrbc2jur","one_one","1","direct_first","1","ca09ao09","0","21","1","0","3","1","","0","1","0","null","","","<div class = 'row'><div class = 'column'><img src = 'usneg/2750.bmp' width = '100%;'></div><div class = 'column'><img src = 'category4/CS5.png' width = '70%;'></div></div>","null","neg","CS","CS","4","category4/CS5.png","","","","",""
"","survey-html-form","47","504447","0.0-6.0-3.0","98rrbc2jur","one_one","1","direct_first","1","ca09ao09","0","21","1","0","3","1","","0","1","0","3511.5149999037385","","{}","","","","","","","","","","","",""
"","html-keyboard-response","48","508466","0.0-6.0-4.0-0.0","98rrbc2jur","one_one","1","direct_first","1","ca09ao09","0","21","1","0","3","1","","0","1","0","null","","","<div class = 'row'><div class = 'column'><img src = 'uspos/1460.bmp' width = '100%;'></div><div class = 'column'><img src = 'category1/CS3.png' width = '70%;'></div></div>","null","pos","CS","CS","1","category1/CS3.png","","","","",""
"","html-keyboard-response","49","510982","0.0-6.0-4.0-0.1","98rrbc2jur","one_one","1","direct_first","1","ca09ao09","0","21","1","0","3","1","","0","1","0","null","","","<div class = 'row'><div class = 'column'><img src = 'category3/CS6.png' width = '70%;'></div><div class = 'column'><img src = 'uspos/1440.bmp' width = '100%;'></div></div>","null","pos","CS","CS","3","category3/CS6.png","","","","",""
"","html-keyboard-response","50","513495","0.0-6.0-4.0-0.2","98rrbc2jur","one_one","1","direct_first","1","ca09ao09","0","21","1","0","3","1","","0","1","0","null","","","<div class = 'row'><div class = 'column'><img src = 'usneg/9342.bmp' width = '100%;'></div><div class = 'column'><img src = 'category2/CS1.png' width = '70%;'></div></div>","null","neg","CS","CS","2","category2/CS1.png","","","","",""
"","html-keyboard-response","51","516001","0.0-6.0-4.0-0.3","98rrbc2jur","one_one","1","direct_first","1","ca09ao09","0","21","1","0","3","1","","0","1","0","null","","","<div class = 'row'><div class = 'column'><img src = 'uspos/1460.bmp' width = '100%;'></div><div class = 'column'><img src = 'category1/CS3.png' width = '70%;'></div></div>","null","pos","CS","CS","1","category1/CS3.png","","","","",""
"","html-keyboard-response","52","518519","0.0-6.0-4.0-0.4","98rrbc2jur","one_one","1","direct_first","1","ca09ao09","0","21","1","0","3","1","","0","1","0","null","","","<div class = 'row'><div class = 'column'><img src = 'category4/CS5.png' width = '70%;'></div><div class = 'column'><img src = 'usneg/2750.bmp' width = '100%;'></div></div>","null","neg","CS","CS","4","category4/CS5.png","","","","",""
"","html-keyboard-response","53","521033","0.0-6.0-4.0-0.5","98rrbc2jur","one_one","1","direct_first","1","ca09ao09","0","21","1","0","3","1","","0","1","0","null","","","<div class = 'row'><div class = 'column'><img src = 'usneg/9342.bmp' width = '100%;'></div><div class = 'column'><img src = 'category2/CS1.png' width = '70%;'></div></div>","null","neg","CS","CS","2","category2/CS1.png","","","","",""
"","html-keyboard-response","54","523545","0.0-6.0-4.0-0.6","98rrbc2jur","one_one","1","direct_first","1","ca09ao09","0","21","1","0","3","1","","0","1","0","null","","","<div class = 'row'><div class = 'column'><img src = 'uspos/1440.bmp' width = '100%;'></div><div class = 'column'><img src = 'category3/CS6.png' width = '70%;'></div></div>","null","pos","CS","CS","3","category3/CS6.png","","","","",""
"","html-keyboard-response","55","526054","0.0-6.0-4.0-0.7","98rrbc2jur","one_one","1","direct_first","1","ca09ao09","0","21","1","0","3","1","","0","1","0","null","","","<div class = 'row'><div class = 'column'><img src = 'uspos/1460.bmp' width = '100%;'></div><div class = 'column'><img src = 'category1/CS3.png' width = '70%;'></div></div>","null","pos","CS","CS","1","category1/CS3.png","","","","",""
"","html-keyboard-response","56","528575","0.0-6.0-4.0-0.8","98rrbc2jur","one_one","1","direct_first","1","ca09ao09","0","21","1","0","3","1","","0","1","0","null","","","<div class = 'row'><div class = 'column'><img src = 'usneg/2750.bmp' width = '100%;'></div><div class = 'column'><img src = 'category4/CS5.png' width = '70%;'></div></div>","null","neg","CS","CS","4","category4/CS5.png","","","","",""
"","html-keyboard-response","57","531085","0.0-6.0-4.0-0.9","98rrbc2jur","one_one","1","direct_first","1","ca09ao09","0","21","1","0","3","1","","0","1","0","null","","","<div class = 'row'><div class = 'column'><img src = 'uspos/1440.bmp' width = '100%;'></div><div class = 'column'><img src = 'category3/CS6.png' width = '70%;'></div></div>","null","pos","CS","CS","3","category3/CS6.png","","","","",""
"","html-keyboard-response","58","533595","0.0-6.0-4.0-0.10","98rrbc2jur","one_one","1","direct_first","1","ca09ao09","0","21","1","0","3","1","","0","1","0","null","","","<div class = 'row'><div class = 'column'><img src = 'usneg/9342.bmp' width = '100%;'></div><div class = 'column'><img src = 'category2/CS1.png' width = '70%;'></div></div>","null","neg","CS","CS","2","category2/CS1.png","","","","",""
"","html-keyboard-response","59","536106","0.0-6.0-4.0-0.11","98rrbc2jur","one_one","1","direct_first","1","ca09ao09","0","21","1","0","3","1","","0","1","0","null","","","<div class = 'row'><div class = 'column'><img src = 'category1/CS3.png' width = '70%;'></div><div class = 'column'><img src = 'uspos/1460.bmp' width = '100%;'></div></div>","null","pos","CS","CS","1","category1/CS3.png","","","","",""
"","html-keyboard-response","60","538615","0.0-6.0-4.0-0.12","98rrbc2jur","one_one","1","direct_first","1","ca09ao09","0","21","1","0","3","1","","0","1","0","null","","","<div class = 'row'><div class = 'column'><img src = 'category3/CS6.png' width = '70%;'></div><div class = 'column'><img src = 'uspos/1440.bmp' width = '100%;'></div></div>","null","pos","CS","CS","3","category3/CS6.png","","","","",""
"","html-keyboard-response","61","541122","0.0-6.0-4.0-0.13","98rrbc2jur","one_one","1","direct_first","1","ca09ao09","0","21","1","0","3","1","","0","1","0","null","","","<div class = 'row'><div class = 'column'><img src = 'category4/CS5.png' width = '70%;'></div><div class = 'column'><img src = 'usneg/2750.bmp' width = '100%;'></div></div>","null","neg","CS","CS","4","category4/CS5.png","","","","",""
"","html-keyboard-response","62","543635","0.0-6.0-4.0-0.14","98rrbc2jur","one_one","1","direct_first","1","ca09ao09","0","21","1","0","3","1","","0","1","0","null","","","<div class = 'row'><div class = 'column'><img src = 'category2/CS1.png' width = '70%;'></div><div class = 'column'><img src = 'usneg/9342.bmp' width = '100%;'></div></div>","null","neg","CS","CS","2","category2/CS1.png","","","","",""
"","html-keyboard-response","63","546155","0.0-6.0-4.0-0.15","98rrbc2jur","one_one","1","direct_first","1","ca09ao09","0","21","1","0","3","1","","0","1","0","null","","","<div class = 'row'><div class = 'column'><img src = 'usneg/2750.bmp' width = '100%;'></div><div class = 'column'><img src = 'category4/CS5.png' width = '70%;'></div></div>","null","neg","CS","CS","4","category4/CS5.png","","","","",""
"","html-keyboard-response","64","548665","0.0-6.0-4.0-0.16","98rrbc2jur","one_one","1","direct_first","1","ca09ao09","0","21","1","0","3","1","","0","1","0","null","","","<div class = 'row'><div class = 'column'><img src = 'uspos/1440.bmp' width = '100%;'></div><div class = 'column'><img src = 'category3/CS6.png' width = '70%;'></div></div>","null","pos","CS","CS","3","category3/CS6.png","","","","",""
"","html-keyboard-response","65","551180","0.0-6.0-4.0-0.17","98rrbc2jur","one_one","1","direct_first","1","ca09ao09","0","21","1","0","3","1","","0","1","0","null","","","<div class = 'row'><div class = 'column'><img src = 'category4/CS5.png' width = '70%;'></div><div class = 'column'><img src = 'usneg/2750.bmp' width = '100%;'></div></div>","null","neg","CS","CS","4","category4/CS5.png","","","","",""
"","html-keyboard-response","66","553685","0.0-6.0-4.0-0.18","98rrbc2jur","one_one","1","direct_first","1","ca09ao09","0","21","1","0","3","1","","0","1","0","null","","","<div class = 'row'><div class = 'column'><img src = 'category1/CS3.png' width = '70%;'></div><div class = 'column'><img src = 'uspos/1460.bmp' width = '100%;'></div></div>","null","pos","CS","CS","1","category1/CS3.png","","","","",""
"","html-keyboard-response","67","556201","0.0-6.0-4.0-0.19","98rrbc2jur","one_one","1","direct_first","1","ca09ao09","0","21","1","0","3","1","","0","1","0","null","","","<div class = 'row'><div class = 'column'><img src = 'usneg/9342.bmp' width = '100%;'></div><div class = 'column'><img src = 'category2/CS1.png' width = '70%;'></div></div>","null","neg","CS","CS","2","category2/CS1.png","","","","",""
"","survey-html-form","68","560201","0.0-6.0-5.0","98rrbc2jur","one_one","1","direct_first","1","ca09ao09","0","21","1","0","3","1","","0","1","0","3489.7949998266995","","{}","","","","","","","","","","","",""
"","html-keyboard-response","69","564210","0.0-6.0-6.0-0.0","98rrbc2jur","one_one","1","direct_first","1","ca09ao09","0","21","1","0","3","1","","0","1","0","null","","","<div class = 'row'><div class = 'column'><img src = 'category1/CS3.png' width = '70%;'></div><div class = 'column'><img src = 'uspos/1460.bmp' width = '100%;'></div></div>","null","pos","CS","CS","1","category1/CS3.png","","","","",""
"","html-keyboard-response","70","566715","0.0-6.0-6.0-0.1","98rrbc2jur","one_one","1","direct_first","1","ca09ao09","0","21","1","0","3","1","","0","1","0","null","","","<div class = 'row'><div class = 'column'><img src = 'category2/CS1.png' width = '70%;'></div><div class = 'column'><img src = 'usneg/9342.bmp' width = '100%;'></div></div>","null","neg","CS","CS","2","category2/CS1.png","","","","",""
"","html-keyboard-response","71","569230","0.0-6.0-6.0-0.2","98rrbc2jur","one_one","1","direct_first","1","ca09ao09","0","21","1","0","3","1","","0","1","0","null","","","<div class = 'row'><div class = 'column'><img src = 'category3/CS6.png' width = '70%;'></div><div class = 'column'><img src = 'uspos/1440.bmp' width = '100%;'></div></div>","null","pos","CS","CS","3","category3/CS6.png","","","","",""
"","html-keyboard-response","72","571742","0.0-6.0-6.0-0.3","98rrbc2jur","one_one","1","direct_first","1","ca09ao09","0","21","1","0","3","1","","0","1","0","null","","","<div class = 'row'><div class = 'column'><img src = 'category4/CS5.png' width = '70%;'></div><div class = 'column'><img src = 'usneg/2750.bmp' width = '100%;'></div></div>","null","neg","CS","CS","4","category4/CS5.png","","","","",""
"","html-keyboard-response","73","574254","0.0-6.0-6.0-0.4","98rrbc2jur","one_one","1","direct_first","1","ca09ao09","0","21","1","0","3","1","","0","1","0","null","","","<div class = 'row'><div class = 'column'><img src = 'uspos/1440.bmp' width = '100%;'></div><div class = 'column'><img src = 'category3/CS6.png' width = '70%;'></div></div>","null","pos","CS","CS","3","category3/CS6.png","","","","",""
"","html-keyboard-response","74","576771","0.0-6.0-6.0-0.5","98rrbc2jur","one_one","1","direct_first","1","ca09ao09","0","21","1","0","3","1","","0","1","0","null","","","<div class = 'row'><div class = 'column'><img src = 'usneg/2750.bmp' width = '100%;'></div><div class = 'column'><img src = 'category4/CS5.png' width = '70%;'></div></div>","null","neg","CS","CS","4","category4/CS5.png","","","","",""
"","html-keyboard-response","75","579284","0.0-6.0-6.0-0.6","98rrbc2jur","one_one","1","direct_first","1","ca09ao09","0","21","1","0","3","1","","0","1","0","null","","","<div class = 'row'><div class = 'column'><img src = 'usneg/9342.bmp' width = '100%;'></div><div class = 'column'><img src = 'category2/CS1.png' width = '70%;'></div></div>","null","neg","CS","CS","2","category2/CS1.png","","","","",""
"","html-keyboard-response","76","581803","0.0-6.0-6.0-0.7","98rrbc2jur","one_one","1","direct_first","1","ca09ao09","0","21","1","0","3","1","","0","1","0","null","","","<div class = 'row'><div class = 'column'><img src = 'uspos/1460.bmp' width = '100%;'></div><div class = 'column'><img src = 'category1/CS3.png' width = '70%;'></div></div>","null","pos","CS","CS","1","category1/CS3.png","","","","",""
"","html-keyboard-response","77","584315","0.0-6.0-6.0-0.8","98rrbc2jur","one_one","1","direct_first","1","ca09ao09","0","21","1","0","3","1","","0","1","0","null","","","<div class = 'row'><div class = 'column'><img src = 'category3/CS6.png' width = '70%;'></div><div class = 'column'><img src = 'uspos/1440.bmp' width = '100%;'></div></div>","null","pos","CS","CS","3","category3/CS6.png","","","","",""
"","html-keyboard-response","78","586829","0.0-6.0-6.0-0.9","98rrbc2jur","one_one","1","direct_first","1","ca09ao09","0","21","1","0","3","1","","0","1","0","null","","","<div class = 'row'><div class = 'column'><img src = 'category2/CS1.png' width = '70%;'></div><div class = 'column'><img src = 'usneg/9342.bmp' width = '100%;'></div></div>","null","neg","CS","CS","2","category2/CS1.png","","","","",""
"","html-keyboard-response","79","589343","0.0-6.0-6.0-0.10","98rrbc2jur","one_one","1","direct_first","1","ca09ao09","0","21","1","0","3","1","","0","1","0","null","","","<div class = 'row'><div class = 'column'><img src = 'category4/CS5.png' width = '70%;'></div><div class = 'column'><img src = 'usneg/2750.bmp' width = '100%;'></div></div>","null","neg","CS","CS","4","category4/CS5.png","","","","",""
"","html-keyboard-response","80","591851","0.0-6.0-6.0-0.11","98rrbc2jur","one_one","1","direct_first","1","ca09ao09","0","21","1","0","3","1","","0","1","0","null","","","<div class = 'row'><div class = 'column'><img src = 'category1/CS3.png' width = '70%;'></div><div class = 'column'><img src = 'uspos/1460.bmp' width = '100%;'></div></div>","null","pos","CS","CS","1","category1/CS3.png","","","","",""
"","html-keyboard-response","81","594369","0.0-6.0-6.0-0.12","98rrbc2jur","one_one","1","direct_first","1","ca09ao09","0","21","1","0","3","1","","0","1","0","null","","","<div class = 'row'><div class = 'column'><img src = 'usneg/2750.bmp' width = '100%;'></div><div class = 'column'><img src = 'category4/CS5.png' width = '70%;'></div></div>","null","neg","CS","CS","4","category4/CS5.png","","","","",""
"","html-keyboard-response","82","596884","0.0-6.0-6.0-0.13","98rrbc2jur","one_one","1","direct_first","1","ca09ao09","0","21","1","0","3","1","","0","1","0","null","","","<div class = 'row'><div class = 'column'><img src = 'category1/CS3.png' width = '70%;'></div><div class = 'column'><img src = 'uspos/1460.bmp' width = '100%;'></div></div>","null","pos","CS","CS","1","category1/CS3.png","","","","",""
"","html-keyboard-response","83","599392","0.0-6.0-6.0-0.14","98rrbc2jur","one_one","1","direct_first","1","ca09ao09","0","21","1","0","3","1","","0","1","0","null","","","<div class = 'row'><div class = 'column'><img src = 'uspos/1440.bmp' width = '100%;'></div><div class = 'column'><img src = 'category3/CS6.png' width = '70%;'></div></div>","null","pos","CS","CS","3","category3/CS6.png","","","","",""
"","html-keyboard-response","84","601904","0.0-6.0-6.0-0.15","98rrbc2jur","one_one","1","direct_first","1","ca09ao09","0","21","1","0","3","1","","0","1","0","null","","","<div class = 'row'><div class = 'column'><img src = 'category1/CS3.png' width = '70%;'></div><div class = 'column'><img src = 'uspos/1460.bmp' width = '100%;'></div></div>","null","pos","CS","CS","1","category1/CS3.png","","","","",""
"","html-keyboard-response","85","604422","0.0-6.0-6.0-0.16","98rrbc2jur","one_one","1","direct_first","1","ca09ao09","0","21","1","0","3","1","","0","1","0","null","","","<div class = 'row'><div class = 'column'><img src = 'category4/CS5.png' width = '70%;'></div><div class = 'column'><img src = 'usneg/2750.bmp' width = '100%;'></div></div>","null","neg","CS","CS","4","category4/CS5.png","","","","",""
"","html-keyboard-response","86","606938","0.0-6.0-6.0-0.17","98rrbc2jur","one_one","1","direct_first","1","ca09ao09","0","21","1","0","3","1","","0","1","0","null","","","<div class = 'row'><div class = 'column'><img src = 'category2/CS1.png' width = '70%;'></div><div class = 'column'><img src = 'usneg/9342.bmp' width = '100%;'></div></div>","null","neg","CS","CS","2","category2/CS1.png","","","","",""
"","html-keyboard-response","87","609457","0.0-6.0-6.0-0.18","98rrbc2jur","one_one","1","direct_first","1","ca09ao09","0","21","1","0","3","1","","0","1","0","null","","","<div class = 'row'><div class = 'column'><img src = 'category3/CS6.png' width = '70%;'></div><div class = 'column'><img src = 'uspos/1440.bmp' width = '100%;'></div></div>","null","pos","CS","CS","3","category3/CS6.png","","","","",""
"","html-keyboard-response","88","611972","0.0-6.0-6.0-0.19","98rrbc2jur","one_one","1","direct_first","1","ca09ao09","0","21","1","0","3","1","","0","1","0","null","","","<div class = 'row'><div class = 'column'><img src = 'category2/CS1.png' width = '70%;'></div><div class = 'column'><img src = 'usneg/9342.bmp' width = '100%;'></div></div>","null","neg","CS","CS","2","category2/CS1.png","","","","",""
"","survey-html-form","89","627993","0.0-7.0","98rrbc2jur","one_one","1","direct_first","1","ca09ao09","0","21","1","0","3","1","","0","1","0","15516.245000064373","","{}","","","","","","","","","","","",""
"","image-slider-response","90","636990","0.0-8.0-0.0","98rrbc2jur","one_one","1","direct_first","1","ca09ao09","0","21","1","0","3","1","","0","1","0","6991.420000325888","","","","","neg","GS","GSnew","2","category2/GS3.png","-28","targets/8.png","direct","",""
"","image-slider-response","91","643981","0.0-8.0-0.1","98rrbc2jur","one_one","1","direct_first","1","ca09ao09","0","21","1","0","3","1","","0","1","0","6990.2449999935925","","","","","pos","GS","GSnew","1","category1/GS2.png","46","targets/24.png","direct","",""
"","image-slider-response","92","648278","0.0-8.0-0.2","98rrbc2jur","one_one","1","direct_first","1","ca09ao09","0","21","1","0","3","1","","0","1","0","4294.6350001730025","","","","","neg","GS","GSnew","2","category2/GS2.png","-45","targets/1.png","direct","",""
"","image-slider-response","93","652213","0.0-8.0-0.3","98rrbc2jur","one_one","1","direct_first","1","ca09ao09","0","21","1","0","3","1","","0","1","0","3933.6449997499585","","","","","pos","CS","CS","3","category3/CS6.png","-18","targets/48.png","direct","",""
"","image-slider-response","94","655254","0.0-8.0-0.4","98rrbc2jur","one_one","1","direct_first","1","ca09ao09","0","21","1","0","3","1","","0","1","0","3038.74500002712","","","","","pos","GS","GSold","3","category3/CS10.png","-28","targets/22.png","direct","",""
"","image-slider-response","95","659749","0.0-8.0-0.5","98rrbc2jur","one_one","1","direct_first","1","ca09ao09","0","21","1","0","3","1","","0","1","0","4494.445000309497","","","","","pos","GS","GSnew","1","category1/GS3.png","72","targets/38.png","direct","",""
"","image-slider-response","96","666077","0.0-8.0-0.6","98rrbc2jur","one_one","1","direct_first","1","ca09ao09","0","21","1","0","3","1","","0","1","0","6326.469999738038","","","","","neg","GS","abstract","4","category4/lin.png","-18","targets/16.png","direct","",""
"","image-slider-response","97","670534","0.0-8.0-0.7","98rrbc2jur","one_one","1","direct_first","1","ca09ao09","0","21","1","0","3","1","","0","1","0","4454.614999704063","","","","","neg","GS","GSnew","4","category4/GS3.png","-21","targets/26.png","direct","",""
"","image-slider-response","98","675477","0.0-8.0-0.8","98rrbc2jur","one_one","1","direct_first","1","ca09ao09","0","21","1","0","3","1","","0","1","0","4942.22000008449","","","","","neg","CS","CS","4","category4/CS5.png","-27","targets/11.png","direct","",""
"","image-slider-response","99","678150","0.0-8.0-0.9","98rrbc2jur","one_one","1","direct_first","1","ca09ao09","0","21","1","0","3","1","","0","1","0","2670.6050001084805","","","","","pos","GS","GSold","1","category1/CS1.png","44","targets/18.png","direct","",""
"","image-slider-response","100","681645","0.0-8.0-0.10","98rrbc2jur","one_one","1","direct_first","1","ca09ao09","0","21","1","0","3","1","","0","1","0","3494.3800000473857","","","","","neg","GS","abstract","2","category2/men.png","72","targets/17.png","direct","",""
"","image-slider-response","101","686701","0.0-8.0-0.11","98rrbc2jur","one_one","1","direct_first","1","ca09ao09","0","21","1","0","3","1","","0","1","0","5054.754999931902","","","","","pos","GS","GSnew","1","category1/GS1.png","36","targets/2.png","direct","",""
"","image-slider-response","102","688902","0.0-8.0-0.12","98rrbc2jur","one_one","1","direct_first","1","ca09ao09","0","21","1","0","3","1","","0","1","0","2198.61500011757","","","","","neg","GS","GSnew","2","category2/GS1.png","16","targets/31.png","direct","",""
"","image-slider-response","103","693693","0.0-8.0-0.13","98rrbc2jur","one_one","1","direct_first","1","ca09ao09","0","21","1","0","3","1","","0","1","0","4790.720000397414","","","","","pos","GS","GSnew","3","category3/GS1.png","93","targets/45.png","direct","",""
"","image-slider-response","104","698109","0.0-8.0-0.14","98rrbc2jur","one_one","1","direct_first","1","ca09ao09","0","21","1","0","3","1","","0","1","0","4414.555000141263","","","","","neg","GS","GSold","2","category2/CS10.png","-27","targets/9.png","direct","",""
"","image-slider-response","105","700477","0.0-8.0-0.15","98rrbc2jur","one_one","1","direct_first","1","ca09ao09","0","21","1","0","3","1","","0","1","0","2366.3800000213087","","","","","pos","GS","GSold","3","category3/CS8.png","-32","targets/40.png","direct","",""
"","image-slider-response","106","704477","0.0-8.0-0.16","98rrbc2jur","one_one","1","direct_first","1","ca09ao09","0","21","1","0","3","1","","0","1","0","3998.410000000149","","","","","pos","GS","GSnew","3","category3/GS2.png","95","targets/42.png","direct","",""
"","image-slider-response","107","707573","0.0-8.0-0.17","98rrbc2jur","one_one","1","direct_first","1","ca09ao09","0","21","1","0","3","1","","0","1","0","3094.455000013113","","","","","neg","GS","GSnew","4","category4/GS2.png","-62","targets/34.png","direct","",""
"","image-slider-response","108","710373","0.0-8.0-0.18","98rrbc2jur","one_one","1","direct_first","1","ca09ao09","0","21","1","0","3","1","","0","1","0","2798.935000319034","","","","","pos","GS","GSold","1","category1/CS7.png","-73","targets/47.png","direct","",""
"","image-slider-response","109","714461","0.0-8.0-0.19","98rrbc2jur","one_one","1","direct_first","1","ca09ao09","0","21","1","0","3","1","","0","1","0","4086.525000166148","","","","","pos","GS","abstract","3","category3/wang.png","-34","targets/6.png","direct","",""
"","image-slider-response","110","716693","0.0-8.0-0.20","98rrbc2jur","one_one","1","direct_first","1","ca09ao09","0","21","1","0","3","1","","0","1","0","2230.35000031814","","","","","pos","GS","GSnew","3","category3/GS3.png","-31","targets/10.png","direct","",""
"","image-slider-response","111","719637","0.0-8.0-0.21","98rrbc2jur","one_one","1","direct_first","1","ca09ao09","0","21","1","0","3","1","","0","1","0","2942.9749995470047","","","","","pos","CS","CS","1","category1/CS3.png","57","targets/5.png","direct","",""
"","image-slider-response","112","724613","0.0-8.0-0.22","98rrbc2jur","one_one","1","direct_first","1","ca09ao09","0","21","1","0","3","1","","0","1","0","4974.894999992102","","","","","pos","GS","abstract","1","category1/ma.png","15","targets/32.png","direct","",""
"","image-slider-response","113","728613","0.0-8.0-0.23","98rrbc2jur","one_one","1","direct_first","1","ca09ao09","0","21","1","0","3","1","","0","1","0","3998.430000152439","","","","","neg","GS","GSold","4","category4/CS9.png","28","targets/37.png","direct","",""
"","image-slider-response","114","730829","0.0-8.0-0.24","98rrbc2jur","one_one","1","direct_first","1","ca09ao09","0","21","1","0","3","1","","0","1","0","2214.9849999696016","","","","","pos","GS","GSold","3","category3/CS9.png","49","targets/19.png","direct","",""
"","image-slider-response","115","734677","0.0-8.0-0.25","98rrbc2jur","one_one","1","direct_first","1","ca09ao09","0","21","1","0","3","1","","0","1","0","3846.2900002487004","","","","","neg","CS","CS","2","category2/CS1.png","61","targets/30.png","direct","",""
"","image-slider-response","116","737973","0.0-8.0-0.26","98rrbc2jur","one_one","1","direct_first","1","ca09ao09","0","21","1","0","3","1","","0","1","0","3294.505000114441","","","","","pos","GS","GSold","1","category1/CS5.png","-36","targets/25.png","direct","",""
"","image-slider-response","117","740813","0.0-8.0-0.27","98rrbc2jur","one_one","1","direct_first","1","ca09ao09","0","21","1","0","3","1","","0","1","0","2838.465000037104","","","","","neg","GS","GSold","4","category4/CS1.png","-35","targets/28.png","direct","",""
"","image-slider-response","118","744061","0.0-8.0-0.28","98rrbc2jur","one_one","1","direct_first","1","ca09ao09","0","21","1","0","3","1","","0","1","0","3246.745000127703","","","","","neg","GS","GSold","2","category2/CS3.png","-33","targets/29.png","direct","",""
"","image-slider-response","119","745997","0.0-8.0-0.29","98rrbc2jur","one_one","1","direct_first","1","ca09ao09","0","21","1","0","3","1","","0","1","0","1934.924999717623","","","","","neg","GS","GSold","4","category4/CS3.png","-33","targets/23.png","direct","",""
"","image-slider-response","120","748093","0.0-8.0-0.30","98rrbc2jur","one_one","1","direct_first","1","ca09ao09","0","21","1","0","3","1","","0","1","0","2094.6499998681247","","","","","neg","GS","GSold","2","category2/CS4.png","-34","targets/27.png","direct","",""
"","image-slider-response","121","753881","0.0-8.0-0.31","98rrbc2jur","one_one","1","direct_first","1","ca09ao09","0","21","1","0","3","1","","0","1","0","5782.829999923706","","","","","neg","GS","GSnew","4","category4/GS1.png","-13","targets/39.png","direct","",""
"","html-keyboard-response","122","800674","0.0-9.0","98rrbc2jur","one_one","1","direct_first","1","ca09ao09","0","21","1","0","3","1","","0","1","0","46791.9600000605","","","<p>Sie sehen nun die chinesischen Zeichen nur ganz kurz. Danach sehen Sie die jeweilige Aussprache der Zeichen als Silbe auf dem Bildschrim. Ihre Aufgabe ist es, für jede Silbe anzugeben, ob diese etwas angenehmes, oder unangenehmes bedeuten könnte. Verlassen Sie sich hier vor allem auf Ihre Intuition.<br><br>Die Zeichen werden nur zur Orientierung dargestellt, beachten Sie sie deshalb nicht. Konzentrieren Sie sich vor allem auf die Silben. <br>Reagieren Sie mit folgenden zwei Tasten: <br><br><b>'D' </b> wenn die Silbe etwas <b>unangenehmes</b> bedeuten könnte. <br><b>'K'</b> wenn die Silbe etwas <b>angenehmes</b> bedeuten könnte. <br><br>Bitte legen Sie nun den Zeigefinger der linken Hand auf die Taste 'D' und den Zeigefinger der rechten Hand auf die Taste 'K'. <br>Reagieren Sie auf jede Silbe so schnell wie möglich. Uns interessiert Ihre spontane Reaktion. <br> <br> <br>Drücken Sie 'D' oder 'K', um die nächste Aufgabe zu starten. </p>","68","","","","","","","","","",""
"","html-keyboard-response","123","803686","0.0-10.0-0.0","98rrbc2jur","one_one","1","direct_first","1","ca09ao09","0","21","1","0","3","1","","0","1","0","null","","","<div style=""font-size:60px;"">+</div>","null","","","","","","","","","",""
"","html-keyboard-response","124","803785","0.0-10.0-1.0","98rrbc2jur","one_one","1","direct_first","1","ca09ao09","0","21","1","0","3","1","","0","1","0","null","","","<img src = 'category2/CS4.png' width = '100%;'>","null","","","","","","","","","",""
"","html-keyboard-response","125","804050","0.0-10.0-2.0","98rrbc2jur","one_one","1","direct_first","1","ca09ao09","0","21","1","0","3","1","","0","1","0","null","","","<img src = 'targets/27.png' width = '100%;'>","null","","","","","","","","","",""
"","html-keyboard-response","126","811931","0.0-10.0-3.0","98rrbc2jur","one_one","1","direct_first","1","ca09ao09","0","21","1","0","3","1","","0","1","0","7882.759999949485","","","<img src = 'targets/mask.png' width = '100%;'>","75","neg","GS","GSold","2","category2/CS4.png","","targets/27.png","indirect","1","0"
"","html-keyboard-response","127","813447","0.0-10.0-0.1","98rrbc2jur","one_one","1","direct_first","1","ca09ao09","0","21","1","0","3","1","","0","1","0","null","","","<div style=""font-size:60px;"">+</div>","null","","","","","","","","","",""
"","html-keyboard-response","128","813546","0.0-10.0-1.1","98rrbc2jur","one_one","1","direct_first","1","ca09ao09","0","21","1","0","3","1","","0","1","0","null","","","<img src = 'category1/CS3.png' width = '100%;'>","null","","","","","","","","","",""
"","html-keyboard-response","129","813814","0.0-10.0-2.1","98rrbc2jur","one_one","1","direct_first","1","ca09ao09","0","21","1","0","3","1","","0","1","0","null","","","<img src = 'targets/5.png' width = '100%;'>","null","","","","","","","","","",""
"","html-keyboard-response","130","816482","0.0-10.0-3.1","98rrbc2jur","one_one","1","direct_first","1","ca09ao09","0","21","1","0","3","1","","0","1","0","2665.975000243634","","","<img src = 'targets/mask.png' width = '100%;'>","75","pos","CS","CS","1","category1/CS3.png","","targets/5.png","indirect","1","1"
"","html-keyboard-response","131","817991","0.0-10.0-0.2","98rrbc2jur","one_one","1","direct_first","1","ca09ao09","0","21","1","0","3","1","","0","1","0","null","","","<div style=""font-size:60px;"">+</div>","null","","","","","","","","","",""
"","html-keyboard-response","132","818083","0.0-10.0-1.2","98rrbc2jur","one_one","1","direct_first","1","ca09ao09","0","21","1","0","3","1","","0","1","0","null","","","<img src = 'category2/CS3.png' width = '100%;'>","null","","","","","","","","","",""
"","html-keyboard-response","133","818350","0.0-10.0-2.2","98rrbc2jur","one_one","1","direct_first","1","ca09ao09","0","21","1","0","3","1","","0","1","0","null","","","<img src = 'targets/29.png' width = '100%;'>","null","","","","","","","","","",""
"","html-keyboard-response","134","820118","0.0-10.0-3.2","98rrbc2jur","one_one","1","direct_first","1","ca09ao09","0","21","1","0","3","1","","0","1","0","1766.0099999047816","","","<img src = 'targets/mask.png' width = '100%;'>","68","neg","GS","GSold","2","category2/CS3.png","","targets/29.png","indirect","0","2"
"","html-keyboard-response","135","821630","0.0-10.0-0.3","98rrbc2jur","one_one","1","direct_first","1","ca09ao09","0","21","1","0","3","1","","0","1","0","null","","","<div style=""font-size:60px;"">+</div>","null","","","","","","","","","",""
"","html-keyboard-response","136","821722","0.0-10.0-1.3","98rrbc2jur","one_one","1","direct_first","1","ca09ao09","0","21","1","0","3","1","","0","1","0","null","","","<img src = 'category1/CS1.png' width = '100%;'>","null","","","","","","","","","",""
"","html-keyboard-response","137","821981","0.0-10.0-2.3","98rrbc2jur","one_one","1","direct_first","1","ca09ao09","0","21","1","0","3","1","","0","1","0","null","","","<img src = 'targets/18.png' width = '100%;'>","null","","","","","","","","","",""
"","html-keyboard-response","138","823263","0.0-10.0-3.3","98rrbc2jur","one_one","1","direct_first","1","ca09ao09","0","21","1","0","3","1","","0","1","0","1280.3950002416968","","","<img src = 'targets/mask.png' width = '100%;'>","75","pos","GS","GSold","1","category1/CS1.png","","targets/18.png","indirect","1","3"
"","html-keyboard-response","139","824771","0.0-10.0-0.4","98rrbc2jur","one_one","1","direct_first","1","ca09ao09","0","21","1","0","3","1","","0","1","0","null","","","<div style=""font-size:60px;"">+</div>","null","","","","","","","","","",""
"","html-keyboard-response","140","824870","0.0-10.0-1.4","98rrbc2jur","one_one","1","direct_first","1","ca09ao09","0","21","1","0","3","1","","0","1","0","null","","","<img src = 'category3/CS9.png' width = '100%;'>","null","","","","","","","","","",""
"","html-keyboard-response","141","825129","0.0-10.0-2.4","98rrbc2jur","one_one","1","direct_first","1","ca09ao09","0","21","1","0","3","1","","0","1","0","null","","","<img src = 'targets/19.png' width = '100%;'>","null","","","","","","","","","",""
"","html-keyboard-response","142","827034","0.0-10.0-3.4","98rrbc2jur","one_one","1","direct_first","1","ca09ao09","0","21","1","0","3","1","","0","1","0","1903.3300001174212","","","<img src = 'targets/mask.png' width = '100%;'>","68","pos","GS","GSold","3","category3/CS9.png","","targets/19.png","indirect","0","4"
"","html-keyboard-response","143","828542","0.0-10.0-0.5","98rrbc2jur","one_one","1","direct_first","1","ca09ao09","0","21","1","0","3","1","","0","1","0","null","","","<div style=""font-size:60px;"">+</div>","null","","","","","","","","","",""
"","html-keyboard-response","144","828641","0.0-10.0-1.5","98rrbc2jur","one_one","1","direct_first","1","ca09ao09","0","21","1","0","3","1","","0","1","0","null","","","<img src = 'category2/CS10.png' width = '100%;'>","null","","","","","","","","","",""
"","html-keyboard-response","145","828897","0.0-10.0-2.5","98rrbc2jur","one_one","1","direct_first","1","ca09ao09","0","21","1","0","3","1","","0","1","0","null","","","<img src = 'targets/9.png' width = '100%;'>","null","","","","","","","","","",""
"","html-keyboard-response","146","830023","0.0-10.0-3.5","98rrbc2jur","one_one","1","direct_first","1","ca09ao09","0","21","1","0","3","1","","0","1","0","1123.4549996443093","","","<img src = 'targets/mask.png' width = '100%;'>","75","neg","GS","GSold","2","category2/CS10.png","","targets/9.png","indirect","1","5"
"","html-keyboard-response","147","831531","0.0-10.0-0.6","98rrbc2jur","one_one","1","direct_first","1","ca09ao09","0","21","1","0","3","1","","0","1","0","null","","","<div style=""font-size:60px;"">+</div>","null","","","","","","","","","",""
"","html-keyboard-response","148","831631","0.0-10.0-1.6","98rrbc2jur","one_one","1","direct_first","1","ca09ao09","0","21","1","0","3","1","","0","1","0","null","","","<img src = 'category1/CS5.png' width = '100%;'>","null","","","","","","","","","",""
"","html-keyboard-response","149","831891","0.0-10.0-2.6","98rrbc2jur","one_one","1","direct_first","1","ca09ao09","0","21","1","0","3","1","","0","1","0","null","","","<img src = 'targets/25.png' width = '100%;'>","null","","","","","","","","","",""
"","html-keyboard-response","150","832852","0.0-10.0-3.6","98rrbc2jur","one_one","1","direct_first","1","ca09ao09","0","21","1","0","3","1","","0","1","0","959.3250001780689","","","<img src = 'targets/mask.png' width = '100%;'>","75","pos","GS","GSold","1","category1/CS5.png","","targets/25.png","indirect","1","6"
"","html-keyboard-response","151","834367","0.0-10.0-0.7","98rrbc2jur","one_one","1","direct_first","1","ca09ao09","0","21","1","0","3","1","","0","1","0","null","","","<div style=""font-size:60px;"">+</div>","null","","","","","","","","","",""
"","html-keyboard-response","152","834462","0.0-10.0-1.7","98rrbc2jur","one_one","1","direct_first","1","ca09ao09","0","21","1","0","3","1","","0","1","0","null","","","<img src = 'category4/CS1.png' width = '100%;'>","null","","","","","","","","","",""
"","html-keyboard-response","153","834722","0.0-10.0-2.7","98rrbc2jur","one_one","1","direct_first","1","ca09ao09","0","21","1","0","3","1","","0","1","0","null","","","<img src = 'targets/28.png' width = '100%;'>","null","","","","","","","","","",""
"","html-keyboard-response","154","835842","0.0-10.0-3.7","98rrbc2jur","one_one","1","direct_first","1","ca09ao09","0","21","1","0","3","1","","0","1","0","1118.104999884963","","","<img src = 'targets/mask.png' width = '100%;'>","75","neg","GS","GSold","4","category4/CS1.png","","targets/28.png","indirect","1","7"
"","html-keyboard-response","155","837354","0.0-10.0-0.8","98rrbc2jur","one_one","1","direct_first","1","ca09ao09","0","21","1","0","3","1","","0","1","0","null","","","<div style=""font-size:60px;"">+</div>","null","","","","","","","","","",""
"","html-keyboard-response","156","837453","0.0-10.0-1.8","98rrbc2jur","one_one","1","direct_first","1","ca09ao09","0","21","1","0","3","1","","0","1","0","null","","","<img src = 'category4/CS3.png' width = '100%;'>","null","","","","","","","","","",""
"","html-keyboard-response","157","837712","0.0-10.0-2.8","98rrbc2jur","one_one","1","direct_first","1","ca09ao09","0","21","1","0","3","1","","0","1","0","null","","","<img src = 'targets/23.png' width = '100%;'>","null","","","","","","","","","",""
"","html-keyboard-response","158","838876","0.0-10.0-3.8","98rrbc2jur","one_one","1","direct_first","1","ca09ao09","0","21","1","0","3","1","","0","1","0","1162.870000116527","","","<img src = 'targets/mask.png' width = '100%;'>","68","neg","GS","GSold","4","category4/CS3.png","","targets/23.png","indirect","0","8"
"","html-keyboard-response","159","840391","0.0-10.0-0.9","98rrbc2jur","one_one","1","direct_first","1","ca09ao09","0","21","1","0","3","1","","0","1","0","null","","","<div style=""font-size:60px;"">+</div>","null","","","","","","","","","",""
"","html-keyboard-response","160","840490","0.0-10.0-1.9","98rrbc2jur","one_one","1","direct_first","1","ca09ao09","0","21","1","0","3","1","","0","1","0","null","","","<img src = 'category3/CS6.png' width = '100%;'>","null","","","","","","","","","",""
"","html-keyboard-response","161","840751","0.0-10.0-2.9","98rrbc2jur","one_one","1","direct_first","1","ca09ao09","0","21","1","0","3","1","","0","1","0","null","","","<img src = 'targets/48.png' width = '100%;'>","null","","","","","","","","","",""
"","html-keyboard-response","162","841537","0.0-10.0-3.9","98rrbc2jur","one_one","1","direct_first","1","ca09ao09","0","21","1","0","3","1","","0","1","0","784.1349998489022","","","<img src = 'targets/mask.png' width = '100%;'>","68","pos","CS","CS","3","category3/CS6.png","","targets/48.png","indirect","0","9"
"","html-keyboard-response","163","843051","0.0-10.0-0.10","98rrbc2jur","one_one","1","direct_first","1","ca09ao09","0","21","1","0","3","1","","0","1","0","null","","","<div style=""font-size:60px;"">+</div>","null","","","","","","","","","",""
"","html-keyboard-response","164","843149","0.0-10.0-1.10","98rrbc2jur","one_one","1","direct_first","1","ca09ao09","0","21","1","0","3","1","","0","1","0","null","","","<img src = 'category1/CS7.png' width = '100%;'>","null","","","","","","","","","",""
"","html-keyboard-response","165","843412","0.0-10.0-2.10","98rrbc2jur","one_one","1","direct_first","1","ca09ao09","0","21","1","0","3","1","","0","1","0","null","","","<img src = 'targets/47.png' width = '100%;'>","null","","","","","","","","","",""
"","html-keyboard-response","166","844605","0.0-10.0-3.10","98rrbc2jur","one_one","1","direct_first","1","ca09ao09","0","21","1","0","3","1","","0","1","0","1191.4899996481836","","","<img src = 'targets/mask.png' width = '100%;'>","68","pos","GS","GSold","1","category1/CS7.png","","targets/47.png","indirect","0","10"
"","html-keyboard-response","167","846111","0.0-10.0-0.11","98rrbc2jur","one_one","1","direct_first","1","ca09ao09","0","21","1","0","3","1","","0","1","0","null","","","<div style=""font-size:60px;"">+</div>","null","","","","","","","","","",""
"","html-keyboard-response","168","846210","0.0-10.0-1.11","98rrbc2jur","one_one","1","direct_first","1","ca09ao09","0","21","1","0","3","1","","0","1","0","null","","","<img src = 'category3/CS10.png' width = '100%;'>","null","","","","","","","","","",""
"","html-keyboard-response","169","846475","0.0-10.0-2.11","98rrbc2jur","one_one","1","direct_first","1","ca09ao09","0","21","1","0","3","1","","0","1","0","null","","","<img src = 'targets/22.png' width = '100%;'>","null","","","","","","","","","",""
"","html-keyboard-response","170","847488","0.0-10.0-3.11","98rrbc2jur","one_one","1","direct_first","1","ca09ao09","0","21","1","0","3","1","","0","1","0","1010.4099996387959","","","<img src = 'targets/mask.png' width = '100%;'>","68","pos","GS","GSold","3","category3/CS10.png","","targets/22.png","indirect","0","11"
"","html-keyboard-response","171","848996","0.0-10.0-0.12","98rrbc2jur","one_one","1","direct_first","1","ca09ao09","0","21","1","0","3","1","","0","1","0","null","","","<div style=""font-size:60px;"">+</div>","null","","","","","","","","","",""
"","html-keyboard-response","172","849087","0.0-10.0-1.12","98rrbc2jur","one_one","1","direct_first","1","ca09ao09","0","21","1","0","3","1","","0","1","0","null","","","<img src = 'category4/CS9.png' width = '100%;'>","null","","","","","","","","","",""
"","html-keyboard-response","173","849348","0.0-10.0-2.12","98rrbc2jur","one_one","1","direct_first","1","ca09ao09","0","21","1","0","3","1","","0","1","0","null","","","<img src = 'targets/37.png' width = '100%;'>","null","","","","","","","","","",""
"","html-keyboard-response","174","851025","0.0-10.0-3.12","98rrbc2jur","one_one","1","direct_first","1","ca09ao09","0","21","1","0","3","1","","0","1","0","1674.3200002238154","","","<img src = 'targets/mask.png' width = '100%;'>","75","neg","GS","GSold","4","category4/CS9.png","","targets/37.png","indirect","1","12"
"","html-keyboard-response","175","852533","0.0-10.0-0.13","98rrbc2jur","one_one","1","direct_first","1","ca09ao09","0","21","1","0","3","1","","0","1","0","null","","","<div style=""font-size:60px;"">+</div>","null","","","","","","","","","",""
"","html-keyboard-response","176","852631","0.0-10.0-1.13","98rrbc2jur","one_one","1","direct_first","1","ca09ao09","0","21","1","0","3","1","","0","1","0","null","","","<img src = 'category4/CS5.png' width = '100%;'>","null","","","","","","","","","",""
"","html-keyboard-response","177","852886","0.0-10.0-2.13","98rrbc2jur","one_one","1","direct_first","1","ca09ao09","0","21","1","0","3","1","","0","1","0","null","","","<img src = 'targets/11.png' width = '100%;'>","null","","","","","","","","","",""
"","html-keyboard-response","178","854118","0.0-10.0-3.13","98rrbc2jur","one_one","1","direct_first","1","ca09ao09","0","21","1","0","3","1","","0","1","0","1228.9299997501075","","","<img src = 'targets/mask.png' width = '100%;'>","75","neg","CS","CS","4","category4/CS5.png","","targets/11.png","indirect","1","13"
"","html-keyboard-response","179","855630","0.0-10.0-0.14","98rrbc2jur","one_one","1","direct_first","1","ca09ao09","0","21","1","0","3","1","","0","1","0","null","","","<div style=""font-size:60px;"">+</div>","null","","","","","","","","","",""
"","html-keyboard-response","180","855729","0.0-10.0-1.14","98rrbc2jur","one_one","1","direct_first","1","ca09ao09","0","21","1","0","3","1","","0","1","0","null","","","<img src = 'category2/CS1.png' width = '100%;'>","null","","","","","","","","","",""
"","html-keyboard-response","181","855983","0.0-10.0-2.14","98rrbc2jur","one_one","1","direct_first","1","ca09ao09","0","21","1","0","3","1","","0","1","0","null","","","<img src = 'targets/30.png' width = '100%;'>","null","","","","","","","","","",""
"","html-keyboard-response","182","856817","0.0-10.0-3.14","98rrbc2jur","one_one","1","direct_first","1","ca09ao09","0","21","1","0","3","1","","0","1","0","831.5600003115833","","","<img src = 'targets/mask.png' width = '100%;'>","75","neg","CS","CS","2","category2/CS1.png","","targets/30.png","indirect","1","14"
"","html-keyboard-response","183","858328","0.0-10.0-0.15","98rrbc2jur","one_one","1","direct_first","1","ca09ao09","0","21","1","0","3","1","","0","1","0","null","","","<div style=""font-size:60px;"">+</div>","null","","","","","","","","","",""
"","html-keyboard-response","184","858421","0.0-10.0-1.15","98rrbc2jur","one_one","1","direct_first","1","ca09ao09","0","21","1","0","3","1","","0","1","0","null","","","<img src = 'category3/CS8.png' width = '100%;'>","null","","","","","","","","","",""
"","html-keyboard-response","185","858682","0.0-10.0-2.15","98rrbc2jur","one_one","1","direct_first","1","ca09ao09","0","21","1","0","3","1","","0","1","0","null","","","<img src = 'targets/40.png' width = '100%;'>","null","","","","","","","","","",""
"","html-keyboard-response","186","859691","0.0-10.0-3.15","98rrbc2jur","one_one","1","direct_first","1","ca09ao09","0","21","1","0","3","1","","0","1","0","1006.3350000418723","","","<img src = 'targets/mask.png' width = '100%;'>","68","pos","GS","GSold","3","category3/CS8.png","","targets/40.png","indirect","0","15"
"","survey-html-form","187","863845","0.0-11.0","98rrbc2jur","one_one","1","direct_first","1","ca09ao09","0","21","1","0","3","1","","0","1","0","3651.2699997983873","","{}","","","","","","","","","","","",""
"","html-keyboard-response","188","866857","0.0-12.0-0.0","98rrbc2jur","one_one","1","direct_first","1","ca09ao09","0","21","1","0","3","1","","0","1","0","null","","","<div style=""font-size:60px;"">+</div>","null","","","","","","","","","",""
"","html-keyboard-response","189","866956","0.0-12.0-1.0","98rrbc2jur","one_one","1","direct_first","1","ca09ao09","0","21","1","0","3","1","","0","1","0","null","","","<img src = 'category2/men.png' width = '100%;'>","null","","","","","","","","","",""
"","html-keyboard-response","190","867214","0.0-12.0-2.0","98rrbc2jur","one_one","1","direct_first","1","ca09ao09","0","21","1","0","3","1","","0","1","0","null","","","<img src = 'targets/17.png' width = '100%;'>","null","","","","","","","","","",""
"","html-keyboard-response","191","868249","0.0-12.0-3.0","98rrbc2jur","one_one","1","direct_first","1","ca09ao09","0","21","1","0","3","1","","0","1","0","1031.3599999062717","","","<img src = 'targets/mask.png' width = '100%;'>","75","neg","GS","abstract","2","category2/men.png","","targets/17.png","indirect","1","16"
"","html-keyboard-response","192","869760","0.0-12.0-0.1","98rrbc2jur","one_one","1","direct_first","1","ca09ao09","0","21","1","0","3","1","","0","1","0","null","","","<div style=""font-size:60px;"">+</div>","null","","","","","","","","","",""
"","html-keyboard-response","193","869859","0.0-12.0-1.1","98rrbc2jur","one_one","1","direct_first","1","ca09ao09","0","21","1","0","3","1","","0","1","0","null","","","<img src = 'category1/GS3.png' width = '100%;'>","null","","","","","","","","","",""
"","html-keyboard-response","194","870126","0.0-12.0-2.1","98rrbc2jur","one_one","1","direct_first","1","ca09ao09","0","21","1","0","3","1","","0","1","0","null","","","<img src = 'targets/38.png' width = '100%;'>","null","","","","","","","","","",""
"","html-keyboard-response","195","871569","0.0-12.0-3.1","98rrbc2jur","one_one","1","direct_first","1","ca09ao09","0","21","1","0","3","1","","0","1","0","1442.1750004403293","","","<img src = 'targets/mask.png' width = '100%;'>","75","pos","GS","GSnew","1","category1/GS3.png","","targets/38.png","indirect","1","17"
"","html-keyboard-response","196","873083","0.0-12.0-0.2","98rrbc2jur","one_one","1","direct_first","1","ca09ao09","0","21","1","0","3","1","","0","1","0","null","","","<div style=""font-size:60px;"">+</div>","null","","","","","","","","","",""
"","html-keyboard-response","197","873181","0.0-12.0-1.2","98rrbc2jur","one_one","1","direct_first","1","ca09ao09","0","21","1","0","3","1","","0","1","0","null","","","<img src = 'category3/wang.png' width = '100%;'>","null","","","","","","","","","",""
"","html-keyboard-response","198","873448","0.0-12.0-2.2","98rrbc2jur","one_one","1","direct_first","1","ca09ao09","0","21","1","0","3","1","","0","1","0","null","","","<img src = 'targets/6.png' width = '100%;'>","null","","","","","","","","","",""
"","html-keyboard-response","199","874758","0.0-12.0-3.2","98rrbc2jur","one_one","1","direct_first","1","ca09ao09","0","21","1","0","3","1","","0","1","0","1306.8249998614192","","","<img src = 'targets/mask.png' width = '100%;'>","68","pos","GS","abstract","3","category3/wang.png","","targets/6.png","indirect","0","18"
"","html-keyboard-response","200","876264","0.0-12.0-0.3","98rrbc2jur","one_one","1","direct_first","1","ca09ao09","0","21","1","0","3","1","","0","1","0","null","","","<div style=""font-size:60px;"">+</div>","null","","","","","","","","","",""
"","html-keyboard-response","201","876362","0.0-12.0-1.3","98rrbc2jur","one_one","1","direct_first","1","ca09ao09","0","21","1","0","3","1","","0","1","0","null","","","<img src = 'category2/GS2.png' width = '100%;'>","null","","","","","","","","","",""
"","html-keyboard-response","202","876621","0.0-12.0-2.3","98rrbc2jur","one_one","1","direct_first","1","ca09ao09","0","21","1","0","3","1","","0","1","0","null","","","<img src = 'targets/1.png' width = '100%;'>","null","","","","","","","","","",""
"","html-keyboard-response","203","877513","0.0-12.0-3.3","98rrbc2jur","one_one","1","direct_first","1","ca09ao09","0","21","1","0","3","1","","0","1","0","889.5149999298155","","","<img src = 'targets/mask.png' width = '100%;'>","75","neg","GS","GSnew","2","category2/GS2.png","","targets/1.png","indirect","1","19"
"","html-keyboard-response","204","879024","0.0-12.0-0.4","98rrbc2jur","one_one","1","direct_first","1","ca09ao09","0","21","1","0","3","1","","0","1","0","null","","","<div style=""font-size:60px;"">+</div>","null","","","","","","","","","",""
"","html-keyboard-response","205","879122","0.0-12.0-1.4","98rrbc2jur","one_one","1","direct_first","1","ca09ao09","0","21","1","0","3","1","","0","1","0","null","","","<img src = 'category4/GS1.png' width = '100%;'>","null","","","","","","","","","",""
"","html-keyboard-response","206","879384","0.0-12.0-2.4","98rrbc2jur","one_one","1","direct_first","1","ca09ao09","0","21","1","0","3","1","","0","1","0","null","","","<img src = 'targets/39.png' width = '100%;'>","null","","","","","","","","","",""
"","html-keyboard-response","207","880707","0.0-12.0-3.4","98rrbc2jur","one_one","1","direct_first","1","ca09ao09","0","21","1","0","3","1","","0","1","0","1320.0400001369417","","","<img src = 'targets/mask.png' width = '100%;'>","75","neg","GS","GSnew","4","category4/GS1.png","","targets/39.png","indirect","1","20"
"","html-keyboard-response","208","882219","0.0-12.0-0.5","98rrbc2jur","one_one","1","direct_first","1","ca09ao09","0","21","1","0","3","1","","0","1","0","null","","","<div style=""font-size:60px;"">+</div>","null","","","","","","","","","",""
"","html-keyboard-response","209","882320","0.0-12.0-1.5","98rrbc2jur","one_one","1","direct_first","1","ca09ao09","0","21","1","0","3","1","","0","1","0","null","","","<img src = 'category2/GS3.png' width = '100%;'>","null","","","","","","","","","",""
"","html-keyboard-response","210","882583","0.0-12.0-2.5","98rrbc2jur","one_one","1","direct_first","1","ca09ao09","0","21","1","0","3","1","","0","1","0","null","","","<img src = 'targets/8.png' width = '100%;'>","null","","","","","","","","","",""
"","html-keyboard-response","211","884399","0.0-12.0-3.5","98rrbc2jur","one_one","1","direct_first","1","ca09ao09","0","21","1","0","3","1","","0","1","0","1814.2249998636544","","","<img src = 'targets/mask.png' width = '100%;'>","68","neg","GS","GSnew","2","category2/GS3.png","","targets/8.png","indirect","0","21"
"","html-keyboard-response","212","885902","0.0-12.0-0.6","98rrbc2jur","one_one","1","direct_first","1","ca09ao09","0","21","1","0","3","1","","0","1","0","null","","","<div style=""font-size:60px;"">+</div>","null","","","","","","","","","",""
"","html-keyboard-response","213","885999","0.0-12.0-1.6","98rrbc2jur","one_one","1","direct_first","1","ca09ao09","0","21","1","0","3","1","","0","1","0","null","","","<img src = 'category4/lin.png' width = '100%;'>","null","","","","","","","","","",""
"","html-keyboard-response","214","886263","0.0-12.0-2.6","98rrbc2jur","one_one","1","direct_first","1","ca09ao09","0","21","1","0","3","1","","0","1","0","null","","","<img src = 'targets/16.png' width = '100%;'>","null","","","","","","","","","",""
"","html-keyboard-response","215","888340","0.0-12.0-3.6","98rrbc2jur","one_one","1","direct_first","1","ca09ao09","0","21","1","0","3","1","","0","1","0","2074.2049999535084","","","<img src = 'targets/mask.png' width = '100%;'>","68","neg","GS","abstract","4","category4/lin.png","","targets/16.png","indirect","0","22"
"","html-keyboard-response","216","889851","0.0-12.0-0.7","98rrbc2jur","one_one","1","direct_first","1","ca09ao09","0","21","1","0","3","1","","0","1","0","null","","","<div style=""font-size:60px;"">+</div>","null","","","","","","","","","",""
"","html-keyboard-response","217","889949","0.0-12.0-1.7","98rrbc2jur","one_one","1","direct_first","1","ca09ao09","0","21","1","0","3","1","","0","1","0","null","","","<img src = 'category1/GS1.png' width = '100%;'>","null","","","","","","","","","",""
"","html-keyboard-response","218","890204","0.0-12.0-2.7","98rrbc2jur","one_one","1","direct_first","1","ca09ao09","0","21","1","0","3","1","","0","1","0","null","","","<img src = 'targets/2.png' width = '100%;'>","null","","","","","","","","","",""
"","html-keyboard-response","219","892321","0.0-12.0-3.7","98rrbc2jur","one_one","1","direct_first","1","ca09ao09","0","21","1","0","3","1","","0","1","0","2114.579999819398","","","<img src = 'targets/mask.png' width = '100%;'>","68","pos","GS","GSnew","1","category1/GS1.png","","targets/2.png","indirect","0","23"
"","html-keyboard-response","220","893827","0.0-12.0-0.8","98rrbc2jur","one_one","1","direct_first","1","ca09ao09","0","21","1","0","3","1","","0","1","0","null","","","<div style=""font-size:60px;"">+</div>","null","","","","","","","","","",""
"","html-keyboard-response","221","893919","0.0-12.0-1.8","98rrbc2jur","one_one","1","direct_first","1","ca09ao09","0","21","1","0","3","1","","0","1","0","null","","","<img src = 'category4/GS2.png' width = '100%;'>","null","","","","","","","","","",""
"","html-keyboard-response","222","894182","0.0-12.0-2.8","98rrbc2jur","one_one","1","direct_first","1","ca09ao09","0","21","1","0","3","1","","0","1","0","null","","","<img src = 'targets/34.png' width = '100%;'>","null","","","","","","","","","",""
"","html-keyboard-response","223","894909","0.0-12.0-3.8","98rrbc2jur","one_one","1","direct_first","1","ca09ao09","0","21","1","0","3","1","","0","1","0","724.8350000008941","","","<img src = 'targets/mask.png' width = '100%;'>","75","neg","GS","GSnew","4","category4/GS2.png","","targets/34.png","indirect","1","24"
"","html-keyboard-response","224","896422","0.0-12.0-0.9","98rrbc2jur","one_one","1","direct_first","1","ca09ao09","0","21","1","0","3","1","","0","1","0","null","","","<div style=""font-size:60px;"">+</div>","null","","","","","","","","","",""
"","html-keyboard-response","225","896514","0.0-12.0-1.9","98rrbc2jur","one_one","1","direct_first","1","ca09ao09","0","21","1","0","3","1","","0","1","0","null","","","<img src = 'category3/GS3.png' width = '100%;'>","null","","","","","","","","","",""
"","html-keyboard-response","226","896771","0.0-12.0-2.9","98rrbc2jur","one_one","1","direct_first","1","ca09ao09","0","21","1","0","3","1","","0","1","0","null","","","<img src = 'targets/10.png' width = '100%;'>","null","","","","","","","","","",""
"","html-keyboard-response","227","898434","0.0-12.0-3.9","98rrbc2jur","one_one","1","direct_first","1","ca09ao09","0","21","1","0","3","1","","0","1","0","1661.1549998633564","","","<img src = 'targets/mask.png' width = '100%;'>","68","pos","GS","GSnew","3","category3/GS3.png","","targets/10.png","indirect","0","25"
"","html-keyboard-response","228","899944","0.0-12.0-0.10","98rrbc2jur","one_one","1","direct_first","1","ca09ao09","0","21","1","0","3","1","","0","1","0","null","","","<div style=""font-size:60px;"">+</div>","null","","","","","","","","","",""
"","html-keyboard-response","229","900042","0.0-12.0-1.10","98rrbc2jur","one_one","1","direct_first","1","ca09ao09","0","21","1","0","3","1","","0","1","0","null","","","<img src = 'category4/GS3.png' width = '100%;'>","null","","","","","","","","","",""
"","html-keyboard-response","230","900304","0.0-12.0-2.10","98rrbc2jur","one_one","1","direct_first","1","ca09ao09","0","21","1","0","3","1","","0","1","0","null","","","<img src = 'targets/26.png' width = '100%;'>","null","","","","","","","","","",""
"","html-keyboard-response","231","901192","0.0-12.0-3.10","98rrbc2jur","one_one","1","direct_first","1","ca09ao09","0","21","1","0","3","1","","0","1","0","886.1400000751019","","","<img src = 'targets/mask.png' width = '100%;'>","68","neg","GS","GSnew","4","category4/GS3.png","","targets/26.png","indirect","0","26"
"","html-keyboard-response","232","902695","0.0-12.0-0.11","98rrbc2jur","one_one","1","direct_first","1","ca09ao09","0","21","1","0","3","1","","0","1","0","null","","","<div style=""font-size:60px;"">+</div>","null","","","","","","","","","",""
"","html-keyboard-response","233","902793","0.0-12.0-1.11","98rrbc2jur","one_one","1","direct_first","1","ca09ao09","0","21","1","0","3","1","","0","1","0","null","","","<img src = 'category1/ma.png' width = '100%;'>","null","","","","","","","","","",""
"","html-keyboard-response","234","903059","0.0-12.0-2.11","98rrbc2jur","one_one","1","direct_first","1","ca09ao09","0","21","1","0","3","1","","0","1","0","null","","","<img src = 'targets/32.png' width = '100%;'>","null","","","","","","","","","",""
"","html-keyboard-response","235","904032","0.0-12.0-3.11","98rrbc2jur","one_one","1","direct_first","1","ca09ao09","0","21","1","0","3","1","","0","1","0","970.7200000993907","","","<img src = 'targets/mask.png' width = '100%;'>","68","pos","GS","abstract","1","category1/ma.png","","targets/32.png","indirect","0","27"
"","html-keyboard-response","236","905543","0.0-12.0-0.12","98rrbc2jur","one_one","1","direct_first","1","ca09ao09","0","21","1","0","3","1","","0","1","0","null","","","<div style=""font-size:60px;"">+</div>","null","","","","","","","","","",""
"","html-keyboard-response","237","905642","0.0-12.0-1.12","98rrbc2jur","one_one","1","direct_first","1","ca09ao09","0","21","1","0","3","1","","0","1","0","null","","","<img src = 'category3/GS2.png' width = '100%;'>","null","","","","","","","","","",""
"","html-keyboard-response","238","905904","0.0-12.0-2.12","98rrbc2jur","one_one","1","direct_first","1","ca09ao09","0","21","1","0","3","1","","0","1","0","null","","","<img src = 'targets/42.png' width = '100%;'>","null","","","","","","","","","",""
"","html-keyboard-response","239","906689","0.0-12.0-3.12","98rrbc2jur","one_one","1","direct_first","1","ca09ao09","0","21","1","0","3","1","","0","1","0","782.4850003235042","","","<img src = 'targets/mask.png' width = '100%;'>","75","pos","GS","GSnew","3","category3/GS2.png","","targets/42.png","indirect","1","28"
"","html-keyboard-response","240","908201","0.0-12.0-0.13","98rrbc2jur","one_one","1","direct_first","1","ca09ao09","0","21","1","0","3","1","","0","1","0","null","","","<div style=""font-size:60px;"">+</div>","null","","","","","","","","","",""
"","html-keyboard-response","241","908300","0.0-12.0-1.13","98rrbc2jur","one_one","1","direct_first","1","ca09ao09","0","21","1","0","3","1","","0","1","0","null","","","<img src = 'category3/GS1.png' width = '100%;'>","null","","","","","","","","","",""
"","html-keyboard-response","242","908561","0.0-12.0-2.13","98rrbc2jur","one_one","1","direct_first","1","ca09ao09","0","21","1","0","3","1","","0","1","0","null","","","<img src = 'targets/45.png' width = '100%;'>","null","","","","","","","","","",""
"","html-keyboard-response","243","909289","0.0-12.0-3.13","98rrbc2jur","one_one","1","direct_first","1","ca09ao09","0","21","1","0","3","1","","0","1","0","726.7950000241399","","","<img src = 'targets/mask.png' width = '100%;'>","75","pos","GS","GSnew","3","category3/GS1.png","","targets/45.png","indirect","1","29"
"","html-keyboard-response","244","910803","0.0-12.0-0.14","98rrbc2jur","one_one","1","direct_first","1","ca09ao09","0","21","1","0","3","1","","0","1","0","null","","","<div style=""font-size:60px;"">+</div>","null","","","","","","","","","",""
"","html-keyboard-response","245","910902","0.0-12.0-1.14","98rrbc2jur","one_one","1","direct_first","1","ca09ao09","0","21","1","0","3","1","","0","1","0","null","","","<img src = 'category2/GS1.png' width = '100%;'>","null","","","","","","","","","",""
"","html-keyboard-response","246","911162","0.0-12.0-2.14","98rrbc2jur","one_one","1","direct_first","1","ca09ao09","0","21","1","0","3","1","","0","1","0","null","","","<img src = 'targets/31.png' width = '100%;'>","null","","","","","","","","","",""
"","html-keyboard-response","247","911899","0.0-12.0-3.14","98rrbc2jur","one_one","1","direct_first","1","ca09ao09","0","21","1","0","3","1","","0","1","0","734.4100000336766","","","<img src = 'targets/mask.png' width = '100%;'>","75","neg","GS","GSnew","2","category2/GS1.png","","targets/31.png","indirect","1","30"
"","html-keyboard-response","248","913411","0.0-12.0-0.15","98rrbc2jur","one_one","1","direct_first","1","ca09ao09","0","21","1","0","3","1","","0","1","0","null","","","<div style=""font-size:60px;"">+</div>","null","","","","","","","","","",""
"","html-keyboard-response","249","913510","0.0-12.0-1.15","98rrbc2jur","one_one","1","direct_first","1","ca09ao09","0","21","1","0","3","1","","0","1","0","null","","","<img src = 'category1/GS2.png' width = '100%;'>","null","","","","","","","","","",""
"","html-keyboard-response","250","913773","0.0-12.0-2.15","98rrbc2jur","one_one","1","direct_first","1","ca09ao09","0","21","1","0","3","1","","0","1","0","null","","","<img src = 'targets/24.png' width = '100%;'>","null","","","","","","","","","",""
"","html-keyboard-response","251","914634","0.0-12.0-3.15","98rrbc2jur","one_one","1","direct_first","1","ca09ao09","0","21","1","0","3","1","","0","1","0","858.4549999795854","","","<img src = 'targets/mask.png' width = '100%;'>","75","pos","GS","GSnew","1","category1/GS2.png","","targets/24.png","indirect","1","31"
"","survey-html-form","252","925551","0.0-13.0","98rrbc2jur","one_one","1","direct_first","1","ca09ao09","0","21","1","0","3","1","","0","1","0","10414.209999609739","","{}","","","","","","","","","","","",""
"","image-slider-response","253","932748","0.0-14.0-0.0","98rrbc2jur","one_one","1","direct_first","1","ca09ao09","0","21","1","0","3","1","","0","1","0","6193.355000112206","","","","","neg","All","all","4","category4/lin_all.png","-14","","all","",""
"","image-slider-response","254","937164","0.0-14.0-0.1","98rrbc2jur","one_one","1","direct_first","1","ca09ao09","0","21","1","0","3","1","","0","1","0","4414.659999776632","","","","","pos","All","all","1","category1/ma_all.png","19","","all","",""
"","image-slider-response","255","943460","0.0-14.0-0.2","98rrbc2jur","one_one","1","direct_first","1","ca09ao09","0","21","1","0","3","1","","0","1","0","6294.414999894798","","","","","pos","All","all","3","category3/wang_all.png","-26","","all","",""
"","image-slider-response","256","946196","0.0-14.0-0.3","98rrbc2jur","one_one","1","direct_first","1","ca09ao09","0","21","1","0","3","1","","0","1","0","2734.6900003030896","","","","","neg","All","all","2","category2/men_all.png","59","","all","",""
"","survey-text","257","1080657","0.0-15.0","98rrbc2jur","one_one","1","direct_first","1","ca09ao09","0","21","1","0","3","1","","0","1","0","134448.17500002682","","{""comment"":""""}","","","","","","","","","","","",""
"","survey-html-form","258","1110761","0.0-16.0","98rrbc2jur","one_one","1","direct_first","1","ca09ao09","0","21","1","0","3","1","","0","1","0","30101.385000161827","","{""hinschauen"":""0"",""ablenkung"":""1"",""gewissenhaft"":""0""}","","","","","","","","","","","",""
