"success","trial_type","trial_index","time_elapsed","internal_node_id","subject","condition","condition_code","measure","measure_code","codeword","gender","age","education","chinese","fach","handedness","comment","hinschauen","ablenkung","gewissenhaft","rt","url","responses","stimulus","key_press","val","type","type_specific","category","cs_selected","response","target","task","indirect","nr_pres"
"true","fullscreen","0","54758","0.0-0.0","6jsxxs2gq0","many_one","0","direct_first","1","Er08nz31","0","24","1","1","3","1","","0","1","0","","","","","","","","","","","","","","",""
"","external-html","1","58344","0.0-1.0","6jsxxs2gq0","many_one","0","direct_first","1","Er08nz31","0","24","1","1","3","1","","0","1","0","3546.105000190437","text/information.html","","","","","","","","","","","","",""
"","external-html","2","66592","0.0-2.0","6jsxxs2gq0","many_one","0","direct_first","1","Er08nz31","0","24","1","1","3","1","","0","1","0","8226.155000273138","text/consent.html","","","","","","","","","","","","",""
"","survey-html-form","3","94048","0.0-3.0","6jsxxs2gq0","many_one","0","direct_first","1","Er08nz31","0","24","1","1","3","1","","0","1","0","27453.93499964848","","{""codeword_enter"":""Er08nz31""}","","","","","","","","","","","",""
"","survey-html-form","4","106663","0.0-4.0","6jsxxs2gq0","many_one","0","direct_first","1","Er08nz31","0","24","1","1","3","1","","0","1","0","12613.379999995232","","{""age"":""24"",""education"":""1"",""subject"":""3"",""gender"":""0"",""handedness"":""1"",""chinese"":""1""}","","","","","","","","","","","",""
"","survey-html-form","5","115893","0.0-5.0","6jsxxs2gq0","many_one","0","direct_first","1","Er08nz31","0","24","1","1","3","1","","0","1","0","9229.650000110269","","{}","","","","","","","","","","","",""
"","html-keyboard-response","6","119924","0.0-6.0-0.0-0.0","6jsxxs2gq0","many_one","0","direct_first","1","Er08nz31","0","24","1","1","3","1","","0","1","0","null","","","<div class = 'row'><div class = 'column'><img src = 'category1/CS7.png' width = '70%;'></div><div class = 'column'><img src = 'usneg/6212.bmp' width = '100%;'></div></div>","null","neg","CS","CS","1","category1/CS7.png","","","","",""
"","html-keyboard-response","7","122442","0.0-6.0-0.0-0.1","6jsxxs2gq0","many_one","0","direct_first","1","Er08nz31","0","24","1","1","3","1","","0","1","0","null","","","<div class = 'row'><div class = 'column'><img src = 'category3/CS2.png' width = '70%;'></div><div class = 'column'><img src = 'uspos/5830.bmp' width = '100%;'></div></div>","null","pos","CS","CS","3","category3/CS2.png","","","","",""
"","html-keyboard-response","8","124958","0.0-6.0-0.0-0.2","6jsxxs2gq0","many_one","0","direct_first","1","Er08nz31","0","24","1","1","3","1","","0","1","0","null","","","<div class = 'row'><div class = 'column'><img src = 'usneg/6838.bmp' width = '100%;'></div><div class = 'column'><img src = 'category2/CS6.png' width = '70%;'></div></div>","null","neg","CS","CS","2","category2/CS6.png","","","","",""
"","html-keyboard-response","9","127475","0.0-6.0-0.0-0.3","6jsxxs2gq0","many_one","0","direct_first","1","Er08nz31","0","24","1","1","3","1","","0","1","0","null","","","<div class = 'row'><div class = 'column'><img src = 'category1/CS1.png' width = '70%;'></div><div class = 'column'><img src = 'usneg/9830.bmp' width = '100%;'></div></div>","null","neg","CS","CS","1","category1/CS1.png","","","","",""
"","html-keyboard-response","10","129991","0.0-6.0-0.0-0.4","6jsxxs2gq0","many_one","0","direct_first","1","Er08nz31","0","24","1","1","3","1","","0","1","0","null","","","<div class = 'row'><div class = 'column'><img src = 'category2/CS1.png' width = '70%;'></div><div class = 'column'><img src = 'usneg/9435.bmp' width = '100%;'></div></div>","null","neg","CS","CS","2","category2/CS1.png","","","","",""
"","html-keyboard-response","11","132508","0.0-6.0-0.0-0.5","6jsxxs2gq0","many_one","0","direct_first","1","Er08nz31","0","24","1","1","3","1","","0","1","0","null","","","<div class = 'row'><div class = 'column'><img src = 'usneg/6570.1.bmp' width = '100%;'></div><div class = 'column'><img src = 'category1/CS10.png' width = '70%;'></div></div>","null","neg","CS","CS","1","category1/CS10.png","","","","",""
"","html-keyboard-response","12","135026","0.0-6.0-0.0-0.6","6jsxxs2gq0","many_one","0","direct_first","1","Er08nz31","0","24","1","1","3","1","","0","1","0","null","","","<div class = 'row'><div class = 'column'><img src = 'category3/CS8.png' width = '70%;'></div><div class = 'column'><img src = 'uspos/5700.bmp' width = '100%;'></div></div>","null","pos","CS","CS","3","category3/CS8.png","","","","",""
"","html-keyboard-response","13","137558","0.0-6.0-0.0-0.7","6jsxxs2gq0","many_one","0","direct_first","1","Er08nz31","0","24","1","1","3","1","","0","1","0","null","","","<div class = 'row'><div class = 'column'><img src = 'category1/CS5.png' width = '70%;'></div><div class = 'column'><img src = 'usneg/9561.bmp' width = '100%;'></div></div>","null","neg","CS","CS","1","category1/CS5.png","","","","",""
"","html-keyboard-response","14","140076","0.0-6.0-0.0-0.8","6jsxxs2gq0","many_one","0","direct_first","1","Er08nz31","0","24","1","1","3","1","","0","1","0","null","","","<div class = 'row'><div class = 'column'><img src = 'category3/CS10.png' width = '70%;'></div><div class = 'column'><img src = 'uspos/5831.bmp' width = '100%;'></div></div>","null","pos","CS","CS","3","category3/CS10.png","","","","",""
"","html-keyboard-response","15","142592","0.0-6.0-0.0-0.9","6jsxxs2gq0","many_one","0","direct_first","1","Er08nz31","0","24","1","1","3","1","","0","1","0","null","","","<div class = 'row'><div class = 'column'><img src = 'usneg/9220.bmp' width = '100%;'></div><div class = 'column'><img src = 'category2/CS5.png' width = '70%;'></div></div>","null","neg","CS","CS","2","category2/CS5.png","","","","",""
"","html-keyboard-response","16","145110","0.0-6.0-0.0-0.10","6jsxxs2gq0","many_one","0","direct_first","1","Er08nz31","0","24","1","1","3","1","","0","1","0","null","","","<div class = 'row'><div class = 'column'><img src = 'category4/CS5.png' width = '70%;'></div><div class = 'column'><img src = 'uspos/4599.bmp' width = '100%;'></div></div>","null","pos","CS","CS","4","category4/CS5.png","","","","",""
"","html-keyboard-response","17","147643","0.0-6.0-0.0-0.11","6jsxxs2gq0","many_one","0","direct_first","1","Er08nz31","0","24","1","1","3","1","","0","1","0","null","","","<div class = 'row'><div class = 'column'><img src = 'uspos/1463.bmp' width = '100%;'></div><div class = 'column'><img src = 'category4/CS7.png' width = '70%;'></div></div>","null","pos","CS","CS","4","category4/CS7.png","","","","",""
"","html-keyboard-response","18","150174","0.0-6.0-0.0-0.12","6jsxxs2gq0","many_one","0","direct_first","1","Er08nz31","0","24","1","1","3","1","","0","1","0","null","","","<div class = 'row'><div class = 'column'><img src = 'usneg/1280.bmp' width = '100%;'></div><div class = 'column'><img src = 'category1/CS6.png' width = '70%;'></div></div>","null","neg","CS","CS","1","category1/CS6.png","","","","",""
"","html-keyboard-response","19","152692","0.0-6.0-0.0-0.13","6jsxxs2gq0","many_one","0","direct_first","1","Er08nz31","0","24","1","1","3","1","","0","1","0","null","","","<div class = 'row'><div class = 'column'><img src = 'uspos/7325.bmp' width = '100%;'></div><div class = 'column'><img src = 'category3/CS4.png' width = '70%;'></div></div>","null","pos","CS","CS","3","category3/CS4.png","","","","",""
"","html-keyboard-response","20","155210","0.0-6.0-0.0-0.14","6jsxxs2gq0","many_one","0","direct_first","1","Er08nz31","0","24","1","1","3","1","","0","1","0","null","","","<div class = 'row'><div class = 'column'><img src = 'uspos/1440.bmp' width = '100%;'></div><div class = 'column'><img src = 'category4/CS6.png' width = '70%;'></div></div>","null","pos","CS","CS","4","category4/CS6.png","","","","",""
"","html-keyboard-response","21","157740","0.0-6.0-0.0-0.15","6jsxxs2gq0","many_one","0","direct_first","1","Er08nz31","0","24","1","1","3","1","","0","1","0","null","","","<div class = 'row'><div class = 'column'><img src = 'category3/CS6.png' width = '70%;'></div><div class = 'column'><img src = 'uspos/8490.bmp' width = '100%;'></div></div>","null","pos","CS","CS","3","category3/CS6.png","","","","",""
"","html-keyboard-response","22","160258","0.0-6.0-0.0-0.16","6jsxxs2gq0","many_one","0","direct_first","1","Er08nz31","0","24","1","1","3","1","","0","1","0","null","","","<div class = 'row'><div class = 'column'><img src = 'category4/CS3.png' width = '70%;'></div><div class = 'column'><img src = 'uspos/5760.bmp' width = '100%;'></div></div>","null","pos","CS","CS","4","category4/CS3.png","","","","",""
"","html-keyboard-response","23","162773","0.0-6.0-0.0-0.17","6jsxxs2gq0","many_one","0","direct_first","1","Er08nz31","0","24","1","1","3","1","","0","1","0","null","","","<div class = 'row'><div class = 'column'><img src = 'uspos/2160.bmp' width = '100%;'></div><div class = 'column'><img src = 'category4/CS8.png' width = '70%;'></div></div>","null","pos","CS","CS","4","category4/CS8.png","","","","",""
"","html-keyboard-response","24","165291","0.0-6.0-0.0-0.18","6jsxxs2gq0","many_one","0","direct_first","1","Er08nz31","0","24","1","1","3","1","","0","1","0","null","","","<div class = 'row'><div class = 'column'><img src = 'usneg/9330.bmp' width = '100%;'></div><div class = 'column'><img src = 'category2/CS9.png' width = '70%;'></div></div>","null","neg","CS","CS","2","category2/CS9.png","","","","",""
"","html-keyboard-response","25","167805","0.0-6.0-0.0-0.19","6jsxxs2gq0","many_one","0","direct_first","1","Er08nz31","0","24","1","1","3","1","","0","1","0","null","","","<div class = 'row'><div class = 'column'><img src = 'category2/CS7.png' width = '70%;'></div><div class = 'column'><img src = 'usneg/9421.bmp' width = '100%;'></div></div>","null","neg","CS","CS","2","category2/CS7.png","","","","",""
"","survey-html-form","26","170608","0.0-6.0-1.0","6jsxxs2gq0","many_one","0","direct_first","1","Er08nz31","0","24","1","1","3","1","","0","1","0","2296.6199996881187","","{}","","","","","","","","","","","",""
"","html-keyboard-response","27","174627","0.0-6.0-2.0-0.0","6jsxxs2gq0","many_one","0","direct_first","1","Er08nz31","0","24","1","1","3","1","","0","1","0","null","","","<div class = 'row'><div class = 'column'><img src = 'uspos/5700.bmp' width = '100%;'></div><div class = 'column'><img src = 'category3/CS8.png' width = '70%;'></div></div>","null","pos","CS","CS","3","category3/CS8.png","","","","",""
"","html-keyboard-response","28","177159","0.0-6.0-2.0-0.1","6jsxxs2gq0","many_one","0","direct_first","1","Er08nz31","0","24","1","1","3","1","","0","1","0","null","","","<div class = 'row'><div class = 'column'><img src = 'usneg/9561.bmp' width = '100%;'></div><div class = 'column'><img src = 'category1/CS5.png' width = '70%;'></div></div>","null","neg","CS","CS","1","category1/CS5.png","","","","",""
"","html-keyboard-response","29","179692","0.0-6.0-2.0-0.2","6jsxxs2gq0","many_one","0","direct_first","1","Er08nz31","0","24","1","1","3","1","","0","1","0","null","","","<div class = 'row'><div class = 'column'><img src = 'category4/CS5.png' width = '70%;'></div><div class = 'column'><img src = 'uspos/4599.bmp' width = '100%;'></div></div>","null","pos","CS","CS","4","category4/CS5.png","","","","",""
"","html-keyboard-response","30","182194","0.0-6.0-2.0-0.3","6jsxxs2gq0","many_one","0","direct_first","1","Er08nz31","0","24","1","1","3","1","","0","1","0","null","","","<div class = 'row'><div class = 'column'><img src = 'category1/CS10.png' width = '70%;'></div><div class = 'column'><img src = 'usneg/6570.1.bmp' width = '100%;'></div></div>","null","neg","CS","CS","1","category1/CS10.png","","","","",""
"","html-keyboard-response","31","184725","0.0-6.0-2.0-0.4","6jsxxs2gq0","many_one","0","direct_first","1","Er08nz31","0","24","1","1","3","1","","0","1","0","null","","","<div class = 'row'><div class = 'column'><img src = 'uspos/5760.bmp' width = '100%;'></div><div class = 'column'><img src = 'category4/CS3.png' width = '70%;'></div></div>","null","pos","CS","CS","4","category4/CS3.png","","","","",""
"","html-keyboard-response","32","187242","0.0-6.0-2.0-0.5","6jsxxs2gq0","many_one","0","direct_first","1","Er08nz31","0","24","1","1","3","1","","0","1","0","null","","","<div class = 'row'><div class = 'column'><img src = 'category4/CS7.png' width = '70%;'></div><div class = 'column'><img src = 'uspos/1463.bmp' width = '100%;'></div></div>","null","pos","CS","CS","4","category4/CS7.png","","","","",""
"","html-keyboard-response","33","189760","0.0-6.0-2.0-0.6","6jsxxs2gq0","many_one","0","direct_first","1","Er08nz31","0","24","1","1","3","1","","0","1","0","null","","","<div class = 'row'><div class = 'column'><img src = 'category2/CS5.png' width = '70%;'></div><div class = 'column'><img src = 'usneg/9220.bmp' width = '100%;'></div></div>","null","neg","CS","CS","2","category2/CS5.png","","","","",""
"","html-keyboard-response","34","192292","0.0-6.0-2.0-0.7","6jsxxs2gq0","many_one","0","direct_first","1","Er08nz31","0","24","1","1","3","1","","0","1","0","null","","","<div class = 'row'><div class = 'column'><img src = 'category2/CS7.png' width = '70%;'></div><div class = 'column'><img src = 'usneg/9421.bmp' width = '100%;'></div></div>","null","neg","CS","CS","2","category2/CS7.png","","","","",""
"","html-keyboard-response","35","194810","0.0-6.0-2.0-0.8","6jsxxs2gq0","many_one","0","direct_first","1","Er08nz31","0","24","1","1","3","1","","0","1","0","null","","","<div class = 'row'><div class = 'column'><img src = 'usneg/6838.bmp' width = '100%;'></div><div class = 'column'><img src = 'category2/CS6.png' width = '70%;'></div></div>","null","neg","CS","CS","2","category2/CS6.png","","","","",""
"","html-keyboard-response","36","197327","0.0-6.0-2.0-0.9","6jsxxs2gq0","many_one","0","direct_first","1","Er08nz31","0","24","1","1","3","1","","0","1","0","null","","","<div class = 'row'><div class = 'column'><img src = 'uspos/5830.bmp' width = '100%;'></div><div class = 'column'><img src = 'category3/CS2.png' width = '70%;'></div></div>","null","pos","CS","CS","3","category3/CS2.png","","","","",""
"","html-keyboard-response","37","199858","0.0-6.0-2.0-0.10","6jsxxs2gq0","many_one","0","direct_first","1","Er08nz31","0","24","1","1","3","1","","0","1","0","null","","","<div class = 'row'><div class = 'column'><img src = 'uspos/1440.bmp' width = '100%;'></div><div class = 'column'><img src = 'category4/CS6.png' width = '70%;'></div></div>","null","pos","CS","CS","4","category4/CS6.png","","","","",""
"","html-keyboard-response","38","202376","0.0-6.0-2.0-0.11","6jsxxs2gq0","many_one","0","direct_first","1","Er08nz31","0","24","1","1","3","1","","0","1","0","null","","","<div class = 'row'><div class = 'column'><img src = 'uspos/8490.bmp' width = '100%;'></div><div class = 'column'><img src = 'category3/CS6.png' width = '70%;'></div></div>","null","pos","CS","CS","3","category3/CS6.png","","","","",""
"","html-keyboard-response","39","204892","0.0-6.0-2.0-0.12","6jsxxs2gq0","many_one","0","direct_first","1","Er08nz31","0","24","1","1","3","1","","0","1","0","null","","","<div class = 'row'><div class = 'column'><img src = 'category2/CS1.png' width = '70%;'></div><div class = 'column'><img src = 'usneg/9435.bmp' width = '100%;'></div></div>","null","neg","CS","CS","2","category2/CS1.png","","","","",""
"","html-keyboard-response","40","207409","0.0-6.0-2.0-0.13","6jsxxs2gq0","many_one","0","direct_first","1","Er08nz31","0","24","1","1","3","1","","0","1","0","null","","","<div class = 'row'><div class = 'column'><img src = 'category1/CS6.png' width = '70%;'></div><div class = 'column'><img src = 'usneg/1280.bmp' width = '100%;'></div></div>","null","neg","CS","CS","1","category1/CS6.png","","","","",""
"","html-keyboard-response","41","209925","0.0-6.0-2.0-0.14","6jsxxs2gq0","many_one","0","direct_first","1","Er08nz31","0","24","1","1","3","1","","0","1","0","null","","","<div class = 'row'><div class = 'column'><img src = 'usneg/9830.bmp' width = '100%;'></div><div class = 'column'><img src = 'category1/CS1.png' width = '70%;'></div></div>","null","neg","CS","CS","1","category1/CS1.png","","","","",""
"","html-keyboard-response","42","212442","0.0-6.0-2.0-0.15","6jsxxs2gq0","many_one","0","direct_first","1","Er08nz31","0","24","1","1","3","1","","0","1","0","null","","","<div class = 'row'><div class = 'column'><img src = 'uspos/5831.bmp' width = '100%;'></div><div class = 'column'><img src = 'category3/CS10.png' width = '70%;'></div></div>","null","pos","CS","CS","3","category3/CS10.png","","","","",""
"","html-keyboard-response","43","214958","0.0-6.0-2.0-0.16","6jsxxs2gq0","many_one","0","direct_first","1","Er08nz31","0","24","1","1","3","1","","0","1","0","null","","","<div class = 'row'><div class = 'column'><img src = 'category4/CS8.png' width = '70%;'></div><div class = 'column'><img src = 'uspos/2160.bmp' width = '100%;'></div></div>","null","pos","CS","CS","4","category4/CS8.png","","","","",""
"","html-keyboard-response","44","217475","0.0-6.0-2.0-0.17","6jsxxs2gq0","many_one","0","direct_first","1","Er08nz31","0","24","1","1","3","1","","0","1","0","null","","","<div class = 'row'><div class = 'column'><img src = 'uspos/7325.bmp' width = '100%;'></div><div class = 'column'><img src = 'category3/CS4.png' width = '70%;'></div></div>","null","pos","CS","CS","3","category3/CS4.png","","","","",""
"","html-keyboard-response","45","219986","0.0-6.0-2.0-0.18","6jsxxs2gq0","many_one","0","direct_first","1","Er08nz31","0","24","1","1","3","1","","0","1","0","null","","","<div class = 'row'><div class = 'column'><img src = 'category1/CS7.png' width = '70%;'></div><div class = 'column'><img src = 'usneg/6212.bmp' width = '100%;'></div></div>","null","neg","CS","CS","1","category1/CS7.png","","","","",""
"","html-keyboard-response","46","222507","0.0-6.0-2.0-0.19","6jsxxs2gq0","many_one","0","direct_first","1","Er08nz31","0","24","1","1","3","1","","0","1","0","null","","","<div class = 'row'><div class = 'column'><img src = 'usneg/9330.bmp' width = '100%;'></div><div class = 'column'><img src = 'category2/CS9.png' width = '70%;'></div></div>","null","neg","CS","CS","2","category2/CS9.png","","","","",""
"","survey-html-form","47","228960","0.0-6.0-3.0","6jsxxs2gq0","many_one","0","direct_first","1","Er08nz31","0","24","1","1","3","1","","0","1","0","5951.069999951869","","{}","","","","","","","","","","","",""
"","html-keyboard-response","48","232992","0.0-6.0-4.0-0.0","6jsxxs2gq0","many_one","0","direct_first","1","Er08nz31","0","24","1","1","3","1","","0","1","0","null","","","<div class = 'row'><div class = 'column'><img src = 'usneg/9220.bmp' width = '100%;'></div><div class = 'column'><img src = 'category2/CS5.png' width = '70%;'></div></div>","null","neg","CS","CS","2","category2/CS5.png","","","","",""
"","html-keyboard-response","49","235508","0.0-6.0-4.0-0.1","6jsxxs2gq0","many_one","0","direct_first","1","Er08nz31","0","24","1","1","3","1","","0","1","0","null","","","<div class = 'row'><div class = 'column'><img src = 'uspos/1463.bmp' width = '100%;'></div><div class = 'column'><img src = 'category4/CS7.png' width = '70%;'></div></div>","null","pos","CS","CS","4","category4/CS7.png","","","","",""
"","html-keyboard-response","50","238025","0.0-6.0-4.0-0.2","6jsxxs2gq0","many_one","0","direct_first","1","Er08nz31","0","24","1","1","3","1","","0","1","0","null","","","<div class = 'row'><div class = 'column'><img src = 'usneg/9330.bmp' width = '100%;'></div><div class = 'column'><img src = 'category2/CS9.png' width = '70%;'></div></div>","null","neg","CS","CS","2","category2/CS9.png","","","","",""
"","html-keyboard-response","51","240541","0.0-6.0-4.0-0.3","6jsxxs2gq0","many_one","0","direct_first","1","Er08nz31","0","24","1","1","3","1","","0","1","0","null","","","<div class = 'row'><div class = 'column'><img src = 'category1/CS7.png' width = '70%;'></div><div class = 'column'><img src = 'usneg/6212.bmp' width = '100%;'></div></div>","null","neg","CS","CS","1","category1/CS7.png","","","","",""
"","html-keyboard-response","52","243058","0.0-6.0-4.0-0.4","6jsxxs2gq0","many_one","0","direct_first","1","Er08nz31","0","24","1","1","3","1","","0","1","0","null","","","<div class = 'row'><div class = 'column'><img src = 'usneg/9421.bmp' width = '100%;'></div><div class = 'column'><img src = 'category2/CS7.png' width = '70%;'></div></div>","null","neg","CS","CS","2","category2/CS7.png","","","","",""
"","html-keyboard-response","53","245575","0.0-6.0-4.0-0.5","6jsxxs2gq0","many_one","0","direct_first","1","Er08nz31","0","24","1","1","3","1","","0","1","0","null","","","<div class = 'row'><div class = 'column'><img src = 'category3/CS2.png' width = '70%;'></div><div class = 'column'><img src = 'uspos/5830.bmp' width = '100%;'></div></div>","null","pos","CS","CS","3","category3/CS2.png","","","","",""
"","html-keyboard-response","54","248091","0.0-6.0-4.0-0.6","6jsxxs2gq0","many_one","0","direct_first","1","Er08nz31","0","24","1","1","3","1","","0","1","0","null","","","<div class = 'row'><div class = 'column'><img src = 'usneg/9435.bmp' width = '100%;'></div><div class = 'column'><img src = 'category2/CS1.png' width = '70%;'></div></div>","null","neg","CS","CS","2","category2/CS1.png","","","","",""
"","html-keyboard-response","55","250608","0.0-6.0-4.0-0.7","6jsxxs2gq0","many_one","0","direct_first","1","Er08nz31","0","24","1","1","3","1","","0","1","0","null","","","<div class = 'row'><div class = 'column'><img src = 'usneg/9830.bmp' width = '100%;'></div><div class = 'column'><img src = 'category1/CS1.png' width = '70%;'></div></div>","null","neg","CS","CS","1","category1/CS1.png","","","","",""
"","html-keyboard-response","56","253125","0.0-6.0-4.0-0.8","6jsxxs2gq0","many_one","0","direct_first","1","Er08nz31","0","24","1","1","3","1","","0","1","0","null","","","<div class = 'row'><div class = 'column'><img src = 'uspos/5760.bmp' width = '100%;'></div><div class = 'column'><img src = 'category4/CS3.png' width = '70%;'></div></div>","null","pos","CS","CS","4","category4/CS3.png","","","","",""
"","html-keyboard-response","57","255643","0.0-6.0-4.0-0.9","6jsxxs2gq0","many_one","0","direct_first","1","Er08nz31","0","24","1","1","3","1","","0","1","0","null","","","<div class = 'row'><div class = 'column'><img src = 'category1/CS6.png' width = '70%;'></div><div class = 'column'><img src = 'usneg/1280.bmp' width = '100%;'></div></div>","null","neg","CS","CS","1","category1/CS6.png","","","","",""
"","html-keyboard-response","58","258159","0.0-6.0-4.0-0.10","6jsxxs2gq0","many_one","0","direct_first","1","Er08nz31","0","24","1","1","3","1","","0","1","0","null","","","<div class = 'row'><div class = 'column'><img src = 'uspos/4599.bmp' width = '100%;'></div><div class = 'column'><img src = 'category4/CS5.png' width = '70%;'></div></div>","null","pos","CS","CS","4","category4/CS5.png","","","","",""
"","html-keyboard-response","59","260675","0.0-6.0-4.0-0.11","6jsxxs2gq0","many_one","0","direct_first","1","Er08nz31","0","24","1","1","3","1","","0","1","0","null","","","<div class = 'row'><div class = 'column'><img src = 'category1/CS5.png' width = '70%;'></div><div class = 'column'><img src = 'usneg/9561.bmp' width = '100%;'></div></div>","null","neg","CS","CS","1","category1/CS5.png","","","","",""
"","html-keyboard-response","60","263209","0.0-6.0-4.0-0.12","6jsxxs2gq0","many_one","0","direct_first","1","Er08nz31","0","24","1","1","3","1","","0","1","0","null","","","<div class = 'row'><div class = 'column'><img src = 'uspos/1440.bmp' width = '100%;'></div><div class = 'column'><img src = 'category4/CS6.png' width = '70%;'></div></div>","null","pos","CS","CS","4","category4/CS6.png","","","","",""
"","html-keyboard-response","61","265726","0.0-6.0-4.0-0.13","6jsxxs2gq0","many_one","0","direct_first","1","Er08nz31","0","24","1","1","3","1","","0","1","0","null","","","<div class = 'row'><div class = 'column'><img src = 'category4/CS8.png' width = '70%;'></div><div class = 'column'><img src = 'uspos/2160.bmp' width = '100%;'></div></div>","null","pos","CS","CS","4","category4/CS8.png","","","","",""
"","html-keyboard-response","62","268257","0.0-6.0-4.0-0.14","6jsxxs2gq0","many_one","0","direct_first","1","Er08nz31","0","24","1","1","3","1","","0","1","0","null","","","<div class = 'row'><div class = 'column'><img src = 'category1/CS10.png' width = '70%;'></div><div class = 'column'><img src = 'usneg/6570.1.bmp' width = '100%;'></div></div>","null","neg","CS","CS","1","category1/CS10.png","","","","",""
"","html-keyboard-response","63","270774","0.0-6.0-4.0-0.15","6jsxxs2gq0","many_one","0","direct_first","1","Er08nz31","0","24","1","1","3","1","","0","1","0","null","","","<div class = 'row'><div class = 'column'><img src = 'category3/CS4.png' width = '70%;'></div><div class = 'column'><img src = 'uspos/7325.bmp' width = '100%;'></div></div>","null","pos","CS","CS","3","category3/CS4.png","","","","",""
"","html-keyboard-response","64","273292","0.0-6.0-4.0-0.16","6jsxxs2gq0","many_one","0","direct_first","1","Er08nz31","0","24","1","1","3","1","","0","1","0","null","","","<div class = 'row'><div class = 'column'><img src = 'category3/CS6.png' width = '70%;'></div><div class = 'column'><img src = 'uspos/8490.bmp' width = '100%;'></div></div>","null","pos","CS","CS","3","category3/CS6.png","","","","",""
"","html-keyboard-response","65","275808","0.0-6.0-4.0-0.17","6jsxxs2gq0","many_one","0","direct_first","1","Er08nz31","0","24","1","1","3","1","","0","1","0","null","","","<div class = 'row'><div class = 'column'><img src = 'category2/CS6.png' width = '70%;'></div><div class = 'column'><img src = 'usneg/6838.bmp' width = '100%;'></div></div>","null","neg","CS","CS","2","category2/CS6.png","","","","",""
"","html-keyboard-response","66","278325","0.0-6.0-4.0-0.18","6jsxxs2gq0","many_one","0","direct_first","1","Er08nz31","0","24","1","1","3","1","","0","1","0","null","","","<div class = 'row'><div class = 'column'><img src = 'category3/CS10.png' width = '70%;'></div><div class = 'column'><img src = 'uspos/5831.bmp' width = '100%;'></div></div>","null","pos","CS","CS","3","category3/CS10.png","","","","",""
"","html-keyboard-response","67","280841","0.0-6.0-4.0-0.19","6jsxxs2gq0","many_one","0","direct_first","1","Er08nz31","0","24","1","1","3","1","","0","1","0","null","","","<div class = 'row'><div class = 'column'><img src = 'uspos/5700.bmp' width = '100%;'></div><div class = 'column'><img src = 'category3/CS8.png' width = '70%;'></div></div>","null","pos","CS","CS","3","category3/CS8.png","","","","",""
"","survey-html-form","68","284014","0.0-6.0-5.0","6jsxxs2gq0","many_one","0","direct_first","1","Er08nz31","0","24","1","1","3","1","","0","1","0","2656.6550000570714","","{}","","","","","","","","","","","",""
"","html-keyboard-response","69","288032","0.0-6.0-6.0-0.0","6jsxxs2gq0","many_one","0","direct_first","1","Er08nz31","0","24","1","1","3","1","","0","1","0","null","","","<div class = 'row'><div class = 'column'><img src = 'category3/CS10.png' width = '70%;'></div><div class = 'column'><img src = 'uspos/5831.bmp' width = '100%;'></div></div>","null","pos","CS","CS","3","category3/CS10.png","","","","",""
"","html-keyboard-response","70","290559","0.0-6.0-6.0-0.1","6jsxxs2gq0","many_one","0","direct_first","1","Er08nz31","0","24","1","1","3","1","","0","1","0","null","","","<div class = 'row'><div class = 'column'><img src = 'uspos/8490.bmp' width = '100%;'></div><div class = 'column'><img src = 'category3/CS6.png' width = '70%;'></div></div>","null","pos","CS","CS","3","category3/CS6.png","","","","",""
"","html-keyboard-response","71","293063","0.0-6.0-6.0-0.2","6jsxxs2gq0","many_one","0","direct_first","1","Er08nz31","0","24","1","1","3","1","","0","1","0","null","","","<div class = 'row'><div class = 'column'><img src = 'uspos/5830.bmp' width = '100%;'></div><div class = 'column'><img src = 'category3/CS2.png' width = '70%;'></div></div>","null","pos","CS","CS","3","category3/CS2.png","","","","",""
"","html-keyboard-response","72","295575","0.0-6.0-6.0-0.3","6jsxxs2gq0","many_one","0","direct_first","1","Er08nz31","0","24","1","1","3","1","","0","1","0","null","","","<div class = 'row'><div class = 'column'><img src = 'category2/CS9.png' width = '70%;'></div><div class = 'column'><img src = 'usneg/9330.bmp' width = '100%;'></div></div>","null","neg","CS","CS","2","category2/CS9.png","","","","",""
"","html-keyboard-response","73","298095","0.0-6.0-6.0-0.4","6jsxxs2gq0","many_one","0","direct_first","1","Er08nz31","0","24","1","1","3","1","","0","1","0","null","","","<div class = 'row'><div class = 'column'><img src = 'category1/CS1.png' width = '70%;'></div><div class = 'column'><img src = 'usneg/9830.bmp' width = '100%;'></div></div>","null","neg","CS","CS","1","category1/CS1.png","","","","",""
"","html-keyboard-response","74","300625","0.0-6.0-6.0-0.5","6jsxxs2gq0","many_one","0","direct_first","1","Er08nz31","0","24","1","1","3","1","","0","1","0","null","","","<div class = 'row'><div class = 'column'><img src = 'usneg/9220.bmp' width = '100%;'></div><div class = 'column'><img src = 'category2/CS5.png' width = '70%;'></div></div>","null","neg","CS","CS","2","category2/CS5.png","","","","",""
"","html-keyboard-response","75","303142","0.0-6.0-6.0-0.6","6jsxxs2gq0","many_one","0","direct_first","1","Er08nz31","0","24","1","1","3","1","","0","1","0","null","","","<div class = 'row'><div class = 'column'><img src = 'usneg/9561.bmp' width = '100%;'></div><div class = 'column'><img src = 'category1/CS5.png' width = '70%;'></div></div>","null","neg","CS","CS","1","category1/CS5.png","","","","",""
"","html-keyboard-response","76","305657","0.0-6.0-6.0-0.7","6jsxxs2gq0","many_one","0","direct_first","1","Er08nz31","0","24","1","1","3","1","","0","1","0","null","","","<div class = 'row'><div class = 'column'><img src = 'usneg/1280.bmp' width = '100%;'></div><div class = 'column'><img src = 'category1/CS6.png' width = '70%;'></div></div>","null","neg","CS","CS","1","category1/CS6.png","","","","",""
"","html-keyboard-response","77","308175","0.0-6.0-6.0-0.8","6jsxxs2gq0","many_one","0","direct_first","1","Er08nz31","0","24","1","1","3","1","","0","1","0","null","","","<div class = 'row'><div class = 'column'><img src = 'category2/CS6.png' width = '70%;'></div><div class = 'column'><img src = 'usneg/6838.bmp' width = '100%;'></div></div>","null","neg","CS","CS","2","category2/CS6.png","","","","",""
"","html-keyboard-response","78","310692","0.0-6.0-6.0-0.9","6jsxxs2gq0","many_one","0","direct_first","1","Er08nz31","0","24","1","1","3","1","","0","1","0","null","","","<div class = 'row'><div class = 'column'><img src = 'category4/CS3.png' width = '70%;'></div><div class = 'column'><img src = 'uspos/5760.bmp' width = '100%;'></div></div>","null","pos","CS","CS","4","category4/CS3.png","","","","",""
"","html-keyboard-response","79","313208","0.0-6.0-6.0-0.10","6jsxxs2gq0","many_one","0","direct_first","1","Er08nz31","0","24","1","1","3","1","","0","1","0","null","","","<div class = 'row'><div class = 'column'><img src = 'category4/CS6.png' width = '70%;'></div><div class = 'column'><img src = 'uspos/1440.bmp' width = '100%;'></div></div>","null","pos","CS","CS","4","category4/CS6.png","","","","",""
"","html-keyboard-response","80","315724","0.0-6.0-6.0-0.11","6jsxxs2gq0","many_one","0","direct_first","1","Er08nz31","0","24","1","1","3","1","","0","1","0","null","","","<div class = 'row'><div class = 'column'><img src = 'uspos/4599.bmp' width = '100%;'></div><div class = 'column'><img src = 'category4/CS5.png' width = '70%;'></div></div>","null","pos","CS","CS","4","category4/CS5.png","","","","",""
"","html-keyboard-response","81","318241","0.0-6.0-6.0-0.12","6jsxxs2gq0","many_one","0","direct_first","1","Er08nz31","0","24","1","1","3","1","","0","1","0","null","","","<div class = 'row'><div class = 'column'><img src = 'uspos/5700.bmp' width = '100%;'></div><div class = 'column'><img src = 'category3/CS8.png' width = '70%;'></div></div>","null","pos","CS","CS","3","category3/CS8.png","","","","",""
"","html-keyboard-response","82","320758","0.0-6.0-6.0-0.13","6jsxxs2gq0","many_one","0","direct_first","1","Er08nz31","0","24","1","1","3","1","","0","1","0","null","","","<div class = 'row'><div class = 'column'><img src = 'usneg/6570.1.bmp' width = '100%;'></div><div class = 'column'><img src = 'category1/CS10.png' width = '70%;'></div></div>","null","neg","CS","CS","1","category1/CS10.png","","","","",""
"","html-keyboard-response","83","323274","0.0-6.0-6.0-0.14","6jsxxs2gq0","many_one","0","direct_first","1","Er08nz31","0","24","1","1","3","1","","0","1","0","null","","","<div class = 'row'><div class = 'column'><img src = 'category4/CS8.png' width = '70%;'></div><div class = 'column'><img src = 'uspos/2160.bmp' width = '100%;'></div></div>","null","pos","CS","CS","4","category4/CS8.png","","","","",""
"","html-keyboard-response","84","325791","0.0-6.0-6.0-0.15","6jsxxs2gq0","many_one","0","direct_first","1","Er08nz31","0","24","1","1","3","1","","0","1","0","null","","","<div class = 'row'><div class = 'column'><img src = 'usneg/9421.bmp' width = '100%;'></div><div class = 'column'><img src = 'category2/CS7.png' width = '70%;'></div></div>","null","neg","CS","CS","2","category2/CS7.png","","","","",""
"","html-keyboard-response","85","328309","0.0-6.0-6.0-0.16","6jsxxs2gq0","many_one","0","direct_first","1","Er08nz31","0","24","1","1","3","1","","0","1","0","null","","","<div class = 'row'><div class = 'column'><img src = 'uspos/1463.bmp' width = '100%;'></div><div class = 'column'><img src = 'category4/CS7.png' width = '70%;'></div></div>","null","pos","CS","CS","4","category4/CS7.png","","","","",""
"","html-keyboard-response","86","330841","0.0-6.0-6.0-0.17","6jsxxs2gq0","many_one","0","direct_first","1","Er08nz31","0","24","1","1","3","1","","0","1","0","null","","","<div class = 'row'><div class = 'column'><img src = 'uspos/7325.bmp' width = '100%;'></div><div class = 'column'><img src = 'category3/CS4.png' width = '70%;'></div></div>","null","pos","CS","CS","3","category3/CS4.png","","","","",""
"","html-keyboard-response","87","333358","0.0-6.0-6.0-0.18","6jsxxs2gq0","many_one","0","direct_first","1","Er08nz31","0","24","1","1","3","1","","0","1","0","null","","","<div class = 'row'><div class = 'column'><img src = 'category2/CS1.png' width = '70%;'></div><div class = 'column'><img src = 'usneg/9435.bmp' width = '100%;'></div></div>","null","neg","CS","CS","2","category2/CS1.png","","","","",""
"","html-keyboard-response","88","335874","0.0-6.0-6.0-0.19","6jsxxs2gq0","many_one","0","direct_first","1","Er08nz31","0","24","1","1","3","1","","0","1","0","null","","","<div class = 'row'><div class = 'column'><img src = 'category1/CS7.png' width = '70%;'></div><div class = 'column'><img src = 'usneg/6212.bmp' width = '100%;'></div></div>","null","neg","CS","CS","1","category1/CS7.png","","","","",""
"","survey-html-form","89","343097","0.0-7.0","6jsxxs2gq0","many_one","0","direct_first","1","Er08nz31","0","24","1","1","3","1","","0","1","0","6721.059999894351","","{}","","","","","","","","","","","",""
"","image-slider-response","90","351602","0.0-8.0-0.0","6jsxxs2gq0","many_one","0","direct_first","1","Er08nz31","0","24","1","1","3","1","","0","1","0","6493.174999952316","","","","","neg","GS","GSold","2","category2/CS10.png","-61","targets/19.png","direct","",""
"","image-slider-response","91","354649","0.0-8.0-0.1","6jsxxs2gq0","many_one","0","direct_first","1","Er08nz31","0","24","1","1","3","1","","0","1","0","3045.614999718964","","","","","pos","GS","GSold","4","category4/CS10.png","30","targets/21.png","direct","",""
"","image-slider-response","92","357294","0.0-8.0-0.2","6jsxxs2gq0","many_one","0","direct_first","1","Er08nz31","0","24","1","1","3","1","","0","1","0","2643.8850001432","","","","","neg","GS","GSnew","1","category1/GS3.png","-7","targets/26.png","direct","",""
"","image-slider-response","93","359422","0.0-8.0-0.3","6jsxxs2gq0","many_one","0","direct_first","1","Er08nz31","0","24","1","1","3","1","","0","1","0","2127.0649996586144","","","","","pos","CS","CS","3","category3/CS10.png","46","targets/23.png","direct","",""
"","image-slider-response","94","362579","0.0-8.0-0.4","6jsxxs2gq0","many_one","0","direct_first","1","Er08nz31","0","24","1","1","3","1","","0","1","0","3156.0999997891486","","","","","neg","GS","GSold","1","category1/CS8.png","7","targets/48.png","direct","",""
"","image-slider-response","95","365089","0.0-8.0-0.5","6jsxxs2gq0","many_one","0","direct_first","1","Er08nz31","0","24","1","1","3","1","","0","1","0","2509.0349996462464","","","","","pos","CS","CS","4","category4/CS5.png","-10","targets/42.png","direct","",""
"","image-slider-response","96","369315","0.0-8.0-0.6","6jsxxs2gq0","many_one","0","direct_first","1","Er08nz31","0","24","1","1","3","1","","0","1","0","4225.089999847114","","","","","pos","GS","GSnew","4","category4/GS3.png","-50","targets/3.png","direct","",""
"","image-slider-response","97","372396","0.0-8.0-0.7","6jsxxs2gq0","many_one","0","direct_first","1","Er08nz31","0","24","1","1","3","1","","0","1","0","3079.8599999397993","","","","","neg","CS","CS","2","category2/CS6.png","-95","targets/15.png","direct","",""
"","image-slider-response","98","375714","0.0-8.0-0.8","6jsxxs2gq0","many_one","0","direct_first","1","Er08nz31","0","24","1","1","3","1","","0","1","0","3316.9599999673665","","","","","pos","CS","CS","3","category3/CS4.png","95","targets/39.png","direct","",""
"","image-slider-response","99","379020","0.0-8.0-0.9","6jsxxs2gq0","many_one","0","direct_first","1","Er08nz31","0","24","1","1","3","1","","0","1","0","3304.8749999143183","","","","","neg","CS","CS","1","category1/CS10.png","-100","targets/14.png","direct","",""
"","image-slider-response","100","382306","0.0-8.0-0.10","6jsxxs2gq0","many_one","0","direct_first","1","Er08nz31","0","24","1","1","3","1","","0","1","0","3285.0300003774464","","","","","neg","GS","GSnew","2","category2/GS3.png","-75","targets/35.png","direct","",""
"","image-slider-response","101","385271","0.0-8.0-0.11","6jsxxs2gq0","many_one","0","direct_first","1","Er08nz31","0","24","1","1","3","1","","0","1","0","2963.814999908209","","","","","neg","CS","CS","1","category1/CS1.png","-15","targets/36.png","direct","",""
"","image-slider-response","102","390773","0.0-8.0-0.12","6jsxxs2gq0","many_one","0","direct_first","1","Er08nz31","0","24","1","1","3","1","","0","1","0","5501.085000112653","","","","","neg","CS","CS","2","category2/CS9.png","-7","targets/24.png","direct","",""
"","image-slider-response","103","394676","0.0-8.0-0.13","6jsxxs2gq0","many_one","0","direct_first","1","Er08nz31","0","24","1","1","3","1","","0","1","0","3901.645000092685","","","","","pos","CS","CS","4","category4/CS8.png","8","targets/25.png","direct","",""
"","image-slider-response","104","397783","0.0-8.0-0.14","6jsxxs2gq0","many_one","0","direct_first","1","Er08nz31","0","24","1","1","3","1","","0","1","0","3105.760000180453","","","","","pos","GS","GSnew","4","category4/GS1.png","44","targets/17.png","direct","",""
"","image-slider-response","105","401149","0.0-8.0-0.15","6jsxxs2gq0","many_one","0","direct_first","1","Er08nz31","0","24","1","1","3","1","","0","1","0","3364.860000088811","","","","","pos","GS","GSold","3","category3/CS1.png","76","targets/38.png","direct","",""
"","image-slider-response","106","404669","0.0-8.0-0.16","6jsxxs2gq0","many_one","0","direct_first","1","Er08nz31","0","24","1","1","3","1","","0","1","0","3519.1799998283386","","","","","pos","CS","CS","3","category3/CS8.png","71","targets/9.png","direct","",""
"","image-slider-response","107","408219","0.0-8.0-0.17","6jsxxs2gq0","many_one","0","direct_first","1","Er08nz31","0","24","1","1","3","1","","0","1","0","3548.8700000569224","","","","","pos","GS","GSold","3","category3/CS9.png","-9","targets/2.png","direct","",""
"","image-slider-response","108","410882","0.0-8.0-0.18","6jsxxs2gq0","many_one","0","direct_first","1","Er08nz31","0","24","1","1","3","1","","0","1","0","2661.7600000463426","","","","","neg","CS","CS","2","category2/CS7.png","-95","targets/37.png","direct","",""
"","image-slider-response","109","413209","0.0-8.0-0.19","6jsxxs2gq0","many_one","0","direct_first","1","Er08nz31","0","24","1","1","3","1","","0","1","0","2325.130000244826","","","","","neg","GS","GSnew","2","category2/GS1.png","-29","targets/5.png","direct","",""
"","image-slider-response","110","415472","0.0-8.0-0.20","6jsxxs2gq0","many_one","0","direct_first","1","Er08nz31","0","24","1","1","3","1","","0","1","0","2262.44999980554","","","","","pos","GS","GSnew","4","category4/GS2.png","40","targets/29.png","direct","",""
"","image-slider-response","111","419028","0.0-8.0-0.21","6jsxxs2gq0","many_one","0","direct_first","1","Er08nz31","0","24","1","1","3","1","","0","1","0","3554.4749996624887","","","","","pos","CS","CS","3","category3/CS6.png","26","targets/32.png","direct","",""
"","image-slider-response","112","423282","0.0-8.0-0.22","6jsxxs2gq0","many_one","0","direct_first","1","Er08nz31","0","24","1","1","3","1","","0","1","0","4253.030000254512","","","","","neg","CS","CS","1","category1/CS7.png","-48","targets/47.png","direct","",""
"","image-slider-response","113","429208","0.0-8.0-0.23","6jsxxs2gq0","many_one","0","direct_first","1","Er08nz31","0","24","1","1","3","1","","0","1","0","5924.980000127107","","","","","pos","CS","CS","3","category3/CS2.png","10","targets/45.png","direct","",""
"","image-slider-response","114","432328","0.0-8.0-0.24","6jsxxs2gq0","many_one","0","direct_first","1","Er08nz31","0","24","1","1","3","1","","0","1","0","3118.8399996608496","","","","","pos","GS","abstract","3","category3/wang.png","19","targets/7.png","direct","",""
"","image-slider-response","115","435240","0.0-8.0-0.25","6jsxxs2gq0","many_one","0","direct_first","1","Er08nz31","0","24","1","1","3","1","","0","1","0","2910.9000000171363","","","","","neg","GS","GSnew","1","category1/GS1.png","-17","targets/12.png","direct","",""
"","image-slider-response","116","439286","0.0-8.0-0.26","6jsxxs2gq0","many_one","0","direct_first","1","Er08nz31","0","24","1","1","3","1","","0","1","0","4045.0450000353158","","","","","pos","GS","GSnew","3","category3/GS2.png","-88","targets/22.png","direct","",""
"","image-slider-response","117","444276","0.0-8.0-0.27","6jsxxs2gq0","many_one","0","direct_first","1","Er08nz31","0","24","1","1","3","1","","0","1","0","4989.060000050813","","","","","pos","GS","abstract","4","category4/lin.png","-2","targets/18.png","direct","",""
"","image-slider-response","118","449613","0.0-8.0-0.28","6jsxxs2gq0","many_one","0","direct_first","1","Er08nz31","0","24","1","1","3","1","","0","1","0","5335.864999797195","","","","","neg","CS","CS","1","category1/CS5.png","-35","targets/27.png","direct","",""
"","image-slider-response","119","452026","0.0-8.0-0.29","6jsxxs2gq0","many_one","0","direct_first","1","Er08nz31","0","24","1","1","3","1","","0","1","0","2411.714999936521","","","","","pos","GS","GSold","3","category3/CS7.png","16","targets/11.png","direct","",""
"","image-slider-response","120","455661","0.0-8.0-0.30","6jsxxs2gq0","many_one","0","direct_first","1","Er08nz31","0","24","1","1","3","1","","0","1","0","3634.2150000855327","","","","","pos","CS","CS","4","category4/CS3.png","-30","targets/28.png","direct","",""
"","image-slider-response","121","458380","0.0-8.0-0.31","6jsxxs2gq0","many_one","0","direct_first","1","Er08nz31","0","24","1","1","3","1","","0","1","0","2717.784999869764","","","","","neg","CS","CS","2","category2/CS5.png","-75","targets/16.png","direct","",""
"","image-slider-response","122","461818","0.0-8.0-0.32","6jsxxs2gq0","many_one","0","direct_first","1","Er08nz31","0","24","1","1","3","1","","0","1","0","3437.1350002475083","","","","","pos","GS","GSnew","3","category3/GS1.png","-25","targets/8.png","direct","",""
"","image-slider-response","123","464643","0.0-8.0-0.33","6jsxxs2gq0","many_one","0","direct_first","1","Er08nz31","0","24","1","1","3","1","","0","1","0","2823.8899996504188","","","","","neg","GS","GSnew","2","category2/GS2.png","-13","targets/44.png","direct","",""
"","image-slider-response","124","467223","0.0-8.0-0.34","6jsxxs2gq0","many_one","0","direct_first","1","Er08nz31","0","24","1","1","3","1","","0","1","0","2579.015000257641","","","","","neg","GS","GSold","2","category2/CS8.png","-87","targets/46.png","direct","",""
"","image-slider-response","125","469141","0.0-8.0-0.35","6jsxxs2gq0","many_one","0","direct_first","1","Er08nz31","0","24","1","1","3","1","","0","1","0","1917.359999846667","","","","","pos","CS","CS","4","category4/CS6.png","7","targets/43.png","direct","",""
"","image-slider-response","126","471800","0.0-8.0-0.36","6jsxxs2gq0","many_one","0","direct_first","1","Er08nz31","0","24","1","1","3","1","","0","1","0","2658.7600000202656","","","","","neg","GS","abstract","2","category2/men.png","-56","targets/30.png","direct","",""
"","image-slider-response","127","473762","0.0-8.0-0.37","6jsxxs2gq0","many_one","0","direct_first","1","Er08nz31","0","24","1","1","3","1","","0","1","0","1960.9150001779199","","","","","neg","GS","GSnew","1","category1/GS2.png","5","targets/4.png","direct","",""
"","image-slider-response","128","475754","0.0-8.0-0.38","6jsxxs2gq0","many_one","0","direct_first","1","Er08nz31","0","24","1","1","3","1","","0","1","0","1991.1149996332824","","","","","neg","CS","CS","2","category2/CS1.png","-39","targets/33.png","direct","",""
"","image-slider-response","129","477249","0.0-8.0-0.39","6jsxxs2gq0","many_one","0","direct_first","1","Er08nz31","0","24","1","1","3","1","","0","1","0","1494.149999693036","","","","","pos","GS","GSold","4","category4/CS1.png","42","targets/34.png","direct","",""
"","image-slider-response","130","481515","0.0-8.0-0.40","6jsxxs2gq0","many_one","0","direct_first","1","Er08nz31","0","24","1","1","3","1","","0","1","0","4265.039999969304","","","","","neg","CS","CS","1","category1/CS6.png","-32","targets/1.png","direct","",""
"","image-slider-response","131","484473","0.0-8.0-0.41","6jsxxs2gq0","many_one","0","direct_first","1","Er08nz31","0","24","1","1","3","1","","0","1","0","2957.2200002148747","","","","","pos","CS","CS","4","category4/CS7.png","35","targets/20.png","direct","",""
"","image-slider-response","132","487277","0.0-8.0-0.42","6jsxxs2gq0","many_one","0","direct_first","1","Er08nz31","0","24","1","1","3","1","","0","1","0","2802.499999757856","","","","","neg","GS","GSold","1","category1/CS3.png","18","targets/40.png","direct","",""
"","image-slider-response","133","490451","0.0-8.0-0.43","6jsxxs2gq0","many_one","0","direct_first","1","Er08nz31","0","24","1","1","3","1","","0","1","0","3173.094999976456","","","","","neg","GS","GSold","1","category1/CS2.png","12","targets/10.png","direct","",""
"","image-slider-response","134","493538","0.0-8.0-0.44","6jsxxs2gq0","many_one","0","direct_first","1","Er08nz31","0","24","1","1","3","1","","0","1","0","3085.9099999070168","","","","","pos","GS","GSnew","3","category3/GS3.png","-61","targets/13.png","direct","",""
"","image-slider-response","135","495637","0.0-8.0-0.45","6jsxxs2gq0","many_one","0","direct_first","1","Er08nz31","0","24","1","1","3","1","","0","1","0","2098.054999951273","","","","","neg","GS","GSold","2","category2/CS4.png","-16","targets/6.png","direct","",""
"","image-slider-response","136","497516","0.0-8.0-0.46","6jsxxs2gq0","many_one","0","direct_first","1","Er08nz31","0","24","1","1","3","1","","0","1","0","1877.9400000348687","","","","","neg","GS","abstract","1","category1/ma.png","43","targets/41.png","direct","",""
"","image-slider-response","137","500160","0.0-8.0-0.47","6jsxxs2gq0","many_one","0","direct_first","1","Er08nz31","0","24","1","1","3","1","","0","1","0","2643.1300002150238","","","","","pos","GS","GSold","4","category4/CS4.png","17","targets/31.png","direct","",""
"","html-keyboard-response","138","512291","0.0-9.0","6jsxxs2gq0","many_one","0","direct_first","1","Er08nz31","0","24","1","1","3","1","","0","1","0","12129.749999847263","","","<p>Sie sehen nun die chinesischen Zeichen nur ganz kurz. Danach sehen Sie die jeweilige Aussprache der Zeichen als Silbe auf dem Bildschrim. Ihre Aufgabe ist es, für jede Silbe anzugeben, ob diese etwas angenehmes, oder unangenehmes bedeuten könnte. Verlassen Sie sich hier vor allem auf Ihre Intuition.<br><br>Die Zeichen werden nur zur Orientierung dargestellt, beachten Sie sie deshalb nicht. Konzentrieren Sie sich vor allem auf die Silben. <br>Reagieren Sie mit folgenden zwei Tasten: <br><br><b>'D' </b> wenn die Silbe etwas <b>unangenehmes</b> bedeuten könnte. <br><b>'K'</b> wenn die Silbe etwas <b>angenehmes</b> bedeuten könnte. <br><br>Bitte legen Sie nun den Zeigefinger der linken Hand auf die Taste 'D' und den Zeigefinger der rechten Hand auf die Taste 'K'. <br>Reagieren Sie auf jede Silbe so schnell wie möglich. Uns interessiert Ihre spontane Reaktion. <br> <br> <br>Drücken Sie 'D' oder 'K', um die nächste Aufgabe zu starten. </p>","75","","","","","","","","","",""
"","html-keyboard-response","139","515306","0.0-10.0-0.0","6jsxxs2gq0","many_one","0","direct_first","1","Er08nz31","0","24","1","1","3","1","","0","1","0","null","","","<div style=""font-size:60px;"">+</div>","null","","","","","","","","","",""
"","html-keyboard-response","140","515401","0.0-10.0-1.0","6jsxxs2gq0","many_one","0","direct_first","1","Er08nz31","0","24","1","1","3","1","","0","1","0","null","","","<img src = 'category4/CS7.png' width = '100%;'>","null","","","","","","","","","",""
"","html-keyboard-response","141","515665","0.0-10.0-2.0","6jsxxs2gq0","many_one","0","direct_first","1","Er08nz31","0","24","1","1","3","1","","0","1","0","null","","","<img src = 'targets/20.png' width = '100%;'>","null","","","","","","","","","",""
"","html-keyboard-response","142","517474","0.0-10.0-3.0","6jsxxs2gq0","many_one","0","direct_first","1","Er08nz31","0","24","1","1","3","1","","0","1","0","1808.96499985829","","","<img src = 'targets/mask.png' width = '100%;'>","75","pos","CS","CS","4","category4/CS7.png","","targets/20.png","indirect","1","0"
"","html-keyboard-response","143","518977","0.0-10.0-0.1","6jsxxs2gq0","many_one","0","direct_first","1","Er08nz31","0","24","1","1","3","1","","0","1","0","null","","","<div style=""font-size:60px;"">+</div>","null","","","","","","","","","",""
"","html-keyboard-response","144","519084","0.0-10.0-1.1","6jsxxs2gq0","many_one","0","direct_first","1","Er08nz31","0","24","1","1","3","1","","0","1","0","null","","","<img src = 'category2/CS7.png' width = '100%;'>","null","","","","","","","","","",""
"","html-keyboard-response","145","519349","0.0-10.0-2.1","6jsxxs2gq0","many_one","0","direct_first","1","Er08nz31","0","24","1","1","3","1","","0","1","0","null","","","<img src = 'targets/37.png' width = '100%;'>","null","","","","","","","","","",""
"","html-keyboard-response","146","520938","0.0-10.0-3.1","6jsxxs2gq0","many_one","0","direct_first","1","Er08nz31","0","24","1","1","3","1","","0","1","0","1588.4599997662008","","","<img src = 'targets/mask.png' width = '100%;'>","75","neg","CS","CS","2","category2/CS7.png","","targets/37.png","indirect","1","1"
"","html-keyboard-response","147","522457","0.0-10.0-0.2","6jsxxs2gq0","many_one","0","direct_first","1","Er08nz31","0","24","1","1","3","1","","0","1","0","null","","","<div style=""font-size:60px;"">+</div>","null","","","","","","","","","",""
"","html-keyboard-response","148","522552","0.0-10.0-1.2","6jsxxs2gq0","many_one","0","direct_first","1","Er08nz31","0","24","1","1","3","1","","0","1","0","null","","","<img src = 'category3/CS4.png' width = '100%;'>","null","","","","","","","","","",""
"","html-keyboard-response","149","522816","0.0-10.0-2.2","6jsxxs2gq0","many_one","0","direct_first","1","Er08nz31","0","24","1","1","3","1","","0","1","0","null","","","<img src = 'targets/39.png' width = '100%;'>","null","","","","","","","","","",""
"","html-keyboard-response","150","523170","0.0-10.0-3.2","6jsxxs2gq0","many_one","0","direct_first","1","Er08nz31","0","24","1","1","3","1","","0","1","0","354.07999996095896","","","<img src = 'targets/mask.png' width = '100%;'>","75","pos","CS","CS","3","category3/CS4.png","","targets/39.png","indirect","1","2"
"","html-keyboard-response","151","524690","0.0-10.0-0.3","6jsxxs2gq0","many_one","0","direct_first","1","Er08nz31","0","24","1","1","3","1","","0","1","0","null","","","<div style=""font-size:60px;"">+</div>","null","","","","","","","","","",""
"","html-keyboard-response","152","524786","0.0-10.0-1.3","6jsxxs2gq0","many_one","0","direct_first","1","Er08nz31","0","24","1","1","3","1","","0","1","0","null","","","<img src = 'category4/CS8.png' width = '100%;'>","null","","","","","","","","","",""
"","html-keyboard-response","153","525049","0.0-10.0-2.3","6jsxxs2gq0","many_one","0","direct_first","1","Er08nz31","0","24","1","1","3","1","","0","1","0","null","","","<img src = 'targets/25.png' width = '100%;'>","null","","","","","","","","","",""
"","html-keyboard-response","154","525290","0.0-10.0-3.3","6jsxxs2gq0","many_one","0","direct_first","1","Er08nz31","0","24","1","1","3","1","","0","1","0","240.55000022053719","","","<img src = 'targets/mask.png' width = '100%;'>","68","pos","CS","CS","4","category4/CS8.png","","targets/25.png","indirect","0","3"
"","html-keyboard-response","155","526794","0.0-10.0-0.4","6jsxxs2gq0","many_one","0","direct_first","1","Er08nz31","0","24","1","1","3","1","","0","1","0","null","","","<div style=""font-size:60px;"">+</div>","null","","","","","","","","","",""
"","html-keyboard-response","156","526885","0.0-10.0-1.4","6jsxxs2gq0","many_one","0","direct_first","1","Er08nz31","0","24","1","1","3","1","","0","1","0","null","","","<img src = 'category1/CS1.png' width = '100%;'>","null","","","","","","","","","",""
"","html-keyboard-response","157","527149","0.0-10.0-2.4","6jsxxs2gq0","many_one","0","direct_first","1","Er08nz31","0","24","1","1","3","1","","0","1","0","null","","","<img src = 'targets/36.png' width = '100%;'>","null","","","","","","","","","",""
"","html-keyboard-response","158","527570","0.0-10.0-3.4","6jsxxs2gq0","many_one","0","direct_first","1","Er08nz31","0","24","1","1","3","1","","0","1","0","420.84999987855554","","","<img src = 'targets/mask.png' width = '100%;'>","75","neg","CS","CS","1","category1/CS1.png","","targets/36.png","indirect","1","4"
"","html-keyboard-response","159","529091","0.0-10.0-0.5","6jsxxs2gq0","many_one","0","direct_first","1","Er08nz31","0","24","1","1","3","1","","0","1","0","null","","","<div style=""font-size:60px;"">+</div>","null","","","","","","","","","",""
"","html-keyboard-response","160","529185","0.0-10.0-1.5","6jsxxs2gq0","many_one","0","direct_first","1","Er08nz31","0","24","1","1","3","1","","0","1","0","null","","","<img src = 'category3/CS10.png' width = '100%;'>","null","","","","","","","","","",""
"","html-keyboard-response","161","529448","0.0-10.0-2.5","6jsxxs2gq0","many_one","0","direct_first","1","Er08nz31","0","24","1","1","3","1","","0","1","0","null","","","<img src = 'targets/23.png' width = '100%;'>","null","","","","","","","","","",""
"","html-keyboard-response","162","529818","0.0-10.0-3.5","6jsxxs2gq0","many_one","0","direct_first","1","Er08nz31","0","24","1","1","3","1","","0","1","0","369.68000000342727","","","<img src = 'targets/mask.png' width = '100%;'>","75","pos","CS","CS","3","category3/CS10.png","","targets/23.png","indirect","1","5"
"","html-keyboard-response","163","531341","0.0-10.0-0.6","6jsxxs2gq0","many_one","0","direct_first","1","Er08nz31","0","24","1","1","3","1","","0","1","0","null","","","<div style=""font-size:60px;"">+</div>","null","","","","","","","","","",""
"","html-keyboard-response","164","531435","0.0-10.0-1.6","6jsxxs2gq0","many_one","0","direct_first","1","Er08nz31","0","24","1","1","3","1","","0","1","0","null","","","<img src = 'category1/CS6.png' width = '100%;'>","null","","","","","","","","","",""
"","html-keyboard-response","165","531698","0.0-10.0-2.6","6jsxxs2gq0","many_one","0","direct_first","1","Er08nz31","0","24","1","1","3","1","","0","1","0","null","","","<img src = 'targets/1.png' width = '100%;'>","null","","","","","","","","","",""
"","html-keyboard-response","166","534107","0.0-10.0-3.6","6jsxxs2gq0","many_one","0","direct_first","1","Er08nz31","0","24","1","1","3","1","","0","1","0","2407.6299997977912","","","<img src = 'targets/mask.png' width = '100%;'>","68","neg","CS","CS","1","category1/CS6.png","","targets/1.png","indirect","0","6"
"","html-keyboard-response","167","535623","0.0-10.0-0.7","6jsxxs2gq0","many_one","0","direct_first","1","Er08nz31","0","24","1","1","3","1","","0","1","0","null","","","<div style=""font-size:60px;"">+</div>","null","","","","","","","","","",""
"","html-keyboard-response","168","535719","0.0-10.0-1.7","6jsxxs2gq0","many_one","0","direct_first","1","Er08nz31","0","24","1","1","3","1","","0","1","0","null","","","<img src = 'category2/CS8.png' width = '100%;'>","null","","","","","","","","","",""
"","html-keyboard-response","169","535982","0.0-10.0-2.7","6jsxxs2gq0","many_one","0","direct_first","1","Er08nz31","0","24","1","1","3","1","","0","1","0","null","","","<img src = 'targets/46.png' width = '100%;'>","null","","","","","","","","","",""
"","html-keyboard-response","170","536346","0.0-10.0-3.7","6jsxxs2gq0","many_one","0","direct_first","1","Er08nz31","0","24","1","1","3","1","","0","1","0","363.14000003039837","","","<img src = 'targets/mask.png' width = '100%;'>","68","neg","GS","GSold","2","category2/CS8.png","","targets/46.png","indirect","0","7"
"","html-keyboard-response","171","537858","0.0-10.0-0.8","6jsxxs2gq0","many_one","0","direct_first","1","Er08nz31","0","24","1","1","3","1","","0","1","0","null","","","<div style=""font-size:60px;"">+</div>","null","","","","","","","","","",""
"","html-keyboard-response","172","537951","0.0-10.0-1.8","6jsxxs2gq0","many_one","0","direct_first","1","Er08nz31","0","24","1","1","3","1","","0","1","0","null","","","<img src = 'category2/CS10.png' width = '100%;'>","null","","","","","","","","","",""
"","html-keyboard-response","173","538219","0.0-10.0-2.8","6jsxxs2gq0","many_one","0","direct_first","1","Er08nz31","0","24","1","1","3","1","","0","1","0","null","","","<img src = 'targets/19.png' width = '100%;'>","null","","","","","","","","","",""
"","html-keyboard-response","174","538306","0.0-10.0-3.8","6jsxxs2gq0","many_one","0","direct_first","1","Er08nz31","0","24","1","1","3","1","","0","1","0","86.19499998167157","","","<img src = 'targets/mask.png' width = '100%;'>","75","neg","GS","GSold","2","category2/CS10.png","","targets/19.png","indirect","1","8"
"","html-keyboard-response","175","539824","0.0-10.0-0.9","6jsxxs2gq0","many_one","0","direct_first","1","Er08nz31","0","24","1","1","3","1","","0","1","0","null","","","<div style=""font-size:60px;"">+</div>","null","","","","","","","","","",""
"","html-keyboard-response","176","539920","0.0-10.0-1.9","6jsxxs2gq0","many_one","0","direct_first","1","Er08nz31","0","24","1","1","3","1","","0","1","0","null","","","<img src = 'category3/CS2.png' width = '100%;'>","null","","","","","","","","","",""
"","html-keyboard-response","177","540182","0.0-10.0-2.9","6jsxxs2gq0","many_one","0","direct_first","1","Er08nz31","0","24","1","1","3","1","","0","1","0","null","","","<img src = 'targets/45.png' width = '100%;'>","null","","","","","","","","","",""
"","html-keyboard-response","178","540370","0.0-10.0-3.9","6jsxxs2gq0","many_one","0","direct_first","1","Er08nz31","0","24","1","1","3","1","","0","1","0","187.780000269413","","","<img src = 'targets/mask.png' width = '100%;'>","75","pos","CS","CS","3","category3/CS2.png","","targets/45.png","indirect","1","9"
"","html-keyboard-response","179","541888","0.0-10.0-0.10","6jsxxs2gq0","many_one","0","direct_first","1","Er08nz31","0","24","1","1","3","1","","0","1","0","null","","","<div style=""font-size:60px;"">+</div>","null","","","","","","","","","",""
"","html-keyboard-response","180","541986","0.0-10.0-1.10","6jsxxs2gq0","many_one","0","direct_first","1","Er08nz31","0","24","1","1","3","1","","0","1","0","null","","","<img src = 'category4/CS5.png' width = '100%;'>","null","","","","","","","","","",""
"","html-keyboard-response","181","542249","0.0-10.0-2.10","6jsxxs2gq0","many_one","0","direct_first","1","Er08nz31","0","24","1","1","3","1","","0","1","0","null","","","<img src = 'targets/42.png' width = '100%;'>","null","","","","","","","","","",""
"","html-keyboard-response","182","543042","0.0-10.0-3.10","6jsxxs2gq0","many_one","0","direct_first","1","Er08nz31","0","24","1","1","3","1","","0","1","0","792.6650000736117","","","<img src = 'targets/mask.png' width = '100%;'>","68","pos","CS","CS","4","category4/CS5.png","","targets/42.png","indirect","0","10"
"","html-keyboard-response","183","544573","0.0-10.0-0.11","6jsxxs2gq0","many_one","0","direct_first","1","Er08nz31","0","24","1","1","3","1","","0","1","0","null","","","<div style=""font-size:60px;"">+</div>","null","","","","","","","","","",""
"","html-keyboard-response","184","544668","0.0-10.0-1.11","6jsxxs2gq0","many_one","0","direct_first","1","Er08nz31","0","24","1","1","3","1","","0","1","0","null","","","<img src = 'category1/CS10.png' width = '100%;'>","null","","","","","","","","","",""
"","html-keyboard-response","185","544932","0.0-10.0-2.11","6jsxxs2gq0","many_one","0","direct_first","1","Er08nz31","0","24","1","1","3","1","","0","1","0","null","","","<img src = 'targets/14.png' width = '100%;'>","null","","","","","","","","","",""
"","html-keyboard-response","186","545237","0.0-10.0-3.11","6jsxxs2gq0","many_one","0","direct_first","1","Er08nz31","0","24","1","1","3","1","","0","1","0","304.2299998924136","","","<img src = 'targets/mask.png' width = '100%;'>","68","neg","CS","CS","1","category1/CS10.png","","targets/14.png","indirect","0","11"
"","html-keyboard-response","187","546741","0.0-10.0-0.12","6jsxxs2gq0","many_one","0","direct_first","1","Er08nz31","0","24","1","1","3","1","","0","1","0","null","","","<div style=""font-size:60px;"">+</div>","null","","","","","","","","","",""
"","html-keyboard-response","188","546835","0.0-10.0-1.12","6jsxxs2gq0","many_one","0","direct_first","1","Er08nz31","0","24","1","1","3","1","","0","1","0","null","","","<img src = 'category2/CS6.png' width = '100%;'>","null","","","","","","","","","",""
"","html-keyboard-response","189","547100","0.0-10.0-2.12","6jsxxs2gq0","many_one","0","direct_first","1","Er08nz31","0","24","1","1","3","1","","0","1","0","null","","","<img src = 'targets/15.png' width = '100%;'>","null","","","","","","","","","",""
"","html-keyboard-response","190","547394","0.0-10.0-3.12","6jsxxs2gq0","many_one","0","direct_first","1","Er08nz31","0","24","1","1","3","1","","0","1","0","294.00999983772635","","","<img src = 'targets/mask.png' width = '100%;'>","68","neg","CS","CS","2","category2/CS6.png","","targets/15.png","indirect","0","12"
"","html-keyboard-response","191","548907","0.0-10.0-0.13","6jsxxs2gq0","many_one","0","direct_first","1","Er08nz31","0","24","1","1","3","1","","0","1","0","null","","","<div style=""font-size:60px;"">+</div>","null","","","","","","","","","",""
"","html-keyboard-response","192","549002","0.0-10.0-1.13","6jsxxs2gq0","many_one","0","direct_first","1","Er08nz31","0","24","1","1","3","1","","0","1","0","null","","","<img src = 'category2/CS4.png' width = '100%;'>","null","","","","","","","","","",""
"","html-keyboard-response","193","549266","0.0-10.0-2.13","6jsxxs2gq0","many_one","0","direct_first","1","Er08nz31","0","24","1","1","3","1","","0","1","0","null","","","<img src = 'targets/6.png' width = '100%;'>","null","","","","","","","","","",""
"","html-keyboard-response","194","549634","0.0-10.0-3.13","6jsxxs2gq0","many_one","0","direct_first","1","Er08nz31","0","24","1","1","3","1","","0","1","0","368.0750001221895","","","<img src = 'targets/mask.png' width = '100%;'>","68","neg","GS","GSold","2","category2/CS4.png","","targets/6.png","indirect","0","13"
"","html-keyboard-response","195","551142","0.0-10.0-0.14","6jsxxs2gq0","many_one","0","direct_first","1","Er08nz31","0","24","1","1","3","1","","0","1","0","null","","","<div style=""font-size:60px;"">+</div>","null","","","","","","","","","",""
"","html-keyboard-response","196","551234","0.0-10.0-1.14","6jsxxs2gq0","many_one","0","direct_first","1","Er08nz31","0","24","1","1","3","1","","0","1","0","null","","","<img src = 'category3/CS6.png' width = '100%;'>","null","","","","","","","","","",""
"","html-keyboard-response","197","551499","0.0-10.0-2.14","6jsxxs2gq0","many_one","0","direct_first","1","Er08nz31","0","24","1","1","3","1","","0","1","0","null","","","<img src = 'targets/32.png' width = '100%;'>","null","","","","","","","","","",""
"","html-keyboard-response","198","551594","0.0-10.0-3.14","6jsxxs2gq0","many_one","0","direct_first","1","Er08nz31","0","24","1","1","3","1","","0","1","0","94.7300000116229","","","<img src = 'targets/mask.png' width = '100%;'>","75","pos","CS","CS","3","category3/CS6.png","","targets/32.png","indirect","1","14"
"","html-keyboard-response","199","553108","0.0-10.0-0.15","6jsxxs2gq0","many_one","0","direct_first","1","Er08nz31","0","24","1","1","3","1","","0","1","0","null","","","<div style=""font-size:60px;"">+</div>","null","","","","","","","","","",""
"","html-keyboard-response","200","553202","0.0-10.0-1.15","6jsxxs2gq0","many_one","0","direct_first","1","Er08nz31","0","24","1","1","3","1","","0","1","0","null","","","<img src = 'category2/CS9.png' width = '100%;'>","null","","","","","","","","","",""
"","html-keyboard-response","201","553466","0.0-10.0-2.15","6jsxxs2gq0","many_one","0","direct_first","1","Er08nz31","0","24","1","1","3","1","","0","1","0","null","","","<img src = 'targets/24.png' width = '100%;'>","null","","","","","","","","","",""
"","html-keyboard-response","202","553850","0.0-10.0-3.15","6jsxxs2gq0","many_one","0","direct_first","1","Er08nz31","0","24","1","1","3","1","","0","1","0","384.1599998995662","","","<img src = 'targets/mask.png' width = '100%;'>","68","neg","CS","CS","2","category2/CS9.png","","targets/24.png","indirect","0","15"
"","html-keyboard-response","203","555373","0.0-10.0-0.16","6jsxxs2gq0","many_one","0","direct_first","1","Er08nz31","0","24","1","1","3","1","","0","1","0","null","","","<div style=""font-size:60px;"">+</div>","null","","","","","","","","","",""
"","html-keyboard-response","204","555469","0.0-10.0-1.16","6jsxxs2gq0","many_one","0","direct_first","1","Er08nz31","0","24","1","1","3","1","","0","1","0","null","","","<img src = 'category4/CS6.png' width = '100%;'>","null","","","","","","","","","",""
"","html-keyboard-response","205","555732","0.0-10.0-2.16","6jsxxs2gq0","many_one","0","direct_first","1","Er08nz31","0","24","1","1","3","1","","0","1","0","null","","","<img src = 'targets/43.png' width = '100%;'>","null","","","","","","","","","",""
"","html-keyboard-response","206","555979","0.0-10.0-3.16","6jsxxs2gq0","many_one","0","direct_first","1","Er08nz31","0","24","1","1","3","1","","0","1","0","245.59500021860003","","","<img src = 'targets/mask.png' width = '100%;'>","75","pos","CS","CS","4","category4/CS6.png","","targets/43.png","indirect","1","16"
"","html-keyboard-response","207","557489","0.0-10.0-0.17","6jsxxs2gq0","many_one","0","direct_first","1","Er08nz31","0","24","1","1","3","1","","0","1","0","null","","","<div style=""font-size:60px;"">+</div>","null","","","","","","","","","",""
"","html-keyboard-response","208","557585","0.0-10.0-1.17","6jsxxs2gq0","many_one","0","direct_first","1","Er08nz31","0","24","1","1","3","1","","0","1","0","null","","","<img src = 'category2/CS5.png' width = '100%;'>","null","","","","","","","","","",""
"","html-keyboard-response","209","557849","0.0-10.0-2.17","6jsxxs2gq0","many_one","0","direct_first","1","Er08nz31","0","24","1","1","3","1","","0","1","0","null","","","<img src = 'targets/16.png' width = '100%;'>","null","","","","","","","","","",""
"","html-keyboard-response","210","558090","0.0-10.0-3.17","6jsxxs2gq0","many_one","0","direct_first","1","Er08nz31","0","24","1","1","3","1","","0","1","0","240.76499976217747","","","<img src = 'targets/mask.png' width = '100%;'>","68","neg","CS","CS","2","category2/CS5.png","","targets/16.png","indirect","0","17"
"","html-keyboard-response","211","559607","0.0-10.0-0.18","6jsxxs2gq0","many_one","0","direct_first","1","Er08nz31","0","24","1","1","3","1","","0","1","0","null","","","<div style=""font-size:60px;"">+</div>","null","","","","","","","","","",""
"","html-keyboard-response","212","559702","0.0-10.0-1.18","6jsxxs2gq0","many_one","0","direct_first","1","Er08nz31","0","24","1","1","3","1","","0","1","0","null","","","<img src = 'category4/CS3.png' width = '100%;'>","null","","","","","","","","","",""
"","html-keyboard-response","213","559966","0.0-10.0-2.18","6jsxxs2gq0","many_one","0","direct_first","1","Er08nz31","0","24","1","1","3","1","","0","1","0","null","","","<img src = 'targets/28.png' width = '100%;'>","null","","","","","","","","","",""
"","html-keyboard-response","214","560179","0.0-10.0-3.18","6jsxxs2gq0","many_one","0","direct_first","1","Er08nz31","0","24","1","1","3","1","","0","1","0","212.60500000789762","","","<img src = 'targets/mask.png' width = '100%;'>","68","pos","CS","CS","4","category4/CS3.png","","targets/28.png","indirect","0","18"
"","html-keyboard-response","215","561706","0.0-10.0-0.19","6jsxxs2gq0","many_one","0","direct_first","1","Er08nz31","0","24","1","1","3","1","","0","1","0","null","","","<div style=""font-size:60px;"">+</div>","null","","","","","","","","","",""
"","html-keyboard-response","216","561802","0.0-10.0-1.19","6jsxxs2gq0","many_one","0","direct_first","1","Er08nz31","0","24","1","1","3","1","","0","1","0","null","","","<img src = 'category2/CS1.png' width = '100%;'>","null","","","","","","","","","",""
"","html-keyboard-response","217","562066","0.0-10.0-2.19","6jsxxs2gq0","many_one","0","direct_first","1","Er08nz31","0","24","1","1","3","1","","0","1","0","null","","","<img src = 'targets/33.png' width = '100%;'>","null","","","","","","","","","",""
"","html-keyboard-response","218","562498","0.0-10.0-3.19","6jsxxs2gq0","many_one","0","direct_first","1","Er08nz31","0","24","1","1","3","1","","0","1","0","432.135000359267","","","<img src = 'targets/mask.png' width = '100%;'>","68","neg","CS","CS","2","category2/CS1.png","","targets/33.png","indirect","0","19"
"","html-keyboard-response","219","564024","0.0-10.0-0.20","6jsxxs2gq0","many_one","0","direct_first","1","Er08nz31","0","24","1","1","3","1","","0","1","0","null","","","<div style=""font-size:60px;"">+</div>","null","","","","","","","","","",""
"","html-keyboard-response","220","564118","0.0-10.0-1.20","6jsxxs2gq0","many_one","0","direct_first","1","Er08nz31","0","24","1","1","3","1","","0","1","0","null","","","<img src = 'category1/CS5.png' width = '100%;'>","null","","","","","","","","","",""
"","html-keyboard-response","221","564382","0.0-10.0-2.20","6jsxxs2gq0","many_one","0","direct_first","1","Er08nz31","0","24","1","1","3","1","","0","1","0","null","","","<img src = 'targets/27.png' width = '100%;'>","null","","","","","","","","","",""
"","html-keyboard-response","222","564426","0.0-10.0-3.20","6jsxxs2gq0","many_one","0","direct_first","1","Er08nz31","0","24","1","1","3","1","","0","1","0","43.77999994903803","","","<img src = 'targets/mask.png' width = '100%;'>","75","neg","CS","CS","1","category1/CS5.png","","targets/27.png","indirect","1","20"
"","html-keyboard-response","223","565951","0.0-10.0-0.21","6jsxxs2gq0","many_one","0","direct_first","1","Er08nz31","0","24","1","1","3","1","","0","1","0","null","","","<div style=""font-size:60px;"">+</div>","null","","","","","","","","","",""
"","html-keyboard-response","224","566051","0.0-10.0-1.21","6jsxxs2gq0","many_one","0","direct_first","1","Er08nz31","0","24","1","1","3","1","","0","1","0","null","","","<img src = 'category4/CS10.png' width = '100%;'>","null","","","","","","","","","",""
"","html-keyboard-response","225","566316","0.0-10.0-2.21","6jsxxs2gq0","many_one","0","direct_first","1","Er08nz31","0","24","1","1","3","1","","0","1","0","null","","","<img src = 'targets/21.png' width = '100%;'>","null","","","","","","","","","",""
"","html-keyboard-response","226","566483","0.0-10.0-3.21","6jsxxs2gq0","many_one","0","direct_first","1","Er08nz31","0","24","1","1","3","1","","0","1","0","166.05000011622906","","","<img src = 'targets/mask.png' width = '100%;'>","75","pos","GS","GSold","4","category4/CS10.png","","targets/21.png","indirect","1","21"
"","html-keyboard-response","227","567993","0.0-10.0-0.22","6jsxxs2gq0","many_one","0","direct_first","1","Er08nz31","0","24","1","1","3","1","","0","1","0","null","","","<div style=""font-size:60px;"">+</div>","null","","","","","","","","","",""
"","html-keyboard-response","228","568085","0.0-10.0-1.22","6jsxxs2gq0","many_one","0","direct_first","1","Er08nz31","0","24","1","1","3","1","","0","1","0","null","","","<img src = 'category3/CS8.png' width = '100%;'>","null","","","","","","","","","",""
"","html-keyboard-response","229","568349","0.0-10.0-2.22","6jsxxs2gq0","many_one","0","direct_first","1","Er08nz31","0","24","1","1","3","1","","0","1","0","null","","","<img src = 'targets/9.png' width = '100%;'>","null","","","","","","","","","",""
"","html-keyboard-response","230","568474","0.0-10.0-3.22","6jsxxs2gq0","many_one","0","direct_first","1","Er08nz31","0","24","1","1","3","1","","0","1","0","123.82500013336539","","","<img src = 'targets/mask.png' width = '100%;'>","75","pos","CS","CS","3","category3/CS8.png","","targets/9.png","indirect","1","22"
"","html-keyboard-response","231","569991","0.0-10.0-0.23","6jsxxs2gq0","many_one","0","direct_first","1","Er08nz31","0","24","1","1","3","1","","0","1","0","null","","","<div style=""font-size:60px;"">+</div>","null","","","","","","","","","",""
"","html-keyboard-response","232","570085","0.0-10.0-1.23","6jsxxs2gq0","many_one","0","direct_first","1","Er08nz31","0","24","1","1","3","1","","0","1","0","null","","","<img src = 'category1/CS7.png' width = '100%;'>","null","","","","","","","","","",""
"","html-keyboard-response","233","570349","0.0-10.0-2.23","6jsxxs2gq0","many_one","0","direct_first","1","Er08nz31","0","24","1","1","3","1","","0","1","0","null","","","<img src = 'targets/47.png' width = '100%;'>","null","","","","","","","","","",""
"","html-keyboard-response","234","570587","0.0-10.0-3.23","6jsxxs2gq0","many_one","0","direct_first","1","Er08nz31","0","24","1","1","3","1","","0","1","0","237.24499996751547","","","<img src = 'targets/mask.png' width = '100%;'>","75","neg","CS","CS","1","category1/CS7.png","","targets/47.png","indirect","1","23"
"","survey-html-form","235","763195","0.0-11.0","6jsxxs2gq0","many_one","0","direct_first","1","Er08nz31","0","24","1","1","3","1","","0","1","0","192103.0000001192","","{}","","","","","","","","","","","",""
"","html-keyboard-response","236","766217","0.0-12.0-0.0","6jsxxs2gq0","many_one","0","direct_first","1","Er08nz31","0","24","1","1","3","1","","0","1","0","null","","","<div style=""font-size:60px;"">+</div>","null","","","","","","","","","",""
"","html-keyboard-response","237","766316","0.0-12.0-1.0","6jsxxs2gq0","many_one","0","direct_first","1","Er08nz31","0","24","1","1","3","1","","0","1","0","null","","","<img src = 'category4/GS1.png' width = '100%;'>","null","","","","","","","","","",""
"","html-keyboard-response","238","766581","0.0-12.0-2.0","6jsxxs2gq0","many_one","0","direct_first","1","Er08nz31","0","24","1","1","3","1","","0","1","0","null","","","<img src = 'targets/17.png' width = '100%;'>","null","","","","","","","","","",""
"","html-keyboard-response","239","767267","0.0-12.0-3.0","6jsxxs2gq0","many_one","0","direct_first","1","Er08nz31","0","24","1","1","3","1","","0","1","0","685.1650001481175","","","<img src = 'targets/mask.png' width = '100%;'>","68","pos","GS","GSnew","4","category4/GS1.png","","targets/17.png","indirect","0","24"
"","html-keyboard-response","240","768774","0.0-12.0-0.1","6jsxxs2gq0","many_one","0","direct_first","1","Er08nz31","0","24","1","1","3","1","","0","1","0","null","","","<div style=""font-size:60px;"">+</div>","null","","","","","","","","","",""
"","html-keyboard-response","241","768868","0.0-12.0-1.1","6jsxxs2gq0","many_one","0","direct_first","1","Er08nz31","0","24","1","1","3","1","","0","1","0","null","","","<img src = 'category3/CS9.png' width = '100%;'>","null","","","","","","","","","",""
"","html-keyboard-response","242","769132","0.0-12.0-2.1","6jsxxs2gq0","many_one","0","direct_first","1","Er08nz31","0","24","1","1","3","1","","0","1","0","null","","","<img src = 'targets/2.png' width = '100%;'>","null","","","","","","","","","",""
"","html-keyboard-response","243","769331","0.0-12.0-3.1","6jsxxs2gq0","many_one","0","direct_first","1","Er08nz31","0","24","1","1","3","1","","0","1","0","197.71500024944544","","","<img src = 'targets/mask.png' width = '100%;'>","75","pos","GS","GSold","3","category3/CS9.png","","targets/2.png","indirect","1","25"
"","html-keyboard-response","244","770841","0.0-12.0-0.2","6jsxxs2gq0","many_one","0","direct_first","1","Er08nz31","0","24","1","1","3","1","","0","1","0","null","","","<div style=""font-size:60px;"">+</div>","null","","","","","","","","","",""
"","html-keyboard-response","245","770934","0.0-12.0-1.2","6jsxxs2gq0","many_one","0","direct_first","1","Er08nz31","0","24","1","1","3","1","","0","1","0","null","","","<img src = 'category2/GS1.png' width = '100%;'>","null","","","","","","","","","",""
"","html-keyboard-response","246","771199","0.0-12.0-2.2","6jsxxs2gq0","many_one","0","direct_first","1","Er08nz31","0","24","1","1","3","1","","0","1","0","null","","","<img src = 'targets/5.png' width = '100%;'>","null","","","","","","","","","",""
"","html-keyboard-response","247","771594","0.0-12.0-3.2","6jsxxs2gq0","many_one","0","direct_first","1","Er08nz31","0","24","1","1","3","1","","0","1","0","394.3399996496737","","","<img src = 'targets/mask.png' width = '100%;'>","75","neg","GS","GSnew","2","category2/GS1.png","","targets/5.png","indirect","1","26"
"","html-keyboard-response","248","773117","0.0-12.0-0.3","6jsxxs2gq0","many_one","0","direct_first","1","Er08nz31","0","24","1","1","3","1","","0","1","0","null","","","<div style=""font-size:60px;"">+</div>","null","","","","","","","","","",""
"","html-keyboard-response","249","773216","0.0-12.0-1.3","6jsxxs2gq0","many_one","0","direct_first","1","Er08nz31","0","24","1","1","3","1","","0","1","0","null","","","<img src = 'category1/CS8.png' width = '100%;'>","null","","","","","","","","","",""
"","html-keyboard-response","250","773483","0.0-12.0-2.3","6jsxxs2gq0","many_one","0","direct_first","1","Er08nz31","0","24","1","1","3","1","","0","1","0","null","","","<img src = 'targets/48.png' width = '100%;'>","null","","","","","","","","","",""
"","html-keyboard-response","251","773980","0.0-12.0-3.3","6jsxxs2gq0","many_one","0","direct_first","1","Er08nz31","0","24","1","1","3","1","","0","1","0","495.3900002874434","","","<img src = 'targets/mask.png' width = '100%;'>","75","neg","GS","GSold","1","category1/CS8.png","","targets/48.png","indirect","1","27"
"","html-keyboard-response","252","775498","0.0-12.0-0.4","6jsxxs2gq0","many_one","0","direct_first","1","Er08nz31","0","24","1","1","3","1","","0","1","0","null","","","<div style=""font-size:60px;"">+</div>","null","","","","","","","","","",""
"","html-keyboard-response","253","775600","0.0-12.0-1.4","6jsxxs2gq0","many_one","0","direct_first","1","Er08nz31","0","24","1","1","3","1","","0","1","0","null","","","<img src = 'category1/GS2.png' width = '100%;'>","null","","","","","","","","","",""
"","html-keyboard-response","254","775865","0.0-12.0-2.4","6jsxxs2gq0","many_one","0","direct_first","1","Er08nz31","0","24","1","1","3","1","","0","1","0","null","","","<img src = 'targets/4.png' width = '100%;'>","null","","","","","","","","","",""
"","html-keyboard-response","255","778347","0.0-12.0-3.4","6jsxxs2gq0","many_one","0","direct_first","1","Er08nz31","0","24","1","1","3","1","","0","1","0","2479.5450000092387","","","<img src = 'targets/mask.png' width = '100%;'>","75","neg","GS","GSnew","1","category1/GS2.png","","targets/4.png","indirect","1","28"
"","html-keyboard-response","256","779858","0.0-12.0-0.5","6jsxxs2gq0","many_one","0","direct_first","1","Er08nz31","0","24","1","1","3","1","","0","1","0","null","","","<div style=""font-size:60px;"">+</div>","null","","","","","","","","","",""
"","html-keyboard-response","257","779952","0.0-12.0-1.5","6jsxxs2gq0","many_one","0","direct_first","1","Er08nz31","0","24","1","1","3","1","","0","1","0","null","","","<img src = 'category3/CS1.png' width = '100%;'>","null","","","","","","","","","",""
"","html-keyboard-response","258","780214","0.0-12.0-2.5","6jsxxs2gq0","many_one","0","direct_first","1","Er08nz31","0","24","1","1","3","1","","0","1","0","null","","","<img src = 'targets/38.png' width = '100%;'>","null","","","","","","","","","",""
"","html-keyboard-response","259","780459","0.0-12.0-3.5","6jsxxs2gq0","many_one","0","direct_first","1","Er08nz31","0","24","1","1","3","1","","0","1","0","242.15999990701675","","","<img src = 'targets/mask.png' width = '100%;'>","75","pos","GS","GSold","3","category3/CS1.png","","targets/38.png","indirect","1","29"
"","html-keyboard-response","260","781984","0.0-12.0-0.6","6jsxxs2gq0","many_one","0","direct_first","1","Er08nz31","0","24","1","1","3","1","","0","1","0","null","","","<div style=""font-size:60px;"">+</div>","null","","","","","","","","","",""
"","html-keyboard-response","261","782085","0.0-12.0-1.6","6jsxxs2gq0","many_one","0","direct_first","1","Er08nz31","0","24","1","1","3","1","","0","1","0","null","","","<img src = 'category2/men.png' width = '100%;'>","null","","","","","","","","","",""
"","html-keyboard-response","262","782349","0.0-12.0-2.6","6jsxxs2gq0","many_one","0","direct_first","1","Er08nz31","0","24","1","1","3","1","","0","1","0","null","","","<img src = 'targets/30.png' width = '100%;'>","null","","","","","","","","","",""
"","html-keyboard-response","263","782483","0.0-12.0-3.6","6jsxxs2gq0","many_one","0","direct_first","1","Er08nz31","0","24","1","1","3","1","","0","1","0","132.50999990850687","","","<img src = 'targets/mask.png' width = '100%;'>","68","neg","GS","abstract","2","category2/men.png","","targets/30.png","indirect","0","30"
"","html-keyboard-response","264","783991","0.0-12.0-0.7","6jsxxs2gq0","many_one","0","direct_first","1","Er08nz31","0","24","1","1","3","1","","0","1","0","null","","","<div style=""font-size:60px;"">+</div>","null","","","","","","","","","",""
"","html-keyboard-response","265","784084","0.0-12.0-1.7","6jsxxs2gq0","many_one","0","direct_first","1","Er08nz31","0","24","1","1","3","1","","0","1","0","null","","","<img src = 'category1/ma.png' width = '100%;'>","null","","","","","","","","","",""
"","html-keyboard-response","266","784349","0.0-12.0-2.7","6jsxxs2gq0","many_one","0","direct_first","1","Er08nz31","0","24","1","1","3","1","","0","1","0","null","","","<img src = 'targets/41.png' width = '100%;'>","null","","","","","","","","","",""
"","html-keyboard-response","267","784723","0.0-12.0-3.7","6jsxxs2gq0","many_one","0","direct_first","1","Er08nz31","0","24","1","1","3","1","","0","1","0","373.81000025197864","","","<img src = 'targets/mask.png' width = '100%;'>","75","neg","GS","abstract","1","category1/ma.png","","targets/41.png","indirect","1","31"
"","html-keyboard-response","268","786240","0.0-12.0-0.8","6jsxxs2gq0","many_one","0","direct_first","1","Er08nz31","0","24","1","1","3","1","","0","1","0","null","","","<div style=""font-size:60px;"">+</div>","null","","","","","","","","","",""
"","html-keyboard-response","269","786335","0.0-12.0-1.8","6jsxxs2gq0","many_one","0","direct_first","1","Er08nz31","0","24","1","1","3","1","","0","1","0","null","","","<img src = 'category4/GS2.png' width = '100%;'>","null","","","","","","","","","",""
"","html-keyboard-response","270","786598","0.0-12.0-2.8","6jsxxs2gq0","many_one","0","direct_first","1","Er08nz31","0","24","1","1","3","1","","0","1","0","null","","","<img src = 'targets/29.png' width = '100%;'>","null","","","","","","","","","",""
"","html-keyboard-response","271","787331","0.0-12.0-3.8","6jsxxs2gq0","many_one","0","direct_first","1","Er08nz31","0","24","1","1","3","1","","0","1","0","731.8400000222027","","","<img src = 'targets/mask.png' width = '100%;'>","68","pos","GS","GSnew","4","category4/GS2.png","","targets/29.png","indirect","0","32"
"","html-keyboard-response","272","788839","0.0-12.0-0.9","6jsxxs2gq0","many_one","0","direct_first","1","Er08nz31","0","24","1","1","3","1","","0","1","0","null","","","<div style=""font-size:60px;"">+</div>","null","","","","","","","","","",""
"","html-keyboard-response","273","788934","0.0-12.0-1.9","6jsxxs2gq0","many_one","0","direct_first","1","Er08nz31","0","24","1","1","3","1","","0","1","0","null","","","<img src = 'category2/GS3.png' width = '100%;'>","null","","","","","","","","","",""
"","html-keyboard-response","274","789197","0.0-12.0-2.9","6jsxxs2gq0","many_one","0","direct_first","1","Er08nz31","0","24","1","1","3","1","","0","1","0","null","","","<img src = 'targets/35.png' width = '100%;'>","null","","","","","","","","","",""
"","html-keyboard-response","275","789499","0.0-12.0-3.9","6jsxxs2gq0","many_one","0","direct_first","1","Er08nz31","0","24","1","1","3","1","","0","1","0","299.944999627769","","","<img src = 'targets/mask.png' width = '100%;'>","68","neg","GS","GSnew","2","category2/GS3.png","","targets/35.png","indirect","0","33"
"","html-keyboard-response","276","791015","0.0-12.0-0.10","6jsxxs2gq0","many_one","0","direct_first","1","Er08nz31","0","24","1","1","3","1","","0","1","0","null","","","<div style=""font-size:60px;"">+</div>","null","","","","","","","","","",""
"","html-keyboard-response","277","791117","0.0-12.0-1.10","6jsxxs2gq0","many_one","0","direct_first","1","Er08nz31","0","24","1","1","3","1","","0","1","0","null","","","<img src = 'category3/CS7.png' width = '100%;'>","null","","","","","","","","","",""
"","html-keyboard-response","278","791382","0.0-12.0-2.10","6jsxxs2gq0","many_one","0","direct_first","1","Er08nz31","0","24","1","1","3","1","","0","1","0","null","","","<img src = 'targets/11.png' width = '100%;'>","null","","","","","","","","","",""
"","html-keyboard-response","279","791507","0.0-12.0-3.10","6jsxxs2gq0","many_one","0","direct_first","1","Er08nz31","0","24","1","1","3","1","","0","1","0","123.5750000923872","","","<img src = 'targets/mask.png' width = '100%;'>","75","pos","GS","GSold","3","category3/CS7.png","","targets/11.png","indirect","1","34"
"","html-keyboard-response","280","793038","0.0-12.0-0.11","6jsxxs2gq0","many_one","0","direct_first","1","Er08nz31","0","24","1","1","3","1","","0","1","0","null","","","<div style=""font-size:60px;"">+</div>","null","","","","","","","","","",""
"","html-keyboard-response","281","793135","0.0-12.0-1.11","6jsxxs2gq0","many_one","0","direct_first","1","Er08nz31","0","24","1","1","3","1","","0","1","0","null","","","<img src = 'category3/wang.png' width = '100%;'>","null","","","","","","","","","",""
"","html-keyboard-response","282","793398","0.0-12.0-2.11","6jsxxs2gq0","many_one","0","direct_first","1","Er08nz31","0","24","1","1","3","1","","0","1","0","null","","","<img src = 'targets/7.png' width = '100%;'>","null","","","","","","","","","",""
"","html-keyboard-response","283","793596","0.0-12.0-3.11","6jsxxs2gq0","many_one","0","direct_first","1","Er08nz31","0","24","1","1","3","1","","0","1","0","197.04500027000904","","","<img src = 'targets/mask.png' width = '100%;'>","75","pos","GS","abstract","3","category3/wang.png","","targets/7.png","indirect","1","35"
"","html-keyboard-response","284","795108","0.0-12.0-0.12","6jsxxs2gq0","many_one","0","direct_first","1","Er08nz31","0","24","1","1","3","1","","0","1","0","null","","","<div style=""font-size:60px;"">+</div>","null","","","","","","","","","",""
"","html-keyboard-response","285","795201","0.0-12.0-1.12","6jsxxs2gq0","many_one","0","direct_first","1","Er08nz31","0","24","1","1","3","1","","0","1","0","null","","","<img src = 'category4/CS1.png' width = '100%;'>","null","","","","","","","","","",""
"","html-keyboard-response","286","795464","0.0-12.0-2.12","6jsxxs2gq0","many_one","0","direct_first","1","Er08nz31","0","24","1","1","3","1","","0","1","0","null","","","<img src = 'targets/34.png' width = '100%;'>","null","","","","","","","","","",""
"","html-keyboard-response","287","795819","0.0-12.0-3.12","6jsxxs2gq0","many_one","0","direct_first","1","Er08nz31","0","24","1","1","3","1","","0","1","0","354.66499999165535","","","<img src = 'targets/mask.png' width = '100%;'>","75","pos","GS","GSold","4","category4/CS1.png","","targets/34.png","indirect","1","36"
"","html-keyboard-response","288","797339","0.0-12.0-0.13","6jsxxs2gq0","many_one","0","direct_first","1","Er08nz31","0","24","1","1","3","1","","0","1","0","null","","","<div style=""font-size:60px;"">+</div>","null","","","","","","","","","",""
"","html-keyboard-response","289","797435","0.0-12.0-1.13","6jsxxs2gq0","many_one","0","direct_first","1","Er08nz31","0","24","1","1","3","1","","0","1","0","null","","","<img src = 'category3/GS1.png' width = '100%;'>","null","","","","","","","","","",""
"","html-keyboard-response","290","797695","0.0-12.0-2.13","6jsxxs2gq0","many_one","0","direct_first","1","Er08nz31","0","24","1","1","3","1","","0","1","0","null","","","<img src = 'targets/8.png' width = '100%;'>","null","","","","","","","","","",""
"","html-keyboard-response","291","797811","0.0-12.0-3.13","6jsxxs2gq0","many_one","0","direct_first","1","Er08nz31","0","24","1","1","3","1","","0","1","0","115.30000017955899","","","<img src = 'targets/mask.png' width = '100%;'>","68","pos","GS","GSnew","3","category3/GS1.png","","targets/8.png","indirect","0","37"
"","html-keyboard-response","292","799326","0.0-12.0-0.14","6jsxxs2gq0","many_one","0","direct_first","1","Er08nz31","0","24","1","1","3","1","","0","1","0","null","","","<div style=""font-size:60px;"">+</div>","null","","","","","","","","","",""
"","html-keyboard-response","293","799417","0.0-12.0-1.14","6jsxxs2gq0","many_one","0","direct_first","1","Er08nz31","0","24","1","1","3","1","","0","1","0","null","","","<img src = 'category2/GS2.png' width = '100%;'>","null","","","","","","","","","",""
"","html-keyboard-response","294","799681","0.0-12.0-2.14","6jsxxs2gq0","many_one","0","direct_first","1","Er08nz31","0","24","1","1","3","1","","0","1","0","null","","","<img src = 'targets/44.png' width = '100%;'>","null","","","","","","","","","",""
"","html-keyboard-response","295","799899","0.0-12.0-3.14","6jsxxs2gq0","many_one","0","direct_first","1","Er08nz31","0","24","1","1","3","1","","0","1","0","216.61499980837107","","","<img src = 'targets/mask.png' width = '100%;'>","68","neg","GS","GSnew","2","category2/GS2.png","","targets/44.png","indirect","0","38"
"","html-keyboard-response","296","801423","0.0-12.0-0.15","6jsxxs2gq0","many_one","0","direct_first","1","Er08nz31","0","24","1","1","3","1","","0","1","0","null","","","<div style=""font-size:60px;"">+</div>","null","","","","","","","","","",""
"","html-keyboard-response","297","801518","0.0-12.0-1.15","6jsxxs2gq0","many_one","0","direct_first","1","Er08nz31","0","24","1","1","3","1","","0","1","0","null","","","<img src = 'category3/GS2.png' width = '100%;'>","null","","","","","","","","","",""
"","html-keyboard-response","298","801782","0.0-12.0-2.15","6jsxxs2gq0","many_one","0","direct_first","1","Er08nz31","0","24","1","1","3","1","","0","1","0","null","","","<img src = 'targets/22.png' width = '100%;'>","null","","","","","","","","","",""
"","html-keyboard-response","299","802011","0.0-12.0-3.15","6jsxxs2gq0","many_one","0","direct_first","1","Er08nz31","0","24","1","1","3","1","","0","1","0","228.42499986290932","","","<img src = 'targets/mask.png' width = '100%;'>","75","pos","GS","GSnew","3","category3/GS2.png","","targets/22.png","indirect","1","39"
"","html-keyboard-response","300","803524","0.0-12.0-0.16","6jsxxs2gq0","many_one","0","direct_first","1","Er08nz31","0","24","1","1","3","1","","0","1","0","null","","","<div style=""font-size:60px;"">+</div>","null","","","","","","","","","",""
"","html-keyboard-response","301","803618","0.0-12.0-1.16","6jsxxs2gq0","many_one","0","direct_first","1","Er08nz31","0","24","1","1","3","1","","0","1","0","null","","","<img src = 'category3/GS3.png' width = '100%;'>","null","","","","","","","","","",""
"","html-keyboard-response","302","803881","0.0-12.0-2.16","6jsxxs2gq0","many_one","0","direct_first","1","Er08nz31","0","24","1","1","3","1","","0","1","0","null","","","<img src = 'targets/13.png' width = '100%;'>","null","","","","","","","","","",""
"","html-keyboard-response","303","804203","0.0-12.0-3.16","6jsxxs2gq0","many_one","0","direct_first","1","Er08nz31","0","24","1","1","3","1","","0","1","0","321.4400000870228","","","<img src = 'targets/mask.png' width = '100%;'>","75","pos","GS","GSnew","3","category3/GS3.png","","targets/13.png","indirect","1","40"
"","html-keyboard-response","304","805714","0.0-12.0-0.17","6jsxxs2gq0","many_one","0","direct_first","1","Er08nz31","0","24","1","1","3","1","","0","1","0","null","","","<div style=""font-size:60px;"">+</div>","null","","","","","","","","","",""
"","html-keyboard-response","305","805817","0.0-12.0-1.17","6jsxxs2gq0","many_one","0","direct_first","1","Er08nz31","0","24","1","1","3","1","","0","1","0","null","","","<img src = 'category1/CS2.png' width = '100%;'>","null","","","","","","","","","",""
"","html-keyboard-response","306","806083","0.0-12.0-2.17","6jsxxs2gq0","many_one","0","direct_first","1","Er08nz31","0","24","1","1","3","1","","0","1","0","null","","","<img src = 'targets/10.png' width = '100%;'>","null","","","","","","","","","",""
"","html-keyboard-response","307","806211","0.0-12.0-3.17","6jsxxs2gq0","many_one","0","direct_first","1","Er08nz31","0","24","1","1","3","1","","0","1","0","127.09000008180737","","","<img src = 'targets/mask.png' width = '100%;'>","68","neg","GS","GSold","1","category1/CS2.png","","targets/10.png","indirect","0","41"
"","html-keyboard-response","308","807724","0.0-12.0-0.18","6jsxxs2gq0","many_one","0","direct_first","1","Er08nz31","0","24","1","1","3","1","","0","1","0","null","","","<div style=""font-size:60px;"">+</div>","null","","","","","","","","","",""
"","html-keyboard-response","309","807818","0.0-12.0-1.18","6jsxxs2gq0","many_one","0","direct_first","1","Er08nz31","0","24","1","1","3","1","","0","1","0","null","","","<img src = 'category4/GS3.png' width = '100%;'>","null","","","","","","","","","",""
"","html-keyboard-response","310","808081","0.0-12.0-2.18","6jsxxs2gq0","many_one","0","direct_first","1","Er08nz31","0","24","1","1","3","1","","0","1","0","null","","","<img src = 'targets/3.png' width = '100%;'>","null","","","","","","","","","",""
"","html-keyboard-response","311","808284","0.0-12.0-3.18","6jsxxs2gq0","many_one","0","direct_first","1","Er08nz31","0","24","1","1","3","1","","0","1","0","202.33500003814697","","","<img src = 'targets/mask.png' width = '100%;'>","75","pos","GS","GSnew","4","category4/GS3.png","","targets/3.png","indirect","1","42"
"","html-keyboard-response","312","809790","0.0-12.0-0.19","6jsxxs2gq0","many_one","0","direct_first","1","Er08nz31","0","24","1","1","3","1","","0","1","0","null","","","<div style=""font-size:60px;"">+</div>","null","","","","","","","","","",""
"","html-keyboard-response","313","809884","0.0-12.0-1.19","6jsxxs2gq0","many_one","0","direct_first","1","Er08nz31","0","24","1","1","3","1","","0","1","0","null","","","<img src = 'category1/GS1.png' width = '100%;'>","null","","","","","","","","","",""
"","html-keyboard-response","314","810148","0.0-12.0-2.19","6jsxxs2gq0","many_one","0","direct_first","1","Er08nz31","0","24","1","1","3","1","","0","1","0","null","","","<img src = 'targets/12.png' width = '100%;'>","null","","","","","","","","","",""
"","html-keyboard-response","315","810347","0.0-12.0-3.19","6jsxxs2gq0","many_one","0","direct_first","1","Er08nz31","0","24","1","1","3","1","","0","1","0","197.56000023335218","","","<img src = 'targets/mask.png' width = '100%;'>","68","neg","GS","GSnew","1","category1/GS1.png","","targets/12.png","indirect","0","43"
"","html-keyboard-response","316","811858","0.0-12.0-0.20","6jsxxs2gq0","many_one","0","direct_first","1","Er08nz31","0","24","1","1","3","1","","0","1","0","null","","","<div style=""font-size:60px;"">+</div>","null","","","","","","","","","",""
"","html-keyboard-response","317","811951","0.0-12.0-1.20","6jsxxs2gq0","many_one","0","direct_first","1","Er08nz31","0","24","1","1","3","1","","0","1","0","null","","","<img src = 'category4/CS4.png' width = '100%;'>","null","","","","","","","","","",""
"","html-keyboard-response","318","812215","0.0-12.0-2.20","6jsxxs2gq0","many_one","0","direct_first","1","Er08nz31","0","24","1","1","3","1","","0","1","0","null","","","<img src = 'targets/31.png' width = '100%;'>","null","","","","","","","","","",""
"","html-keyboard-response","319","812571","0.0-12.0-3.20","6jsxxs2gq0","many_one","0","direct_first","1","Er08nz31","0","24","1","1","3","1","","0","1","0","354.99999998137355","","","<img src = 'targets/mask.png' width = '100%;'>","68","pos","GS","GSold","4","category4/CS4.png","","targets/31.png","indirect","0","44"
"","html-keyboard-response","320","814089","0.0-12.0-0.21","6jsxxs2gq0","many_one","0","direct_first","1","Er08nz31","0","24","1","1","3","1","","0","1","0","null","","","<div style=""font-size:60px;"">+</div>","null","","","","","","","","","",""
"","html-keyboard-response","321","814185","0.0-12.0-1.21","6jsxxs2gq0","many_one","0","direct_first","1","Er08nz31","0","24","1","1","3","1","","0","1","0","null","","","<img src = 'category4/lin.png' width = '100%;'>","null","","","","","","","","","",""
"","html-keyboard-response","322","814447","0.0-12.0-2.21","6jsxxs2gq0","many_one","0","direct_first","1","Er08nz31","0","24","1","1","3","1","","0","1","0","null","","","<img src = 'targets/18.png' width = '100%;'>","null","","","","","","","","","",""
"","html-keyboard-response","323","814683","0.0-12.0-3.21","6jsxxs2gq0","many_one","0","direct_first","1","Er08nz31","0","24","1","1","3","1","","0","1","0","234.8500001244247","","","<img src = 'targets/mask.png' width = '100%;'>","75","pos","GS","abstract","4","category4/lin.png","","targets/18.png","indirect","1","45"
"","html-keyboard-response","324","816206","0.0-12.0-0.22","6jsxxs2gq0","many_one","0","direct_first","1","Er08nz31","0","24","1","1","3","1","","0","1","0","null","","","<div style=""font-size:60px;"">+</div>","null","","","","","","","","","",""
"","html-keyboard-response","325","816301","0.0-12.0-1.22","6jsxxs2gq0","many_one","0","direct_first","1","Er08nz31","0","24","1","1","3","1","","0","1","0","null","","","<img src = 'category1/CS3.png' width = '100%;'>","null","","","","","","","","","",""
"","html-keyboard-response","326","816565","0.0-12.0-2.22","6jsxxs2gq0","many_one","0","direct_first","1","Er08nz31","0","24","1","1","3","1","","0","1","0","null","","","<img src = 'targets/40.png' width = '100%;'>","null","","","","","","","","","",""
