"success","trial_type","trial_index","time_elapsed","internal_node_id","subject","condition","condition_code","measure","measure_code","codeword","gender","age","education","chinese","fach","handedness","comment","hinschauen","ablenkung","gewissenhaft","rt","url","responses","stimulus","key_press","val","type","type_specific","category","cs_selected","response","target","task","indirect","nr_pres"
"true","fullscreen","0","5499","0.0-0.0","2tvgx5ewo4","many_one","0","direct_first","1","el07en31","0","22","1","1","3","1","","0","1","0","","","","","","","","","","","","","","",""
"","external-html","1","54943","0.0-1.0","2tvgx5ewo4","many_one","0","direct_first","1","el07en31","0","22","1","1","3","1","","0","1","0","49394.00000000023","text/information.html","","","","","","","","","","","","",""
"","external-html","2","62529","0.0-2.0","2tvgx5ewo4","many_one","0","direct_first","1","el07en31","0","22","1","1","3","1","","0","1","0","7513.860000006389","text/consent.html","","","","","","","","","","","","",""
"","survey-html-form","3","105455","0.0-3.0","2tvgx5ewo4","many_one","0","direct_first","1","el07en31","0","22","1","1","3","1","","0","1","0","42922.65999998199","","{""codeword_enter"":""el07en31""}","","","","","","","","","","","",""
"","survey-html-form","4","123669","0.0-4.0","2tvgx5ewo4","many_one","0","direct_first","1","el07en31","0","22","1","1","3","1","","0","1","0","18202.545000007376","","{""age"":""22"",""education"":""1"",""subject"":""3"",""gender"":""0"",""handedness"":""1"",""chinese"":""1""}","","","","","","","","","","","",""
"","survey-html-form","5","130201","0.0-5.0","2tvgx5ewo4","many_one","0","direct_first","1","el07en31","0","22","1","1","3","1","","0","1","0","6525.034999998752","","{}","","","","","","","","","","","",""
"","html-keyboard-response","6","134215","0.0-6.0-0.0-0.0","2tvgx5ewo4","many_one","0","direct_first","1","el07en31","0","22","1","1","3","1","","0","1","0","null","","","<div class = 'row'><div class = 'column'><img src = 'category2/CS1.png' width = '70%;'></div><div class = 'column'><img src = 'uspos/8490.bmp' width = '100%;'></div></div>","null","pos","CS","CS","2","category2/CS1.png","","","","",""
"","html-keyboard-response","7","136733","0.0-6.0-0.0-0.1","2tvgx5ewo4","many_one","0","direct_first","1","el07en31","0","22","1","1","3","1","","0","1","0","null","","","<div class = 'row'><div class = 'column'><img src = 'category1/CS5.png' width = '70%;'></div><div class = 'column'><img src = 'uspos/5629.bmp' width = '100%;'></div></div>","null","pos","CS","CS","1","category1/CS5.png","","","","",""
"","html-keyboard-response","8","139261","0.0-6.0-0.0-0.2","2tvgx5ewo4","many_one","0","direct_first","1","el07en31","0","22","1","1","3","1","","0","1","0","null","","","<div class = 'row'><div class = 'column'><img src = 'category4/CS4.png' width = '70%;'></div><div class = 'column'><img src = 'usneg/9340.bmp' width = '100%;'></div></div>","null","neg","CS","CS","4","category4/CS4.png","","","","",""
"","html-keyboard-response","9","141789","0.0-6.0-0.0-0.3","2tvgx5ewo4","many_one","0","direct_first","1","el07en31","0","22","1","1","3","1","","0","1","0","null","","","<div class = 'row'><div class = 'column'><img src = 'category1/CS8.png' width = '70%;'></div><div class = 'column'><img src = 'uspos/2530.bmp' width = '100%;'></div></div>","null","pos","CS","CS","1","category1/CS8.png","","","","",""
"","html-keyboard-response","10","144314","0.0-6.0-0.0-0.4","2tvgx5ewo4","many_one","0","direct_first","1","el07en31","0","22","1","1","3","1","","0","1","0","null","","","<div class = 'row'><div class = 'column'><img src = 'usneg/2750.bmp' width = '100%;'></div><div class = 'column'><img src = 'category4/CS7.png' width = '70%;'></div></div>","null","neg","CS","CS","4","category4/CS7.png","","","","",""
"","html-keyboard-response","11","146850","0.0-6.0-0.0-0.5","2tvgx5ewo4","many_one","0","direct_first","1","el07en31","0","22","1","1","3","1","","0","1","0","null","","","<div class = 'row'><div class = 'column'><img src = 'category2/CS4.png' width = '70%;'></div><div class = 'column'><img src = 'uspos/2040.bmp' width = '100%;'></div></div>","null","pos","CS","CS","2","category2/CS4.png","","","","",""
"","html-keyboard-response","12","149361","0.0-6.0-0.0-0.6","2tvgx5ewo4","many_one","0","direct_first","1","el07en31","0","22","1","1","3","1","","0","1","0","null","","","<div class = 'row'><div class = 'column'><img src = 'usneg/9920.bmp' width = '100%;'></div><div class = 'column'><img src = 'category3/CS10.png' width = '70%;'></div></div>","null","neg","CS","CS","3","category3/CS10.png","","","","",""
"","html-keyboard-response","13","151894","0.0-6.0-0.0-0.7","2tvgx5ewo4","many_one","0","direct_first","1","el07en31","0","22","1","1","3","1","","0","1","0","null","","","<div class = 'row'><div class = 'column'><img src = 'uspos/2150.bmp' width = '100%;'></div><div class = 'column'><img src = 'category1/CS9.png' width = '70%;'></div></div>","null","pos","CS","CS","1","category1/CS9.png","","","","",""
"","html-keyboard-response","14","154424","0.0-6.0-0.0-0.8","2tvgx5ewo4","many_one","0","direct_first","1","el07en31","0","22","1","1","3","1","","0","1","0","null","","","<div class = 'row'><div class = 'column'><img src = 'category4/CS6.png' width = '70%;'></div><div class = 'column'><img src = 'usneg/9330.bmp' width = '100%;'></div></div>","null","neg","CS","CS","4","category4/CS6.png","","","","",""
"","html-keyboard-response","15","156937","0.0-6.0-0.0-0.9","2tvgx5ewo4","many_one","0","direct_first","1","el07en31","0","22","1","1","3","1","","0","1","0","null","","","<div class = 'row'><div class = 'column'><img src = 'category3/CS4.png' width = '70%;'></div><div class = 'column'><img src = 'usneg/9415.bmp' width = '100%;'></div></div>","null","neg","CS","CS","3","category3/CS4.png","","","","",""
"","html-keyboard-response","16","159469","0.0-6.0-0.0-0.10","2tvgx5ewo4","many_one","0","direct_first","1","el07en31","0","22","1","1","3","1","","0","1","0","null","","","<div class = 'row'><div class = 'column'><img src = 'category3/CS7.png' width = '70%;'></div><div class = 'column'><img src = 'usneg/9421.bmp' width = '100%;'></div></div>","null","neg","CS","CS","3","category3/CS7.png","","","","",""
"","html-keyboard-response","17","161995","0.0-6.0-0.0-0.11","2tvgx5ewo4","many_one","0","direct_first","1","el07en31","0","22","1","1","3","1","","0","1","0","null","","","<div class = 'row'><div class = 'column'><img src = 'category1/CS2.png' width = '70%;'></div><div class = 'column'><img src = 'uspos/7325.bmp' width = '100%;'></div></div>","null","pos","CS","CS","1","category1/CS2.png","","","","",""
"","html-keyboard-response","18","164503","0.0-6.0-0.0-0.12","2tvgx5ewo4","many_one","0","direct_first","1","el07en31","0","22","1","1","3","1","","0","1","0","null","","","<div class = 'row'><div class = 'column'><img src = 'usneg/9635.2.bmp' width = '100%;'></div><div class = 'column'><img src = 'category4/CS2.png' width = '70%;'></div></div>","null","neg","CS","CS","4","category4/CS2.png","","","","",""
"","html-keyboard-response","19","167033","0.0-6.0-0.0-0.13","2tvgx5ewo4","many_one","0","direct_first","1","el07en31","0","22","1","1","3","1","","0","1","0","null","","","<div class = 'row'><div class = 'column'><img src = 'usneg/6570.1.bmp' width = '100%;'></div><div class = 'column'><img src = 'category4/CS10.png' width = '70%;'></div></div>","null","neg","CS","CS","4","category4/CS10.png","","","","",""
"","html-keyboard-response","20","169544","0.0-6.0-0.0-0.14","2tvgx5ewo4","many_one","0","direct_first","1","el07en31","0","22","1","1","3","1","","0","1","0","null","","","<div class = 'row'><div class = 'column'><img src = 'category3/CS1.png' width = '70%;'></div><div class = 'column'><img src = 'usneg/9560.bmp' width = '100%;'></div></div>","null","neg","CS","CS","3","category3/CS1.png","","","","",""
"","html-keyboard-response","21","172063","0.0-6.0-0.0-0.15","2tvgx5ewo4","many_one","0","direct_first","1","el07en31","0","22","1","1","3","1","","0","1","0","null","","","<div class = 'row'><div class = 'column'><img src = 'category2/CS2.png' width = '70%;'></div><div class = 'column'><img src = 'uspos/2057.bmp' width = '100%;'></div></div>","null","pos","CS","CS","2","category2/CS2.png","","","","",""
"","html-keyboard-response","22","174581","0.0-6.0-0.0-0.16","2tvgx5ewo4","many_one","0","direct_first","1","el07en31","0","22","1","1","3","1","","0","1","0","null","","","<div class = 'row'><div class = 'column'><img src = 'usneg/3300.bmp' width = '100%;'></div><div class = 'column'><img src = 'category3/CS6.png' width = '70%;'></div></div>","null","neg","CS","CS","3","category3/CS6.png","","","","",""
"","html-keyboard-response","23","177112","0.0-6.0-0.0-0.17","2tvgx5ewo4","many_one","0","direct_first","1","el07en31","0","22","1","1","3","1","","0","1","0","null","","","<div class = 'row'><div class = 'column'><img src = 'category1/CS6.png' width = '70%;'></div><div class = 'column'><img src = 'uspos/8540.bmp' width = '100%;'></div></div>","null","pos","CS","CS","1","category1/CS6.png","","","","",""
"","html-keyboard-response","24","179645","0.0-6.0-0.0-0.18","2tvgx5ewo4","many_one","0","direct_first","1","el07en31","0","22","1","1","3","1","","0","1","0","null","","","<div class = 'row'><div class = 'column'><img src = 'uspos/5621.bmp' width = '100%;'></div><div class = 'column'><img src = 'category2/CS9.png' width = '70%;'></div></div>","null","pos","CS","CS","2","category2/CS9.png","","","","",""
"","html-keyboard-response","25","182168","0.0-6.0-0.0-0.19","2tvgx5ewo4","many_one","0","direct_first","1","el07en31","0","22","1","1","3","1","","0","1","0","null","","","<div class = 'row'><div class = 'column'><img src = 'uspos/1463.bmp' width = '100%;'></div><div class = 'column'><img src = 'category2/CS5.png' width = '70%;'></div></div>","null","pos","CS","CS","2","category2/CS5.png","","","","",""
"","survey-html-form","26","186483","0.0-6.0-1.0","2tvgx5ewo4","many_one","0","direct_first","1","el07en31","0","22","1","1","3","1","","0","1","0","3802.4399999994785","","{}","","","","","","","","","","","",""
"","html-keyboard-response","27","190502","0.0-6.0-2.0-0.0","2tvgx5ewo4","many_one","0","direct_first","1","el07en31","0","22","1","1","3","1","","0","1","0","null","","","<div class = 'row'><div class = 'column'><img src = 'uspos/2040.bmp' width = '100%;'></div><div class = 'column'><img src = 'category2/CS4.png' width = '70%;'></div></div>","null","pos","CS","CS","2","category2/CS4.png","","","","",""
"","html-keyboard-response","28","193029","0.0-6.0-2.0-0.1","2tvgx5ewo4","many_one","0","direct_first","1","el07en31","0","22","1","1","3","1","","0","1","0","null","","","<div class = 'row'><div class = 'column'><img src = 'uspos/2057.bmp' width = '100%;'></div><div class = 'column'><img src = 'category2/CS2.png' width = '70%;'></div></div>","null","pos","CS","CS","2","category2/CS2.png","","","","",""
"","html-keyboard-response","29","195553","0.0-6.0-2.0-0.2","2tvgx5ewo4","many_one","0","direct_first","1","el07en31","0","22","1","1","3","1","","0","1","0","null","","","<div class = 'row'><div class = 'column'><img src = 'usneg/9560.bmp' width = '100%;'></div><div class = 'column'><img src = 'category3/CS1.png' width = '70%;'></div></div>","null","neg","CS","CS","3","category3/CS1.png","","","","",""
"","html-keyboard-response","30","198069","0.0-6.0-2.0-0.3","2tvgx5ewo4","many_one","0","direct_first","1","el07en31","0","22","1","1","3","1","","0","1","0","null","","","<div class = 'row'><div class = 'column'><img src = 'category4/CS7.png' width = '70%;'></div><div class = 'column'><img src = 'usneg/2750.bmp' width = '100%;'></div></div>","null","neg","CS","CS","4","category4/CS7.png","","","","",""
"","html-keyboard-response","31","200582","0.0-6.0-2.0-0.4","2tvgx5ewo4","many_one","0","direct_first","1","el07en31","0","22","1","1","3","1","","0","1","0","null","","","<div class = 'row'><div class = 'column'><img src = 'category2/CS9.png' width = '70%;'></div><div class = 'column'><img src = 'uspos/5621.bmp' width = '100%;'></div></div>","null","pos","CS","CS","2","category2/CS9.png","","","","",""
"","html-keyboard-response","32","203107","0.0-6.0-2.0-0.5","2tvgx5ewo4","many_one","0","direct_first","1","el07en31","0","22","1","1","3","1","","0","1","0","null","","","<div class = 'row'><div class = 'column'><img src = 'category3/CS6.png' width = '70%;'></div><div class = 'column'><img src = 'usneg/3300.bmp' width = '100%;'></div></div>","null","neg","CS","CS","3","category3/CS6.png","","","","",""
"","html-keyboard-response","33","205637","0.0-6.0-2.0-0.6","2tvgx5ewo4","many_one","0","direct_first","1","el07en31","0","22","1","1","3","1","","0","1","0","null","","","<div class = 'row'><div class = 'column'><img src = 'uspos/8540.bmp' width = '100%;'></div><div class = 'column'><img src = 'category1/CS6.png' width = '70%;'></div></div>","null","pos","CS","CS","1","category1/CS6.png","","","","",""
"","html-keyboard-response","34","208165","0.0-6.0-2.0-0.7","2tvgx5ewo4","many_one","0","direct_first","1","el07en31","0","22","1","1","3","1","","0","1","0","null","","","<div class = 'row'><div class = 'column'><img src = 'usneg/9920.bmp' width = '100%;'></div><div class = 'column'><img src = 'category3/CS10.png' width = '70%;'></div></div>","null","neg","CS","CS","3","category3/CS10.png","","","","",""
"","html-keyboard-response","35","210696","0.0-6.0-2.0-0.8","2tvgx5ewo4","many_one","0","direct_first","1","el07en31","0","22","1","1","3","1","","0","1","0","null","","","<div class = 'row'><div class = 'column'><img src = 'category1/CS9.png' width = '70%;'></div><div class = 'column'><img src = 'uspos/2150.bmp' width = '100%;'></div></div>","null","pos","CS","CS","1","category1/CS9.png","","","","",""
"","html-keyboard-response","36","213214","0.0-6.0-2.0-0.9","2tvgx5ewo4","many_one","0","direct_first","1","el07en31","0","22","1","1","3","1","","0","1","0","null","","","<div class = 'row'><div class = 'column'><img src = 'category4/CS2.png' width = '70%;'></div><div class = 'column'><img src = 'usneg/9635.2.bmp' width = '100%;'></div></div>","null","neg","CS","CS","4","category4/CS2.png","","","","",""
"","html-keyboard-response","37","215729","0.0-6.0-2.0-0.10","2tvgx5ewo4","many_one","0","direct_first","1","el07en31","0","22","1","1","3","1","","0","1","0","null","","","<div class = 'row'><div class = 'column'><img src = 'category1/CS2.png' width = '70%;'></div><div class = 'column'><img src = 'uspos/7325.bmp' width = '100%;'></div></div>","null","pos","CS","CS","1","category1/CS2.png","","","","",""
"","html-keyboard-response","38","218252","0.0-6.0-2.0-0.11","2tvgx5ewo4","many_one","0","direct_first","1","el07en31","0","22","1","1","3","1","","0","1","0","null","","","<div class = 'row'><div class = 'column'><img src = 'uspos/1463.bmp' width = '100%;'></div><div class = 'column'><img src = 'category2/CS5.png' width = '70%;'></div></div>","null","pos","CS","CS","2","category2/CS5.png","","","","",""
"","html-keyboard-response","39","220764","0.0-6.0-2.0-0.12","2tvgx5ewo4","many_one","0","direct_first","1","el07en31","0","22","1","1","3","1","","0","1","0","null","","","<div class = 'row'><div class = 'column'><img src = 'usneg/9421.bmp' width = '100%;'></div><div class = 'column'><img src = 'category3/CS7.png' width = '70%;'></div></div>","null","neg","CS","CS","3","category3/CS7.png","","","","",""
"","html-keyboard-response","40","223289","0.0-6.0-2.0-0.13","2tvgx5ewo4","many_one","0","direct_first","1","el07en31","0","22","1","1","3","1","","0","1","0","null","","","<div class = 'row'><div class = 'column'><img src = 'category4/CS10.png' width = '70%;'></div><div class = 'column'><img src = 'usneg/6570.1.bmp' width = '100%;'></div></div>","null","neg","CS","CS","4","category4/CS10.png","","","","",""
"","html-keyboard-response","41","225823","0.0-6.0-2.0-0.14","2tvgx5ewo4","many_one","0","direct_first","1","el07en31","0","22","1","1","3","1","","0","1","0","null","","","<div class = 'row'><div class = 'column'><img src = 'category4/CS6.png' width = '70%;'></div><div class = 'column'><img src = 'usneg/9330.bmp' width = '100%;'></div></div>","null","neg","CS","CS","4","category4/CS6.png","","","","",""
"","html-keyboard-response","42","228340","0.0-6.0-2.0-0.15","2tvgx5ewo4","many_one","0","direct_first","1","el07en31","0","22","1","1","3","1","","0","1","0","null","","","<div class = 'row'><div class = 'column'><img src = 'category1/CS5.png' width = '70%;'></div><div class = 'column'><img src = 'uspos/5629.bmp' width = '100%;'></div></div>","null","pos","CS","CS","1","category1/CS5.png","","","","",""
"","html-keyboard-response","43","230869","0.0-6.0-2.0-0.16","2tvgx5ewo4","many_one","0","direct_first","1","el07en31","0","22","1","1","3","1","","0","1","0","null","","","<div class = 'row'><div class = 'column'><img src = 'category3/CS4.png' width = '70%;'></div><div class = 'column'><img src = 'usneg/9415.bmp' width = '100%;'></div></div>","null","neg","CS","CS","3","category3/CS4.png","","","","",""
"","html-keyboard-response","44","233397","0.0-6.0-2.0-0.17","2tvgx5ewo4","many_one","0","direct_first","1","el07en31","0","22","1","1","3","1","","0","1","0","null","","","<div class = 'row'><div class = 'column'><img src = 'category1/CS8.png' width = '70%;'></div><div class = 'column'><img src = 'uspos/2530.bmp' width = '100%;'></div></div>","null","pos","CS","CS","1","category1/CS8.png","","","","",""
"","html-keyboard-response","45","235916","0.0-6.0-2.0-0.18","2tvgx5ewo4","many_one","0","direct_first","1","el07en31","0","22","1","1","3","1","","0","1","0","null","","","<div class = 'row'><div class = 'column'><img src = 'category2/CS1.png' width = '70%;'></div><div class = 'column'><img src = 'uspos/8490.bmp' width = '100%;'></div></div>","null","pos","CS","CS","2","category2/CS1.png","","","","",""
"","html-keyboard-response","46","238429","0.0-6.0-2.0-0.19","2tvgx5ewo4","many_one","0","direct_first","1","el07en31","0","22","1","1","3","1","","0","1","0","null","","","<div class = 'row'><div class = 'column'><img src = 'category4/CS4.png' width = '70%;'></div><div class = 'column'><img src = 'usneg/9340.bmp' width = '100%;'></div></div>","null","neg","CS","CS","4","category4/CS4.png","","","","",""
"","survey-html-form","47","241159","0.0-6.0-3.0","2tvgx5ewo4","many_one","0","direct_first","1","el07en31","0","22","1","1","3","1","","0","1","0","2216.515000007348","","{}","","","","","","","","","","","",""
"","html-keyboard-response","48","245168","0.0-6.0-4.0-0.0","2tvgx5ewo4","many_one","0","direct_first","1","el07en31","0","22","1","1","3","1","","0","1","0","null","","","<div class = 'row'><div class = 'column'><img src = 'category2/CS9.png' width = '70%;'></div><div class = 'column'><img src = 'uspos/5621.bmp' width = '100%;'></div></div>","null","pos","CS","CS","2","category2/CS9.png","","","","",""
"","html-keyboard-response","49","247682","0.0-6.0-4.0-0.1","2tvgx5ewo4","many_one","0","direct_first","1","el07en31","0","22","1","1","3","1","","0","1","0","null","","","<div class = 'row'><div class = 'column'><img src = 'category1/CS9.png' width = '70%;'></div><div class = 'column'><img src = 'uspos/2150.bmp' width = '100%;'></div></div>","null","pos","CS","CS","1","category1/CS9.png","","","","",""
"","html-keyboard-response","50","250198","0.0-6.0-4.0-0.2","2tvgx5ewo4","many_one","0","direct_first","1","el07en31","0","22","1","1","3","1","","0","1","0","null","","","<div class = 'row'><div class = 'column'><img src = 'category1/CS8.png' width = '70%;'></div><div class = 'column'><img src = 'uspos/2530.bmp' width = '100%;'></div></div>","null","pos","CS","CS","1","category1/CS8.png","","","","",""
"","html-keyboard-response","51","252718","0.0-6.0-4.0-0.3","2tvgx5ewo4","many_one","0","direct_first","1","el07en31","0","22","1","1","3","1","","0","1","0","null","","","<div class = 'row'><div class = 'column'><img src = 'usneg/9560.bmp' width = '100%;'></div><div class = 'column'><img src = 'category3/CS1.png' width = '70%;'></div></div>","null","neg","CS","CS","3","category3/CS1.png","","","","",""
"","html-keyboard-response","52","255224","0.0-6.0-4.0-0.4","2tvgx5ewo4","many_one","0","direct_first","1","el07en31","0","22","1","1","3","1","","0","1","0","null","","","<div class = 'row'><div class = 'column'><img src = 'usneg/2750.bmp' width = '100%;'></div><div class = 'column'><img src = 'category4/CS7.png' width = '70%;'></div></div>","null","neg","CS","CS","4","category4/CS7.png","","","","",""
"","html-keyboard-response","53","257736","0.0-6.0-4.0-0.5","2tvgx5ewo4","many_one","0","direct_first","1","el07en31","0","22","1","1","3","1","","0","1","0","null","","","<div class = 'row'><div class = 'column'><img src = 'uspos/8490.bmp' width = '100%;'></div><div class = 'column'><img src = 'category2/CS1.png' width = '70%;'></div></div>","null","pos","CS","CS","2","category2/CS1.png","","","","",""
"","html-keyboard-response","54","260261","0.0-6.0-4.0-0.6","2tvgx5ewo4","many_one","0","direct_first","1","el07en31","0","22","1","1","3","1","","0","1","0","null","","","<div class = 'row'><div class = 'column'><img src = 'usneg/9330.bmp' width = '100%;'></div><div class = 'column'><img src = 'category4/CS6.png' width = '70%;'></div></div>","null","neg","CS","CS","4","category4/CS6.png","","","","",""
"","html-keyboard-response","55","262787","0.0-6.0-4.0-0.7","2tvgx5ewo4","many_one","0","direct_first","1","el07en31","0","22","1","1","3","1","","0","1","0","null","","","<div class = 'row'><div class = 'column'><img src = 'uspos/2040.bmp' width = '100%;'></div><div class = 'column'><img src = 'category2/CS4.png' width = '70%;'></div></div>","null","pos","CS","CS","2","category2/CS4.png","","","","",""
"","html-keyboard-response","56","265308","0.0-6.0-4.0-0.8","2tvgx5ewo4","many_one","0","direct_first","1","el07en31","0","22","1","1","3","1","","0","1","0","null","","","<div class = 'row'><div class = 'column'><img src = 'category2/CS5.png' width = '70%;'></div><div class = 'column'><img src = 'uspos/1463.bmp' width = '100%;'></div></div>","null","pos","CS","CS","2","category2/CS5.png","","","","",""
"","html-keyboard-response","57","267839","0.0-6.0-4.0-0.9","2tvgx5ewo4","many_one","0","direct_first","1","el07en31","0","22","1","1","3","1","","0","1","0","null","","","<div class = 'row'><div class = 'column'><img src = 'category3/CS4.png' width = '70%;'></div><div class = 'column'><img src = 'usneg/9415.bmp' width = '100%;'></div></div>","null","neg","CS","CS","3","category3/CS4.png","","","","",""
"","html-keyboard-response","58","270363","0.0-6.0-4.0-0.10","2tvgx5ewo4","many_one","0","direct_first","1","el07en31","0","22","1","1","3","1","","0","1","0","null","","","<div class = 'row'><div class = 'column'><img src = 'category4/CS2.png' width = '70%;'></div><div class = 'column'><img src = 'usneg/9635.2.bmp' width = '100%;'></div></div>","null","neg","CS","CS","4","category4/CS2.png","","","","",""
"","html-keyboard-response","59","272890","0.0-6.0-4.0-0.11","2tvgx5ewo4","many_one","0","direct_first","1","el07en31","0","22","1","1","3","1","","0","1","0","null","","","<div class = 'row'><div class = 'column'><img src = 'category3/CS7.png' width = '70%;'></div><div class = 'column'><img src = 'usneg/9421.bmp' width = '100%;'></div></div>","null","neg","CS","CS","3","category3/CS7.png","","","","",""
"","html-keyboard-response","60","275408","0.0-6.0-4.0-0.12","2tvgx5ewo4","many_one","0","direct_first","1","el07en31","0","22","1","1","3","1","","0","1","0","null","","","<div class = 'row'><div class = 'column'><img src = 'uspos/2057.bmp' width = '100%;'></div><div class = 'column'><img src = 'category2/CS2.png' width = '70%;'></div></div>","null","pos","CS","CS","2","category2/CS2.png","","","","",""
"","html-keyboard-response","61","277935","0.0-6.0-4.0-0.13","2tvgx5ewo4","many_one","0","direct_first","1","el07en31","0","22","1","1","3","1","","0","1","0","null","","","<div class = 'row'><div class = 'column'><img src = 'usneg/3300.bmp' width = '100%;'></div><div class = 'column'><img src = 'category3/CS6.png' width = '70%;'></div></div>","null","neg","CS","CS","3","category3/CS6.png","","","","",""
"","html-keyboard-response","62","280479","0.0-6.0-4.0-0.14","2tvgx5ewo4","many_one","0","direct_first","1","el07en31","0","22","1","1","3","1","","0","1","0","null","","","<div class = 'row'><div class = 'column'><img src = 'usneg/6570.1.bmp' width = '100%;'></div><div class = 'column'><img src = 'category4/CS10.png' width = '70%;'></div></div>","null","neg","CS","CS","4","category4/CS10.png","","","","",""
"","html-keyboard-response","63","283001","0.0-6.0-4.0-0.15","2tvgx5ewo4","many_one","0","direct_first","1","el07en31","0","22","1","1","3","1","","0","1","0","null","","","<div class = 'row'><div class = 'column'><img src = 'uspos/7325.bmp' width = '100%;'></div><div class = 'column'><img src = 'category1/CS2.png' width = '70%;'></div></div>","null","pos","CS","CS","1","category1/CS2.png","","","","",""
"","html-keyboard-response","64","285529","0.0-6.0-4.0-0.16","2tvgx5ewo4","many_one","0","direct_first","1","el07en31","0","22","1","1","3","1","","0","1","0","null","","","<div class = 'row'><div class = 'column'><img src = 'category3/CS10.png' width = '70%;'></div><div class = 'column'><img src = 'usneg/9920.bmp' width = '100%;'></div></div>","null","neg","CS","CS","3","category3/CS10.png","","","","",""
"","html-keyboard-response","65","288048","0.0-6.0-4.0-0.17","2tvgx5ewo4","many_one","0","direct_first","1","el07en31","0","22","1","1","3","1","","0","1","0","null","","","<div class = 'row'><div class = 'column'><img src = 'uspos/8540.bmp' width = '100%;'></div><div class = 'column'><img src = 'category1/CS6.png' width = '70%;'></div></div>","null","pos","CS","CS","1","category1/CS6.png","","","","",""
"","html-keyboard-response","66","290577","0.0-6.0-4.0-0.18","2tvgx5ewo4","many_one","0","direct_first","1","el07en31","0","22","1","1","3","1","","0","1","0","null","","","<div class = 'row'><div class = 'column'><img src = 'usneg/9340.bmp' width = '100%;'></div><div class = 'column'><img src = 'category4/CS4.png' width = '70%;'></div></div>","null","neg","CS","CS","4","category4/CS4.png","","","","",""
"","html-keyboard-response","67","293096","0.0-6.0-4.0-0.19","2tvgx5ewo4","many_one","0","direct_first","1","el07en31","0","22","1","1","3","1","","0","1","0","null","","","<div class = 'row'><div class = 'column'><img src = 'category1/CS5.png' width = '70%;'></div><div class = 'column'><img src = 'uspos/5629.bmp' width = '100%;'></div></div>","null","pos","CS","CS","1","category1/CS5.png","","","","",""
"","survey-html-form","68","297094","0.0-6.0-5.0","2tvgx5ewo4","many_one","0","direct_first","1","el07en31","0","22","1","1","3","1","","0","1","0","3484.6749999851454","","{}","","","","","","","","","","","",""
"","html-keyboard-response","69","301116","0.0-6.0-6.0-0.0","2tvgx5ewo4","many_one","0","direct_first","1","el07en31","0","22","1","1","3","1","","0","1","0","null","","","<div class = 'row'><div class = 'column'><img src = 'category3/CS4.png' width = '70%;'></div><div class = 'column'><img src = 'usneg/9415.bmp' width = '100%;'></div></div>","null","neg","CS","CS","3","category3/CS4.png","","","","",""
"","html-keyboard-response","70","303633","0.0-6.0-6.0-0.1","2tvgx5ewo4","many_one","0","direct_first","1","el07en31","0","22","1","1","3","1","","0","1","0","null","","","<div class = 'row'><div class = 'column'><img src = 'category1/CS2.png' width = '70%;'></div><div class = 'column'><img src = 'uspos/7325.bmp' width = '100%;'></div></div>","null","pos","CS","CS","1","category1/CS2.png","","","","",""
"","html-keyboard-response","71","306166","0.0-6.0-6.0-0.2","2tvgx5ewo4","many_one","0","direct_first","1","el07en31","0","22","1","1","3","1","","0","1","0","null","","","<div class = 'row'><div class = 'column'><img src = 'uspos/2530.bmp' width = '100%;'></div><div class = 'column'><img src = 'category1/CS8.png' width = '70%;'></div></div>","null","pos","CS","CS","1","category1/CS8.png","","","","",""
"","html-keyboard-response","72","308696","0.0-6.0-6.0-0.3","2tvgx5ewo4","many_one","0","direct_first","1","el07en31","0","22","1","1","3","1","","0","1","0","null","","","<div class = 'row'><div class = 'column'><img src = 'uspos/5621.bmp' width = '100%;'></div><div class = 'column'><img src = 'category2/CS9.png' width = '70%;'></div></div>","null","pos","CS","CS","2","category2/CS9.png","","","","",""
"","html-keyboard-response","73","311225","0.0-6.0-6.0-0.4","2tvgx5ewo4","many_one","0","direct_first","1","el07en31","0","22","1","1","3","1","","0","1","0","null","","","<div class = 'row'><div class = 'column'><img src = 'category4/CS2.png' width = '70%;'></div><div class = 'column'><img src = 'usneg/9635.2.bmp' width = '100%;'></div></div>","null","neg","CS","CS","4","category4/CS2.png","","","","",""
"","html-keyboard-response","74","313750","0.0-6.0-6.0-0.5","2tvgx5ewo4","many_one","0","direct_first","1","el07en31","0","22","1","1","3","1","","0","1","0","null","","","<div class = 'row'><div class = 'column'><img src = 'category2/CS5.png' width = '70%;'></div><div class = 'column'><img src = 'uspos/1463.bmp' width = '100%;'></div></div>","null","pos","CS","CS","2","category2/CS5.png","","","","",""
"","html-keyboard-response","75","316280","0.0-6.0-6.0-0.6","2tvgx5ewo4","many_one","0","direct_first","1","el07en31","0","22","1","1","3","1","","0","1","0","null","","","<div class = 'row'><div class = 'column'><img src = 'uspos/2150.bmp' width = '100%;'></div><div class = 'column'><img src = 'category1/CS9.png' width = '70%;'></div></div>","null","pos","CS","CS","1","category1/CS9.png","","","","",""
"","html-keyboard-response","76","318808","0.0-6.0-6.0-0.7","2tvgx5ewo4","many_one","0","direct_first","1","el07en31","0","22","1","1","3","1","","0","1","0","null","","","<div class = 'row'><div class = 'column'><img src = 'usneg/6570.1.bmp' width = '100%;'></div><div class = 'column'><img src = 'category4/CS10.png' width = '70%;'></div></div>","null","neg","CS","CS","4","category4/CS10.png","","","","",""
"","html-keyboard-response","77","321324","0.0-6.0-6.0-0.8","2tvgx5ewo4","many_one","0","direct_first","1","el07en31","0","22","1","1","3","1","","0","1","0","null","","","<div class = 'row'><div class = 'column'><img src = 'category4/CS7.png' width = '70%;'></div><div class = 'column'><img src = 'usneg/2750.bmp' width = '100%;'></div></div>","null","neg","CS","CS","4","category4/CS7.png","","","","",""
"","html-keyboard-response","78","323849","0.0-6.0-6.0-0.9","2tvgx5ewo4","many_one","0","direct_first","1","el07en31","0","22","1","1","3","1","","0","1","0","null","","","<div class = 'row'><div class = 'column'><img src = 'usneg/9421.bmp' width = '100%;'></div><div class = 'column'><img src = 'category3/CS7.png' width = '70%;'></div></div>","null","neg","CS","CS","3","category3/CS7.png","","","","",""
"","html-keyboard-response","79","326375","0.0-6.0-6.0-0.10","2tvgx5ewo4","many_one","0","direct_first","1","el07en31","0","22","1","1","3","1","","0","1","0","null","","","<div class = 'row'><div class = 'column'><img src = 'usneg/3300.bmp' width = '100%;'></div><div class = 'column'><img src = 'category3/CS6.png' width = '70%;'></div></div>","null","neg","CS","CS","3","category3/CS6.png","","","","",""
"","html-keyboard-response","80","328899","0.0-6.0-6.0-0.11","2tvgx5ewo4","many_one","0","direct_first","1","el07en31","0","22","1","1","3","1","","0","1","0","null","","","<div class = 'row'><div class = 'column'><img src = 'usneg/9920.bmp' width = '100%;'></div><div class = 'column'><img src = 'category3/CS10.png' width = '70%;'></div></div>","null","neg","CS","CS","3","category3/CS10.png","","","","",""
"","html-keyboard-response","81","331421","0.0-6.0-6.0-0.12","2tvgx5ewo4","many_one","0","direct_first","1","el07en31","0","22","1","1","3","1","","0","1","0","null","","","<div class = 'row'><div class = 'column'><img src = 'category2/CS4.png' width = '70%;'></div><div class = 'column'><img src = 'uspos/2040.bmp' width = '100%;'></div></div>","null","pos","CS","CS","2","category2/CS4.png","","","","",""
"","html-keyboard-response","82","333947","0.0-6.0-6.0-0.13","2tvgx5ewo4","many_one","0","direct_first","1","el07en31","0","22","1","1","3","1","","0","1","0","null","","","<div class = 'row'><div class = 'column'><img src = 'category4/CS4.png' width = '70%;'></div><div class = 'column'><img src = 'usneg/9340.bmp' width = '100%;'></div></div>","null","neg","CS","CS","4","category4/CS4.png","","","","",""
"","html-keyboard-response","83","336475","0.0-6.0-6.0-0.14","2tvgx5ewo4","many_one","0","direct_first","1","el07en31","0","22","1","1","3","1","","0","1","0","null","","","<div class = 'row'><div class = 'column'><img src = 'uspos/2057.bmp' width = '100%;'></div><div class = 'column'><img src = 'category2/CS2.png' width = '70%;'></div></div>","null","pos","CS","CS","2","category2/CS2.png","","","","",""
"","html-keyboard-response","84","339003","0.0-6.0-6.0-0.15","2tvgx5ewo4","many_one","0","direct_first","1","el07en31","0","22","1","1","3","1","","0","1","0","null","","","<div class = 'row'><div class = 'column'><img src = 'category3/CS1.png' width = '70%;'></div><div class = 'column'><img src = 'usneg/9560.bmp' width = '100%;'></div></div>","null","neg","CS","CS","3","category3/CS1.png","","","","",""
"","html-keyboard-response","85","341539","0.0-6.0-6.0-0.16","2tvgx5ewo4","many_one","0","direct_first","1","el07en31","0","22","1","1","3","1","","0","1","0","null","","","<div class = 'row'><div class = 'column'><img src = 'usneg/9330.bmp' width = '100%;'></div><div class = 'column'><img src = 'category4/CS6.png' width = '70%;'></div></div>","null","neg","CS","CS","4","category4/CS6.png","","","","",""
"","html-keyboard-response","86","344089","0.0-6.0-6.0-0.17","2tvgx5ewo4","many_one","0","direct_first","1","el07en31","0","22","1","1","3","1","","0","1","0","null","","","<div class = 'row'><div class = 'column'><img src = 'category2/CS1.png' width = '70%;'></div><div class = 'column'><img src = 'uspos/8490.bmp' width = '100%;'></div></div>","null","pos","CS","CS","2","category2/CS1.png","","","","",""
"","html-keyboard-response","87","346610","0.0-6.0-6.0-0.18","2tvgx5ewo4","many_one","0","direct_first","1","el07en31","0","22","1","1","3","1","","0","1","0","null","","","<div class = 'row'><div class = 'column'><img src = 'uspos/5629.bmp' width = '100%;'></div><div class = 'column'><img src = 'category1/CS5.png' width = '70%;'></div></div>","null","pos","CS","CS","1","category1/CS5.png","","","","",""
"","html-keyboard-response","88","349127","0.0-6.0-6.0-0.19","2tvgx5ewo4","many_one","0","direct_first","1","el07en31","0","22","1","1","3","1","","0","1","0","null","","","<div class = 'row'><div class = 'column'><img src = 'uspos/8540.bmp' width = '100%;'></div><div class = 'column'><img src = 'category1/CS6.png' width = '70%;'></div></div>","null","pos","CS","CS","1","category1/CS6.png","","","","",""
"","survey-html-form","89","362068","0.0-7.0","2tvgx5ewo4","many_one","0","direct_first","1","el07en31","0","22","1","1","3","1","","0","1","0","12437.77499999851","","{}","","","","","","","","","","","",""
"","image-slider-response","90","369564","0.0-8.0-0.0","2tvgx5ewo4","many_one","0","direct_first","1","el07en31","0","22","1","1","3","1","","0","1","0","5474.510000000009","","","","","pos","CS","CS","1","category1/CS5.png","68","targets/35.png","direct","",""
"","image-slider-response","91","372794","0.0-8.0-0.1","2tvgx5ewo4","many_one","0","direct_first","1","el07en31","0","22","1","1","3","1","","0","1","0","3226.2100000225473","","","","","pos","GS","GSold","2","category2/CS10.png","71","targets/36.png","direct","",""
"","image-slider-response","92","377012","0.0-8.0-0.2","2tvgx5ewo4","many_one","0","direct_first","1","el07en31","0","22","1","1","3","1","","0","1","0","4213.279999996303","","","","","pos","GS","GSnew","2","category2/GS1.png","-39","targets/11.png","direct","",""
"","image-slider-response","93","380392","0.0-8.0-0.3","2tvgx5ewo4","many_one","0","direct_first","1","el07en31","0","22","1","1","3","1","","0","1","0","3376.5200000198092","","","","","neg","CS","CS","3","category3/CS4.png","4","targets/22.png","direct","",""
"","image-slider-response","94","383838","0.0-8.0-0.4","2tvgx5ewo4","many_one","0","direct_first","1","el07en31","0","22","1","1","3","1","","0","1","0","3442.3600000154693","","","","","pos","GS","GSnew","2","category2/GS2.png","-57","targets/37.png","direct","",""
"","image-slider-response","95","389676","0.0-8.0-0.5","2tvgx5ewo4","many_one","0","direct_first","1","el07en31","0","22","1","1","3","1","","0","1","0","5835.265000001527","","","","","neg","GS","GSnew","4","category4/GS1.png","-86","targets/34.png","direct","",""
"","image-slider-response","96","396109","0.0-8.0-0.6","2tvgx5ewo4","many_one","0","direct_first","1","el07en31","0","22","1","1","3","1","","0","1","0","6429.345000011381","","","","","neg","CS","CS","3","category3/CS10.png","-23","targets/17.png","direct","",""
"","image-slider-response","97","399953","0.0-8.0-0.7","2tvgx5ewo4","many_one","0","direct_first","1","el07en31","0","22","1","1","3","1","","0","1","0","3839.3600000126753","","","","","pos","CS","CS","2","category2/CS5.png","48","targets/14.png","direct","",""
"","image-slider-response","98","403876","0.0-8.0-0.8","2tvgx5ewo4","many_one","0","direct_first","1","el07en31","0","22","1","1","3","1","","0","1","0","3920.2299999888055","","","","","pos","CS","CS","2","category2/CS1.png","55","targets/39.png","direct","",""
"","image-slider-response","99","409144","0.0-8.0-0.9","2tvgx5ewo4","many_one","0","direct_first","1","el07en31","0","22","1","1","3","1","","0","1","0","5264.930000004824","","","","","neg","GS","GSold","4","category4/CS3.png","-100","targets/7.png","direct","",""
"","image-slider-response","100","414347","0.0-8.0-0.10","2tvgx5ewo4","many_one","0","direct_first","1","el07en31","0","22","1","1","3","1","","0","1","0","5196.360000001732","","","","","neg","GS","GSold","3","category3/CS8.png","-63","targets/3.png","direct","",""
"","image-slider-response","101","418020","0.0-8.0-0.11","2tvgx5ewo4","many_one","0","direct_first","1","el07en31","0","22","1","1","3","1","","0","1","0","3669.8600000236183","","","","","pos","GS","GSnew","2","category2/GS3.png","-72","targets/18.png","direct","",""
"","image-slider-response","102","421031","0.0-8.0-0.12","2tvgx5ewo4","many_one","0","direct_first","1","el07en31","0","22","1","1","3","1","","0","1","0","3007.8450000146404","","","","","pos","GS","GSold","2","category2/CS8.png","65","targets/28.png","direct","",""
"","image-slider-response","103","425779","0.0-8.0-0.13","2tvgx5ewo4","many_one","0","direct_first","1","el07en31","0","22","1","1","3","1","","0","1","0","4744.415000022855","","","","","pos","GS","GSnew","1","category1/GS1.png","-6","targets/44.png","direct","",""
"","image-slider-response","104","429571","0.0-8.0-0.14","2tvgx5ewo4","many_one","0","direct_first","1","el07en31","0","22","1","1","3","1","","0","1","0","3789.134999999078","","","","","pos","GS","GSold","2","category2/CS3.png","77","targets/47.png","direct","",""
"","image-slider-response","105","434187","0.0-8.0-0.15","2tvgx5ewo4","many_one","0","direct_first","1","el07en31","0","22","1","1","3","1","","0","1","0","4611.495000019204","","","","","neg","GS","GSnew","4","category4/GS2.png","-42","targets/42.png","direct","",""
"","image-slider-response","106","437972","0.0-8.0-0.16","2tvgx5ewo4","many_one","0","direct_first","1","el07en31","0","22","1","1","3","1","","0","1","0","3780.9249999991152","","","","","neg","CS","CS","4","category4/CS2.png","-100","targets/45.png","direct","",""
"","image-slider-response","107","441449","0.0-8.0-0.17","2tvgx5ewo4","many_one","0","direct_first","1","el07en31","0","22","1","1","3","1","","0","1","0","3474.3449999950826","","","","","neg","GS","GSnew","4","category4/GS3.png","-47","targets/24.png","direct","",""
"","image-slider-response","108","448237","0.0-8.0-0.18","2tvgx5ewo4","many_one","0","direct_first","1","el07en31","0","22","1","1","3","1","","0","1","0","6784.879999991972","","","","","pos","CS","CS","1","category1/CS9.png","66","targets/13.png","direct","",""
"","image-slider-response","109","451659","0.0-8.0-0.19","2tvgx5ewo4","many_one","0","direct_first","1","el07en31","0","22","1","1","3","1","","0","1","0","3418.665000004694","","","","","neg","GS","GSold","3","category3/CS5.png","-41","targets/20.png","direct","",""
"","image-slider-response","110","455965","0.0-8.0-0.20","2tvgx5ewo4","many_one","0","direct_first","1","el07en31","0","22","1","1","3","1","","0","1","0","4302.974999998696","","","","","neg","CS","CS","3","category3/CS1.png","5","targets/9.png","direct","",""
"","image-slider-response","111","459121","0.0-8.0-0.21","2tvgx5ewo4","many_one","0","direct_first","1","el07en31","0","22","1","1","3","1","","0","1","0","3153.279999998631","","","","","pos","CS","CS","2","category2/CS2.png","58","targets/30.png","direct","",""
"","image-slider-response","112","462745","0.0-8.0-0.22","2tvgx5ewo4","many_one","0","direct_first","1","el07en31","0","22","1","1","3","1","","0","1","0","3620.374999998603","","","","","pos","CS","CS","2","category2/CS4.png","50","targets/27.png","direct","",""
"","image-slider-response","113","465760","0.0-8.0-0.23","2tvgx5ewo4","many_one","0","direct_first","1","el07en31","0","22","1","1","3","1","","0","1","0","3010.7800000114366","","","","","neg","GS","GSold","4","category4/CS9.png","-50","targets/33.png","direct","",""
"","image-slider-response","114","469584","0.0-8.0-0.24","2tvgx5ewo4","many_one","0","direct_first","1","el07en31","0","22","1","1","3","1","","0","1","0","3821.7700000095647","","","","","neg","CS","CS","3","category3/CS6.png","-100","targets/15.png","direct","",""
"","image-slider-response","115","475056","0.0-8.0-0.25","2tvgx5ewo4","many_one","0","direct_first","1","el07en31","0","22","1","1","3","1","","0","1","0","5468.659999984084","","","","","pos","CS","CS","1","category1/CS2.png","36","targets/32.png","direct","",""
"","image-slider-response","116","479704","0.0-8.0-0.26","2tvgx5ewo4","many_one","0","direct_first","1","el07en31","0","22","1","1","3","1","","0","1","0","4644.805000018096","","","","","neg","GS","GSnew","3","category3/GS1.png","-39","targets/40.png","direct","",""
"","image-slider-response","117","482941","0.0-8.0-0.27","2tvgx5ewo4","many_one","0","direct_first","1","el07en31","0","22","1","1","3","1","","0","1","0","3233.3050000015646","","","","","neg","GS","GSnew","3","category3/GS3.png","-57","targets/43.png","direct","",""
"","image-slider-response","118","487192","0.0-8.0-0.28","2tvgx5ewo4","many_one","0","direct_first","1","el07en31","0","22","1","1","3","1","","0","1","0","4247.579999995651","","","","","pos","GS","abstract","1","category1/ma.png","-100","targets/29.png","direct","",""
"","image-slider-response","119","492727","0.0-8.0-0.29","2tvgx5ewo4","many_one","0","direct_first","1","el07en31","0","22","1","1","3","1","","0","1","0","5531.824999983655","","","","","pos","GS","GSold","1","category1/CS3.png","22","targets/46.png","direct","",""
"","image-slider-response","120","497064","0.0-8.0-0.30","2tvgx5ewo4","many_one","0","direct_first","1","el07en31","0","22","1","1","3","1","","0","1","0","4335.339999990538","","","","","neg","CS","CS","4","category4/CS4.png","-40","targets/1.png","direct","",""
"","image-slider-response","121","504311","0.0-8.0-0.31","2tvgx5ewo4","many_one","0","direct_first","1","el07en31","0","22","1","1","3","1","","0","1","0","7245.215000002645","","","","","pos","GS","abstract","2","category2/men.png","51","targets/10.png","direct","",""
"","image-slider-response","122","507568","0.0-8.0-0.32","2tvgx5ewo4","many_one","0","direct_first","1","el07en31","0","22","1","1","3","1","","0","1","0","3254.9500000022817","","","","","neg","GS","abstract","3","category3/wang.png","-59","targets/8.png","direct","",""
"","image-slider-response","123","510952","0.0-8.0-0.33","2tvgx5ewo4","many_one","0","direct_first","1","el07en31","0","22","1","1","3","1","","0","1","0","3382.754999998724","","","","","pos","CS","CS","2","category2/CS9.png","72","targets/16.png","direct","",""
"","image-slider-response","124","516351","0.0-8.0-0.34","2tvgx5ewo4","many_one","0","direct_first","1","el07en31","0","22","1","1","3","1","","0","1","0","5397.339999995893","","","","","pos","CS","CS","1","category1/CS8.png","29","targets/23.png","direct","",""
"","image-slider-response","125","519922","0.0-8.0-0.35","2tvgx5ewo4","many_one","0","direct_first","1","el07en31","0","22","1","1","3","1","","0","1","0","3568.4799999871757","","","","","neg","CS","CS","4","category4/CS10.png","-76","targets/4.png","direct","",""
"","image-slider-response","126","523613","0.0-8.0-0.36","2tvgx5ewo4","many_one","0","direct_first","1","el07en31","0","22","1","1","3","1","","0","1","0","3689.1300000133924","","","","","neg","GS","GSold","3","category3/CS2.png","-91","targets/31.png","direct","",""
"","image-slider-response","127","527857","0.0-8.0-0.37","2tvgx5ewo4","many_one","0","direct_first","1","el07en31","0","22","1","1","3","1","","0","1","0","4242.410000006203","","","","","neg","CS","CS","4","category4/CS6.png","-35","targets/38.png","direct","",""
"","image-slider-response","128","530975","0.0-8.0-0.38","2tvgx5ewo4","many_one","0","direct_first","1","el07en31","0","22","1","1","3","1","","0","1","0","3115.575000003446","","","","","neg","GS","GSold","4","category4/CS8.png","-52","targets/21.png","direct","",""
"","image-slider-response","129","534006","0.0-8.0-0.39","2tvgx5ewo4","many_one","0","direct_first","1","el07en31","0","22","1","1","3","1","","0","1","0","3026.610000000801","","","","","neg","GS","abstract","4","category4/lin.png","-60","targets/2.png","direct","",""
"","image-slider-response","130","546205","0.0-8.0-0.40","2tvgx5ewo4","many_one","0","direct_first","1","el07en31","0","22","1","1","3","1","","0","1","0","12194.740000006277","","","","","pos","GS","GSold","1","category1/CS1.png","-40","targets/5.png","direct","",""
"","image-slider-response","131","550125","0.0-8.0-0.41","2tvgx5ewo4","many_one","0","direct_first","1","el07en31","0","22","1","1","3","1","","0","1","0","3915.4449999914505","","","","","pos","CS","CS","1","category1/CS6.png","93","targets/12.png","direct","",""
"","image-slider-response","132","553763","0.0-8.0-0.42","2tvgx5ewo4","many_one","0","direct_first","1","el07en31","0","22","1","1","3","1","","0","1","0","3635.245000012219","","","","","pos","GS","GSnew","1","category1/GS2.png","-67","targets/48.png","direct","",""
"","image-slider-response","133","556572","0.0-8.0-0.43","2tvgx5ewo4","many_one","0","direct_first","1","el07en31","0","22","1","1","3","1","","0","1","0","2804.294999979902","","","","","neg","GS","GSnew","3","category3/GS2.png","-100","targets/19.png","direct","",""
"","image-slider-response","134","559848","0.0-8.0-0.44","2tvgx5ewo4","many_one","0","direct_first","1","el07en31","0","22","1","1","3","1","","0","1","0","3272.2300000023097","","","","","neg","CS","CS","3","category3/CS7.png","-37","targets/41.png","direct","",""
"","image-slider-response","135","565510","0.0-8.0-0.45","2tvgx5ewo4","many_one","0","direct_first","1","el07en31","0","22","1","1","3","1","","0","1","0","5659.769999998389","","","","","pos","GS","GSnew","1","category1/GS3.png","-13","targets/26.png","direct","",""
"","image-slider-response","136","568660","0.0-8.0-0.46","2tvgx5ewo4","many_one","0","direct_first","1","el07en31","0","22","1","1","3","1","","0","1","0","3146.3850000000093","","","","","pos","GS","GSold","1","category1/CS7.png","35","targets/25.png","direct","",""
"","image-slider-response","137","571824","0.0-8.0-0.47","2tvgx5ewo4","many_one","0","direct_first","1","el07en31","0","22","1","1","3","1","","0","1","0","3161.0299999883864","","","","","neg","CS","CS","4","category4/CS7.png","-43","targets/6.png","direct","",""
"","html-keyboard-response","138","612348","0.0-9.0","2tvgx5ewo4","many_one","0","direct_first","1","el07en31","0","22","1","1","3","1","","0","1","0","40520.24000001256","","","<p>Sie sehen nun die chinesischen Zeichen nur ganz kurz. Danach sehen Sie die jeweilige Aussprache der Zeichen als Silbe auf dem Bildschrim. Ihre Aufgabe ist es, für jede Silbe anzugeben, ob diese etwas angenehmes, oder unangenehmes bedeuten könnte. Verlassen Sie sich hier vor allem auf Ihre Intuition.<br><br>Die Zeichen werden nur zur Orientierung dargestellt, beachten Sie sie deshalb nicht. Konzentrieren Sie sich vor allem auf die Silben. <br>Reagieren Sie mit folgenden zwei Tasten: <br><br><b>'D' </b> wenn die Silbe etwas <b>unangenehmes</b> bedeuten könnte. <br><b>'K'</b> wenn die Silbe etwas <b>angenehmes</b> bedeuten könnte. <br><br>Bitte legen Sie nun den Zeigefinger der linken Hand auf die Taste 'D' und den Zeigefinger der rechten Hand auf die Taste 'K'. <br>Reagieren Sie auf jede Silbe so schnell wie möglich. Uns interessiert Ihre spontane Reaktion. <br> <br> <br>Drücken Sie 'D' oder 'K', um die nächste Aufgabe zu starten. </p>","68","","","","","","","","","",""
"","html-keyboard-response","139","615351","0.0-10.0-0.0","2tvgx5ewo4","many_one","0","direct_first","1","el07en31","0","22","1","1","3","1","","0","1","0","null","","","<div style=""font-size:60px;"">+</div>","null","","","","","","","","","",""
"","html-keyboard-response","140","615445","0.0-10.0-1.0","2tvgx5ewo4","many_one","0","direct_first","1","el07en31","0","22","1","1","3","1","","0","1","0","null","","","<img src = 'category4/CS2.png' width = '100%;'>","null","","","","","","","","","",""
"","html-keyboard-response","141","615727","0.0-10.0-2.0","2tvgx5ewo4","many_one","0","direct_first","1","el07en31","0","22","1","1","3","1","","0","1","0","null","","","<img src = 'targets/45.png' width = '100%;'>","null","","","","","","","","","",""
"","html-keyboard-response","142","618660","0.0-10.0-3.0","2tvgx5ewo4","many_one","0","direct_first","1","el07en31","0","22","1","1","3","1","","0","1","0","2931.385000003502","","","<img src = 'targets/mask.png' width = '100%;'>","68","neg","CS","CS","4","category4/CS2.png","","targets/45.png","indirect","0","0"
"","html-keyboard-response","143","620175","0.0-10.0-0.1","2tvgx5ewo4","many_one","0","direct_first","1","el07en31","0","22","1","1","3","1","","0","1","0","null","","","<div style=""font-size:60px;"">+</div>","null","","","","","","","","","",""
"","html-keyboard-response","144","620268","0.0-10.0-1.1","2tvgx5ewo4","many_one","0","direct_first","1","el07en31","0","22","1","1","3","1","","0","1","0","null","","","<img src = 'category2/CS4.png' width = '100%;'>","null","","","","","","","","","",""
"","html-keyboard-response","145","620534","0.0-10.0-2.1","2tvgx5ewo4","many_one","0","direct_first","1","el07en31","0","22","1","1","3","1","","0","1","0","null","","","<img src = 'targets/27.png' width = '100%;'>","null","","","","","","","","","",""
"","html-keyboard-response","146","624910","0.0-10.0-3.1","2tvgx5ewo4","many_one","0","direct_first","1","el07en31","0","22","1","1","3","1","","0","1","0","4375.014999997802","","","<img src = 'targets/mask.png' width = '100%;'>","75","pos","CS","CS","2","category2/CS4.png","","targets/27.png","indirect","1","1"
"","html-keyboard-response","147","626427","0.0-10.0-0.2","2tvgx5ewo4","many_one","0","direct_first","1","el07en31","0","22","1","1","3","1","","0","1","0","null","","","<div style=""font-size:60px;"">+</div>","null","","","","","","","","","",""
"","html-keyboard-response","148","626519","0.0-10.0-1.2","2tvgx5ewo4","many_one","0","direct_first","1","el07en31","0","22","1","1","3","1","","0","1","0","null","","","<img src = 'category1/CS9.png' width = '100%;'>","null","","","","","","","","","",""
"","html-keyboard-response","149","626785","0.0-10.0-2.2","2tvgx5ewo4","many_one","0","direct_first","1","el07en31","0","22","1","1","3","1","","0","1","0","null","","","<img src = 'targets/13.png' width = '100%;'>","null","","","","","","","","","",""
"","html-keyboard-response","150","630763","0.0-10.0-3.2","2tvgx5ewo4","many_one","0","direct_first","1","el07en31","0","22","1","1","3","1","","0","1","0","3976.170000009006","","","<img src = 'targets/mask.png' width = '100%;'>","75","pos","CS","CS","1","category1/CS9.png","","targets/13.png","indirect","1","2"
"","html-keyboard-response","151","632284","0.0-10.0-0.3","2tvgx5ewo4","many_one","0","direct_first","1","el07en31","0","22","1","1","3","1","","0","1","0","null","","","<div style=""font-size:60px;"">+</div>","null","","","","","","","","","",""
"","html-keyboard-response","152","632377","0.0-10.0-1.3","2tvgx5ewo4","many_one","0","direct_first","1","el07en31","0","22","1","1","3","1","","0","1","0","null","","","<img src = 'category3/CS2.png' width = '100%;'>","null","","","","","","","","","",""
"","html-keyboard-response","153","632643","0.0-10.0-2.3","2tvgx5ewo4","many_one","0","direct_first","1","el07en31","0","22","1","1","3","1","","0","1","0","null","","","<img src = 'targets/31.png' width = '100%;'>","null","","","","","","","","","",""
"","html-keyboard-response","154","633836","0.0-10.0-3.3","2tvgx5ewo4","many_one","0","direct_first","1","el07en31","0","22","1","1","3","1","","0","1","0","1188.8449999969453","","","<img src = 'targets/mask.png' width = '100%;'>","75","neg","GS","GSold","3","category3/CS2.png","","targets/31.png","indirect","1","3"
"","html-keyboard-response","155","635353","0.0-10.0-0.4","2tvgx5ewo4","many_one","0","direct_first","1","el07en31","0","22","1","1","3","1","","0","1","0","null","","","<div style=""font-size:60px;"">+</div>","null","","","","","","","","","",""
"","html-keyboard-response","156","635446","0.0-10.0-1.4","2tvgx5ewo4","many_one","0","direct_first","1","el07en31","0","22","1","1","3","1","","0","1","0","null","","","<img src = 'category3/CS5.png' width = '100%;'>","null","","","","","","","","","",""
"","html-keyboard-response","157","635713","0.0-10.0-2.4","2tvgx5ewo4","many_one","0","direct_first","1","el07en31","0","22","1","1","3","1","","0","1","0","null","","","<img src = 'targets/20.png' width = '100%;'>","null","","","","","","","","","",""
"","html-keyboard-response","158","638906","0.0-10.0-3.4","2tvgx5ewo4","many_one","0","direct_first","1","el07en31","0","22","1","1","3","1","","0","1","0","3191.4749999996275","","","<img src = 'targets/mask.png' width = '100%;'>","75","neg","GS","GSold","3","category3/CS5.png","","targets/20.png","indirect","1","4"
"","html-keyboard-response","159","640409","0.0-10.0-0.5","2tvgx5ewo4","many_one","0","direct_first","1","el07en31","0","22","1","1","3","1","","0","1","0","null","","","<div style=""font-size:60px;"">+</div>","null","","","","","","","","","",""
"","html-keyboard-response","160","640502","0.0-10.0-1.5","2tvgx5ewo4","many_one","0","direct_first","1","el07en31","0","22","1","1","3","1","","0","1","0","null","","","<img src = 'category1/CS5.png' width = '100%;'>","null","","","","","","","","","",""
"","html-keyboard-response","161","640782","0.0-10.0-2.5","2tvgx5ewo4","many_one","0","direct_first","1","el07en31","0","22","1","1","3","1","","0","1","0","null","","","<img src = 'targets/35.png' width = '100%;'>","null","","","","","","","","","",""
"","html-keyboard-response","162","641814","0.0-10.0-3.5","2tvgx5ewo4","many_one","0","direct_first","1","el07en31","0","22","1","1","3","1","","0","1","0","1029.1100000031292","","","<img src = 'targets/mask.png' width = '100%;'>","68","pos","CS","CS","1","category1/CS5.png","","targets/35.png","indirect","0","5"
"","html-keyboard-response","163","643335","0.0-10.0-0.6","2tvgx5ewo4","many_one","0","direct_first","1","el07en31","0","22","1","1","3","1","","0","1","0","null","","","<div style=""font-size:60px;"">+</div>","null","","","","","","","","","",""
"","html-keyboard-response","164","643429","0.0-10.0-1.6","2tvgx5ewo4","many_one","0","direct_first","1","el07en31","0","22","1","1","3","1","","0","1","0","null","","","<img src = 'category4/CS4.png' width = '100%;'>","null","","","","","","","","","",""
"","html-keyboard-response","165","643696","0.0-10.0-2.6","2tvgx5ewo4","many_one","0","direct_first","1","el07en31","0","22","1","1","3","1","","0","1","0","null","","","<img src = 'targets/1.png' width = '100%;'>","null","","","","","","","","","",""
"","html-keyboard-response","166","645164","0.0-10.0-3.6","2tvgx5ewo4","many_one","0","direct_first","1","el07en31","0","22","1","1","3","1","","0","1","0","1466.179999988526","","","<img src = 'targets/mask.png' width = '100%;'>","75","neg","CS","CS","4","category4/CS4.png","","targets/1.png","indirect","1","6"
"","html-keyboard-response","167","646694","0.0-10.0-0.7","2tvgx5ewo4","many_one","0","direct_first","1","el07en31","0","22","1","1","3","1","","0","1","0","null","","","<div style=""font-size:60px;"">+</div>","null","","","","","","","","","",""
"","html-keyboard-response","168","646786","0.0-10.0-1.7","2tvgx5ewo4","many_one","0","direct_first","1","el07en31","0","22","1","1","3","1","","0","1","0","null","","","<img src = 'category2/CS10.png' width = '100%;'>","null","","","","","","","","","",""
"","html-keyboard-response","169","647055","0.0-10.0-2.7","2tvgx5ewo4","many_one","0","direct_first","1","el07en31","0","22","1","1","3","1","","0","1","0","null","","","<img src = 'targets/36.png' width = '100%;'>","null","","","","","","","","","",""
"","html-keyboard-response","170","648306","0.0-10.0-3.7","2tvgx5ewo4","many_one","0","direct_first","1","el07en31","0","22","1","1","3","1","","0","1","0","1249.4650000007823","","","<img src = 'targets/mask.png' width = '100%;'>","68","pos","GS","GSold","2","category2/CS10.png","","targets/36.png","indirect","0","7"
"","html-keyboard-response","171","649821","0.0-10.0-0.8","2tvgx5ewo4","many_one","0","direct_first","1","el07en31","0","22","1","1","3","1","","0","1","0","null","","","<div style=""font-size:60px;"">+</div>","null","","","","","","","","","",""
"","html-keyboard-response","172","649913","0.0-10.0-1.8","2tvgx5ewo4","many_one","0","direct_first","1","el07en31","0","22","1","1","3","1","","0","1","0","null","","","<img src = 'category3/CS10.png' width = '100%;'>","null","","","","","","","","","",""
"","html-keyboard-response","173","650195","0.0-10.0-2.8","2tvgx5ewo4","many_one","0","direct_first","1","el07en31","0","22","1","1","3","1","","0","1","0","null","","","<img src = 'targets/17.png' width = '100%;'>","null","","","","","","","","","",""
"","html-keyboard-response","174","654986","0.0-10.0-3.8","2tvgx5ewo4","many_one","0","direct_first","1","el07en31","0","22","1","1","3","1","","0","1","0","4788.7899999914225","","","<img src = 'targets/mask.png' width = '100%;'>","75","neg","CS","CS","3","category3/CS10.png","","targets/17.png","indirect","1","8"
"","html-keyboard-response","175","656509","0.0-10.0-0.9","2tvgx5ewo4","many_one","0","direct_first","1","el07en31","0","22","1","1","3","1","","0","1","0","null","","","<div style=""font-size:60px;"">+</div>","null","","","","","","","","","",""
"","html-keyboard-response","176","656601","0.0-10.0-1.9","2tvgx5ewo4","many_one","0","direct_first","1","el07en31","0","22","1","1","3","1","","0","1","0","null","","","<img src = 'category3/CS1.png' width = '100%;'>","null","","","","","","","","","",""
"","html-keyboard-response","177","656884","0.0-10.0-2.9","2tvgx5ewo4","many_one","0","direct_first","1","el07en31","0","22","1","1","3","1","","0","1","0","null","","","<img src = 'targets/9.png' width = '100%;'>","null","","","","","","","","","",""
"","html-keyboard-response","178","658990","0.0-10.0-3.9","2tvgx5ewo4","many_one","0","direct_first","1","el07en31","0","22","1","1","3","1","","0","1","0","2103.0850000097416","","","<img src = 'targets/mask.png' width = '100%;'>","75","neg","CS","CS","3","category3/CS1.png","","targets/9.png","indirect","1","9"
"","html-keyboard-response","179","660517","0.0-10.0-0.10","2tvgx5ewo4","many_one","0","direct_first","1","el07en31","0","22","1","1","3","1","","0","1","0","null","","","<div style=""font-size:60px;"">+</div>","null","","","","","","","","","",""
"","html-keyboard-response","180","660608","0.0-10.0-1.10","2tvgx5ewo4","many_one","0","direct_first","1","el07en31","0","22","1","1","3","1","","0","1","0","null","","","<img src = 'category3/CS7.png' width = '100%;'>","null","","","","","","","","","",""
"","html-keyboard-response","181","660876","0.0-10.0-2.10","2tvgx5ewo4","many_one","0","direct_first","1","el07en31","0","22","1","1","3","1","","0","1","0","null","","","<img src = 'targets/41.png' width = '100%;'>","null","","","","","","","","","",""
"","html-keyboard-response","182","663783","0.0-10.0-3.10","2tvgx5ewo4","many_one","0","direct_first","1","el07en31","0","22","1","1","3","1","","0","1","0","2904.0600000007544","","","<img src = 'targets/mask.png' width = '100%;'>","75","neg","CS","CS","3","category3/CS7.png","","targets/41.png","indirect","1","10"
"","html-keyboard-response","183","665304","0.0-10.0-0.11","2tvgx5ewo4","many_one","0","direct_first","1","el07en31","0","22","1","1","3","1","","0","1","0","null","","","<div style=""font-size:60px;"">+</div>","null","","","","","","","","","",""
"","html-keyboard-response","184","665397","0.0-10.0-1.11","2tvgx5ewo4","many_one","0","direct_first","1","el07en31","0","22","1","1","3","1","","0","1","0","null","","","<img src = 'category4/CS10.png' width = '100%;'>","null","","","","","","","","","",""
"","html-keyboard-response","185","665677","0.0-10.0-2.11","2tvgx5ewo4","many_one","0","direct_first","1","el07en31","0","22","1","1","3","1","","0","1","0","null","","","<img src = 'targets/4.png' width = '100%;'>","null","","","","","","","","","",""
"","html-keyboard-response","186","666517","0.0-10.0-3.11","2tvgx5ewo4","many_one","0","direct_first","1","el07en31","0","22","1","1","3","1","","0","1","0","837.1399999887217","","","<img src = 'targets/mask.png' width = '100%;'>","68","neg","CS","CS","4","category4/CS10.png","","targets/4.png","indirect","0","11"
"","html-keyboard-response","187","668020","0.0-10.0-0.12","2tvgx5ewo4","many_one","0","direct_first","1","el07en31","0","22","1","1","3","1","","0","1","0","null","","","<div style=""font-size:60px;"">+</div>","null","","","","","","","","","",""
"","html-keyboard-response","188","668113","0.0-10.0-1.12","2tvgx5ewo4","many_one","0","direct_first","1","el07en31","0","22","1","1","3","1","","0","1","0","null","","","<img src = 'category1/CS6.png' width = '100%;'>","null","","","","","","","","","",""
"","html-keyboard-response","189","668380","0.0-10.0-2.12","2tvgx5ewo4","many_one","0","direct_first","1","el07en31","0","22","1","1","3","1","","0","1","0","null","","","<img src = 'targets/12.png' width = '100%;'>","null","","","","","","","","","",""
"","html-keyboard-response","190","669351","0.0-10.0-3.12","2tvgx5ewo4","many_one","0","direct_first","1","el07en31","0","22","1","1","3","1","","0","1","0","968.6250000086147","","","<img src = 'targets/mask.png' width = '100%;'>","68","pos","CS","CS","1","category1/CS6.png","","targets/12.png","indirect","0","12"
"","html-keyboard-response","191","670870","0.0-10.0-0.13","2tvgx5ewo4","many_one","0","direct_first","1","el07en31","0","22","1","1","3","1","","0","1","0","null","","","<div style=""font-size:60px;"">+</div>","null","","","","","","","","","",""
"","html-keyboard-response","192","670964","0.0-10.0-1.13","2tvgx5ewo4","many_one","0","direct_first","1","el07en31","0","22","1","1","3","1","","0","1","0","null","","","<img src = 'category4/CS6.png' width = '100%;'>","null","","","","","","","","","",""
"","html-keyboard-response","193","671218","0.0-10.0-2.13","2tvgx5ewo4","many_one","0","direct_first","1","el07en31","0","22","1","1","3","1","","0","1","0","null","","","<img src = 'targets/38.png' width = '100%;'>","null","","","","","","","","","",""
"","html-keyboard-response","194","674653","0.0-10.0-3.13","2tvgx5ewo4","many_one","0","direct_first","1","el07en31","0","22","1","1","3","1","","0","1","0","3433.3500000066124","","","<img src = 'targets/mask.png' width = '100%;'>","68","neg","CS","CS","4","category4/CS6.png","","targets/38.png","indirect","0","13"
"","html-keyboard-response","195","676167","0.0-10.0-0.14","2tvgx5ewo4","many_one","0","direct_first","1","el07en31","0","22","1","1","3","1","","0","1","0","null","","","<div style=""font-size:60px;"">+</div>","null","","","","","","","","","",""
"","html-keyboard-response","196","676260","0.0-10.0-1.14","2tvgx5ewo4","many_one","0","direct_first","1","el07en31","0","22","1","1","3","1","","0","1","0","null","","","<img src = 'category2/CS2.png' width = '100%;'>","null","","","","","","","","","",""
"","html-keyboard-response","197","676527","0.0-10.0-2.14","2tvgx5ewo4","many_one","0","direct_first","1","el07en31","0","22","1","1","3","1","","0","1","0","null","","","<img src = 'targets/30.png' width = '100%;'>","null","","","","","","","","","",""
"","html-keyboard-response","198","682426","0.0-10.0-3.14","2tvgx5ewo4","many_one","0","direct_first","1","el07en31","0","22","1","1","3","1","","0","1","0","5897.079999995185","","","<img src = 'targets/mask.png' width = '100%;'>","68","pos","CS","CS","2","category2/CS2.png","","targets/30.png","indirect","0","14"
"","html-keyboard-response","199","683949","0.0-10.0-0.15","2tvgx5ewo4","many_one","0","direct_first","1","el07en31","0","22","1","1","3","1","","0","1","0","null","","","<div style=""font-size:60px;"">+</div>","null","","","","","","","","","",""
"","html-keyboard-response","200","684043","0.0-10.0-1.15","2tvgx5ewo4","many_one","0","direct_first","1","el07en31","0","22","1","1","3","1","","0","1","0","null","","","<img src = 'category2/CS1.png' width = '100%;'>","null","","","","","","","","","",""
"","html-keyboard-response","201","684311","0.0-10.0-2.15","2tvgx5ewo4","many_one","0","direct_first","1","el07en31","0","22","1","1","3","1","","0","1","0","null","","","<img src = 'targets/39.png' width = '100%;'>","null","","","","","","","","","",""
"","html-keyboard-response","202","687952","0.0-10.0-3.15","2tvgx5ewo4","many_one","0","direct_first","1","el07en31","0","22","1","1","3","1","","0","1","0","3638.3550000027753","","","<img src = 'targets/mask.png' width = '100%;'>","68","pos","CS","CS","2","category2/CS1.png","","targets/39.png","indirect","0","15"
"","html-keyboard-response","203","689479","0.0-10.0-0.16","2tvgx5ewo4","many_one","0","direct_first","1","el07en31","0","22","1","1","3","1","","0","1","0","null","","","<div style=""font-size:60px;"">+</div>","null","","","","","","","","","",""
"","html-keyboard-response","204","689572","0.0-10.0-1.16","2tvgx5ewo4","many_one","0","direct_first","1","el07en31","0","22","1","1","3","1","","0","1","0","null","","","<img src = 'category3/CS6.png' width = '100%;'>","null","","","","","","","","","",""
"","html-keyboard-response","205","689835","0.0-10.0-2.16","2tvgx5ewo4","many_one","0","direct_first","1","el07en31","0","22","1","1","3","1","","0","1","0","null","","","<img src = 'targets/15.png' width = '100%;'>","null","","","","","","","","","",""
"","html-keyboard-response","206","692037","0.0-10.0-3.16","2tvgx5ewo4","many_one","0","direct_first","1","el07en31","0","22","1","1","3","1","","0","1","0","2199.334999982966","","","<img src = 'targets/mask.png' width = '100%;'>","75","neg","CS","CS","3","category3/CS6.png","","targets/15.png","indirect","1","16"
"","html-keyboard-response","207","693557","0.0-10.0-0.17","2tvgx5ewo4","many_one","0","direct_first","1","el07en31","0","22","1","1","3","1","","0","1","0","null","","","<div style=""font-size:60px;"">+</div>","null","","","","","","","","","",""
"","html-keyboard-response","208","693649","0.0-10.0-1.17","2tvgx5ewo4","many_one","0","direct_first","1","el07en31","0","22","1","1","3","1","","0","1","0","null","","","<img src = 'category2/CS5.png' width = '100%;'>","null","","","","","","","","","",""
"","html-keyboard-response","209","693930","0.0-10.0-2.17","2tvgx5ewo4","many_one","0","direct_first","1","el07en31","0","22","1","1","3","1","","0","1","0","null","","","<img src = 'targets/14.png' width = '100%;'>","null","","","","","","","","","",""
"","html-keyboard-response","210","695877","0.0-10.0-3.17","2tvgx5ewo4","many_one","0","direct_first","1","el07en31","0","22","1","1","3","1","","0","1","0","1944.8100000154227","","","<img src = 'targets/mask.png' width = '100%;'>","68","pos","CS","CS","2","category2/CS5.png","","targets/14.png","indirect","0","17"
"","html-keyboard-response","211","697387","0.0-10.0-0.18","2tvgx5ewo4","many_one","0","direct_first","1","el07en31","0","22","1","1","3","1","","0","1","0","null","","","<div style=""font-size:60px;"">+</div>","null","","","","","","","","","",""
"","html-keyboard-response","212","697479","0.0-10.0-1.18","2tvgx5ewo4","many_one","0","direct_first","1","el07en31","0","22","1","1","3","1","","0","1","0","null","","","<img src = 'category1/CS8.png' width = '100%;'>","null","","","","","","","","","",""
"","html-keyboard-response","213","697747","0.0-10.0-2.18","2tvgx5ewo4","many_one","0","direct_first","1","el07en31","0","22","1","1","3","1","","0","1","0","null","","","<img src = 'targets/23.png' width = '100%;'>","null","","","","","","","","","",""
"","html-keyboard-response","214","698405","0.0-10.0-3.18","2tvgx5ewo4","many_one","0","direct_first","1","el07en31","0","22","1","1","3","1","","0","1","0","655.6250000139698","","","<img src = 'targets/mask.png' width = '100%;'>","75","pos","CS","CS","1","category1/CS8.png","","targets/23.png","indirect","1","18"
"","html-keyboard-response","215","699921","0.0-10.0-0.19","2tvgx5ewo4","many_one","0","direct_first","1","el07en31","0","22","1","1","3","1","","0","1","0","null","","","<div style=""font-size:60px;"">+</div>","null","","","","","","","","","",""
"","html-keyboard-response","216","700014","0.0-10.0-1.19","2tvgx5ewo4","many_one","0","direct_first","1","el07en31","0","22","1","1","3","1","","0","1","0","null","","","<img src = 'category4/CS7.png' width = '100%;'>","null","","","","","","","","","",""
"","html-keyboard-response","217","700279","0.0-10.0-2.19","2tvgx5ewo4","many_one","0","direct_first","1","el07en31","0","22","1","1","3","1","","0","1","0","null","","","<img src = 'targets/6.png' width = '100%;'>","null","","","","","","","","","",""
"","html-keyboard-response","218","702089","0.0-10.0-3.19","2tvgx5ewo4","many_one","0","direct_first","1","el07en31","0","22","1","1","3","1","","0","1","0","1807.4800000176765","","","<img src = 'targets/mask.png' width = '100%;'>","75","neg","CS","CS","4","category4/CS7.png","","targets/6.png","indirect","1","19"
"","html-keyboard-response","219","703617","0.0-10.0-0.20","2tvgx5ewo4","many_one","0","direct_first","1","el07en31","0","22","1","1","3","1","","0","1","0","null","","","<div style=""font-size:60px;"">+</div>","null","","","","","","","","","",""
"","html-keyboard-response","220","703709","0.0-10.0-1.20","2tvgx5ewo4","many_one","0","direct_first","1","el07en31","0","22","1","1","3","1","","0","1","0","null","","","<img src = 'category2/CS9.png' width = '100%;'>","null","","","","","","","","","",""
"","html-keyboard-response","221","703976","0.0-10.0-2.20","2tvgx5ewo4","many_one","0","direct_first","1","el07en31","0","22","1","1","3","1","","0","1","0","null","","","<img src = 'targets/16.png' width = '100%;'>","null","","","","","","","","","",""
"","html-keyboard-response","222","704596","0.0-10.0-3.20","2tvgx5ewo4","many_one","0","direct_first","1","el07en31","0","22","1","1","3","1","","0","1","0","618.1400000059512","","","<img src = 'targets/mask.png' width = '100%;'>","75","pos","CS","CS","2","category2/CS9.png","","targets/16.png","indirect","1","20"
"","html-keyboard-response","223","706117","0.0-10.0-0.21","2tvgx5ewo4","many_one","0","direct_first","1","el07en31","0","22","1","1","3","1","","0","1","0","null","","","<div style=""font-size:60px;"">+</div>","null","","","","","","","","","",""
"","html-keyboard-response","224","706209","0.0-10.0-1.21","2tvgx5ewo4","many_one","0","direct_first","1","el07en31","0","22","1","1","3","1","","0","1","0","null","","","<img src = 'category1/CS2.png' width = '100%;'>","null","","","","","","","","","",""
"","html-keyboard-response","225","706463","0.0-10.0-2.21","2tvgx5ewo4","many_one","0","direct_first","1","el07en31","0","22","1","1","3","1","","0","1","0","null","","","<img src = 'targets/32.png' width = '100%;'>","null","","","","","","","","","",""
"","html-keyboard-response","226","708717","0.0-10.0-3.21","2tvgx5ewo4","many_one","0","direct_first","1","el07en31","0","22","1","1","3","1","","0","1","0","2251.734999998007","","","<img src = 'targets/mask.png' width = '100%;'>","68","pos","CS","CS","1","category1/CS2.png","","targets/32.png","indirect","0","21"
"","html-keyboard-response","227","710242","0.0-10.0-0.22","2tvgx5ewo4","many_one","0","direct_first","1","el07en31","0","22","1","1","3","1","","0","1","0","null","","","<div style=""font-size:60px;"">+</div>","null","","","","","","","","","",""
"","html-keyboard-response","228","710334","0.0-10.0-1.22","2tvgx5ewo4","many_one","0","direct_first","1","el07en31","0","22","1","1","3","1","","0","1","0","null","","","<img src = 'category3/CS4.png' width = '100%;'>","null","","","","","","","","","",""
"","html-keyboard-response","229","710589","0.0-10.0-2.22","2tvgx5ewo4","many_one","0","direct_first","1","el07en31","0","22","1","1","3","1","","0","1","0","null","","","<img src = 'targets/22.png' width = '100%;'>","null","","","","","","","","","",""
"","html-keyboard-response","230","711634","0.0-10.0-3.22","2tvgx5ewo4","many_one","0","direct_first","1","el07en31","0","22","1","1","3","1","","0","1","0","1042.909999989206","","","<img src = 'targets/mask.png' width = '100%;'>","75","neg","CS","CS","3","category3/CS4.png","","targets/22.png","indirect","1","22"
"","html-keyboard-response","231","713142","0.0-10.0-0.23","2tvgx5ewo4","many_one","0","direct_first","1","el07en31","0","22","1","1","3","1","","0","1","0","null","","","<div style=""font-size:60px;"">+</div>","null","","","","","","","","","",""
"","html-keyboard-response","232","713234","0.0-10.0-1.23","2tvgx5ewo4","many_one","0","direct_first","1","el07en31","0","22","1","1","3","1","","0","1","0","null","","","<img src = 'category3/CS8.png' width = '100%;'>","null","","","","","","","","","",""
"","html-keyboard-response","233","713502","0.0-10.0-2.23","2tvgx5ewo4","many_one","0","direct_first","1","el07en31","0","22","1","1","3","1","","0","1","0","null","","","<img src = 'targets/3.png' width = '100%;'>","null","","","","","","","","","",""
"","html-keyboard-response","234","714136","0.0-10.0-3.23","2tvgx5ewo4","many_one","0","direct_first","1","el07en31","0","22","1","1","3","1","","0","1","0","631.7899999849033","","","<img src = 'targets/mask.png' width = '100%;'>","68","neg","GS","GSold","3","category3/CS8.png","","targets/3.png","indirect","0","23"
"","survey-html-form","235","728269","0.0-11.0","2tvgx5ewo4","many_one","0","direct_first","1","el07en31","0","22","1","1","3","1","","0","1","0","13617.8249999939","","{}","","","","","","","","","","","",""
"","html-keyboard-response","236","731290","0.0-12.0-0.0","2tvgx5ewo4","many_one","0","direct_first","1","el07en31","0","22","1","1","3","1","","0","1","0","null","","","<div style=""font-size:60px;"">+</div>","null","","","","","","","","","",""
"","html-keyboard-response","237","731381","0.0-12.0-1.0","2tvgx5ewo4","many_one","0","direct_first","1","el07en31","0","22","1","1","3","1","","0","1","0","null","","","<img src = 'category2/CS3.png' width = '100%;'>","null","","","","","","","","","",""
"","html-keyboard-response","238","731636","0.0-12.0-2.0","2tvgx5ewo4","many_one","0","direct_first","1","el07en31","0","22","1","1","3","1","","0","1","0","null","","","<img src = 'targets/47.png' width = '100%;'>","null","","","","","","","","","",""
"","html-keyboard-response","239","735204","0.0-12.0-3.0","2tvgx5ewo4","many_one","0","direct_first","1","el07en31","0","22","1","1","3","1","","0","1","0","3565.360000007786","","","<img src = 'targets/mask.png' width = '100%;'>","68","pos","GS","GSold","2","category2/CS3.png","","targets/47.png","indirect","0","24"
"","html-keyboard-response","240","736722","0.0-12.0-0.1","2tvgx5ewo4","many_one","0","direct_first","1","el07en31","0","22","1","1","3","1","","0","1","0","null","","","<div style=""font-size:60px;"">+</div>","null","","","","","","","","","",""
"","html-keyboard-response","241","736814","0.0-12.0-1.1","2tvgx5ewo4","many_one","0","direct_first","1","el07en31","0","22","1","1","3","1","","0","1","0","null","","","<img src = 'category1/CS1.png' width = '100%;'>","null","","","","","","","","","",""
"","html-keyboard-response","242","737068","0.0-12.0-2.1","2tvgx5ewo4","many_one","0","direct_first","1","el07en31","0","22","1","1","3","1","","0","1","0","null","","","<img src = 'targets/5.png' width = '100%;'>","null","","","","","","","","","",""
"","html-keyboard-response","243","739085","0.0-12.0-3.1","2tvgx5ewo4","many_one","0","direct_first","1","el07en31","0","22","1","1","3","1","","0","1","0","2014.5749999792315","","","<img src = 'targets/mask.png' width = '100%;'>","68","pos","GS","GSold","1","category1/CS1.png","","targets/5.png","indirect","0","25"
"","html-keyboard-response","244","740616","0.0-12.0-0.2","2tvgx5ewo4","many_one","0","direct_first","1","el07en31","0","22","1","1","3","1","","0","1","0","null","","","<div style=""font-size:60px;"">+</div>","null","","","","","","","","","",""
"","html-keyboard-response","245","740708","0.0-12.0-1.2","2tvgx5ewo4","many_one","0","direct_first","1","el07en31","0","22","1","1","3","1","","0","1","0","null","","","<img src = 'category4/CS9.png' width = '100%;'>","null","","","","","","","","","",""
"","html-keyboard-response","246","740961","0.0-12.0-2.2","2tvgx5ewo4","many_one","0","direct_first","1","el07en31","0","22","1","1","3","1","","0","1","0","null","","","<img src = 'targets/33.png' width = '100%;'>","null","","","","","","","","","",""
"","html-keyboard-response","247","741521","0.0-12.0-3.2","2tvgx5ewo4","many_one","0","direct_first","1","el07en31","0","22","1","1","3","1","","0","1","0","558.1399999791756","","","<img src = 'targets/mask.png' width = '100%;'>","75","neg","GS","GSold","4","category4/CS9.png","","targets/33.png","indirect","1","26"
"","html-keyboard-response","248","743040","0.0-12.0-0.3","2tvgx5ewo4","many_one","0","direct_first","1","el07en31","0","22","1","1","3","1","","0","1","0","null","","","<div style=""font-size:60px;"">+</div>","null","","","","","","","","","",""
"","html-keyboard-response","249","743132","0.0-12.0-1.3","2tvgx5ewo4","many_one","0","direct_first","1","el07en31","0","22","1","1","3","1","","0","1","0","null","","","<img src = 'category2/GS2.png' width = '100%;'>","null","","","","","","","","","",""
"","html-keyboard-response","250","743399","0.0-12.0-2.3","2tvgx5ewo4","many_one","0","direct_first","1","el07en31","0","22","1","1","3","1","","0","1","0","null","","","<img src = 'targets/37.png' width = '100%;'>","null","","","","","","","","","",""
"","html-keyboard-response","251","744024","0.0-12.0-3.3","2tvgx5ewo4","many_one","0","direct_first","1","el07en31","0","22","1","1","3","1","","0","1","0","623.1100000150036","","","<img src = 'targets/mask.png' width = '100%;'>","68","pos","GS","GSnew","2","category2/GS2.png","","targets/37.png","indirect","0","27"
"","html-keyboard-response","252","745549","0.0-12.0-0.4","2tvgx5ewo4","many_one","0","direct_first","1","el07en31","0","22","1","1","3","1","","0","1","0","null","","","<div style=""font-size:60px;"">+</div>","null","","","","","","","","","",""
"","html-keyboard-response","253","745641","0.0-12.0-1.4","2tvgx5ewo4","many_one","0","direct_first","1","el07en31","0","22","1","1","3","1","","0","1","0","null","","","<img src = 'category1/GS2.png' width = '100%;'>","null","","","","","","","","","",""
"","html-keyboard-response","254","745908","0.0-12.0-2.4","2tvgx5ewo4","many_one","0","direct_first","1","el07en31","0","22","1","1","3","1","","0","1","0","null","","","<img src = 'targets/48.png' width = '100%;'>","null","","","","","","","","","",""
"","html-keyboard-response","255","748129","0.0-12.0-3.4","2tvgx5ewo4","many_one","0","direct_first","1","el07en31","0","22","1","1","3","1","","0","1","0","2218.4700000216253","","","<img src = 'targets/mask.png' width = '100%;'>","75","pos","GS","GSnew","1","category1/GS2.png","","targets/48.png","indirect","1","28"
"","html-keyboard-response","256","749646","0.0-12.0-0.5","2tvgx5ewo4","many_one","0","direct_first","1","el07en31","0","22","1","1","3","1","","0","1","0","null","","","<div style=""font-size:60px;"">+</div>","null","","","","","","","","","",""
"","html-keyboard-response","257","749739","0.0-12.0-1.5","2tvgx5ewo4","many_one","0","direct_first","1","el07en31","0","22","1","1","3","1","","0","1","0","null","","","<img src = 'category2/men.png' width = '100%;'>","null","","","","","","","","","",""
"","html-keyboard-response","258","750018","0.0-12.0-2.5","2tvgx5ewo4","many_one","0","direct_first","1","el07en31","0","22","1","1","3","1","","0","1","0","null","","","<img src = 'targets/10.png' width = '100%;'>","null","","","","","","","","","",""
"","html-keyboard-response","259","751140","0.0-12.0-3.5","2tvgx5ewo4","many_one","0","direct_first","1","el07en31","0","22","1","1","3","1","","0","1","0","1119.3849999981467","","","<img src = 'targets/mask.png' width = '100%;'>","75","pos","GS","abstract","2","category2/men.png","","targets/10.png","indirect","1","29"
"","html-keyboard-response","260","752652","0.0-12.0-0.6","2tvgx5ewo4","many_one","0","direct_first","1","el07en31","0","22","1","1","3","1","","0","1","0","null","","","<div style=""font-size:60px;"">+</div>","null","","","","","","","","","",""
"","html-keyboard-response","261","752744","0.0-12.0-1.6","2tvgx5ewo4","many_one","0","direct_first","1","el07en31","0","22","1","1","3","1","","0","1","0","null","","","<img src = 'category4/lin.png' width = '100%;'>","null","","","","","","","","","",""
"","html-keyboard-response","262","753012","0.0-12.0-2.6","2tvgx5ewo4","many_one","0","direct_first","1","el07en31","0","22","1","1","3","1","","0","1","0","null","","","<img src = 'targets/2.png' width = '100%;'>","null","","","","","","","","","",""
"","html-keyboard-response","263","754407","0.0-12.0-3.6","2tvgx5ewo4","many_one","0","direct_first","1","el07en31","0","22","1","1","3","1","","0","1","0","1393.6800000083167","","","<img src = 'targets/mask.png' width = '100%;'>","75","neg","GS","abstract","4","category4/lin.png","","targets/2.png","indirect","1","30"
"","html-keyboard-response","264","755928","0.0-12.0-0.7","2tvgx5ewo4","many_one","0","direct_first","1","el07en31","0","22","1","1","3","1","","0","1","0","null","","","<div style=""font-size:60px;"">+</div>","null","","","","","","","","","",""
"","html-keyboard-response","265","756036","0.0-12.0-1.7","2tvgx5ewo4","many_one","0","direct_first","1","el07en31","0","22","1","1","3","1","","0","1","0","null","","","<img src = 'category2/GS3.png' width = '100%;'>","null","","","","","","","","","",""
"","html-keyboard-response","266","756288","0.0-12.0-2.7","2tvgx5ewo4","many_one","0","direct_first","1","el07en31","0","22","1","1","3","1","","0","1","0","null","","","<img src = 'targets/18.png' width = '100%;'>","null","","","","","","","","","",""
"","html-keyboard-response","267","757792","0.0-12.0-3.7","2tvgx5ewo4","many_one","0","direct_first","1","el07en31","0","22","1","1","3","1","","0","1","0","1500.8600000001024","","","<img src = 'targets/mask.png' width = '100%;'>","68","pos","GS","GSnew","2","category2/GS3.png","","targets/18.png","indirect","0","31"
"","html-keyboard-response","268","759315","0.0-12.0-0.8","2tvgx5ewo4","many_one","0","direct_first","1","el07en31","0","22","1","1","3","1","","0","1","0","null","","","<div style=""font-size:60px;"">+</div>","null","","","","","","","","","",""
"","html-keyboard-response","269","759407","0.0-12.0-1.8","2tvgx5ewo4","many_one","0","direct_first","1","el07en31","0","22","1","1","3","1","","0","1","0","null","","","<img src = 'category1/CS3.png' width = '100%;'>","null","","","","","","","","","",""
"","html-keyboard-response","270","759675","0.0-12.0-2.8","2tvgx5ewo4","many_one","0","direct_first","1","el07en31","0","22","1","1","3","1","","0","1","0","null","","","<img src = 'targets/46.png' width = '100%;'>","null","","","","","","","","","",""
"","html-keyboard-response","271","761180","0.0-12.0-3.8","2tvgx5ewo4","many_one","0","direct_first","1","el07en31","0","22","1","1","3","1","","0","1","0","1503.2899999932852","","","<img src = 'targets/mask.png' width = '100%;'>","75","pos","GS","GSold","1","category1/CS3.png","","targets/46.png","indirect","1","32"
"","html-keyboard-response","272","762699","0.0-12.0-0.9","2tvgx5ewo4","many_one","0","direct_first","1","el07en31","0","22","1","1","3","1","","0","1","0","null","","","<div style=""font-size:60px;"">+</div>","null","","","","","","","","","",""
"","html-keyboard-response","273","762793","0.0-12.0-1.9","2tvgx5ewo4","many_one","0","direct_first","1","el07en31","0","22","1","1","3","1","","0","1","0","null","","","<img src = 'category3/GS3.png' width = '100%;'>","null","","","","","","","","","",""
"","html-keyboard-response","274","763075","0.0-12.0-2.9","2tvgx5ewo4","many_one","0","direct_first","1","el07en31","0","22","1","1","3","1","","0","1","0","null","","","<img src = 'targets/43.png' width = '100%;'>","null","","","","","","","","","",""
"","html-keyboard-response","275","764962","0.0-12.0-3.9","2tvgx5ewo4","many_one","0","direct_first","1","el07en31","0","22","1","1","3","1","","0","1","0","1884.489999996731","","","<img src = 'targets/mask.png' width = '100%;'>","75","neg","GS","GSnew","3","category3/GS3.png","","targets/43.png","indirect","1","33"
"","html-keyboard-response","276","766491","0.0-12.0-0.10","2tvgx5ewo4","many_one","0","direct_first","1","el07en31","0","22","1","1","3","1","","0","1","0","null","","","<div style=""font-size:60px;"">+</div>","null","","","","","","","","","",""
"","html-keyboard-response","277","766584","0.0-12.0-1.10","2tvgx5ewo4","many_one","0","direct_first","1","el07en31","0","22","1","1","3","1","","0","1","0","null","","","<img src = 'category3/GS1.png' width = '100%;'>","null","","","","","","","","","",""
"","html-keyboard-response","278","766863","0.0-12.0-2.10","2tvgx5ewo4","many_one","0","direct_first","1","el07en31","0","22","1","1","3","1","","0","1","0","null","","","<img src = 'targets/40.png' width = '100%;'>","null","","","","","","","","","",""
"","html-keyboard-response","279","768019","0.0-12.0-3.10","2tvgx5ewo4","many_one","0","direct_first","1","el07en31","0","22","1","1","3","1","","0","1","0","1154.194999980973","","","<img src = 'targets/mask.png' width = '100%;'>","68","neg","GS","GSnew","3","category3/GS1.png","","targets/40.png","indirect","0","34"
"","html-keyboard-response","280","769547","0.0-12.0-0.11","2tvgx5ewo4","many_one","0","direct_first","1","el07en31","0","22","1","1","3","1","","0","1","0","null","","","<div style=""font-size:60px;"">+</div>","null","","","","","","","","","",""
"","html-keyboard-response","281","769638","0.0-12.0-1.11","2tvgx5ewo4","many_one","0","direct_first","1","el07en31","0","22","1","1","3","1","","0","1","0","null","","","<img src = 'category1/GS3.png' width = '100%;'>","null","","","","","","","","","",""
"","html-keyboard-response","282","769904","0.0-12.0-2.11","2tvgx5ewo4","many_one","0","direct_first","1","el07en31","0","22","1","1","3","1","","0","1","0","null","","","<img src = 'targets/26.png' width = '100%;'>","null","","","","","","","","","",""
"","html-keyboard-response","283","773698","0.0-12.0-3.11","2tvgx5ewo4","many_one","0","direct_first","1","el07en31","0","22","1","1","3","1","","0","1","0","3792.215000023134","","","<img src = 'targets/mask.png' width = '100%;'>","68","pos","GS","GSnew","1","category1/GS3.png","","targets/26.png","indirect","0","35"
"","html-keyboard-response","284","775210","0.0-12.0-0.12","2tvgx5ewo4","many_one","0","direct_first","1","el07en31","0","22","1","1","3","1","","0","1","0","null","","","<div style=""font-size:60px;"">+</div>","null","","","","","","","","","",""
"","html-keyboard-response","285","775304","0.0-12.0-1.12","2tvgx5ewo4","many_one","0","direct_first","1","el07en31","0","22","1","1","3","1","","0","1","0","null","","","<img src = 'category4/CS3.png' width = '100%;'>","null","","","","","","","","","",""
"","html-keyboard-response","286","775571","0.0-12.0-2.12","2tvgx5ewo4","many_one","0","direct_first","1","el07en31","0","22","1","1","3","1","","0","1","0","null","","","<img src = 'targets/7.png' width = '100%;'>","null","","","","","","","","","",""
"","html-keyboard-response","287","779669","0.0-12.0-3.12","2tvgx5ewo4","many_one","0","direct_first","1","el07en31","0","22","1","1","3","1","","0","1","0","4095.5200000025798","","","<img src = 'targets/mask.png' width = '100%;'>","75","neg","GS","GSold","4","category4/CS3.png","","targets/7.png","indirect","1","36"
"","html-keyboard-response","288","781176","0.0-12.0-0.13","2tvgx5ewo4","many_one","0","direct_first","1","el07en31","0","22","1","1","3","1","","0","1","0","null","","","<div style=""font-size:60px;"">+</div>","null","","","","","","","","","",""
"","html-keyboard-response","289","781268","0.0-12.0-1.13","2tvgx5ewo4","many_one","0","direct_first","1","el07en31","0","22","1","1","3","1","","0","1","0","null","","","<img src = 'category1/CS7.png' width = '100%;'>","null","","","","","","","","","",""
"","html-keyboard-response","290","781536","0.0-12.0-2.13","2tvgx5ewo4","many_one","0","direct_first","1","el07en31","0","22","1","1","3","1","","0","1","0","null","","","<img src = 'targets/25.png' width = '100%;'>","null","","","","","","","","","",""
"","html-keyboard-response","291","782575","0.0-12.0-3.13","2tvgx5ewo4","many_one","0","direct_first","1","el07en31","0","22","1","1","3","1","","0","1","0","1035.8000000123866","","","<img src = 'targets/mask.png' width = '100%;'>","75","pos","GS","GSold","1","category1/CS7.png","","targets/25.png","indirect","1","37"
"","html-keyboard-response","292","784088","0.0-12.0-0.14","2tvgx5ewo4","many_one","0","direct_first","1","el07en31","0","22","1","1","3","1","","0","1","0","null","","","<div style=""font-size:60px;"">+</div>","null","","","","","","","","","",""
"","html-keyboard-response","293","784181","0.0-12.0-1.14","2tvgx5ewo4","many_one","0","direct_first","1","el07en31","0","22","1","1","3","1","","0","1","0","null","","","<img src = 'category2/GS1.png' width = '100%;'>","null","","","","","","","","","",""
"","html-keyboard-response","294","784459","0.0-12.0-2.14","2tvgx5ewo4","many_one","0","direct_first","1","el07en31","0","22","1","1","3","1","","0","1","0","null","","","<img src = 'targets/11.png' width = '100%;'>","null","","","","","","","","","",""
"","html-keyboard-response","295","787928","0.0-12.0-3.14","2tvgx5ewo4","many_one","0","direct_first","1","el07en31","0","22","1","1","3","1","","0","1","0","3466.3799999980256","","","<img src = 'targets/mask.png' width = '100%;'>","68","pos","GS","GSnew","2","category2/GS1.png","","targets/11.png","indirect","0","38"
"","html-keyboard-response","296","789450","0.0-12.0-0.15","2tvgx5ewo4","many_one","0","direct_first","1","el07en31","0","22","1","1","3","1","","0","1","0","null","","","<div style=""font-size:60px;"">+</div>","null","","","","","","","","","",""
"","html-keyboard-response","297","789545","0.0-12.0-1.15","2tvgx5ewo4","many_one","0","direct_first","1","el07en31","0","22","1","1","3","1","","0","1","0","null","","","<img src = 'category4/CS8.png' width = '100%;'>","null","","","","","","","","","",""
"","html-keyboard-response","298","789824","0.0-12.0-2.15","2tvgx5ewo4","many_one","0","direct_first","1","el07en31","0","22","1","1","3","1","","0","1","0","null","","","<img src = 'targets/21.png' width = '100%;'>","null","","","","","","","","","",""
"","html-keyboard-response","299","791289","0.0-12.0-3.15","2tvgx5ewo4","many_one","0","direct_first","1","el07en31","0","22","1","1","3","1","","0","1","0","1462.8450000018347","","","<img src = 'targets/mask.png' width = '100%;'>","75","neg","GS","GSold","4","category4/CS8.png","","targets/21.png","indirect","1","39"
"","html-keyboard-response","300","792793","0.0-12.0-0.16","2tvgx5ewo4","many_one","0","direct_first","1","el07en31","0","22","1","1","3","1","","0","1","0","null","","","<div style=""font-size:60px;"">+</div>","null","","","","","","","","","",""
"","html-keyboard-response","301","792885","0.0-12.0-1.16","2tvgx5ewo4","many_one","0","direct_first","1","el07en31","0","22","1","1","3","1","","0","1","0","null","","","<img src = 'category4/GS2.png' width = '100%;'>","null","","","","","","","","","",""
"","html-keyboard-response","302","793152","0.0-12.0-2.16","2tvgx5ewo4","many_one","0","direct_first","1","el07en31","0","22","1","1","3","1","","0","1","0","null","","","<img src = 'targets/42.png' width = '100%;'>","null","","","","","","","","","",""
"","html-keyboard-response","303","796018","0.0-12.0-3.16","2tvgx5ewo4","many_one","0","direct_first","1","el07en31","0","22","1","1","3","1","","0","1","0","2863.2550000038464","","","<img src = 'targets/mask.png' width = '100%;'>","68","neg","GS","GSnew","4","category4/GS2.png","","targets/42.png","indirect","0","40"
"","html-keyboard-response","304","797535","0.0-12.0-0.17","2tvgx5ewo4","many_one","0","direct_first","1","el07en31","0","22","1","1","3","1","","0","1","0","null","","","<div style=""font-size:60px;"">+</div>","null","","","","","","","","","",""
"","html-keyboard-response","305","797627","0.0-12.0-1.17","2tvgx5ewo4","many_one","0","direct_first","1","el07en31","0","22","1","1","3","1","","0","1","0","null","","","<img src = 'category4/GS3.png' width = '100%;'>","null","","","","","","","","","",""
"","html-keyboard-response","306","797912","0.0-12.0-2.17","2tvgx5ewo4","many_one","0","direct_first","1","el07en31","0","22","1","1","3","1","","0","1","0","null","","","<img src = 'targets/24.png' width = '100%;'>","null","","","","","","","","","",""
"","html-keyboard-response","307","798902","0.0-12.0-3.17","2tvgx5ewo4","many_one","0","direct_first","1","el07en31","0","22","1","1","3","1","","0","1","0","987.6749999821186","","","<img src = 'targets/mask.png' width = '100%;'>","75","neg","GS","GSnew","4","category4/GS3.png","","targets/24.png","indirect","1","41"
"","html-keyboard-response","308","800419","0.0-12.0-0.18","2tvgx5ewo4","many_one","0","direct_first","1","el07en31","0","22","1","1","3","1","","0","1","0","null","","","<div style=""font-size:60px;"">+</div>","null","","","","","","","","","",""
"","html-keyboard-response","309","800511","0.0-12.0-1.18","2tvgx5ewo4","many_one","0","direct_first","1","el07en31","0","22","1","1","3","1","","0","1","0","null","","","<img src = 'category1/GS1.png' width = '100%;'>","null","","","","","","","","","",""
"","html-keyboard-response","310","800764","0.0-12.0-2.18","2tvgx5ewo4","many_one","0","direct_first","1","el07en31","0","22","1","1","3","1","","0","1","0","null","","","<img src = 'targets/44.png' width = '100%;'>","null","","","","","","","","","",""
"","html-keyboard-response","311","802639","0.0-12.0-3.18","2tvgx5ewo4","many_one","0","direct_first","1","el07en31","0","22","1","1","3","1","","0","1","0","1873.185000004014","","","<img src = 'targets/mask.png' width = '100%;'>","75","pos","GS","GSnew","1","category1/GS1.png","","targets/44.png","indirect","1","42"
"","html-keyboard-response","312","804159","0.0-12.0-0.19","2tvgx5ewo4","many_one","0","direct_first","1","el07en31","0","22","1","1","3","1","","0","1","0","null","","","<div style=""font-size:60px;"">+</div>","null","","","","","","","","","",""
"","html-keyboard-response","313","804251","0.0-12.0-1.19","2tvgx5ewo4","many_one","0","direct_first","1","el07en31","0","22","1","1","3","1","","0","1","0","null","","","<img src = 'category1/ma.png' width = '100%;'>","null","","","","","","","","","",""
"","html-keyboard-response","314","804519","0.0-12.0-2.19","2tvgx5ewo4","many_one","0","direct_first","1","el07en31","0","22","1","1","3","1","","0","1","0","null","","","<img src = 'targets/29.png' width = '100%;'>","null","","","","","","","","","",""
"","html-keyboard-response","315","806705","0.0-12.0-3.19","2tvgx5ewo4","many_one","0","direct_first","1","el07en31","0","22","1","1","3","1","","0","1","0","2183.4499999822583","","","<img src = 'targets/mask.png' width = '100%;'>","68","pos","GS","abstract","1","category1/ma.png","","targets/29.png","indirect","0","43"
"","html-keyboard-response","316","808230","0.0-12.0-0.20","2tvgx5ewo4","many_one","0","direct_first","1","el07en31","0","22","1","1","3","1","","0","1","0","null","","","<div style=""font-size:60px;"">+</div>","null","","","","","","","","","",""
"","html-keyboard-response","317","808323","0.0-12.0-1.20","2tvgx5ewo4","many_one","0","direct_first","1","el07en31","0","22","1","1","3","1","","0","1","0","null","","","<img src = 'category3/GS2.png' width = '100%;'>","null","","","","","","","","","",""
"","html-keyboard-response","318","808590","0.0-12.0-2.20","2tvgx5ewo4","many_one","0","direct_first","1","el07en31","0","22","1","1","3","1","","0","1","0","null","","","<img src = 'targets/19.png' width = '100%;'>","null","","","","","","","","","",""
"","html-keyboard-response","319","809446","0.0-12.0-3.20","2tvgx5ewo4","many_one","0","direct_first","1","el07en31","0","22","1","1","3","1","","0","1","0","853.159999998752","","","<img src = 'targets/mask.png' width = '100%;'>","75","neg","GS","GSnew","3","category3/GS2.png","","targets/19.png","indirect","1","44"
"","html-keyboard-response","320","810976","0.0-12.0-0.21","2tvgx5ewo4","many_one","0","direct_first","1","el07en31","0","22","1","1","3","1","","0","1","0","null","","","<div style=""font-size:60px;"">+</div>","null","","","","","","","","","",""
"","html-keyboard-response","321","811068","0.0-12.0-1.21","2tvgx5ewo4","many_one","0","direct_first","1","el07en31","0","22","1","1","3","1","","0","1","0","null","","","<img src = 'category2/CS8.png' width = '100%;'>","null","","","","","","","","","",""
"","html-keyboard-response","322","811336","0.0-12.0-2.21","2tvgx5ewo4","many_one","0","direct_first","1","el07en31","0","22","1","1","3","1","","0","1","0","null","","","<img src = 'targets/28.png' width = '100%;'>","null","","","","","","","","","",""
"","html-keyboard-response","323","812727","0.0-12.0-3.21","2tvgx5ewo4","many_one","0","direct_first","1","el07en31","0","22","1","1","3","1","","0","1","0","1389.1500000027008","","","<img src = 'targets/mask.png' width = '100%;'>","68","pos","GS","GSold","2","category2/CS8.png","","targets/28.png","indirect","0","45"
"","html-keyboard-response","324","814253","0.0-12.0-0.22","2tvgx5ewo4","many_one","0","direct_first","1","el07en31","0","22","1","1","3","1","","0","1","0","null","","","<div style=""font-size:60px;"">+</div>","null","","","","","","","","","",""
"","html-keyboard-response","325","814345","0.0-12.0-1.22","2tvgx5ewo4","many_one","0","direct_first","1","el07en31","0","22","1","1","3","1","","0","1","0","null","","","<img src = 'category4/GS1.png' width = '100%;'>","null","","","","","","","","","",""
"","html-keyboard-response","326","814627","0.0-12.0-2.22","2tvgx5ewo4","many_one","0","direct_first","1","el07en31","0","22","1","1","3","1","","0","1","0","null","","","<img src = 'targets/34.png' width = '100%;'>","null","","","","","","","","","",""
