"success","trial_type","trial_index","time_elapsed","internal_node_id","subject","condition","condition_code","measure","measure_code","codeword","gender","age","education","chinese","fach","handedness","rt","url","responses","stimulus","key_press","val","type","type_specific","category","cs_selected","response","target","task","indirect","nr_pres"
"true","fullscreen","0","2763","0.0-0.0","ndaxo5c4uh","many_one","0","direct_first","1","LU04fa01","0","24","1","1","3","1","","","","","","","","","","","","","","",""
"","external-html","1","18737","0.0-1.0","ndaxo5c4uh","many_one","0","direct_first","1","LU04fa01","0","24","1","1","3","1","15956","text/information.html","","","","","","","","","","","","",""
"","external-html","2","30864","0.0-2.0","ndaxo5c4uh","many_one","0","direct_first","1","LU04fa01","0","24","1","1","3","1","12108","text/consent.html","","","","","","","","","","","","",""
"","survey-html-form","3","65751","0.0-3.0","ndaxo5c4uh","many_one","0","direct_first","1","LU04fa01","0","24","1","1","3","1","34886","","{""codeword_enter"":""LU04fa01""}","","","","","","","","","","","",""
"","survey-html-form","4","81713","0.0-4.0","ndaxo5c4uh","many_one","0","direct_first","1","LU04fa01","0","24","1","1","3","1","15962","","{""age"":""24"",""education"":""1"",""subject"":""3"",""gender"":""0"",""handedness"":""1"",""chinese"":""1""}","","","","","","","","","","","",""
"","survey-html-form","5","83368","0.0-5.0","ndaxo5c4uh","many_one","0","direct_first","1","LU04fa01","0","24","1","1","3","1","1653","","{}","","","","","","","","","","","",""
"","html-keyboard-response","6","87394","0.0-6.0-0.0-0.0","ndaxo5c4uh","many_one","0","direct_first","1","LU04fa01","0","24","1","1","3","1","null","","","<div class = 'row'><div class = 'column'><img src = 'category4/CS6.png' width = '70%;'></div><div class = 'column'><img src = 'uspos/8080.bmp' width = '100%;'></div></div>","null","pos","CS","CS","4","category4/CS6.png","","","","",""
"","html-keyboard-response","7","89934","0.0-6.0-0.0-0.1","ndaxo5c4uh","many_one","0","direct_first","1","LU04fa01","0","24","1","1","3","1","null","","","<div class = 'row'><div class = 'column'><img src = 'category4/CS10.png' width = '70%;'></div><div class = 'column'><img src = 'uspos/8461.bmp' width = '100%;'></div></div>","null","pos","CS","CS","4","category4/CS10.png","","","","",""
"","html-keyboard-response","8","92473","0.0-6.0-0.0-0.2","ndaxo5c4uh","many_one","0","direct_first","1","LU04fa01","0","24","1","1","3","1","null","","","<div class = 'row'><div class = 'column'><img src = 'category3/CS5.png' width = '70%;'></div><div class = 'column'><img src = 'usneg/9415.bmp' width = '100%;'></div></div>","null","neg","CS","CS","3","category3/CS5.png","","","","",""
"","html-keyboard-response","9","95014","0.0-6.0-0.0-0.3","ndaxo5c4uh","many_one","0","direct_first","1","LU04fa01","0","24","1","1","3","1","null","","","<div class = 'row'><div class = 'column'><img src = 'usneg/3160.bmp' width = '100%;'></div><div class = 'column'><img src = 'category2/CS7.png' width = '70%;'></div></div>","null","neg","CS","CS","2","category2/CS7.png","","","","",""
"","html-keyboard-response","10","97553","0.0-6.0-0.0-0.4","ndaxo5c4uh","many_one","0","direct_first","1","LU04fa01","0","24","1","1","3","1","null","","","<div class = 'row'><div class = 'column'><img src = 'category4/CS1.png' width = '70%;'></div><div class = 'column'><img src = 'uspos/1340.bmp' width = '100%;'></div></div>","null","pos","CS","CS","4","category4/CS1.png","","","","",""
"","html-keyboard-response","11","100083","0.0-6.0-0.0-0.5","ndaxo5c4uh","many_one","0","direct_first","1","LU04fa01","0","24","1","1","3","1","null","","","<div class = 'row'><div class = 'column'><img src = 'uspos/2360.bmp' width = '100%;'></div><div class = 'column'><img src = 'category1/CS3.png' width = '70%;'></div></div>","null","pos","CS","CS","1","category1/CS3.png","","","","",""
"","html-keyboard-response","12","102623","0.0-6.0-0.0-0.6","ndaxo5c4uh","many_one","0","direct_first","1","LU04fa01","0","24","1","1","3","1","null","","","<div class = 'row'><div class = 'column'><img src = 'category4/CS5.png' width = '70%;'></div><div class = 'column'><img src = 'uspos/8350.bmp' width = '100%;'></div></div>","null","pos","CS","CS","4","category4/CS5.png","","","","",""
"","html-keyboard-response","13","105153","0.0-6.0-0.0-0.7","ndaxo5c4uh","many_one","0","direct_first","1","LU04fa01","0","24","1","1","3","1","null","","","<div class = 'row'><div class = 'column'><img src = 'category1/CS8.png' width = '70%;'></div><div class = 'column'><img src = 'uspos/7325.bmp' width = '100%;'></div></div>","null","pos","CS","CS","1","category1/CS8.png","","","","",""
"","html-keyboard-response","14","107693","0.0-6.0-0.0-0.8","ndaxo5c4uh","many_one","0","direct_first","1","LU04fa01","0","24","1","1","3","1","null","","","<div class = 'row'><div class = 'column'><img src = 'usneg/3300.bmp' width = '100%;'></div><div class = 'column'><img src = 'category3/CS1.png' width = '70%;'></div></div>","null","neg","CS","CS","3","category3/CS1.png","","","","",""
"","html-keyboard-response","15","110222","0.0-6.0-0.0-0.9","ndaxo5c4uh","many_one","0","direct_first","1","LU04fa01","0","24","1","1","3","1","null","","","<div class = 'row'><div class = 'column'><img src = 'category3/CS6.png' width = '70%;'></div><div class = 'column'><img src = 'usneg/9181.bmp' width = '100%;'></div></div>","null","neg","CS","CS","3","category3/CS6.png","","","","",""
"","html-keyboard-response","16","112760","0.0-6.0-0.0-0.10","ndaxo5c4uh","many_one","0","direct_first","1","LU04fa01","0","24","1","1","3","1","null","","","<div class = 'row'><div class = 'column'><img src = 'category4/CS9.png' width = '70%;'></div><div class = 'column'><img src = 'uspos/7580.bmp' width = '100%;'></div></div>","null","pos","CS","CS","4","category4/CS9.png","","","","",""
"","html-keyboard-response","17","115263","0.0-6.0-0.0-0.11","ndaxo5c4uh","many_one","0","direct_first","1","LU04fa01","0","24","1","1","3","1","null","","","<div class = 'row'><div class = 'column'><img src = 'category2/CS9.png' width = '70%;'></div><div class = 'column'><img src = 'usneg/8485.bmp' width = '100%;'></div></div>","null","neg","CS","CS","2","category2/CS9.png","","","","",""
"","html-keyboard-response","18","117802","0.0-6.0-0.0-0.12","ndaxo5c4uh","many_one","0","direct_first","1","LU04fa01","0","24","1","1","3","1","null","","","<div class = 'row'><div class = 'column'><img src = 'category3/CS4.png' width = '70%;'></div><div class = 'column'><img src = 'usneg/9180.bmp' width = '100%;'></div></div>","null","neg","CS","CS","3","category3/CS4.png","","","","",""
"","html-keyboard-response","19","120342","0.0-6.0-0.0-0.13","ndaxo5c4uh","many_one","0","direct_first","1","LU04fa01","0","24","1","1","3","1","null","","","<div class = 'row'><div class = 'column'><img src = 'category2/CS8.png' width = '70%;'></div><div class = 'column'><img src = 'usneg/6570.1.bmp' width = '100%;'></div></div>","null","neg","CS","CS","2","category2/CS8.png","","","","",""
"","html-keyboard-response","20","122873","0.0-6.0-0.0-0.14","ndaxo5c4uh","many_one","0","direct_first","1","LU04fa01","0","24","1","1","3","1","null","","","<div class = 'row'><div class = 'column'><img src = 'category3/CS8.png' width = '70%;'></div><div class = 'column'><img src = 'usneg/6020.bmp' width = '100%;'></div></div>","null","neg","CS","CS","3","category3/CS8.png","","","","",""
"","html-keyboard-response","21","125408","0.0-6.0-0.0-0.15","ndaxo5c4uh","many_one","0","direct_first","1","LU04fa01","0","24","1","1","3","1","null","","","<div class = 'row'><div class = 'column'><img src = 'category1/CS1.png' width = '70%;'></div><div class = 'column'><img src = 'uspos/5600.bmp' width = '100%;'></div></div>","null","pos","CS","CS","1","category1/CS1.png","","","","",""
"","html-keyboard-response","22","127931","0.0-6.0-0.0-0.16","ndaxo5c4uh","many_one","0","direct_first","1","LU04fa01","0","24","1","1","3","1","null","","","<div class = 'row'><div class = 'column'><img src = 'usneg/9421.bmp' width = '100%;'></div><div class = 'column'><img src = 'category2/CS1.png' width = '70%;'></div></div>","null","neg","CS","CS","2","category2/CS1.png","","","","",""
"","html-keyboard-response","23","130462","0.0-6.0-0.0-0.17","ndaxo5c4uh","many_one","0","direct_first","1","LU04fa01","0","24","1","1","3","1","null","","","<div class = 'row'><div class = 'column'><img src = 'category1/CS7.png' width = '70%;'></div><div class = 'column'><img src = 'uspos/2150.bmp' width = '100%;'></div></div>","null","pos","CS","CS","1","category1/CS7.png","","","","",""
"","html-keyboard-response","24","132991","0.0-6.0-0.0-0.18","ndaxo5c4uh","many_one","0","direct_first","1","LU04fa01","0","24","1","1","3","1","null","","","<div class = 'row'><div class = 'column'><img src = 'category1/CS5.png' width = '70%;'></div><div class = 'column'><img src = 'uspos/2550.bmp' width = '100%;'></div></div>","null","pos","CS","CS","1","category1/CS5.png","","","","",""
"","html-keyboard-response","25","135521","0.0-6.0-0.0-0.19","ndaxo5c4uh","many_one","0","direct_first","1","LU04fa01","0","24","1","1","3","1","null","","","<div class = 'row'><div class = 'column'><img src = 'category2/CS5.png' width = '70%;'></div><div class = 'column'><img src = 'usneg/9920.bmp' width = '100%;'></div></div>","null","neg","CS","CS","2","category2/CS5.png","","","","",""
"","survey-html-form","26","137614","0.0-6.0-1.0","ndaxo5c4uh","many_one","0","direct_first","1","LU04fa01","0","24","1","1","3","1","1592","","{}","","","","","","","","","","","",""
"","html-keyboard-response","27","141631","0.0-6.0-2.0-0.0","ndaxo5c4uh","many_one","0","direct_first","1","LU04fa01","0","24","1","1","3","1","null","","","<div class = 'row'><div class = 'column'><img src = 'category4/CS6.png' width = '70%;'></div><div class = 'column'><img src = 'uspos/8080.bmp' width = '100%;'></div></div>","null","pos","CS","CS","4","category4/CS6.png","","","","",""
"","html-keyboard-response","28","144171","0.0-6.0-2.0-0.1","ndaxo5c4uh","many_one","0","direct_first","1","LU04fa01","0","24","1","1","3","1","null","","","<div class = 'row'><div class = 'column'><img src = 'category1/CS8.png' width = '70%;'></div><div class = 'column'><img src = 'uspos/7325.bmp' width = '100%;'></div></div>","null","pos","CS","CS","1","category1/CS8.png","","","","",""
"","html-keyboard-response","29","146711","0.0-6.0-2.0-0.2","ndaxo5c4uh","many_one","0","direct_first","1","LU04fa01","0","24","1","1","3","1","null","","","<div class = 'row'><div class = 'column'><img src = 'category1/CS7.png' width = '70%;'></div><div class = 'column'><img src = 'uspos/2150.bmp' width = '100%;'></div></div>","null","pos","CS","CS","1","category1/CS7.png","","","","",""
"","html-keyboard-response","30","149251","0.0-6.0-2.0-0.3","ndaxo5c4uh","many_one","0","direct_first","1","LU04fa01","0","24","1","1","3","1","null","","","<div class = 'row'><div class = 'column'><img src = 'usneg/9415.bmp' width = '100%;'></div><div class = 'column'><img src = 'category3/CS5.png' width = '70%;'></div></div>","null","neg","CS","CS","3","category3/CS5.png","","","","",""
"","html-keyboard-response","31","151791","0.0-6.0-2.0-0.4","ndaxo5c4uh","many_one","0","direct_first","1","LU04fa01","0","24","1","1","3","1","null","","","<div class = 'row'><div class = 'column'><img src = 'uspos/8350.bmp' width = '100%;'></div><div class = 'column'><img src = 'category4/CS5.png' width = '70%;'></div></div>","null","pos","CS","CS","4","category4/CS5.png","","","","",""
"","html-keyboard-response","32","154321","0.0-6.0-2.0-0.5","ndaxo5c4uh","many_one","0","direct_first","1","LU04fa01","0","24","1","1","3","1","null","","","<div class = 'row'><div class = 'column'><img src = 'category3/CS6.png' width = '70%;'></div><div class = 'column'><img src = 'usneg/9181.bmp' width = '100%;'></div></div>","null","neg","CS","CS","3","category3/CS6.png","","","","",""
"","html-keyboard-response","33","156861","0.0-6.0-2.0-0.6","ndaxo5c4uh","many_one","0","direct_first","1","LU04fa01","0","24","1","1","3","1","null","","","<div class = 'row'><div class = 'column'><img src = 'uspos/2360.bmp' width = '100%;'></div><div class = 'column'><img src = 'category1/CS3.png' width = '70%;'></div></div>","null","pos","CS","CS","1","category1/CS3.png","","","","",""
"","html-keyboard-response","34","159401","0.0-6.0-2.0-0.7","ndaxo5c4uh","many_one","0","direct_first","1","LU04fa01","0","24","1","1","3","1","null","","","<div class = 'row'><div class = 'column'><img src = 'category1/CS1.png' width = '70%;'></div><div class = 'column'><img src = 'uspos/5600.bmp' width = '100%;'></div></div>","null","pos","CS","CS","1","category1/CS1.png","","","","",""
"","html-keyboard-response","35","161941","0.0-6.0-2.0-0.8","ndaxo5c4uh","many_one","0","direct_first","1","LU04fa01","0","24","1","1","3","1","null","","","<div class = 'row'><div class = 'column'><img src = 'category1/CS5.png' width = '70%;'></div><div class = 'column'><img src = 'uspos/2550.bmp' width = '100%;'></div></div>","null","pos","CS","CS","1","category1/CS5.png","","","","",""
"","html-keyboard-response","36","164480","0.0-6.0-2.0-0.9","ndaxo5c4uh","many_one","0","direct_first","1","LU04fa01","0","24","1","1","3","1","null","","","<div class = 'row'><div class = 'column'><img src = 'category4/CS10.png' width = '70%;'></div><div class = 'column'><img src = 'uspos/8461.bmp' width = '100%;'></div></div>","null","pos","CS","CS","4","category4/CS10.png","","","","",""
"","html-keyboard-response","37","167010","0.0-6.0-2.0-0.10","ndaxo5c4uh","many_one","0","direct_first","1","LU04fa01","0","24","1","1","3","1","null","","","<div class = 'row'><div class = 'column'><img src = 'usneg/9421.bmp' width = '100%;'></div><div class = 'column'><img src = 'category2/CS1.png' width = '70%;'></div></div>","null","neg","CS","CS","2","category2/CS1.png","","","","",""
"","html-keyboard-response","38","169550","0.0-6.0-2.0-0.11","ndaxo5c4uh","many_one","0","direct_first","1","LU04fa01","0","24","1","1","3","1","null","","","<div class = 'row'><div class = 'column'><img src = 'category4/CS9.png' width = '70%;'></div><div class = 'column'><img src = 'uspos/7580.bmp' width = '100%;'></div></div>","null","pos","CS","CS","4","category4/CS9.png","","","","",""
"","html-keyboard-response","39","172091","0.0-6.0-2.0-0.12","ndaxo5c4uh","many_one","0","direct_first","1","LU04fa01","0","24","1","1","3","1","null","","","<div class = 'row'><div class = 'column'><img src = 'category2/CS8.png' width = '70%;'></div><div class = 'column'><img src = 'usneg/6570.1.bmp' width = '100%;'></div></div>","null","neg","CS","CS","2","category2/CS8.png","","","","",""
"","html-keyboard-response","40","174630","0.0-6.0-2.0-0.13","ndaxo5c4uh","many_one","0","direct_first","1","LU04fa01","0","24","1","1","3","1","null","","","<div class = 'row'><div class = 'column'><img src = 'category4/CS1.png' width = '70%;'></div><div class = 'column'><img src = 'uspos/1340.bmp' width = '100%;'></div></div>","null","pos","CS","CS","4","category4/CS1.png","","","","",""
"","html-keyboard-response","41","177170","0.0-6.0-2.0-0.14","ndaxo5c4uh","many_one","0","direct_first","1","LU04fa01","0","24","1","1","3","1","null","","","<div class = 'row'><div class = 'column'><img src = 'category3/CS1.png' width = '70%;'></div><div class = 'column'><img src = 'usneg/3300.bmp' width = '100%;'></div></div>","null","neg","CS","CS","3","category3/CS1.png","","","","",""
"","html-keyboard-response","42","179700","0.0-6.0-2.0-0.15","ndaxo5c4uh","many_one","0","direct_first","1","LU04fa01","0","24","1","1","3","1","null","","","<div class = 'row'><div class = 'column'><img src = 'usneg/9920.bmp' width = '100%;'></div><div class = 'column'><img src = 'category2/CS5.png' width = '70%;'></div></div>","null","neg","CS","CS","2","category2/CS5.png","","","","",""
"","html-keyboard-response","43","182240","0.0-6.0-2.0-0.16","ndaxo5c4uh","many_one","0","direct_first","1","LU04fa01","0","24","1","1","3","1","null","","","<div class = 'row'><div class = 'column'><img src = 'category3/CS8.png' width = '70%;'></div><div class = 'column'><img src = 'usneg/6020.bmp' width = '100%;'></div></div>","null","neg","CS","CS","3","category3/CS8.png","","","","",""
"","html-keyboard-response","44","184779","0.0-6.0-2.0-0.17","ndaxo5c4uh","many_one","0","direct_first","1","LU04fa01","0","24","1","1","3","1","null","","","<div class = 'row'><div class = 'column'><img src = 'category2/CS7.png' width = '70%;'></div><div class = 'column'><img src = 'usneg/3160.bmp' width = '100%;'></div></div>","null","neg","CS","CS","2","category2/CS7.png","","","","",""
"","html-keyboard-response","45","187299","0.0-6.0-2.0-0.18","ndaxo5c4uh","many_one","0","direct_first","1","LU04fa01","0","24","1","1","3","1","null","","","<div class = 'row'><div class = 'column'><img src = 'usneg/8485.bmp' width = '100%;'></div><div class = 'column'><img src = 'category2/CS9.png' width = '70%;'></div></div>","null","neg","CS","CS","2","category2/CS9.png","","","","",""
"","html-keyboard-response","46","189840","0.0-6.0-2.0-0.19","ndaxo5c4uh","many_one","0","direct_first","1","LU04fa01","0","24","1","1","3","1","null","","","<div class = 'row'><div class = 'column'><img src = 'category3/CS4.png' width = '70%;'></div><div class = 'column'><img src = 'usneg/9180.bmp' width = '100%;'></div></div>","null","neg","CS","CS","3","category3/CS4.png","","","","",""
"","survey-html-form","47","193477","0.0-6.0-3.0","ndaxo5c4uh","many_one","0","direct_first","1","LU04fa01","0","24","1","1","3","1","3117","","{}","","","","","","","","","","","",""
"","html-keyboard-response","48","197510","0.0-6.0-4.0-0.0","ndaxo5c4uh","many_one","0","direct_first","1","LU04fa01","0","24","1","1","3","1","null","","","<div class = 'row'><div class = 'column'><img src = 'category3/CS8.png' width = '70%;'></div><div class = 'column'><img src = 'usneg/6020.bmp' width = '100%;'></div></div>","null","neg","CS","CS","3","category3/CS8.png","","","","",""
"","html-keyboard-response","49","200050","0.0-6.0-4.0-0.1","ndaxo5c4uh","many_one","0","direct_first","1","LU04fa01","0","24","1","1","3","1","null","","","<div class = 'row'><div class = 'column'><img src = 'category2/CS1.png' width = '70%;'></div><div class = 'column'><img src = 'usneg/9421.bmp' width = '100%;'></div></div>","null","neg","CS","CS","2","category2/CS1.png","","","","",""
"","html-keyboard-response","50","202589","0.0-6.0-4.0-0.2","ndaxo5c4uh","many_one","0","direct_first","1","LU04fa01","0","24","1","1","3","1","null","","","<div class = 'row'><div class = 'column'><img src = 'category2/CS9.png' width = '70%;'></div><div class = 'column'><img src = 'usneg/8485.bmp' width = '100%;'></div></div>","null","neg","CS","CS","2","category2/CS9.png","","","","",""
"","html-keyboard-response","51","205110","0.0-6.0-4.0-0.3","ndaxo5c4uh","many_one","0","direct_first","1","LU04fa01","0","24","1","1","3","1","null","","","<div class = 'row'><div class = 'column'><img src = 'category3/CS6.png' width = '70%;'></div><div class = 'column'><img src = 'usneg/9181.bmp' width = '100%;'></div></div>","null","neg","CS","CS","3","category3/CS6.png","","","","",""
"","html-keyboard-response","52","207650","0.0-6.0-4.0-0.4","ndaxo5c4uh","many_one","0","direct_first","1","LU04fa01","0","24","1","1","3","1","null","","","<div class = 'row'><div class = 'column'><img src = 'usneg/9180.bmp' width = '100%;'></div><div class = 'column'><img src = 'category3/CS4.png' width = '70%;'></div></div>","null","neg","CS","CS","3","category3/CS4.png","","","","",""
"","html-keyboard-response","53","210189","0.0-6.0-4.0-0.5","ndaxo5c4uh","many_one","0","direct_first","1","LU04fa01","0","24","1","1","3","1","null","","","<div class = 'row'><div class = 'column'><img src = 'category4/CS9.png' width = '70%;'></div><div class = 'column'><img src = 'uspos/7580.bmp' width = '100%;'></div></div>","null","pos","CS","CS","4","category4/CS9.png","","","","",""
"","html-keyboard-response","54","212719","0.0-6.0-4.0-0.6","ndaxo5c4uh","many_one","0","direct_first","1","LU04fa01","0","24","1","1","3","1","null","","","<div class = 'row'><div class = 'column'><img src = 'usneg/6570.1.bmp' width = '100%;'></div><div class = 'column'><img src = 'category2/CS8.png' width = '70%;'></div></div>","null","neg","CS","CS","2","category2/CS8.png","","","","",""
"","html-keyboard-response","55","215250","0.0-6.0-4.0-0.7","ndaxo5c4uh","many_one","0","direct_first","1","LU04fa01","0","24","1","1","3","1","null","","","<div class = 'row'><div class = 'column'><img src = 'uspos/7325.bmp' width = '100%;'></div><div class = 'column'><img src = 'category1/CS8.png' width = '70%;'></div></div>","null","pos","CS","CS","1","category1/CS8.png","","","","",""
"","html-keyboard-response","56","217789","0.0-6.0-4.0-0.8","ndaxo5c4uh","many_one","0","direct_first","1","LU04fa01","0","24","1","1","3","1","null","","","<div class = 'row'><div class = 'column'><img src = 'category4/CS1.png' width = '70%;'></div><div class = 'column'><img src = 'uspos/1340.bmp' width = '100%;'></div></div>","null","pos","CS","CS","4","category4/CS1.png","","","","",""
"","html-keyboard-response","57","220329","0.0-6.0-4.0-0.9","ndaxo5c4uh","many_one","0","direct_first","1","LU04fa01","0","24","1","1","3","1","null","","","<div class = 'row'><div class = 'column'><img src = 'usneg/3160.bmp' width = '100%;'></div><div class = 'column'><img src = 'category2/CS7.png' width = '70%;'></div></div>","null","neg","CS","CS","2","category2/CS7.png","","","","",""
"","html-keyboard-response","58","222869","0.0-6.0-4.0-0.10","ndaxo5c4uh","many_one","0","direct_first","1","LU04fa01","0","24","1","1","3","1","null","","","<div class = 'row'><div class = 'column'><img src = 'category1/CS7.png' width = '70%;'></div><div class = 'column'><img src = 'uspos/2150.bmp' width = '100%;'></div></div>","null","pos","CS","CS","1","category1/CS7.png","","","","",""
"","html-keyboard-response","59","225409","0.0-6.0-4.0-0.11","ndaxo5c4uh","many_one","0","direct_first","1","LU04fa01","0","24","1","1","3","1","null","","","<div class = 'row'><div class = 'column'><img src = 'uspos/5600.bmp' width = '100%;'></div><div class = 'column'><img src = 'category1/CS1.png' width = '70%;'></div></div>","null","pos","CS","CS","1","category1/CS1.png","","","","",""
"","html-keyboard-response","60","227949","0.0-6.0-4.0-0.12","ndaxo5c4uh","many_one","0","direct_first","1","LU04fa01","0","24","1","1","3","1","null","","","<div class = 'row'><div class = 'column'><img src = 'category3/CS1.png' width = '70%;'></div><div class = 'column'><img src = 'usneg/3300.bmp' width = '100%;'></div></div>","null","neg","CS","CS","3","category3/CS1.png","","","","",""
"","html-keyboard-response","61","230490","0.0-6.0-4.0-0.13","ndaxo5c4uh","many_one","0","direct_first","1","LU04fa01","0","24","1","1","3","1","null","","","<div class = 'row'><div class = 'column'><img src = 'usneg/9920.bmp' width = '100%;'></div><div class = 'column'><img src = 'category2/CS5.png' width = '70%;'></div></div>","null","neg","CS","CS","2","category2/CS5.png","","","","",""
"","html-keyboard-response","62","233029","0.0-6.0-4.0-0.14","ndaxo5c4uh","many_one","0","direct_first","1","LU04fa01","0","24","1","1","3","1","null","","","<div class = 'row'><div class = 'column'><img src = 'uspos/8350.bmp' width = '100%;'></div><div class = 'column'><img src = 'category4/CS5.png' width = '70%;'></div></div>","null","pos","CS","CS","4","category4/CS5.png","","","","",""
"","html-keyboard-response","63","235559","0.0-6.0-4.0-0.15","ndaxo5c4uh","many_one","0","direct_first","1","LU04fa01","0","24","1","1","3","1","null","","","<div class = 'row'><div class = 'column'><img src = 'uspos/2360.bmp' width = '100%;'></div><div class = 'column'><img src = 'category1/CS3.png' width = '70%;'></div></div>","null","pos","CS","CS","1","category1/CS3.png","","","","",""
"","html-keyboard-response","64","238069","0.0-6.0-4.0-0.16","ndaxo5c4uh","many_one","0","direct_first","1","LU04fa01","0","24","1","1","3","1","null","","","<div class = 'row'><div class = 'column'><img src = 'category4/CS10.png' width = '70%;'></div><div class = 'column'><img src = 'uspos/8461.bmp' width = '100%;'></div></div>","null","pos","CS","CS","4","category4/CS10.png","","","","",""
"","html-keyboard-response","65","240609","0.0-6.0-4.0-0.17","ndaxo5c4uh","many_one","0","direct_first","1","LU04fa01","0","24","1","1","3","1","null","","","<div class = 'row'><div class = 'column'><img src = 'uspos/2550.bmp' width = '100%;'></div><div class = 'column'><img src = 'category1/CS5.png' width = '70%;'></div></div>","null","pos","CS","CS","1","category1/CS5.png","","","","",""
"","html-keyboard-response","66","243149","0.0-6.0-4.0-0.18","ndaxo5c4uh","many_one","0","direct_first","1","LU04fa01","0","24","1","1","3","1","null","","","<div class = 'row'><div class = 'column'><img src = 'category4/CS6.png' width = '70%;'></div><div class = 'column'><img src = 'uspos/8080.bmp' width = '100%;'></div></div>","null","pos","CS","CS","4","category4/CS6.png","","","","",""
"","html-keyboard-response","67","245680","0.0-6.0-4.0-0.19","ndaxo5c4uh","many_one","0","direct_first","1","LU04fa01","0","24","1","1","3","1","null","","","<div class = 'row'><div class = 'column'><img src = 'category3/CS5.png' width = '70%;'></div><div class = 'column'><img src = 'usneg/9415.bmp' width = '100%;'></div></div>","null","neg","CS","CS","3","category3/CS5.png","","","","",""
"","survey-html-form","68","251692","0.0-6.0-5.0","ndaxo5c4uh","many_one","0","direct_first","1","LU04fa01","0","24","1","1","3","1","5493","","{}","","","","","","","","","","","",""
"","html-keyboard-response","69","255729","0.0-6.0-6.0-0.0","ndaxo5c4uh","many_one","0","direct_first","1","LU04fa01","0","24","1","1","3","1","null","","","<div class = 'row'><div class = 'column'><img src = 'category4/CS9.png' width = '70%;'></div><div class = 'column'><img src = 'uspos/7580.bmp' width = '100%;'></div></div>","null","pos","CS","CS","4","category4/CS9.png","","","","",""
"","html-keyboard-response","70","258269","0.0-6.0-6.0-0.1","ndaxo5c4uh","many_one","0","direct_first","1","LU04fa01","0","24","1","1","3","1","null","","","<div class = 'row'><div class = 'column'><img src = 'category1/CS8.png' width = '70%;'></div><div class = 'column'><img src = 'uspos/7325.bmp' width = '100%;'></div></div>","null","pos","CS","CS","1","category1/CS8.png","","","","",""
"","html-keyboard-response","71","260809","0.0-6.0-6.0-0.2","ndaxo5c4uh","many_one","0","direct_first","1","LU04fa01","0","24","1","1","3","1","null","","","<div class = 'row'><div class = 'column'><img src = 'category4/CS10.png' width = '70%;'></div><div class = 'column'><img src = 'uspos/8461.bmp' width = '100%;'></div></div>","null","pos","CS","CS","4","category4/CS10.png","","","","",""
"","html-keyboard-response","72","263349","0.0-6.0-6.0-0.3","ndaxo5c4uh","many_one","0","direct_first","1","LU04fa01","0","24","1","1","3","1","null","","","<div class = 'row'><div class = 'column'><img src = 'category2/CS1.png' width = '70%;'></div><div class = 'column'><img src = 'usneg/9421.bmp' width = '100%;'></div></div>","null","neg","CS","CS","2","category2/CS1.png","","","","",""
"","html-keyboard-response","73","265886","0.0-6.0-6.0-0.4","ndaxo5c4uh","many_one","0","direct_first","1","LU04fa01","0","24","1","1","3","1","null","","","<div class = 'row'><div class = 'column'><img src = 'uspos/2360.bmp' width = '100%;'></div><div class = 'column'><img src = 'category1/CS3.png' width = '70%;'></div></div>","null","pos","CS","CS","1","category1/CS3.png","","","","",""
"","html-keyboard-response","74","268390","0.0-6.0-6.0-0.5","ndaxo5c4uh","many_one","0","direct_first","1","LU04fa01","0","24","1","1","3","1","null","","","<div class = 'row'><div class = 'column'><img src = 'category2/CS9.png' width = '70%;'></div><div class = 'column'><img src = 'usneg/8485.bmp' width = '100%;'></div></div>","null","neg","CS","CS","2","category2/CS9.png","","","","",""
"","html-keyboard-response","75","270929","0.0-6.0-6.0-0.6","ndaxo5c4uh","many_one","0","direct_first","1","LU04fa01","0","24","1","1","3","1","null","","","<div class = 'row'><div class = 'column'><img src = 'category1/CS7.png' width = '70%;'></div><div class = 'column'><img src = 'uspos/2150.bmp' width = '100%;'></div></div>","null","pos","CS","CS","1","category1/CS7.png","","","","",""
"","html-keyboard-response","76","273469","0.0-6.0-6.0-0.7","ndaxo5c4uh","many_one","0","direct_first","1","LU04fa01","0","24","1","1","3","1","null","","","<div class = 'row'><div class = 'column'><img src = 'uspos/1340.bmp' width = '100%;'></div><div class = 'column'><img src = 'category4/CS1.png' width = '70%;'></div></div>","null","pos","CS","CS","4","category4/CS1.png","","","","",""
"","html-keyboard-response","77","276009","0.0-6.0-6.0-0.8","ndaxo5c4uh","many_one","0","direct_first","1","LU04fa01","0","24","1","1","3","1","null","","","<div class = 'row'><div class = 'column'><img src = 'usneg/3300.bmp' width = '100%;'></div><div class = 'column'><img src = 'category3/CS1.png' width = '70%;'></div></div>","null","neg","CS","CS","3","category3/CS1.png","","","","",""
"","html-keyboard-response","78","278549","0.0-6.0-6.0-0.9","ndaxo5c4uh","many_one","0","direct_first","1","LU04fa01","0","24","1","1","3","1","null","","","<div class = 'row'><div class = 'column'><img src = 'uspos/8350.bmp' width = '100%;'></div><div class = 'column'><img src = 'category4/CS5.png' width = '70%;'></div></div>","null","pos","CS","CS","4","category4/CS5.png","","","","",""
"","html-keyboard-response","79","281089","0.0-6.0-6.0-0.10","ndaxo5c4uh","many_one","0","direct_first","1","LU04fa01","0","24","1","1","3","1","null","","","<div class = 'row'><div class = 'column'><img src = 'category2/CS8.png' width = '70%;'></div><div class = 'column'><img src = 'usneg/6570.1.bmp' width = '100%;'></div></div>","null","neg","CS","CS","2","category2/CS8.png","","","","",""
"","html-keyboard-response","80","283629","0.0-6.0-6.0-0.11","ndaxo5c4uh","many_one","0","direct_first","1","LU04fa01","0","24","1","1","3","1","null","","","<div class = 'row'><div class = 'column'><img src = 'usneg/9415.bmp' width = '100%;'></div><div class = 'column'><img src = 'category3/CS5.png' width = '70%;'></div></div>","null","neg","CS","CS","3","category3/CS5.png","","","","",""
"","html-keyboard-response","81","286149","0.0-6.0-6.0-0.12","ndaxo5c4uh","many_one","0","direct_first","1","LU04fa01","0","24","1","1","3","1","null","","","<div class = 'row'><div class = 'column'><img src = 'usneg/3160.bmp' width = '100%;'></div><div class = 'column'><img src = 'category2/CS7.png' width = '70%;'></div></div>","null","neg","CS","CS","2","category2/CS7.png","","","","",""
"","html-keyboard-response","82","288689","0.0-6.0-6.0-0.13","ndaxo5c4uh","many_one","0","direct_first","1","LU04fa01","0","24","1","1","3","1","null","","","<div class = 'row'><div class = 'column'><img src = 'usneg/9180.bmp' width = '100%;'></div><div class = 'column'><img src = 'category3/CS4.png' width = '70%;'></div></div>","null","neg","CS","CS","3","category3/CS4.png","","","","",""
"","html-keyboard-response","83","291209","0.0-6.0-6.0-0.14","ndaxo5c4uh","many_one","0","direct_first","1","LU04fa01","0","24","1","1","3","1","null","","","<div class = 'row'><div class = 'column'><img src = 'usneg/9181.bmp' width = '100%;'></div><div class = 'column'><img src = 'category3/CS6.png' width = '70%;'></div></div>","null","neg","CS","CS","3","category3/CS6.png","","","","",""
"","html-keyboard-response","84","293749","0.0-6.0-6.0-0.15","ndaxo5c4uh","many_one","0","direct_first","1","LU04fa01","0","24","1","1","3","1","null","","","<div class = 'row'><div class = 'column'><img src = 'category4/CS6.png' width = '70%;'></div><div class = 'column'><img src = 'uspos/8080.bmp' width = '100%;'></div></div>","null","pos","CS","CS","4","category4/CS6.png","","","","",""
"","html-keyboard-response","85","296289","0.0-6.0-6.0-0.16","ndaxo5c4uh","many_one","0","direct_first","1","LU04fa01","0","24","1","1","3","1","null","","","<div class = 'row'><div class = 'column'><img src = 'category1/CS5.png' width = '70%;'></div><div class = 'column'><img src = 'uspos/2550.bmp' width = '100%;'></div></div>","null","pos","CS","CS","1","category1/CS5.png","","","","",""
"","html-keyboard-response","86","298829","0.0-6.0-6.0-0.17","ndaxo5c4uh","many_one","0","direct_first","1","LU04fa01","0","24","1","1","3","1","null","","","<div class = 'row'><div class = 'column'><img src = 'usneg/9920.bmp' width = '100%;'></div><div class = 'column'><img src = 'category2/CS5.png' width = '70%;'></div></div>","null","neg","CS","CS","2","category2/CS5.png","","","","",""
"","html-keyboard-response","87","301369","0.0-6.0-6.0-0.18","ndaxo5c4uh","many_one","0","direct_first","1","LU04fa01","0","24","1","1","3","1","null","","","<div class = 'row'><div class = 'column'><img src = 'category1/CS1.png' width = '70%;'></div><div class = 'column'><img src = 'uspos/5600.bmp' width = '100%;'></div></div>","null","pos","CS","CS","1","category1/CS1.png","","","","",""
"","html-keyboard-response","88","303909","0.0-6.0-6.0-0.19","ndaxo5c4uh","many_one","0","direct_first","1","LU04fa01","0","24","1","1","3","1","null","","","<div class = 'row'><div class = 'column'><img src = 'usneg/6020.bmp' width = '100%;'></div><div class = 'column'><img src = 'category3/CS8.png' width = '70%;'></div></div>","null","neg","CS","CS","3","category3/CS8.png","","","","",""
"","survey-html-form","89","307724","0.0-7.0","ndaxo5c4uh","many_one","0","direct_first","1","LU04fa01","0","24","1","1","3","1","3315","","{}","","","","","","","","","","","",""
"","image-slider-response","90","316411","0.0-8.0-0.0","ndaxo5c4uh","many_one","0","direct_first","1","LU04fa01","0","24","1","1","3","1","6676","","","","","neg","CS","CS","2","category2/CS7.png","-1","targets/33.png","direct","",""
"","image-slider-response","91","319395","0.0-8.0-0.1","ndaxo5c4uh","many_one","0","direct_first","1","LU04fa01","0","24","1","1","3","1","2982","","","","","pos","CS","CS","4","category4/CS6.png","-2","targets/23.png","direct","",""
"","image-slider-response","92","322203","0.0-8.0-0.2","ndaxo5c4uh","many_one","0","direct_first","1","LU04fa01","0","24","1","1","3","1","2807","","","","","neg","GS","GSnew","3","category3/GS1.png","-3","targets/34.png","direct","",""
"","image-slider-response","93","324707","0.0-8.0-0.3","ndaxo5c4uh","many_one","0","direct_first","1","LU04fa01","0","24","1","1","3","1","2502","","","","","pos","GS","GSnew","1","category1/GS2.png","-1","targets/36.png","direct","",""
"","image-slider-response","94","327259","0.0-8.0-0.4","ndaxo5c4uh","many_one","0","direct_first","1","LU04fa01","0","24","1","1","3","1","2551","","","","","neg","CS","CS","3","category3/CS8.png","-2","targets/42.png","direct","",""
"","image-slider-response","95","329651","0.0-8.0-0.5","ndaxo5c4uh","many_one","0","direct_first","1","LU04fa01","0","24","1","1","3","1","2389","","","","","neg","GS","GSold","2","category2/CS6.png","-1","targets/16.png","direct","",""
"","image-slider-response","96","332315","0.0-8.0-0.6","ndaxo5c4uh","many_one","0","direct_first","1","LU04fa01","0","24","1","1","3","1","2663","","","","","neg","GS","GSnew","2","category2/GS3.png","-2","targets/8.png","direct","",""
"","image-slider-response","97","334835","0.0-8.0-0.7","ndaxo5c4uh","many_one","0","direct_first","1","LU04fa01","0","24","1","1","3","1","2518","","","","","pos","GS","GSold","4","category4/CS8.png","-4","targets/1.png","direct","",""
"","image-slider-response","98","336859","0.0-8.0-0.8","ndaxo5c4uh","many_one","0","direct_first","1","LU04fa01","0","24","1","1","3","1","2023","","","","","neg","CS","CS","2","category2/CS5.png","-4","targets/40.png","direct","",""
"","image-slider-response","99","338955","0.0-8.0-0.9","ndaxo5c4uh","many_one","0","direct_first","1","LU04fa01","0","24","1","1","3","1","2095","","","","","pos","CS","CS","1","category1/CS5.png","-3","targets/20.png","direct","",""
"","image-slider-response","100","341012","0.0-8.0-0.10","ndaxo5c4uh","many_one","0","direct_first","1","LU04fa01","0","24","1","1","3","1","2056","","","","","neg","GS","abstract","2","category2/men.png","-13","targets/27.png","direct","",""
"","image-slider-response","101","343035","0.0-8.0-0.11","ndaxo5c4uh","many_one","0","direct_first","1","LU04fa01","0","24","1","1","3","1","2022","","","","","pos","CS","CS","1","category1/CS7.png","-5","targets/46.png","direct","",""
"","image-slider-response","102","344931","0.0-8.0-0.12","ndaxo5c4uh","many_one","0","direct_first","1","LU04fa01","0","24","1","1","3","1","1894","","","","","neg","CS","CS","2","category2/CS8.png","-5","targets/6.png","direct","",""
"","image-slider-response","103","346587","0.0-8.0-0.13","ndaxo5c4uh","many_one","0","direct_first","1","LU04fa01","0","24","1","1","3","1","1656","","","","","pos","CS","CS","4","category4/CS1.png","-4","targets/32.png","direct","",""
"","image-slider-response","104","348283","0.0-8.0-0.14","ndaxo5c4uh","many_one","0","direct_first","1","LU04fa01","0","24","1","1","3","1","1695","","","","","pos","CS","CS","1","category1/CS1.png","-6","targets/37.png","direct","",""
"","image-slider-response","105","350996","0.0-8.0-0.15","ndaxo5c4uh","many_one","0","direct_first","1","LU04fa01","0","24","1","1","3","1","2711","","","","","pos","GS","GSnew","1","category1/GS3.png","-7","targets/26.png","direct","",""
"","image-slider-response","106","353243","0.0-8.0-0.16","ndaxo5c4uh","many_one","0","direct_first","1","LU04fa01","0","24","1","1","3","1","2247","","","","","pos","GS","GSold","1","category1/CS10.png","-4","targets/43.png","direct","",""
"","image-slider-response","107","354923","0.0-8.0-0.17","ndaxo5c4uh","many_one","0","direct_first","1","LU04fa01","0","24","1","1","3","1","1679","","","","","pos","GS","GSold","4","category4/CS2.png","-7","targets/13.png","direct","",""
"","image-slider-response","108","356748","0.0-8.0-0.18","ndaxo5c4uh","many_one","0","direct_first","1","LU04fa01","0","24","1","1","3","1","1823","","","","","pos","CS","CS","4","category4/CS5.png","-7","targets/30.png","direct","",""
"","image-slider-response","109","358483","0.0-8.0-0.19","ndaxo5c4uh","many_one","0","direct_first","1","LU04fa01","0","24","1","1","3","1","1734","","","","","pos","GS","abstract","1","category1/ma.png","-4","targets/4.png","direct","",""
"","image-slider-response","110","360891","0.0-8.0-0.20","ndaxo5c4uh","many_one","0","direct_first","1","LU04fa01","0","24","1","1","3","1","2407","","","","","pos","CS","CS","1","category1/CS8.png","-9","targets/10.png","direct","",""
"","image-slider-response","111","362987","0.0-8.0-0.21","ndaxo5c4uh","many_one","0","direct_first","1","LU04fa01","0","24","1","1","3","1","2095","","","","","neg","CS","CS","2","category2/CS9.png","-10","targets/12.png","direct","",""
"","image-slider-response","112","364836","0.0-8.0-0.22","ndaxo5c4uh","many_one","0","direct_first","1","LU04fa01","0","24","1","1","3","1","1848","","","","","pos","CS","CS","4","category4/CS9.png","-5","targets/11.png","direct","",""
"","image-slider-response","113","366652","0.0-8.0-0.23","ndaxo5c4uh","many_one","0","direct_first","1","LU04fa01","0","24","1","1","3","1","1814","","","","","neg","GS","GSnew","3","category3/GS2.png","-4","targets/21.png","direct","",""
"","image-slider-response","114","368419","0.0-8.0-0.24","ndaxo5c4uh","many_one","0","direct_first","1","LU04fa01","0","24","1","1","3","1","1766","","","","","pos","CS","CS","1","category1/CS3.png","-7","targets/15.png","direct","",""
"","image-slider-response","115","370227","0.0-8.0-0.25","ndaxo5c4uh","many_one","0","direct_first","1","LU04fa01","0","24","1","1","3","1","1807","","","","","pos","GS","GSnew","4","category4/GS1.png","-13","targets/31.png","direct","",""
"","image-slider-response","116","372139","0.0-8.0-0.26","ndaxo5c4uh","many_one","0","direct_first","1","LU04fa01","0","24","1","1","3","1","1910","","","","","neg","CS","CS","3","category3/CS5.png","-10","targets/2.png","direct","",""
"","image-slider-response","117","373940","0.0-8.0-0.27","ndaxo5c4uh","many_one","0","direct_first","1","LU04fa01","0","24","1","1","3","1","1799","","","","","neg","CS","CS","2","category2/CS1.png","-12","targets/22.png","direct","",""
"","image-slider-response","118","375835","0.0-8.0-0.28","ndaxo5c4uh","many_one","0","direct_first","1","LU04fa01","0","24","1","1","3","1","1894","","","","","neg","GS","GSnew","2","category2/GS2.png","-3","targets/29.png","direct","",""
"","image-slider-response","119","377876","0.0-8.0-0.29","ndaxo5c4uh","many_one","0","direct_first","1","LU04fa01","0","24","1","1","3","1","2040","","","","","pos","GS","GSnew","4","category4/GS3.png","-9","targets/39.png","direct","",""
"","image-slider-response","120","379828","0.0-8.0-0.30","ndaxo5c4uh","many_one","0","direct_first","1","LU04fa01","0","24","1","1","3","1","1950","","","","","pos","GS","GSold","4","category4/CS7.png","-9","targets/47.png","direct","",""
"","image-slider-response","121","381540","0.0-8.0-0.31","ndaxo5c4uh","many_one","0","direct_first","1","LU04fa01","0","24","1","1","3","1","1711","","","","","neg","GS","abstract","3","category3/wang.png","-6","targets/17.png","direct","",""
"","image-slider-response","122","383355","0.0-8.0-0.32","ndaxo5c4uh","many_one","0","direct_first","1","LU04fa01","0","24","1","1","3","1","1814","","","","","pos","GS","abstract","4","category4/lin.png","-2","targets/24.png","direct","",""
"","image-slider-response","123","385403","0.0-8.0-0.33","ndaxo5c4uh","many_one","0","direct_first","1","LU04fa01","0","24","1","1","3","1","2047","","","","","neg","CS","CS","3","category3/CS6.png","-8","targets/45.png","direct","",""
"","image-slider-response","124","387315","0.0-8.0-0.34","ndaxo5c4uh","many_one","0","direct_first","1","LU04fa01","0","24","1","1","3","1","1911","","","","","pos","GS","GSnew","4","category4/GS2.png","-10","targets/44.png","direct","",""
"","image-slider-response","125","388987","0.0-8.0-0.35","ndaxo5c4uh","many_one","0","direct_first","1","LU04fa01","0","24","1","1","3","1","1670","","","","","neg","GS","GSnew","3","category3/GS3.png","-10","targets/9.png","direct","",""
"","image-slider-response","126","390763","0.0-8.0-0.36","ndaxo5c4uh","many_one","0","direct_first","1","LU04fa01","0","24","1","1","3","1","1774","","","","","pos","CS","CS","4","category4/CS10.png","-8","targets/14.png","direct","",""
"","image-slider-response","127","392802","0.0-8.0-0.37","ndaxo5c4uh","many_one","0","direct_first","1","LU04fa01","0","24","1","1","3","1","2038","","","","","pos","GS","GSold","1","category1/CS2.png","-6","targets/48.png","direct","",""
"","image-slider-response","128","394747","0.0-8.0-0.38","ndaxo5c4uh","many_one","0","direct_first","1","LU04fa01","0","24","1","1","3","1","1945","","","","","neg","CS","CS","3","category3/CS4.png","-6","targets/25.png","direct","",""
"","image-slider-response","129","397267","0.0-8.0-0.39","ndaxo5c4uh","many_one","0","direct_first","1","LU04fa01","0","24","1","1","3","1","2519","","","","","neg","CS","CS","3","category3/CS1.png","2","targets/38.png","direct","",""
"","image-slider-response","130","399083","0.0-8.0-0.40","ndaxo5c4uh","many_one","0","direct_first","1","LU04fa01","0","24","1","1","3","1","1816","","","","","neg","GS","GSold","2","category2/CS3.png","-7","targets/35.png","direct","",""
"","image-slider-response","131","401668","0.0-8.0-0.41","ndaxo5c4uh","many_one","0","direct_first","1","LU04fa01","0","24","1","1","3","1","2584","","","","","neg","GS","GSold","2","category2/CS4.png","-7","targets/28.png","direct","",""
"","image-slider-response","132","403555","0.0-8.0-0.42","ndaxo5c4uh","many_one","0","direct_first","1","LU04fa01","0","24","1","1","3","1","1885","","","","","neg","GS","GSold","3","category3/CS7.png","-7","targets/7.png","direct","",""
"","image-slider-response","133","405220","0.0-8.0-0.43","ndaxo5c4uh","many_one","0","direct_first","1","LU04fa01","0","24","1","1","3","1","1663","","","","","neg","GS","GSnew","2","category2/GS1.png","-5","targets/5.png","direct","",""
"","image-slider-response","134","407195","0.0-8.0-0.44","ndaxo5c4uh","many_one","0","direct_first","1","LU04fa01","0","24","1","1","3","1","1975","","","","","neg","GS","GSold","3","category3/CS3.png","-10","targets/3.png","direct","",""
"","image-slider-response","135","409195","0.0-8.0-0.45","ndaxo5c4uh","many_one","0","direct_first","1","LU04fa01","0","24","1","1","3","1","1999","","","","","pos","GS","GSold","1","category1/CS9.png","-15","targets/19.png","direct","",""
"","image-slider-response","136","411139","0.0-8.0-0.46","ndaxo5c4uh","many_one","0","direct_first","1","LU04fa01","0","24","1","1","3","1","1943","","","","","neg","GS","GSold","3","category3/CS2.png","-13","targets/41.png","direct","",""
"","image-slider-response","137","413179","0.0-8.0-0.47","ndaxo5c4uh","many_one","0","direct_first","1","LU04fa01","0","24","1","1","3","1","2039","","","","","pos","GS","GSnew","1","category1/GS1.png","-14","targets/18.png","direct","",""
"","html-keyboard-response","138","421085","0.0-9.0","ndaxo5c4uh","many_one","0","direct_first","1","LU04fa01","0","24","1","1","3","1","7905","","","<p>Sie sehen nun die chinesischen Zeichen nur ganz kurz. Danach sehen Sie die jeweilige Aussprache der Zeichen als Silbe auf dem Bildschrim. Ihre Aufgabe ist es, für jede Silbe anzugeben, ob diese etwas angenehmes, oder unangenehmes bedeuten könnte. Verlassen Sie sich hier vor allem auf Ihre Intuition.<br><br>Die Zeichen werden nur zur Orientierung dargestellt, beachten Sie sie deshalb nicht. Konzentrieren Sie sich vor allem auf die Silben. <br>Reagieren Sie mit folgenden zwei Tasten: <br><br><b>'D' </b> wenn die Silbe etwas <b>unangenehmes</b> bedeuten könnte. <br><b>'K'</b> wenn die Silbe etwas <b>angenehmes</b> bedeuten könnte. <br><br>Bitte legen Sie nun den Zeigefinger der linken Hand auf die Taste 'D' und den Zeigefinger der rechten Hand auf die Taste 'K'. <br>Reagieren Sie auf jede Silbe so schnell wie möglich. Uns interessiert Ihre spontane Reaktion. <br> <br> <br>Drücken Sie 'D' oder 'K', um die nächste Aufgabe zu starten. </p>","75","","","","","","","","","",""
"","html-keyboard-response","139","424099","0.0-10.0-0.0","ndaxo5c4uh","many_one","0","direct_first","1","LU04fa01","0","24","1","1","3","1","null","","","<div style=""font-size:60px;"">+</div>","null","","","","","","","","","",""
"","html-keyboard-response","140","424199","0.0-10.0-1.0","ndaxo5c4uh","many_one","0","direct_first","1","LU04fa01","0","24","1","1","3","1","null","","","<img src = 'category4/CS6.png' width = '100%;'>","null","","","","","","","","","",""
"","html-keyboard-response","141","424479","0.0-10.0-2.0","ndaxo5c4uh","many_one","0","direct_first","1","LU04fa01","0","24","1","1","3","1","null","","","<img src = 'targets/23.png' width = '100%;'>","null","","","","","","","","","",""
"","html-keyboard-response","142","428237","0.0-10.0-3.0","ndaxo5c4uh","many_one","0","direct_first","1","LU04fa01","0","24","1","1","3","1","3755","","","<img src = 'targets/mask.png' width = '100%;'>","68","pos","CS","CS","4","category4/CS6.png","","targets/23.png","indirect","0","0"
"","html-keyboard-response","143","429748","0.0-10.0-0.1","ndaxo5c4uh","many_one","0","direct_first","1","LU04fa01","0","24","1","1","3","1","null","","","<div style=""font-size:60px;"">+</div>","null","","","","","","","","","",""
"","html-keyboard-response","144","429849","0.0-10.0-1.1","ndaxo5c4uh","many_one","0","direct_first","1","LU04fa01","0","24","1","1","3","1","null","","","<img src = 'category4/CS5.png' width = '100%;'>","null","","","","","","","","","",""
"","html-keyboard-response","145","430129","0.0-10.0-2.1","ndaxo5c4uh","many_one","0","direct_first","1","LU04fa01","0","24","1","1","3","1","null","","","<img src = 'targets/30.png' width = '100%;'>","null","","","","","","","","","",""
"","html-keyboard-response","146","430468","0.0-10.0-3.1","ndaxo5c4uh","many_one","0","direct_first","1","LU04fa01","0","24","1","1","3","1","338","","","<img src = 'targets/mask.png' width = '100%;'>","68","pos","CS","CS","4","category4/CS5.png","","targets/30.png","indirect","0","1"
"","html-keyboard-response","147","432008","0.0-10.0-0.2","ndaxo5c4uh","many_one","0","direct_first","1","LU04fa01","0","24","1","1","3","1","null","","","<div style=""font-size:60px;"">+</div>","null","","","","","","","","","",""
"","html-keyboard-response","148","432109","0.0-10.0-1.2","ndaxo5c4uh","many_one","0","direct_first","1","LU04fa01","0","24","1","1","3","1","null","","","<img src = 'category1/CS3.png' width = '100%;'>","null","","","","","","","","","",""
"","html-keyboard-response","149","432389","0.0-10.0-2.2","ndaxo5c4uh","many_one","0","direct_first","1","LU04fa01","0","24","1","1","3","1","null","","","<img src = 'targets/15.png' width = '100%;'>","null","","","","","","","","","",""
"","html-keyboard-response","150","433028","0.0-10.0-3.2","ndaxo5c4uh","many_one","0","direct_first","1","LU04fa01","0","24","1","1","3","1","638","","","<img src = 'targets/mask.png' width = '100%;'>","68","pos","CS","CS","1","category1/CS3.png","","targets/15.png","indirect","0","2"
"","html-keyboard-response","151","434549","0.0-10.0-0.3","ndaxo5c4uh","many_one","0","direct_first","1","LU04fa01","0","24","1","1","3","1","null","","","<div style=""font-size:60px;"">+</div>","null","","","","","","","","","",""
"","html-keyboard-response","152","434649","0.0-10.0-1.3","ndaxo5c4uh","many_one","0","direct_first","1","LU04fa01","0","24","1","1","3","1","null","","","<img src = 'category1/CS8.png' width = '100%;'>","null","","","","","","","","","",""
"","html-keyboard-response","153","434929","0.0-10.0-2.3","ndaxo5c4uh","many_one","0","direct_first","1","LU04fa01","0","24","1","1","3","1","null","","","<img src = 'targets/10.png' width = '100%;'>","null","","","","","","","","","",""
"","html-keyboard-response","154","435429","0.0-10.0-3.3","ndaxo5c4uh","many_one","0","direct_first","1","LU04fa01","0","24","1","1","3","1","498","","","<img src = 'targets/mask.png' width = '100%;'>","68","pos","CS","CS","1","category1/CS8.png","","targets/10.png","indirect","0","3"
"","html-keyboard-response","155","436929","0.0-10.0-0.4","ndaxo5c4uh","many_one","0","direct_first","1","LU04fa01","0","24","1","1","3","1","null","","","<div style=""font-size:60px;"">+</div>","null","","","","","","","","","",""
"","html-keyboard-response","156","437029","0.0-10.0-1.4","ndaxo5c4uh","many_one","0","direct_first","1","LU04fa01","0","24","1","1","3","1","null","","","<img src = 'category3/CS5.png' width = '100%;'>","null","","","","","","","","","",""
"","html-keyboard-response","157","437309","0.0-10.0-2.4","ndaxo5c4uh","many_one","0","direct_first","1","LU04fa01","0","24","1","1","3","1","null","","","<img src = 'targets/2.png' width = '100%;'>","null","","","","","","","","","",""
"","html-keyboard-response","158","437701","0.0-10.0-3.4","ndaxo5c4uh","many_one","0","direct_first","1","LU04fa01","0","24","1","1","3","1","390","","","<img src = 'targets/mask.png' width = '100%;'>","68","neg","CS","CS","3","category3/CS5.png","","targets/2.png","indirect","0","4"
"","html-keyboard-response","159","439209","0.0-10.0-0.5","ndaxo5c4uh","many_one","0","direct_first","1","LU04fa01","0","24","1","1","3","1","null","","","<div style=""font-size:60px;"">+</div>","null","","","","","","","","","",""
"","html-keyboard-response","160","439309","0.0-10.0-1.5","ndaxo5c4uh","many_one","0","direct_first","1","LU04fa01","0","24","1","1","3","1","null","","","<img src = 'category3/CS2.png' width = '100%;'>","null","","","","","","","","","",""
"","html-keyboard-response","161","439589","0.0-10.0-2.5","ndaxo5c4uh","many_one","0","direct_first","1","LU04fa01","0","24","1","1","3","1","null","","","<img src = 'targets/41.png' width = '100%;'>","null","","","","","","","","","",""
"","html-keyboard-response","162","439868","0.0-10.0-3.5","ndaxo5c4uh","many_one","0","direct_first","1","LU04fa01","0","24","1","1","3","1","278","","","<img src = 'targets/mask.png' width = '100%;'>","68","neg","GS","GSold","3","category3/CS2.png","","targets/41.png","indirect","0","5"
"","html-keyboard-response","163","441389","0.0-10.0-0.6","ndaxo5c4uh","many_one","0","direct_first","1","LU04fa01","0","24","1","1","3","1","null","","","<div style=""font-size:60px;"">+</div>","null","","","","","","","","","",""
"","html-keyboard-response","164","441489","0.0-10.0-1.6","ndaxo5c4uh","many_one","0","direct_first","1","LU04fa01","0","24","1","1","3","1","null","","","<img src = 'category1/CS7.png' width = '100%;'>","null","","","","","","","","","",""
"","html-keyboard-response","165","441769","0.0-10.0-2.6","ndaxo5c4uh","many_one","0","direct_first","1","LU04fa01","0","24","1","1","3","1","null","","","<img src = 'targets/46.png' width = '100%;'>","null","","","","","","","","","",""
"","html-keyboard-response","166","442052","0.0-10.0-3.6","ndaxo5c4uh","many_one","0","direct_first","1","LU04fa01","0","24","1","1","3","1","282","","","<img src = 'targets/mask.png' width = '100%;'>","68","pos","CS","CS","1","category1/CS7.png","","targets/46.png","indirect","0","6"
"","html-keyboard-response","167","443589","0.0-10.0-0.7","ndaxo5c4uh","many_one","0","direct_first","1","LU04fa01","0","24","1","1","3","1","null","","","<div style=""font-size:60px;"">+</div>","null","","","","","","","","","",""
"","html-keyboard-response","168","443688","0.0-10.0-1.7","ndaxo5c4uh","many_one","0","direct_first","1","LU04fa01","0","24","1","1","3","1","null","","","<img src = 'category4/CS7.png' width = '100%;'>","null","","","","","","","","","",""
"","html-keyboard-response","169","443969","0.0-10.0-2.7","ndaxo5c4uh","many_one","0","direct_first","1","LU04fa01","0","24","1","1","3","1","null","","","<img src = 'targets/47.png' width = '100%;'>","null","","","","","","","","","",""
"","html-keyboard-response","170","444316","0.0-10.0-3.7","ndaxo5c4uh","many_one","0","direct_first","1","LU04fa01","0","24","1","1","3","1","346","","","<img src = 'targets/mask.png' width = '100%;'>","68","pos","GS","GSold","4","category4/CS7.png","","targets/47.png","indirect","0","7"
"","html-keyboard-response","171","445829","0.0-10.0-0.8","ndaxo5c4uh","many_one","0","direct_first","1","LU04fa01","0","24","1","1","3","1","null","","","<div style=""font-size:60px;"">+</div>","null","","","","","","","","","",""
"","html-keyboard-response","172","445929","0.0-10.0-1.8","ndaxo5c4uh","many_one","0","direct_first","1","LU04fa01","0","24","1","1","3","1","null","","","<img src = 'category3/CS3.png' width = '100%;'>","null","","","","","","","","","",""
"","html-keyboard-response","173","446209","0.0-10.0-2.8","ndaxo5c4uh","many_one","0","direct_first","1","LU04fa01","0","24","1","1","3","1","null","","","<img src = 'targets/3.png' width = '100%;'>","null","","","","","","","","","",""
"","html-keyboard-response","174","446580","0.0-10.0-3.8","ndaxo5c4uh","many_one","0","direct_first","1","LU04fa01","0","24","1","1","3","1","371","","","<img src = 'targets/mask.png' width = '100%;'>","68","neg","GS","GSold","3","category3/CS3.png","","targets/3.png","indirect","0","8"
"","html-keyboard-response","175","448109","0.0-10.0-0.9","ndaxo5c4uh","many_one","0","direct_first","1","LU04fa01","0","24","1","1","3","1","null","","","<div style=""font-size:60px;"">+</div>","null","","","","","","","","","",""
"","html-keyboard-response","176","448209","0.0-10.0-1.9","ndaxo5c4uh","many_one","0","direct_first","1","LU04fa01","0","24","1","1","3","1","null","","","<img src = 'category3/CS7.png' width = '100%;'>","null","","","","","","","","","",""
"","html-keyboard-response","177","448488","0.0-10.0-2.9","ndaxo5c4uh","many_one","0","direct_first","1","LU04fa01","0","24","1","1","3","1","null","","","<img src = 'targets/7.png' width = '100%;'>","null","","","","","","","","","",""
"","html-keyboard-response","178","448741","0.0-10.0-3.9","ndaxo5c4uh","many_one","0","direct_first","1","LU04fa01","0","24","1","1","3","1","249","","","<img src = 'targets/mask.png' width = '100%;'>","68","neg","GS","GSold","3","category3/CS7.png","","targets/7.png","indirect","0","9"
"","html-keyboard-response","179","450249","0.0-10.0-0.10","ndaxo5c4uh","many_one","0","direct_first","1","LU04fa01","0","24","1","1","3","1","null","","","<div style=""font-size:60px;"">+</div>","null","","","","","","","","","",""
"","html-keyboard-response","180","450348","0.0-10.0-1.10","ndaxo5c4uh","many_one","0","direct_first","1","LU04fa01","0","24","1","1","3","1","null","","","<img src = 'category2/CS8.png' width = '100%;'>","null","","","","","","","","","",""
"","html-keyboard-response","181","450628","0.0-10.0-2.10","ndaxo5c4uh","many_one","0","direct_first","1","LU04fa01","0","24","1","1","3","1","null","","","<img src = 'targets/6.png' width = '100%;'>","null","","","","","","","","","",""
"","html-keyboard-response","182","450811","0.0-10.0-3.10","ndaxo5c4uh","many_one","0","direct_first","1","LU04fa01","0","24","1","1","3","1","182","","","<img src = 'targets/mask.png' width = '100%;'>","68","neg","CS","CS","2","category2/CS8.png","","targets/6.png","indirect","0","10"
"","html-keyboard-response","183","452349","0.0-10.0-0.11","ndaxo5c4uh","many_one","0","direct_first","1","LU04fa01","0","24","1","1","3","1","null","","","<div style=""font-size:60px;"">+</div>","null","","","","","","","","","",""
"","html-keyboard-response","184","452449","0.0-10.0-1.11","ndaxo5c4uh","many_one","0","direct_first","1","LU04fa01","0","24","1","1","3","1","null","","","<img src = 'category2/CS1.png' width = '100%;'>","null","","","","","","","","","",""
"","html-keyboard-response","185","452729","0.0-10.0-2.11","ndaxo5c4uh","many_one","0","direct_first","1","LU04fa01","0","24","1","1","3","1","null","","","<img src = 'targets/22.png' width = '100%;'>","null","","","","","","","","","",""
"","html-keyboard-response","186","453956","0.0-10.0-3.11","ndaxo5c4uh","many_one","0","direct_first","1","LU04fa01","0","24","1","1","3","1","1226","","","<img src = 'targets/mask.png' width = '100%;'>","68","neg","CS","CS","2","category2/CS1.png","","targets/22.png","indirect","0","11"
"","html-keyboard-response","187","455478","0.0-10.0-0.12","ndaxo5c4uh","many_one","0","direct_first","1","LU04fa01","0","24","1","1","3","1","null","","","<div style=""font-size:60px;"">+</div>","null","","","","","","","","","",""
"","html-keyboard-response","188","455579","0.0-10.0-1.12","ndaxo5c4uh","many_one","0","direct_first","1","LU04fa01","0","24","1","1","3","1","null","","","<img src = 'category2/CS7.png' width = '100%;'>","null","","","","","","","","","",""
"","html-keyboard-response","189","455859","0.0-10.0-2.12","ndaxo5c4uh","many_one","0","direct_first","1","LU04fa01","0","24","1","1","3","1","null","","","<img src = 'targets/33.png' width = '100%;'>","null","","","","","","","","","",""
"","html-keyboard-response","190","455860","0.0-10.0-3.12","ndaxo5c4uh","many_one","0","direct_first","1","LU04fa01","0","24","1","1","3","1","1","","","<img src = 'targets/mask.png' width = '100%;'>","68","neg","CS","CS","2","category2/CS7.png","","targets/33.png","indirect","0","12"
"","html-keyboard-response","191","457388","0.0-10.0-0.13","ndaxo5c4uh","many_one","0","direct_first","1","LU04fa01","0","24","1","1","3","1","null","","","<div style=""font-size:60px;"">+</div>","null","","","","","","","","","",""
"","html-keyboard-response","192","457489","0.0-10.0-1.13","ndaxo5c4uh","many_one","0","direct_first","1","LU04fa01","0","24","1","1","3","1","null","","","<img src = 'category2/CS5.png' width = '100%;'>","null","","","","","","","","","",""
"","html-keyboard-response","193","457769","0.0-10.0-2.13","ndaxo5c4uh","many_one","0","direct_first","1","LU04fa01","0","24","1","1","3","1","null","","","<img src = 'targets/40.png' width = '100%;'>","null","","","","","","","","","",""
"","html-keyboard-response","194","458028","0.0-10.0-3.13","ndaxo5c4uh","many_one","0","direct_first","1","LU04fa01","0","24","1","1","3","1","258","","","<img src = 'targets/mask.png' width = '100%;'>","68","neg","CS","CS","2","category2/CS5.png","","targets/40.png","indirect","0","13"
"","html-keyboard-response","195","459549","0.0-10.0-0.14","ndaxo5c4uh","many_one","0","direct_first","1","LU04fa01","0","24","1","1","3","1","null","","","<div style=""font-size:60px;"">+</div>","null","","","","","","","","","",""
"","html-keyboard-response","196","459649","0.0-10.0-1.14","ndaxo5c4uh","many_one","0","direct_first","1","LU04fa01","0","24","1","1","3","1","null","","","<img src = 'category4/CS10.png' width = '100%;'>","null","","","","","","","","","",""
"","html-keyboard-response","197","459918","0.0-10.0-2.14","ndaxo5c4uh","many_one","0","direct_first","1","LU04fa01","0","24","1","1","3","1","null","","","<img src = 'targets/14.png' width = '100%;'>","null","","","","","","","","","",""
"","html-keyboard-response","198","459964","0.0-10.0-3.14","ndaxo5c4uh","many_one","0","direct_first","1","LU04fa01","0","24","1","1","3","1","45","","","<img src = 'targets/mask.png' width = '100%;'>","68","pos","CS","CS","4","category4/CS10.png","","targets/14.png","indirect","0","14"
"","html-keyboard-response","199","461485","0.0-10.0-0.15","ndaxo5c4uh","many_one","0","direct_first","1","LU04fa01","0","24","1","1","3","1","null","","","<div style=""font-size:60px;"">+</div>","null","","","","","","","","","",""
"","html-keyboard-response","200","461585","0.0-10.0-1.15","ndaxo5c4uh","many_one","0","direct_first","1","LU04fa01","0","24","1","1","3","1","null","","","<img src = 'category3/CS8.png' width = '100%;'>","null","","","","","","","","","",""
"","html-keyboard-response","201","461869","0.0-10.0-2.15","ndaxo5c4uh","many_one","0","direct_first","1","LU04fa01","0","24","1","1","3","1","null","","","<img src = 'targets/42.png' width = '100%;'>","null","","","","","","","","","",""
"","html-keyboard-response","202","461916","0.0-10.0-3.15","ndaxo5c4uh","many_one","0","direct_first","1","LU04fa01","0","24","1","1","3","1","46","","","<img src = 'targets/mask.png' width = '100%;'>","68","neg","CS","CS","3","category3/CS8.png","","targets/42.png","indirect","0","15"
"","html-keyboard-response","203","463438","0.0-10.0-0.16","ndaxo5c4uh","many_one","0","direct_first","1","LU04fa01","0","24","1","1","3","1","null","","","<div style=""font-size:60px;"">+</div>","null","","","","","","","","","",""
"","html-keyboard-response","204","463539","0.0-10.0-1.16","ndaxo5c4uh","many_one","0","direct_first","1","LU04fa01","0","24","1","1","3","1","null","","","<img src = 'category3/CS4.png' width = '100%;'>","null","","","","","","","","","",""
"","html-keyboard-response","205","463819","0.0-10.0-2.16","ndaxo5c4uh","many_one","0","direct_first","1","LU04fa01","0","24","1","1","3","1","null","","","<img src = 'targets/25.png' width = '100%;'>","null","","","","","","","","","",""
"","html-keyboard-response","206","463860","0.0-10.0-3.16","ndaxo5c4uh","many_one","0","direct_first","1","LU04fa01","0","24","1","1","3","1","40","","","<img src = 'targets/mask.png' width = '100%;'>","68","neg","CS","CS","3","category3/CS4.png","","targets/25.png","indirect","0","16"
"","html-keyboard-response","207","465399","0.0-10.0-0.17","ndaxo5c4uh","many_one","0","direct_first","1","LU04fa01","0","24","1","1","3","1","null","","","<div style=""font-size:60px;"">+</div>","null","","","","","","","","","",""
"","html-keyboard-response","208","465499","0.0-10.0-1.17","ndaxo5c4uh","many_one","0","direct_first","1","LU04fa01","0","24","1","1","3","1","null","","","<img src = 'category3/CS1.png' width = '100%;'>","null","","","","","","","","","",""
"","html-keyboard-response","209","465769","0.0-10.0-2.17","ndaxo5c4uh","many_one","0","direct_first","1","LU04fa01","0","24","1","1","3","1","null","","","<img src = 'targets/38.png' width = '100%;'>","null","","","","","","","","","",""
"","html-keyboard-response","210","467164","0.0-10.0-3.17","ndaxo5c4uh","many_one","0","direct_first","1","LU04fa01","0","24","1","1","3","1","1394","","","<img src = 'targets/mask.png' width = '100%;'>","68","neg","CS","CS","3","category3/CS1.png","","targets/38.png","indirect","0","17"
"","html-keyboard-response","211","468669","0.0-10.0-0.18","ndaxo5c4uh","many_one","0","direct_first","1","LU04fa01","0","24","1","1","3","1","null","","","<div style=""font-size:60px;"">+</div>","null","","","","","","","","","",""
"","html-keyboard-response","212","468768","0.0-10.0-1.18","ndaxo5c4uh","many_one","0","direct_first","1","LU04fa01","0","24","1","1","3","1","null","","","<img src = 'category3/CS6.png' width = '100%;'>","null","","","","","","","","","",""
"","html-keyboard-response","213","469048","0.0-10.0-2.18","ndaxo5c4uh","many_one","0","direct_first","1","LU04fa01","0","24","1","1","3","1","null","","","<img src = 'targets/45.png' width = '100%;'>","null","","","","","","","","","",""
"","html-keyboard-response","214","469052","0.0-10.0-3.18","ndaxo5c4uh","many_one","0","direct_first","1","LU04fa01","0","24","1","1","3","1","1","","","<img src = 'targets/mask.png' width = '100%;'>","68","neg","CS","CS","3","category3/CS6.png","","targets/45.png","indirect","0","18"
"","html-keyboard-response","215","470589","0.0-10.0-0.19","ndaxo5c4uh","many_one","0","direct_first","1","LU04fa01","0","24","1","1","3","1","null","","","<div style=""font-size:60px;"">+</div>","null","","","","","","","","","",""
"","html-keyboard-response","216","470689","0.0-10.0-1.19","ndaxo5c4uh","many_one","0","direct_first","1","LU04fa01","0","24","1","1","3","1","null","","","<img src = 'category1/CS5.png' width = '100%;'>","null","","","","","","","","","",""
"","html-keyboard-response","217","470969","0.0-10.0-2.19","ndaxo5c4uh","many_one","0","direct_first","1","LU04fa01","0","24","1","1","3","1","null","","","<img src = 'targets/20.png' width = '100%;'>","null","","","","","","","","","",""
"","html-keyboard-response","218","471124","0.0-10.0-3.19","ndaxo5c4uh","many_one","0","direct_first","1","LU04fa01","0","24","1","1","3","1","154","","","<img src = 'targets/mask.png' width = '100%;'>","68","pos","CS","CS","1","category1/CS5.png","","targets/20.png","indirect","0","19"
"","html-keyboard-response","219","472648","0.0-10.0-0.20","ndaxo5c4uh","many_one","0","direct_first","1","LU04fa01","0","24","1","1","3","1","null","","","<div style=""font-size:60px;"">+</div>","null","","","","","","","","","",""
"","html-keyboard-response","220","472748","0.0-10.0-1.20","ndaxo5c4uh","many_one","0","direct_first","1","LU04fa01","0","24","1","1","3","1","null","","","<img src = 'category1/CS1.png' width = '100%;'>","null","","","","","","","","","",""
"","html-keyboard-response","221","473029","0.0-10.0-2.20","ndaxo5c4uh","many_one","0","direct_first","1","LU04fa01","0","24","1","1","3","1","null","","","<img src = 'targets/37.png' width = '100%;'>","null","","","","","","","","","",""
"","html-keyboard-response","222","473261","0.0-10.0-3.20","ndaxo5c4uh","many_one","0","direct_first","1","LU04fa01","0","24","1","1","3","1","231","","","<img src = 'targets/mask.png' width = '100%;'>","68","pos","CS","CS","1","category1/CS1.png","","targets/37.png","indirect","0","20"
"","html-keyboard-response","223","474788","0.0-10.0-0.21","ndaxo5c4uh","many_one","0","direct_first","1","LU04fa01","0","24","1","1","3","1","null","","","<div style=""font-size:60px;"">+</div>","null","","","","","","","","","",""
"","html-keyboard-response","224","474888","0.0-10.0-1.21","ndaxo5c4uh","many_one","0","direct_first","1","LU04fa01","0","24","1","1","3","1","null","","","<img src = 'category4/CS1.png' width = '100%;'>","null","","","","","","","","","",""
"","html-keyboard-response","225","475169","0.0-10.0-2.21","ndaxo5c4uh","many_one","0","direct_first","1","LU04fa01","0","24","1","1","3","1","null","","","<img src = 'targets/32.png' width = '100%;'>","null","","","","","","","","","",""
"","html-keyboard-response","226","475540","0.0-10.0-3.21","ndaxo5c4uh","many_one","0","direct_first","1","LU04fa01","0","24","1","1","3","1","370","","","<img src = 'targets/mask.png' width = '100%;'>","68","pos","CS","CS","4","category4/CS1.png","","targets/32.png","indirect","0","21"
"","html-keyboard-response","227","477059","0.0-10.0-0.22","ndaxo5c4uh","many_one","0","direct_first","1","LU04fa01","0","24","1","1","3","1","null","","","<div style=""font-size:60px;"">+</div>","null","","","","","","","","","",""
"","html-keyboard-response","228","477159","0.0-10.0-1.22","ndaxo5c4uh","many_one","0","direct_first","1","LU04fa01","0","24","1","1","3","1","null","","","<img src = 'category2/CS9.png' width = '100%;'>","null","","","","","","","","","",""
"","html-keyboard-response","229","477438","0.0-10.0-2.22","ndaxo5c4uh","many_one","0","direct_first","1","LU04fa01","0","24","1","1","3","1","null","","","<img src = 'targets/12.png' width = '100%;'>","null","","","","","","","","","",""
"","html-keyboard-response","230","477588","0.0-10.0-3.22","ndaxo5c4uh","many_one","0","direct_first","1","LU04fa01","0","24","1","1","3","1","148","","","<img src = 'targets/mask.png' width = '100%;'>","68","neg","CS","CS","2","category2/CS9.png","","targets/12.png","indirect","0","22"
"","html-keyboard-response","231","479119","0.0-10.0-0.23","ndaxo5c4uh","many_one","0","direct_first","1","LU04fa01","0","24","1","1","3","1","null","","","<div style=""font-size:60px;"">+</div>","null","","","","","","","","","",""
"","html-keyboard-response","232","479218","0.0-10.0-1.23","ndaxo5c4uh","many_one","0","direct_first","1","LU04fa01","0","24","1","1","3","1","null","","","<img src = 'category4/CS9.png' width = '100%;'>","null","","","","","","","","","",""
"","html-keyboard-response","233","479499","0.0-10.0-2.23","ndaxo5c4uh","many_one","0","direct_first","1","LU04fa01","0","24","1","1","3","1","null","","","<img src = 'targets/11.png' width = '100%;'>","null","","","","","","","","","",""
"","html-keyboard-response","234","479572","0.0-10.0-3.23","ndaxo5c4uh","many_one","0","direct_first","1","LU04fa01","0","24","1","1","3","1","71","","","<img src = 'targets/mask.png' width = '100%;'>","68","pos","CS","CS","4","category4/CS9.png","","targets/11.png","indirect","0","23"
"","survey-html-form","235","483292","0.0-11.0","ndaxo5c4uh","many_one","0","direct_first","1","LU04fa01","0","24","1","1","3","1","3213","","{}","","","","","","","","","","","",""
"","html-keyboard-response","236","486319","0.0-12.0-0.0","ndaxo5c4uh","many_one","0","direct_first","1","LU04fa01","0","24","1","1","3","1","null","","","<div style=""font-size:60px;"">+</div>","null","","","","","","","","","",""
"","html-keyboard-response","237","486419","0.0-12.0-1.0","ndaxo5c4uh","many_one","0","direct_first","1","LU04fa01","0","24","1","1","3","1","null","","","<img src = 'category1/CS2.png' width = '100%;'>","null","","","","","","","","","",""
"","html-keyboard-response","238","486679","0.0-12.0-2.0","ndaxo5c4uh","many_one","0","direct_first","1","LU04fa01","0","24","1","1","3","1","null","","","<img src = 'targets/48.png' width = '100%;'>","null","","","","","","","","","",""
"","html-keyboard-response","239","488132","0.0-12.0-3.0","ndaxo5c4uh","many_one","0","direct_first","1","LU04fa01","0","24","1","1","3","1","1452","","","<img src = 'targets/mask.png' width = '100%;'>","68","pos","GS","GSold","1","category1/CS2.png","","targets/48.png","indirect","0","24"
"","html-keyboard-response","240","489668","0.0-12.0-0.1","ndaxo5c4uh","many_one","0","direct_first","1","LU04fa01","0","24","1","1","3","1","null","","","<div style=""font-size:60px;"">+</div>","null","","","","","","","","","",""
"","html-keyboard-response","241","489768","0.0-12.0-1.1","ndaxo5c4uh","many_one","0","direct_first","1","LU04fa01","0","24","1","1","3","1","null","","","<img src = 'category3/GS2.png' width = '100%;'>","null","","","","","","","","","",""
"","html-keyboard-response","242","490049","0.0-12.0-2.1","ndaxo5c4uh","many_one","0","direct_first","1","LU04fa01","0","24","1","1","3","1","null","","","<img src = 'targets/21.png' width = '100%;'>","null","","","","","","","","","",""
"","html-keyboard-response","243","490580","0.0-12.0-3.1","ndaxo5c4uh","many_one","0","direct_first","1","LU04fa01","0","24","1","1","3","1","530","","","<img src = 'targets/mask.png' width = '100%;'>","68","neg","GS","GSnew","3","category3/GS2.png","","targets/21.png","indirect","0","25"
"","html-keyboard-response","244","492108","0.0-12.0-0.2","ndaxo5c4uh","many_one","0","direct_first","1","LU04fa01","0","24","1","1","3","1","null","","","<div style=""font-size:60px;"">+</div>","null","","","","","","","","","",""
"","html-keyboard-response","245","492208","0.0-12.0-1.2","ndaxo5c4uh","many_one","0","direct_first","1","LU04fa01","0","24","1","1","3","1","null","","","<img src = 'category3/GS3.png' width = '100%;'>","null","","","","","","","","","",""
"","html-keyboard-response","246","492489","0.0-12.0-2.2","ndaxo5c4uh","many_one","0","direct_first","1","LU04fa01","0","24","1","1","3","1","null","","","<img src = 'targets/9.png' width = '100%;'>","null","","","","","","","","","",""
"","html-keyboard-response","247","492507","0.0-12.0-3.2","ndaxo5c4uh","many_one","0","direct_first","1","LU04fa01","0","24","1","1","3","1","17","","","<img src = 'targets/mask.png' width = '100%;'>","68","neg","GS","GSnew","3","category3/GS3.png","","targets/9.png","indirect","0","26"
"","html-keyboard-response","248","494029","0.0-12.0-0.3","ndaxo5c4uh","many_one","0","direct_first","1","LU04fa01","0","24","1","1","3","1","null","","","<div style=""font-size:60px;"">+</div>","null","","","","","","","","","",""
"","html-keyboard-response","249","494129","0.0-12.0-1.3","ndaxo5c4uh","many_one","0","direct_first","1","LU04fa01","0","24","1","1","3","1","null","","","<img src = 'category1/GS3.png' width = '100%;'>","null","","","","","","","","","",""
"","html-keyboard-response","250","494409","0.0-12.0-2.3","ndaxo5c4uh","many_one","0","direct_first","1","LU04fa01","0","24","1","1","3","1","null","","","<img src = 'targets/26.png' width = '100%;'>","null","","","","","","","","","",""
"","html-keyboard-response","251","495308","0.0-12.0-3.3","ndaxo5c4uh","many_one","0","direct_first","1","LU04fa01","0","24","1","1","3","1","899","","","<img src = 'targets/mask.png' width = '100%;'>","68","pos","GS","GSnew","1","category1/GS3.png","","targets/26.png","indirect","0","27"
"","html-keyboard-response","252","496850","0.0-12.0-0.4","ndaxo5c4uh","many_one","0","direct_first","1","LU04fa01","0","24","1","1","3","1","null","","","<div style=""font-size:60px;"">+</div>","null","","","","","","","","","",""
"","html-keyboard-response","253","496949","0.0-12.0-1.4","ndaxo5c4uh","many_one","0","direct_first","1","LU04fa01","0","24","1","1","3","1","null","","","<img src = 'category4/GS2.png' width = '100%;'>","null","","","","","","","","","",""
"","html-keyboard-response","254","497229","0.0-12.0-2.4","ndaxo5c4uh","many_one","0","direct_first","1","LU04fa01","0","24","1","1","3","1","null","","","<img src = 'targets/44.png' width = '100%;'>","null","","","","","","","","","",""
"","html-keyboard-response","255","497268","0.0-12.0-3.4","ndaxo5c4uh","many_one","0","direct_first","1","LU04fa01","0","24","1","1","3","1","35","","","<img src = 'targets/mask.png' width = '100%;'>","68","pos","GS","GSnew","4","category4/GS2.png","","targets/44.png","indirect","0","28"
"","html-keyboard-response","256","498809","0.0-12.0-0.5","ndaxo5c4uh","many_one","0","direct_first","1","LU04fa01","0","24","1","1","3","1","null","","","<div style=""font-size:60px;"">+</div>","null","","","","","","","","","",""
"","html-keyboard-response","257","498909","0.0-12.0-1.5","ndaxo5c4uh","many_one","0","direct_first","1","LU04fa01","0","24","1","1","3","1","null","","","<img src = 'category4/CS8.png' width = '100%;'>","null","","","","","","","","","",""
"","html-keyboard-response","258","499189","0.0-12.0-2.5","ndaxo5c4uh","many_one","0","direct_first","1","LU04fa01","0","24","1","1","3","1","null","","","<img src = 'targets/1.png' width = '100%;'>","null","","","","","","","","","",""
"","html-keyboard-response","259","499276","0.0-12.0-3.5","ndaxo5c4uh","many_one","0","direct_first","1","LU04fa01","0","24","1","1","3","1","86","","","<img src = 'targets/mask.png' width = '100%;'>","68","pos","GS","GSold","4","category4/CS8.png","","targets/1.png","indirect","0","29"
"","html-keyboard-response","260","500809","0.0-12.0-0.6","ndaxo5c4uh","many_one","0","direct_first","1","LU04fa01","0","24","1","1","3","1","null","","","<div style=""font-size:60px;"">+</div>","null","","","","","","","","","",""
"","html-keyboard-response","261","500909","0.0-12.0-1.6","ndaxo5c4uh","many_one","0","direct_first","1","LU04fa01","0","24","1","1","3","1","null","","","<img src = 'category1/ma.png' width = '100%;'>","null","","","","","","","","","",""
"","html-keyboard-response","262","501186","0.0-12.0-2.6","ndaxo5c4uh","many_one","0","direct_first","1","LU04fa01","0","24","1","1","3","1","null","","","<img src = 'targets/4.png' width = '100%;'>","null","","","","","","","","","",""
"","html-keyboard-response","263","501252","0.0-12.0-3.6","ndaxo5c4uh","many_one","0","direct_first","1","LU04fa01","0","24","1","1","3","1","61","","","<img src = 'targets/mask.png' width = '100%;'>","68","pos","GS","abstract","1","category1/ma.png","","targets/4.png","indirect","0","30"
"","html-keyboard-response","264","502789","0.0-12.0-0.7","ndaxo5c4uh","many_one","0","direct_first","1","LU04fa01","0","24","1","1","3","1","null","","","<div style=""font-size:60px;"">+</div>","null","","","","","","","","","",""
"","html-keyboard-response","265","502890","0.0-12.0-1.7","ndaxo5c4uh","many_one","0","direct_first","1","LU04fa01","0","24","1","1","3","1","null","","","<img src = 'category2/GS2.png' width = '100%;'>","null","","","","","","","","","",""
"","html-keyboard-response","266","503168","0.0-12.0-2.7","ndaxo5c4uh","many_one","0","direct_first","1","LU04fa01","0","24","1","1","3","1","null","","","<img src = 'targets/29.png' width = '100%;'>","null","","","","","","","","","",""
"","html-keyboard-response","267","503212","0.0-12.0-3.7","ndaxo5c4uh","many_one","0","direct_first","1","LU04fa01","0","24","1","1","3","1","41","","","<img src = 'targets/mask.png' width = '100%;'>","68","neg","GS","GSnew","2","category2/GS2.png","","targets/29.png","indirect","0","31"
"","html-keyboard-response","268","504748","0.0-12.0-0.8","ndaxo5c4uh","many_one","0","direct_first","1","LU04fa01","0","24","1","1","3","1","null","","","<div style=""font-size:60px;"">+</div>","null","","","","","","","","","",""
"","html-keyboard-response","269","504849","0.0-12.0-1.8","ndaxo5c4uh","many_one","0","direct_first","1","LU04fa01","0","24","1","1","3","1","null","","","<img src = 'category2/CS6.png' width = '100%;'>","null","","","","","","","","","",""
"","html-keyboard-response","270","505129","0.0-12.0-2.8","ndaxo5c4uh","many_one","0","direct_first","1","LU04fa01","0","24","1","1","3","1","null","","","<img src = 'targets/16.png' width = '100%;'>","null","","","","","","","","","",""
"","html-keyboard-response","271","505140","0.0-12.0-3.8","ndaxo5c4uh","many_one","0","direct_first","1","LU04fa01","0","24","1","1","3","1","8","","","<img src = 'targets/mask.png' width = '100%;'>","68","neg","GS","GSold","2","category2/CS6.png","","targets/16.png","indirect","0","32"
"","html-keyboard-response","272","506668","0.0-12.0-0.9","ndaxo5c4uh","many_one","0","direct_first","1","LU04fa01","0","24","1","1","3","1","null","","","<div style=""font-size:60px;"">+</div>","null","","","","","","","","","",""
"","html-keyboard-response","273","506768","0.0-12.0-1.9","ndaxo5c4uh","many_one","0","direct_first","1","LU04fa01","0","24","1","1","3","1","null","","","<img src = 'category3/wang.png' width = '100%;'>","null","","","","","","","","","",""
"","html-keyboard-response","274","507049","0.0-12.0-2.9","ndaxo5c4uh","many_one","0","direct_first","1","LU04fa01","0","24","1","1","3","1","null","","","<img src = 'targets/17.png' width = '100%;'>","null","","","","","","","","","",""
"","html-keyboard-response","275","507244","0.0-12.0-3.9","ndaxo5c4uh","many_one","0","direct_first","1","LU04fa01","0","24","1","1","3","1","193","","","<img src = 'targets/mask.png' width = '100%;'>","68","neg","GS","abstract","3","category3/wang.png","","targets/17.png","indirect","0","33"
"","html-keyboard-response","276","508769","0.0-12.0-0.10","ndaxo5c4uh","many_one","0","direct_first","1","LU04fa01","0","24","1","1","3","1","null","","","<div style=""font-size:60px;"">+</div>","null","","","","","","","","","",""
"","html-keyboard-response","277","508879","0.0-12.0-1.10","ndaxo5c4uh","many_one","0","direct_first","1","LU04fa01","0","24","1","1","3","1","null","","","<img src = 'category1/CS10.png' width = '100%;'>","null","","","","","","","","","",""
"","html-keyboard-response","278","509159","0.0-12.0-2.10","ndaxo5c4uh","many_one","0","direct_first","1","LU04fa01","0","24","1","1","3","1","null","","","<img src = 'targets/43.png' width = '100%;'>","null","","","","","","","","","",""
"","html-keyboard-response","279","509716","0.0-12.0-3.10","ndaxo5c4uh","many_one","0","direct_first","1","LU04fa01","0","24","1","1","3","1","556","","","<img src = 'targets/mask.png' width = '100%;'>","68","pos","GS","GSold","1","category1/CS10.png","","targets/43.png","indirect","0","34"
"","html-keyboard-response","280","511239","0.0-12.0-0.11","ndaxo5c4uh","many_one","0","direct_first","1","LU04fa01","0","24","1","1","3","1","null","","","<div style=""font-size:60px;"">+</div>","null","","","","","","","","","",""
"","html-keyboard-response","281","511339","0.0-12.0-1.11","ndaxo5c4uh","many_one","0","direct_first","1","LU04fa01","0","24","1","1","3","1","null","","","<img src = 'category2/GS3.png' width = '100%;'>","null","","","","","","","","","",""
"","html-keyboard-response","282","511619","0.0-12.0-2.11","ndaxo5c4uh","many_one","0","direct_first","1","LU04fa01","0","24","1","1","3","1","null","","","<img src = 'targets/8.png' width = '100%;'>","null","","","","","","","","","",""
"","html-keyboard-response","283","514916","0.0-12.0-3.11","ndaxo5c4uh","many_one","0","direct_first","1","LU04fa01","0","24","1","1","3","1","3297","","","<img src = 'targets/mask.png' width = '100%;'>","68","neg","GS","GSnew","2","category2/GS3.png","","targets/8.png","indirect","0","35"
"","html-keyboard-response","284","516438","0.0-12.0-0.12","ndaxo5c4uh","many_one","0","direct_first","1","LU04fa01","0","24","1","1","3","1","null","","","<div style=""font-size:60px;"">+</div>","null","","","","","","","","","",""
"","html-keyboard-response","285","516539","0.0-12.0-1.12","ndaxo5c4uh","many_one","0","direct_first","1","LU04fa01","0","24","1","1","3","1","null","","","<img src = 'category4/lin.png' width = '100%;'>","null","","","","","","","","","",""
"","html-keyboard-response","286","516818","0.0-12.0-2.12","ndaxo5c4uh","many_one","0","direct_first","1","LU04fa01","0","24","1","1","3","1","null","","","<img src = 'targets/24.png' width = '100%;'>","null","","","","","","","","","",""
"","html-keyboard-response","287","517051","0.0-12.0-3.12","ndaxo5c4uh","many_one","0","direct_first","1","LU04fa01","0","24","1","1","3","1","231","","","<img src = 'targets/mask.png' width = '100%;'>","68","pos","GS","abstract","4","category4/lin.png","","targets/24.png","indirect","0","36"
"","html-keyboard-response","288","518569","0.0-12.0-0.13","ndaxo5c4uh","many_one","0","direct_first","1","LU04fa01","0","24","1","1","3","1","null","","","<div style=""font-size:60px;"">+</div>","null","","","","","","","","","",""
"","html-keyboard-response","289","518669","0.0-12.0-1.13","ndaxo5c4uh","many_one","0","direct_first","1","LU04fa01","0","24","1","1","3","1","null","","","<img src = 'category2/CS3.png' width = '100%;'>","null","","","","","","","","","",""
"","html-keyboard-response","290","518939","0.0-12.0-2.13","ndaxo5c4uh","many_one","0","direct_first","1","LU04fa01","0","24","1","1","3","1","null","","","<img src = 'targets/35.png' width = '100%;'>","null","","","","","","","","","",""
"","html-keyboard-response","291","518956","0.0-12.0-3.13","ndaxo5c4uh","many_one","0","direct_first","1","LU04fa01","0","24","1","1","3","1","15","","","<img src = 'targets/mask.png' width = '100%;'>","68","neg","GS","GSold","2","category2/CS3.png","","targets/35.png","indirect","0","37"
"","html-keyboard-response","292","520488","0.0-12.0-0.14","ndaxo5c4uh","many_one","0","direct_first","1","LU04fa01","0","24","1","1","3","1","null","","","<div style=""font-size:60px;"">+</div>","null","","","","","","","","","",""
"","html-keyboard-response","293","520589","0.0-12.0-1.14","ndaxo5c4uh","many_one","0","direct_first","1","LU04fa01","0","24","1","1","3","1","null","","","<img src = 'category3/GS1.png' width = '100%;'>","null","","","","","","","","","",""
"","html-keyboard-response","294","520868","0.0-12.0-2.14","ndaxo5c4uh","many_one","0","direct_first","1","LU04fa01","0","24","1","1","3","1","null","","","<img src = 'targets/34.png' width = '100%;'>","null","","","","","","","","","",""
"","html-keyboard-response","295","521652","0.0-12.0-3.14","ndaxo5c4uh","many_one","0","direct_first","1","LU04fa01","0","24","1","1","3","1","782","","","<img src = 'targets/mask.png' width = '100%;'>","68","neg","GS","GSnew","3","category3/GS1.png","","targets/34.png","indirect","0","38"
"","html-keyboard-response","296","523169","0.0-12.0-0.15","ndaxo5c4uh","many_one","0","direct_first","1","LU04fa01","0","24","1","1","3","1","null","","","<div style=""font-size:60px;"">+</div>","null","","","","","","","","","",""
"","html-keyboard-response","297","523268","0.0-12.0-1.15","ndaxo5c4uh","many_one","0","direct_first","1","LU04fa01","0","24","1","1","3","1","null","","","<img src = 'category2/CS4.png' width = '100%;'>","null","","","","","","","","","",""
"","html-keyboard-response","298","523549","0.0-12.0-2.15","ndaxo5c4uh","many_one","0","direct_first","1","LU04fa01","0","24","1","1","3","1","null","","","<img src = 'targets/28.png' width = '100%;'>","null","","","","","","","","","",""
"","html-keyboard-response","299","523588","0.0-12.0-3.15","ndaxo5c4uh","many_one","0","direct_first","1","LU04fa01","0","24","1","1","3","1","38","","","<img src = 'targets/mask.png' width = '100%;'>","68","neg","GS","GSold","2","category2/CS4.png","","targets/28.png","indirect","0","39"
"","html-keyboard-response","300","525129","0.0-12.0-0.16","ndaxo5c4uh","many_one","0","direct_first","1","LU04fa01","0","24","1","1","3","1","null","","","<div style=""font-size:60px;"">+</div>","null","","","","","","","","","",""
"","html-keyboard-response","301","525229","0.0-12.0-1.16","ndaxo5c4uh","many_one","0","direct_first","1","LU04fa01","0","24","1","1","3","1","null","","","<img src = 'category1/GS1.png' width = '100%;'>","null","","","","","","","","","",""
"","html-keyboard-response","302","525510","0.0-12.0-2.16","ndaxo5c4uh","many_one","0","direct_first","1","LU04fa01","0","24","1","1","3","1","null","","","<img src = 'targets/18.png' width = '100%;'>","null","","","","","","","","","",""
"","html-keyboard-response","303","526308","0.0-12.0-3.16","ndaxo5c4uh","many_one","0","direct_first","1","LU04fa01","0","24","1","1","3","1","797","","","<img src = 'targets/mask.png' width = '100%;'>","68","pos","GS","GSnew","1","category1/GS1.png","","targets/18.png","indirect","0","40"
"","html-keyboard-response","304","527828","0.0-12.0-0.17","ndaxo5c4uh","many_one","0","direct_first","1","LU04fa01","0","24","1","1","3","1","null","","","<div style=""font-size:60px;"">+</div>","null","","","","","","","","","",""
"","html-keyboard-response","305","527929","0.0-12.0-1.17","ndaxo5c4uh","many_one","0","direct_first","1","LU04fa01","0","24","1","1","3","1","null","","","<img src = 'category2/men.png' width = '100%;'>","null","","","","","","","","","",""
"","html-keyboard-response","306","528209","0.0-12.0-2.17","ndaxo5c4uh","many_one","0","direct_first","1","LU04fa01","0","24","1","1","3","1","null","","","<img src = 'targets/27.png' width = '100%;'>","null","","","","","","","","","",""
"","html-keyboard-response","307","528212","0.0-12.0-3.17","ndaxo5c4uh","many_one","0","direct_first","1","LU04fa01","0","24","1","1","3","1","2","","","<img src = 'targets/mask.png' width = '100%;'>","68","neg","GS","abstract","2","category2/men.png","","targets/27.png","indirect","0","41"
"","html-keyboard-response","308","529736","0.0-12.0-0.18","ndaxo5c4uh","many_one","0","direct_first","1","LU04fa01","0","24","1","1","3","1","null","","","<div style=""font-size:60px;"">+</div>","null","","","","","","","","","",""
"","html-keyboard-response","309","529838","0.0-12.0-1.18","ndaxo5c4uh","many_one","0","direct_first","1","LU04fa01","0","24","1","1","3","1","null","","","<img src = 'category4/CS2.png' width = '100%;'>","null","","","","","","","","","",""
"","html-keyboard-response","310","530118","0.0-12.0-2.18","ndaxo5c4uh","many_one","0","direct_first","1","LU04fa01","0","24","1","1","3","1","null","","","<img src = 'targets/13.png' width = '100%;'>","null","","","","","","","","","",""
"","html-keyboard-response","311","530323","0.0-12.0-3.18","ndaxo5c4uh","many_one","0","direct_first","1","LU04fa01","0","24","1","1","3","1","203","","","<img src = 'targets/mask.png' width = '100%;'>","68","pos","GS","GSold","4","category4/CS2.png","","targets/13.png","indirect","0","42"
"","html-keyboard-response","312","531839","0.0-12.0-0.19","ndaxo5c4uh","many_one","0","direct_first","1","LU04fa01","0","24","1","1","3","1","null","","","<div style=""font-size:60px;"">+</div>","null","","","","","","","","","",""
"","html-keyboard-response","313","531938","0.0-12.0-1.19","ndaxo5c4uh","many_one","0","direct_first","1","LU04fa01","0","24","1","1","3","1","null","","","<img src = 'category4/GS1.png' width = '100%;'>","null","","","","","","","","","",""
"","html-keyboard-response","314","532219","0.0-12.0-2.19","ndaxo5c4uh","many_one","0","direct_first","1","LU04fa01","0","24","1","1","3","1","null","","","<img src = 'targets/31.png' width = '100%;'>","null","","","","","","","","","",""
"","html-keyboard-response","315","532300","0.0-12.0-3.19","ndaxo5c4uh","many_one","0","direct_first","1","LU04fa01","0","24","1","1","3","1","80","","","<img src = 'targets/mask.png' width = '100%;'>","68","pos","GS","GSnew","4","category4/GS1.png","","targets/31.png","indirect","0","43"
"","html-keyboard-response","316","533839","0.0-12.0-0.20","ndaxo5c4uh","many_one","0","direct_first","1","LU04fa01","0","24","1","1","3","1","null","","","<div style=""font-size:60px;"">+</div>","null","","","","","","","","","",""
"","html-keyboard-response","317","533938","0.0-12.0-1.20","ndaxo5c4uh","many_one","0","direct_first","1","LU04fa01","0","24","1","1","3","1","null","","","<img src = 'category1/GS2.png' width = '100%;'>","null","","","","","","","","","",""
"","html-keyboard-response","318","534219","0.0-12.0-2.20","ndaxo5c4uh","many_one","0","direct_first","1","LU04fa01","0","24","1","1","3","1","null","","","<img src = 'targets/36.png' width = '100%;'>","null","","","","","","","","","",""
"","html-keyboard-response","319","535252","0.0-12.0-3.20","ndaxo5c4uh","many_one","0","direct_first","1","LU04fa01","0","24","1","1","3","1","1031","","","<img src = 'targets/mask.png' width = '100%;'>","68","pos","GS","GSnew","1","category1/GS2.png","","targets/36.png","indirect","0","44"
"","html-keyboard-response","320","536778","0.0-12.0-0.21","ndaxo5c4uh","many_one","0","direct_first","1","LU04fa01","0","24","1","1","3","1","null","","","<div style=""font-size:60px;"">+</div>","null","","","","","","","","","",""
"","html-keyboard-response","321","536879","0.0-12.0-1.21","ndaxo5c4uh","many_one","0","direct_first","1","LU04fa01","0","24","1","1","3","1","null","","","<img src = 'category2/GS1.png' width = '100%;'>","null","","","","","","","","","",""
"","html-keyboard-response","322","537159","0.0-12.0-2.21","ndaxo5c4uh","many_one","0","direct_first","1","LU04fa01","0","24","1","1","3","1","null","","","<img src = 'targets/5.png' width = '100%;'>","null","","","","","","","","","",""
"","html-keyboard-response","323","537988","0.0-12.0-3.21","ndaxo5c4uh","many_one","0","direct_first","1","LU04fa01","0","24","1","1","3","1","828","","","<img src = 'targets/mask.png' width = '100%;'>","68","neg","GS","GSnew","2","category2/GS1.png","","targets/5.png","indirect","0","45"
"","html-keyboard-response","324","539518","0.0-12.0-0.22","ndaxo5c4uh","many_one","0","direct_first","1","LU04fa01","0","24","1","1","3","1","null","","","<div style=""font-size:60px;"">+</div>","null","","","","","","","","","",""
"","html-keyboard-response","325","539619","0.0-12.0-1.22","ndaxo5c4uh","many_one","0","direct_first","1","LU04fa01","0","24","1","1","3","1","null","","","<img src = 'category1/CS9.png' width = '100%;'>","null","","","","","","","","","",""
"","html-keyboard-response","326","539899","0.0-12.0-2.22","ndaxo5c4uh","many_one","0","direct_first","1","LU04fa01","0","24","1","1","3","1","null","","","<img src = 'targets/19.png' width = '100%;'>","null","","","","","","","","","",""
"","html-keyboard-response","327","540324","0.0-12.0-3.22","ndaxo5c4uh","many_one","0","direct_first","1","LU04fa01","0","24","1","1","3","1","424","","","<img src = 'targets/mask.png' width = '100%;'>","68","pos","GS","GSold","1","category1/CS9.png","","targets/19.png","indirect","0","46"
"","html-keyboard-response","328","541839","0.0-12.0-0.23","ndaxo5c4uh","many_one","0","direct_first","1","LU04fa01","0","24","1","1","3","1","null","","","<div style=""font-size:60px;"">+</div>","null","","","","","","","","","",""
"","html-keyboard-response","329","541929","0.0-12.0-1.23","ndaxo5c4uh","many_one","0","direct_first","1","LU04fa01","0","24","1","1","3","1","null","","","<img src = 'category4/GS3.png' width = '100%;'>","null","","","","","","","","","",""
"","html-keyboard-response","330","542182","0.0-12.0-2.23","ndaxo5c4uh","many_one","0","direct_first","1","LU04fa01","0","24","1","1","3","1","null","","","<img src = 'targets/39.png' width = '100%;'>","null","","","","","","","","","",""
"","html-keyboard-response","331","542348","0.0-12.0-3.23","ndaxo5c4uh","many_one","0","direct_first","1","LU04fa01","0","24","1","1","3","1","165","","","<img src = 'targets/mask.png' width = '100%;'>","68","pos","GS","GSnew","4","category4/GS3.png","","targets/39.png","indirect","0","47"
"","survey-html-form","332","545900","0.0-13.0","ndaxo5c4uh","many_one","0","direct_first","1","LU04fa01","0","24","1","1","3","1","3041","","{}","","","","","","","","","","","",""
"","image-slider-response","333","549690","0.0-14.0-0.0","ndaxo5c4uh","many_one","0","direct_first","1","LU04fa01","0","24","1","1","3","1","2771","","","","","neg","All","all","3","category3/wang_all.png","-9","","all","",""
"","image-slider-response","334","552315","0.0-14.0-0.1","ndaxo5c4uh","many_one","0","direct_first","1","LU04fa01","0","24","1","1","3","1","2621","","","","","neg","All","all","2","category2/men_all.png","-7","","all","",""
"","image-slider-response","335","555162","0.0-14.0-0.2","ndaxo5c4uh","many_one","0","direct_first","1","LU04fa01","0","24","1","1","3","1","2847","","","","","pos","All","all","1","category1/ma_all.png","-12","","all","",""
"","image-slider-response","336","557379","0.0-14.0-0.3","ndaxo5c4uh","many_one","0","direct_first","1","LU04fa01","0","24","1","1","3","1","2214","","","","","pos","All","all","4","category4/lin_all.png","-10","","all","",""
"","survey-text","337","571964","0.0-15.0","ndaxo5c4uh","many_one","0","direct_first","1","LU04fa01","0","24","1","1","3","1","14582","","{""Q0"":""Ich konnte mir nichts merken""}","","","","","","","","","","","",""
