"success","trial_type","trial_index","time_elapsed","internal_node_id","subject","condition","condition_code","measure","measure_code","codeword","gender","age","education","chinese","fach","handedness","comment","hinschauen","ablenkung","gewissenhaft","rt","url","responses","stimulus","key_press","val","type","type_specific","category","cs_selected","target","indirect","task","nr_pres","response"
"true","fullscreen","0","6109","0.0-0.0","wlh1d24ack","many_one","0","indirect_first","0","el07in05","0","21","1","0","3","1","","0","1","0","","","","","","","","","","","","","","",""
"","external-html","1","22977","0.0-1.0","wlh1d24ack","many_one","0","indirect_first","0","el07in05","0","21","1","0","3","1","","0","1","0","16781","text/information.html","","","","","","","","","","","","",""
"","external-html","2","45385","0.0-2.0","wlh1d24ack","many_one","0","indirect_first","0","el07in05","0","21","1","0","3","1","","0","1","0","21904","text/consent.html","","","","","","","","","","","","",""
"","survey-html-form","3","108183","0.0-3.0","wlh1d24ack","many_one","0","indirect_first","0","el07in05","0","21","1","0","3","1","","0","1","0","62790","","{""codeword_enter"":""el07in05""}","","","","","","","","","","","",""
"","survey-html-form","4","131414","0.0-4.0","wlh1d24ack","many_one","0","indirect_first","0","el07in05","0","21","1","0","3","1","","0","1","0","23223","","{""age"":""21"",""education"":""1"",""subject"":""3"",""gender"":""0"",""handedness"":""1"",""chinese"":""0""}","","","","","","","","","","","",""
"","survey-html-form","5","147503","0.0-5.0","wlh1d24ack","many_one","0","indirect_first","0","el07in05","0","21","1","0","3","1","","0","1","0","16083","","{}","","","","","","","","","","","",""
"","html-keyboard-response","6","151510","0.0-6.0-0.0-0.0","wlh1d24ack","many_one","0","indirect_first","0","el07in05","0","21","1","0","3","1","","0","1","0","null","","","<div class = 'row'><div class = 'column'><img src = 'usneg/9180.bmp' width = '100%;'></div><div class = 'column'><img src = 'category2/CS2.png' width = '70%;'></div></div>","null","neg","CS","CS","2","category2/CS2.png","","","","",""
"","html-keyboard-response","7","154046","0.0-6.0-0.0-0.1","wlh1d24ack","many_one","0","indirect_first","0","el07in05","0","21","1","0","3","1","","0","1","0","null","","","<div class = 'row'><div class = 'column'><img src = 'usneg/2900.bmp' width = '100%;'></div><div class = 'column'><img src = 'category1/CS4.png' width = '70%;'></div></div>","null","neg","CS","CS","1","category1/CS4.png","","","","",""
"","html-keyboard-response","8","156576","0.0-6.0-0.0-0.2","wlh1d24ack","many_one","0","indirect_first","0","el07in05","0","21","1","0","3","1","","0","1","0","null","","","<div class = 'row'><div class = 'column'><img src = 'uspos/2160.bmp' width = '100%;'></div><div class = 'column'><img src = 'category3/CS10.png' width = '70%;'></div></div>","null","pos","CS","CS","3","category3/CS10.png","","","","",""
"","html-keyboard-response","9","159106","0.0-6.0-0.0-0.3","wlh1d24ack","many_one","0","indirect_first","0","el07in05","0","21","1","0","3","1","","0","1","0","null","","","<div class = 'row'><div class = 'column'><img src = 'usneg/2141.bmp' width = '100%;'></div><div class = 'column'><img src = 'category1/CS3.png' width = '70%;'></div></div>","null","neg","CS","CS","1","category1/CS3.png","","","","",""
"","html-keyboard-response","10","161636","0.0-6.0-0.0-0.4","wlh1d24ack","many_one","0","indirect_first","0","el07in05","0","21","1","0","3","1","","0","1","0","null","","","<div class = 'row'><div class = 'column'><img src = 'category3/CS5.png' width = '70%;'></div><div class = 'column'><img src = 'uspos/7325.bmp' width = '100%;'></div></div>","null","pos","CS","CS","3","category3/CS5.png","","","","",""
"","html-keyboard-response","11","164174","0.0-6.0-0.0-0.5","wlh1d24ack","many_one","0","indirect_first","0","el07in05","0","21","1","0","3","1","","0","1","0","null","","","<div class = 'row'><div class = 'column'><img src = 'category2/CS1.png' width = '70%;'></div><div class = 'column'><img src = 'usneg/9520.bmp' width = '100%;'></div></div>","null","neg","CS","CS","2","category2/CS1.png","","","","",""
"","html-keyboard-response","12","166705","0.0-6.0-0.0-0.6","wlh1d24ack","many_one","0","indirect_first","0","el07in05","0","21","1","0","3","1","","0","1","0","null","","","<div class = 'row'><div class = 'column'><img src = 'usneg/9340.bmp' width = '100%;'></div><div class = 'column'><img src = 'category2/CS7.png' width = '70%;'></div></div>","null","neg","CS","CS","2","category2/CS7.png","","","","",""
"","html-keyboard-response","13","169225","0.0-6.0-0.0-0.7","wlh1d24ack","many_one","0","indirect_first","0","el07in05","0","21","1","0","3","1","","0","1","0","null","","","<div class = 'row'><div class = 'column'><img src = 'category4/CS2.png' width = '70%;'></div><div class = 'column'><img src = 'uspos/2165.bmp' width = '100%;'></div></div>","null","pos","CS","CS","4","category4/CS2.png","","","","",""
"","html-keyboard-response","14","171755","0.0-6.0-0.0-0.8","wlh1d24ack","many_one","0","indirect_first","0","el07in05","0","21","1","0","3","1","","0","1","0","null","","","<div class = 'row'><div class = 'column'><img src = 'category4/CS6.png' width = '70%;'></div><div class = 'column'><img src = 'uspos/1460.bmp' width = '100%;'></div></div>","null","pos","CS","CS","4","category4/CS6.png","","","","",""
"","html-keyboard-response","15","174265","0.0-6.0-0.0-0.9","wlh1d24ack","many_one","0","indirect_first","0","el07in05","0","21","1","0","3","1","","0","1","0","null","","","<div class = 'row'><div class = 'column'><img src = 'uspos/7580.bmp' width = '100%;'></div><div class = 'column'><img src = 'category3/CS6.png' width = '70%;'></div></div>","null","pos","CS","CS","3","category3/CS6.png","","","","",""
"","html-keyboard-response","16","176795","0.0-6.0-0.0-0.10","wlh1d24ack","many_one","0","indirect_first","0","el07in05","0","21","1","0","3","1","","0","1","0","null","","","<div class = 'row'><div class = 'column'><img src = 'category3/CS3.png' width = '70%;'></div><div class = 'column'><img src = 'uspos/5760.bmp' width = '100%;'></div></div>","null","pos","CS","CS","3","category3/CS3.png","","","","",""
"","html-keyboard-response","17","179305","0.0-6.0-0.0-0.11","wlh1d24ack","many_one","0","indirect_first","0","el07in05","0","21","1","0","3","1","","0","1","0","null","","","<div class = 'row'><div class = 'column'><img src = 'uspos/5629.bmp' width = '100%;'></div><div class = 'column'><img src = 'category4/CS10.png' width = '70%;'></div></div>","null","pos","CS","CS","4","category4/CS10.png","","","","",""
"","html-keyboard-response","18","181825","0.0-6.0-0.0-0.12","wlh1d24ack","many_one","0","indirect_first","0","el07in05","0","21","1","0","3","1","","0","1","0","null","","","<div class = 'row'><div class = 'column'><img src = 'category2/CS10.png' width = '70%;'></div><div class = 'column'><img src = 'usneg/6212.bmp' width = '100%;'></div></div>","null","neg","CS","CS","2","category2/CS10.png","","","","",""
"","html-keyboard-response","19","184345","0.0-6.0-0.0-0.13","wlh1d24ack","many_one","0","indirect_first","0","el07in05","0","21","1","0","3","1","","0","1","0","null","","","<div class = 'row'><div class = 'column'><img src = 'category1/CS2.png' width = '70%;'></div><div class = 'column'><img src = 'usneg/6838.bmp' width = '100%;'></div></div>","null","neg","CS","CS","1","category1/CS2.png","","","","",""
"","html-keyboard-response","20","186875","0.0-6.0-0.0-0.14","wlh1d24ack","many_one","0","indirect_first","0","el07in05","0","21","1","0","3","1","","0","1","0","null","","","<div class = 'row'><div class = 'column'><img src = 'category1/CS9.png' width = '70%;'></div><div class = 'column'><img src = 'usneg/9330.bmp' width = '100%;'></div></div>","null","neg","CS","CS","1","category1/CS9.png","","","","",""
"","html-keyboard-response","21","189385","0.0-6.0-0.0-0.15","wlh1d24ack","many_one","0","indirect_first","0","el07in05","0","21","1","0","3","1","","0","1","0","null","","","<div class = 'row'><div class = 'column'><img src = 'category4/CS7.png' width = '70%;'></div><div class = 'column'><img src = 'uspos/2150.bmp' width = '100%;'></div></div>","null","pos","CS","CS","4","category4/CS7.png","","","","",""
"","html-keyboard-response","22","191925","0.0-6.0-0.0-0.16","wlh1d24ack","many_one","0","indirect_first","0","el07in05","0","21","1","0","3","1","","0","1","0","null","","","<div class = 'row'><div class = 'column'><img src = 'category4/CS4.png' width = '70%;'></div><div class = 'column'><img src = 'uspos/2311.bmp' width = '100%;'></div></div>","null","pos","CS","CS","4","category4/CS4.png","","","","",""
"","html-keyboard-response","23","194446","0.0-6.0-0.0-0.17","wlh1d24ack","many_one","0","indirect_first","0","el07in05","0","21","1","0","3","1","","0","1","0","null","","","<div class = 'row'><div class = 'column'><img src = 'uspos/5600.bmp' width = '100%;'></div><div class = 'column'><img src = 'category3/CS7.png' width = '70%;'></div></div>","null","pos","CS","CS","3","category3/CS7.png","","","","",""
"","html-keyboard-response","24","196985","0.0-6.0-0.0-0.18","wlh1d24ack","many_one","0","indirect_first","0","el07in05","0","21","1","0","3","1","","0","1","0","null","","","<div class = 'row'><div class = 'column'><img src = 'usneg/9220.bmp' width = '100%;'></div><div class = 'column'><img src = 'category1/CS8.png' width = '70%;'></div></div>","null","neg","CS","CS","1","category1/CS8.png","","","","",""
"","html-keyboard-response","25","199505","0.0-6.0-0.0-0.19","wlh1d24ack","many_one","0","indirect_first","0","el07in05","0","21","1","0","3","1","","0","1","0","null","","","<div class = 'row'><div class = 'column'><img src = 'category2/CS6.png' width = '70%;'></div><div class = 'column'><img src = 'usneg/9342.bmp' width = '100%;'></div></div>","null","neg","CS","CS","2","category2/CS6.png","","","","",""
"","survey-html-form","26","202860","0.0-6.0-1.0","wlh1d24ack","many_one","0","indirect_first","0","el07in05","0","21","1","0","3","1","","0","1","0","2844","","{}","","","","","","","","","","","",""
"","html-keyboard-response","27","206875","0.0-6.0-2.0-0.0","wlh1d24ack","many_one","0","indirect_first","0","el07in05","0","21","1","0","3","1","","0","1","0","null","","","<div class = 'row'><div class = 'column'><img src = 'category1/CS3.png' width = '70%;'></div><div class = 'column'><img src = 'usneg/2141.bmp' width = '100%;'></div></div>","null","neg","CS","CS","1","category1/CS3.png","","","","",""
"","html-keyboard-response","28","209395","0.0-6.0-2.0-0.1","wlh1d24ack","many_one","0","indirect_first","0","el07in05","0","21","1","0","3","1","","0","1","0","null","","","<div class = 'row'><div class = 'column'><img src = 'usneg/9520.bmp' width = '100%;'></div><div class = 'column'><img src = 'category2/CS1.png' width = '70%;'></div></div>","null","neg","CS","CS","2","category2/CS1.png","","","","",""
"","html-keyboard-response","29","211914","0.0-6.0-2.0-0.2","wlh1d24ack","many_one","0","indirect_first","0","el07in05","0","21","1","0","3","1","","0","1","0","null","","","<div class = 'row'><div class = 'column'><img src = 'uspos/1460.bmp' width = '100%;'></div><div class = 'column'><img src = 'category4/CS6.png' width = '70%;'></div></div>","null","pos","CS","CS","4","category4/CS6.png","","","","",""
"","html-keyboard-response","30","214446","0.0-6.0-2.0-0.3","wlh1d24ack","many_one","0","indirect_first","0","el07in05","0","21","1","0","3","1","","0","1","0","null","","","<div class = 'row'><div class = 'column'><img src = 'category3/CS3.png' width = '70%;'></div><div class = 'column'><img src = 'uspos/5760.bmp' width = '100%;'></div></div>","null","pos","CS","CS","3","category3/CS3.png","","","","",""
"","html-keyboard-response","31","216985","0.0-6.0-2.0-0.4","wlh1d24ack","many_one","0","indirect_first","0","el07in05","0","21","1","0","3","1","","0","1","0","null","","","<div class = 'row'><div class = 'column'><img src = 'usneg/9342.bmp' width = '100%;'></div><div class = 'column'><img src = 'category2/CS6.png' width = '70%;'></div></div>","null","neg","CS","CS","2","category2/CS6.png","","","","",""
"","html-keyboard-response","32","219515","0.0-6.0-2.0-0.5","wlh1d24ack","many_one","0","indirect_first","0","el07in05","0","21","1","0","3","1","","0","1","0","null","","","<div class = 'row'><div class = 'column'><img src = 'category4/CS4.png' width = '70%;'></div><div class = 'column'><img src = 'uspos/2311.bmp' width = '100%;'></div></div>","null","pos","CS","CS","4","category4/CS4.png","","","","",""
"","html-keyboard-response","33","222044","0.0-6.0-2.0-0.6","wlh1d24ack","many_one","0","indirect_first","0","el07in05","0","21","1","0","3","1","","0","1","0","null","","","<div class = 'row'><div class = 'column'><img src = 'category1/CS8.png' width = '70%;'></div><div class = 'column'><img src = 'usneg/9220.bmp' width = '100%;'></div></div>","null","neg","CS","CS","1","category1/CS8.png","","","","",""
"","html-keyboard-response","34","224576","0.0-6.0-2.0-0.7","wlh1d24ack","many_one","0","indirect_first","0","el07in05","0","21","1","0","3","1","","0","1","0","null","","","<div class = 'row'><div class = 'column'><img src = 'category3/CS6.png' width = '70%;'></div><div class = 'column'><img src = 'uspos/7580.bmp' width = '100%;'></div></div>","null","pos","CS","CS","3","category3/CS6.png","","","","",""
"","html-keyboard-response","35","227113","0.0-6.0-2.0-0.8","wlh1d24ack","many_one","0","indirect_first","0","el07in05","0","21","1","0","3","1","","0","1","0","null","","","<div class = 'row'><div class = 'column'><img src = 'category4/CS10.png' width = '70%;'></div><div class = 'column'><img src = 'uspos/5629.bmp' width = '100%;'></div></div>","null","pos","CS","CS","4","category4/CS10.png","","","","",""
"","html-keyboard-response","36","229635","0.0-6.0-2.0-0.9","wlh1d24ack","many_one","0","indirect_first","0","el07in05","0","21","1","0","3","1","","0","1","0","null","","","<div class = 'row'><div class = 'column'><img src = 'uspos/2160.bmp' width = '100%;'></div><div class = 'column'><img src = 'category3/CS10.png' width = '70%;'></div></div>","null","pos","CS","CS","3","category3/CS10.png","","","","",""
"","html-keyboard-response","37","232175","0.0-6.0-2.0-0.10","wlh1d24ack","many_one","0","indirect_first","0","el07in05","0","21","1","0","3","1","","0","1","0","null","","","<div class = 'row'><div class = 'column'><img src = 'uspos/5600.bmp' width = '100%;'></div><div class = 'column'><img src = 'category3/CS7.png' width = '70%;'></div></div>","null","pos","CS","CS","3","category3/CS7.png","","","","",""
"","html-keyboard-response","38","234705","0.0-6.0-2.0-0.11","wlh1d24ack","many_one","0","indirect_first","0","el07in05","0","21","1","0","3","1","","0","1","0","null","","","<div class = 'row'><div class = 'column'><img src = 'usneg/9330.bmp' width = '100%;'></div><div class = 'column'><img src = 'category1/CS9.png' width = '70%;'></div></div>","null","neg","CS","CS","1","category1/CS9.png","","","","",""
"","html-keyboard-response","39","237224","0.0-6.0-2.0-0.12","wlh1d24ack","many_one","0","indirect_first","0","el07in05","0","21","1","0","3","1","","0","1","0","null","","","<div class = 'row'><div class = 'column'><img src = 'usneg/6838.bmp' width = '100%;'></div><div class = 'column'><img src = 'category1/CS2.png' width = '70%;'></div></div>","null","neg","CS","CS","1","category1/CS2.png","","","","",""
"","html-keyboard-response","40","239755","0.0-6.0-2.0-0.13","wlh1d24ack","many_one","0","indirect_first","0","el07in05","0","21","1","0","3","1","","0","1","0","null","","","<div class = 'row'><div class = 'column'><img src = 'usneg/9340.bmp' width = '100%;'></div><div class = 'column'><img src = 'category2/CS7.png' width = '70%;'></div></div>","null","neg","CS","CS","2","category2/CS7.png","","","","",""
"","html-keyboard-response","41","242284","0.0-6.0-2.0-0.14","wlh1d24ack","many_one","0","indirect_first","0","el07in05","0","21","1","0","3","1","","0","1","0","null","","","<div class = 'row'><div class = 'column'><img src = 'usneg/2900.bmp' width = '100%;'></div><div class = 'column'><img src = 'category1/CS4.png' width = '70%;'></div></div>","null","neg","CS","CS","1","category1/CS4.png","","","","",""
"","html-keyboard-response","42","244787","0.0-6.0-2.0-0.15","wlh1d24ack","many_one","0","indirect_first","0","el07in05","0","21","1","0","3","1","","0","1","0","null","","","<div class = 'row'><div class = 'column'><img src = 'category4/CS7.png' width = '70%;'></div><div class = 'column'><img src = 'uspos/2150.bmp' width = '100%;'></div></div>","null","pos","CS","CS","4","category4/CS7.png","","","","",""
"","html-keyboard-response","43","247315","0.0-6.0-2.0-0.16","wlh1d24ack","many_one","0","indirect_first","0","el07in05","0","21","1","0","3","1","","0","1","0","null","","","<div class = 'row'><div class = 'column'><img src = 'usneg/9180.bmp' width = '100%;'></div><div class = 'column'><img src = 'category2/CS2.png' width = '70%;'></div></div>","null","neg","CS","CS","2","category2/CS2.png","","","","",""
"","html-keyboard-response","44","249844","0.0-6.0-2.0-0.17","wlh1d24ack","many_one","0","indirect_first","0","el07in05","0","21","1","0","3","1","","0","1","0","null","","","<div class = 'row'><div class = 'column'><img src = 'category2/CS10.png' width = '70%;'></div><div class = 'column'><img src = 'usneg/6212.bmp' width = '100%;'></div></div>","null","neg","CS","CS","2","category2/CS10.png","","","","",""
"","html-keyboard-response","45","252375","0.0-6.0-2.0-0.18","wlh1d24ack","many_one","0","indirect_first","0","el07in05","0","21","1","0","3","1","","0","1","0","null","","","<div class = 'row'><div class = 'column'><img src = 'category4/CS2.png' width = '70%;'></div><div class = 'column'><img src = 'uspos/2165.bmp' width = '100%;'></div></div>","null","pos","CS","CS","4","category4/CS2.png","","","","",""
"","html-keyboard-response","46","254915","0.0-6.0-2.0-0.19","wlh1d24ack","many_one","0","indirect_first","0","el07in05","0","21","1","0","3","1","","0","1","0","null","","","<div class = 'row'><div class = 'column'><img src = 'uspos/7325.bmp' width = '100%;'></div><div class = 'column'><img src = 'category3/CS5.png' width = '70%;'></div></div>","null","pos","CS","CS","3","category3/CS5.png","","","","",""
"","survey-html-form","47","281111","0.0-6.0-3.0","wlh1d24ack","many_one","0","indirect_first","0","el07in05","0","21","1","0","3","1","","0","1","0","25675","","{}","","","","","","","","","","","",""
"","html-keyboard-response","48","285135","0.0-6.0-4.0-0.0","wlh1d24ack","many_one","0","indirect_first","0","el07in05","0","21","1","0","3","1","","0","1","0","null","","","<div class = 'row'><div class = 'column'><img src = 'category3/CS7.png' width = '70%;'></div><div class = 'column'><img src = 'uspos/5600.bmp' width = '100%;'></div></div>","null","pos","CS","CS","3","category3/CS7.png","","","","",""
"","html-keyboard-response","49","287675","0.0-6.0-4.0-0.1","wlh1d24ack","many_one","0","indirect_first","0","el07in05","0","21","1","0","3","1","","0","1","0","null","","","<div class = 'row'><div class = 'column'><img src = 'category4/CS4.png' width = '70%;'></div><div class = 'column'><img src = 'uspos/2311.bmp' width = '100%;'></div></div>","null","pos","CS","CS","4","category4/CS4.png","","","","",""
"","html-keyboard-response","50","290187","0.0-6.0-4.0-0.2","wlh1d24ack","many_one","0","indirect_first","0","el07in05","0","21","1","0","3","1","","0","1","0","null","","","<div class = 'row'><div class = 'column'><img src = 'category3/CS6.png' width = '70%;'></div><div class = 'column'><img src = 'uspos/7580.bmp' width = '100%;'></div></div>","null","pos","CS","CS","3","category3/CS6.png","","","","",""
"","html-keyboard-response","51","292716","0.0-6.0-4.0-0.3","wlh1d24ack","many_one","0","indirect_first","0","el07in05","0","21","1","0","3","1","","0","1","0","null","","","<div class = 'row'><div class = 'column'><img src = 'usneg/2141.bmp' width = '100%;'></div><div class = 'column'><img src = 'category1/CS3.png' width = '70%;'></div></div>","null","neg","CS","CS","1","category1/CS3.png","","","","",""
"","html-keyboard-response","52","295244","0.0-6.0-4.0-0.4","wlh1d24ack","many_one","0","indirect_first","0","el07in05","0","21","1","0","3","1","","0","1","0","null","","","<div class = 'row'><div class = 'column'><img src = 'category4/CS6.png' width = '70%;'></div><div class = 'column'><img src = 'uspos/1460.bmp' width = '100%;'></div></div>","null","pos","CS","CS","4","category4/CS6.png","","","","",""
"","html-keyboard-response","53","297764","0.0-6.0-4.0-0.5","wlh1d24ack","many_one","0","indirect_first","0","el07in05","0","21","1","0","3","1","","0","1","0","null","","","<div class = 'row'><div class = 'column'><img src = 'category3/CS10.png' width = '70%;'></div><div class = 'column'><img src = 'uspos/2160.bmp' width = '100%;'></div></div>","null","pos","CS","CS","3","category3/CS10.png","","","","",""
"","html-keyboard-response","54","300294","0.0-6.0-4.0-0.6","wlh1d24ack","many_one","0","indirect_first","0","el07in05","0","21","1","0","3","1","","0","1","0","null","","","<div class = 'row'><div class = 'column'><img src = 'category2/CS7.png' width = '70%;'></div><div class = 'column'><img src = 'usneg/9340.bmp' width = '100%;'></div></div>","null","neg","CS","CS","2","category2/CS7.png","","","","",""
"","html-keyboard-response","55","302815","0.0-6.0-4.0-0.7","wlh1d24ack","many_one","0","indirect_first","0","el07in05","0","21","1","0","3","1","","0","1","0","null","","","<div class = 'row'><div class = 'column'><img src = 'category1/CS9.png' width = '70%;'></div><div class = 'column'><img src = 'usneg/9330.bmp' width = '100%;'></div></div>","null","neg","CS","CS","1","category1/CS9.png","","","","",""
"","html-keyboard-response","56","305345","0.0-6.0-4.0-0.8","wlh1d24ack","many_one","0","indirect_first","0","el07in05","0","21","1","0","3","1","","0","1","0","null","","","<div class = 'row'><div class = 'column'><img src = 'category4/CS7.png' width = '70%;'></div><div class = 'column'><img src = 'uspos/2150.bmp' width = '100%;'></div></div>","null","pos","CS","CS","4","category4/CS7.png","","","","",""
"","html-keyboard-response","57","307865","0.0-6.0-4.0-0.9","wlh1d24ack","many_one","0","indirect_first","0","el07in05","0","21","1","0","3","1","","0","1","0","null","","","<div class = 'row'><div class = 'column'><img src = 'usneg/6838.bmp' width = '100%;'></div><div class = 'column'><img src = 'category1/CS2.png' width = '70%;'></div></div>","null","neg","CS","CS","1","category1/CS2.png","","","","",""
"","html-keyboard-response","58","310394","0.0-6.0-4.0-0.10","wlh1d24ack","many_one","0","indirect_first","0","el07in05","0","21","1","0","3","1","","0","1","0","null","","","<div class = 'row'><div class = 'column'><img src = 'category3/CS5.png' width = '70%;'></div><div class = 'column'><img src = 'uspos/7325.bmp' width = '100%;'></div></div>","null","pos","CS","CS","3","category3/CS5.png","","","","",""
"","html-keyboard-response","59","312925","0.0-6.0-4.0-0.11","wlh1d24ack","many_one","0","indirect_first","0","el07in05","0","21","1","0","3","1","","0","1","0","null","","","<div class = 'row'><div class = 'column'><img src = 'usneg/9220.bmp' width = '100%;'></div><div class = 'column'><img src = 'category1/CS8.png' width = '70%;'></div></div>","null","neg","CS","CS","1","category1/CS8.png","","","","",""
"","html-keyboard-response","60","315466","0.0-6.0-4.0-0.12","wlh1d24ack","many_one","0","indirect_first","0","el07in05","0","21","1","0","3","1","","0","1","0","null","","","<div class = 'row'><div class = 'column'><img src = 'usneg/9520.bmp' width = '100%;'></div><div class = 'column'><img src = 'category2/CS1.png' width = '70%;'></div></div>","null","neg","CS","CS","2","category2/CS1.png","","","","",""
"","html-keyboard-response","61","317995","0.0-6.0-4.0-0.13","wlh1d24ack","many_one","0","indirect_first","0","el07in05","0","21","1","0","3","1","","0","1","0","null","","","<div class = 'row'><div class = 'column'><img src = 'category4/CS10.png' width = '70%;'></div><div class = 'column'><img src = 'uspos/5629.bmp' width = '100%;'></div></div>","null","pos","CS","CS","4","category4/CS10.png","","","","",""
"","html-keyboard-response","62","320525","0.0-6.0-4.0-0.14","wlh1d24ack","many_one","0","indirect_first","0","el07in05","0","21","1","0","3","1","","0","1","0","null","","","<div class = 'row'><div class = 'column'><img src = 'category1/CS4.png' width = '70%;'></div><div class = 'column'><img src = 'usneg/2900.bmp' width = '100%;'></div></div>","null","neg","CS","CS","1","category1/CS4.png","","","","",""
"","html-keyboard-response","63","323055","0.0-6.0-4.0-0.15","wlh1d24ack","many_one","0","indirect_first","0","el07in05","0","21","1","0","3","1","","0","1","0","null","","","<div class = 'row'><div class = 'column'><img src = 'usneg/9180.bmp' width = '100%;'></div><div class = 'column'><img src = 'category2/CS2.png' width = '70%;'></div></div>","null","neg","CS","CS","2","category2/CS2.png","","","","",""
"","html-keyboard-response","64","325576","0.0-6.0-4.0-0.16","wlh1d24ack","many_one","0","indirect_first","0","el07in05","0","21","1","0","3","1","","0","1","0","null","","","<div class = 'row'><div class = 'column'><img src = 'category2/CS10.png' width = '70%;'></div><div class = 'column'><img src = 'usneg/6212.bmp' width = '100%;'></div></div>","null","neg","CS","CS","2","category2/CS10.png","","","","",""
"","html-keyboard-response","65","328104","0.0-6.0-4.0-0.17","wlh1d24ack","many_one","0","indirect_first","0","el07in05","0","21","1","0","3","1","","0","1","0","null","","","<div class = 'row'><div class = 'column'><img src = 'category4/CS2.png' width = '70%;'></div><div class = 'column'><img src = 'uspos/2165.bmp' width = '100%;'></div></div>","null","pos","CS","CS","4","category4/CS2.png","","","","",""
"","html-keyboard-response","66","330626","0.0-6.0-4.0-0.18","wlh1d24ack","many_one","0","indirect_first","0","el07in05","0","21","1","0","3","1","","0","1","0","null","","","<div class = 'row'><div class = 'column'><img src = 'usneg/9342.bmp' width = '100%;'></div><div class = 'column'><img src = 'category2/CS6.png' width = '70%;'></div></div>","null","neg","CS","CS","2","category2/CS6.png","","","","",""
"","html-keyboard-response","67","333166","0.0-6.0-4.0-0.19","wlh1d24ack","many_one","0","indirect_first","0","el07in05","0","21","1","0","3","1","","0","1","0","null","","","<div class = 'row'><div class = 'column'><img src = 'uspos/5760.bmp' width = '100%;'></div><div class = 'column'><img src = 'category3/CS3.png' width = '70%;'></div></div>","null","pos","CS","CS","3","category3/CS3.png","","","","",""
"","survey-html-form","68","352980","0.0-6.0-5.0","wlh1d24ack","many_one","0","indirect_first","0","el07in05","0","21","1","0","3","1","","0","1","0","19304","","{}","","","","","","","","","","","",""
"","html-keyboard-response","69","357015","0.0-6.0-6.0-0.0","wlh1d24ack","many_one","0","indirect_first","0","el07in05","0","21","1","0","3","1","","0","1","0","null","","","<div class = 'row'><div class = 'column'><img src = 'category4/CS4.png' width = '70%;'></div><div class = 'column'><img src = 'uspos/2311.bmp' width = '100%;'></div></div>","null","pos","CS","CS","4","category4/CS4.png","","","","",""
"","html-keyboard-response","70","359545","0.0-6.0-6.0-0.1","wlh1d24ack","many_one","0","indirect_first","0","el07in05","0","21","1","0","3","1","","0","1","0","null","","","<div class = 'row'><div class = 'column'><img src = 'category1/CS8.png' width = '70%;'></div><div class = 'column'><img src = 'usneg/9220.bmp' width = '100%;'></div></div>","null","neg","CS","CS","1","category1/CS8.png","","","","",""
"","html-keyboard-response","71","362075","0.0-6.0-6.0-0.2","wlh1d24ack","many_one","0","indirect_first","0","el07in05","0","21","1","0","3","1","","0","1","0","null","","","<div class = 'row'><div class = 'column'><img src = 'category1/CS3.png' width = '70%;'></div><div class = 'column'><img src = 'usneg/2141.bmp' width = '100%;'></div></div>","null","neg","CS","CS","1","category1/CS3.png","","","","",""
"","html-keyboard-response","72","364596","0.0-6.0-6.0-0.3","wlh1d24ack","many_one","0","indirect_first","0","el07in05","0","21","1","0","3","1","","0","1","0","null","","","<div class = 'row'><div class = 'column'><img src = 'category2/CS10.png' width = '70%;'></div><div class = 'column'><img src = 'usneg/6212.bmp' width = '100%;'></div></div>","null","neg","CS","CS","2","category2/CS10.png","","","","",""
"","html-keyboard-response","73","367136","0.0-6.0-6.0-0.4","wlh1d24ack","many_one","0","indirect_first","0","el07in05","0","21","1","0","3","1","","0","1","0","null","","","<div class = 'row'><div class = 'column'><img src = 'category2/CS1.png' width = '70%;'></div><div class = 'column'><img src = 'usneg/9520.bmp' width = '100%;'></div></div>","null","neg","CS","CS","2","category2/CS1.png","","","","",""
"","html-keyboard-response","74","369675","0.0-6.0-6.0-0.5","wlh1d24ack","many_one","0","indirect_first","0","el07in05","0","21","1","0","3","1","","0","1","0","null","","","<div class = 'row'><div class = 'column'><img src = 'usneg/9330.bmp' width = '100%;'></div><div class = 'column'><img src = 'category1/CS9.png' width = '70%;'></div></div>","null","neg","CS","CS","1","category1/CS9.png","","","","",""
"","html-keyboard-response","75","372216","0.0-6.0-6.0-0.6","wlh1d24ack","many_one","0","indirect_first","0","el07in05","0","21","1","0","3","1","","0","1","0","null","","","<div class = 'row'><div class = 'column'><img src = 'category3/CS7.png' width = '70%;'></div><div class = 'column'><img src = 'uspos/5600.bmp' width = '100%;'></div></div>","null","pos","CS","CS","3","category3/CS7.png","","","","",""
"","html-keyboard-response","76","374725","0.0-6.0-6.0-0.7","wlh1d24ack","many_one","0","indirect_first","0","el07in05","0","21","1","0","3","1","","0","1","0","null","","","<div class = 'row'><div class = 'column'><img src = 'uspos/2160.bmp' width = '100%;'></div><div class = 'column'><img src = 'category3/CS10.png' width = '70%;'></div></div>","null","pos","CS","CS","3","category3/CS10.png","","","","",""
"","html-keyboard-response","77","377255","0.0-6.0-6.0-0.8","wlh1d24ack","many_one","0","indirect_first","0","el07in05","0","21","1","0","3","1","","0","1","0","null","","","<div class = 'row'><div class = 'column'><img src = 'usneg/9342.bmp' width = '100%;'></div><div class = 'column'><img src = 'category2/CS6.png' width = '70%;'></div></div>","null","neg","CS","CS","2","category2/CS6.png","","","","",""
"","html-keyboard-response","78","379779","0.0-6.0-6.0-0.9","wlh1d24ack","many_one","0","indirect_first","0","el07in05","0","21","1","0","3","1","","0","1","0","null","","","<div class = 'row'><div class = 'column'><img src = 'usneg/9180.bmp' width = '100%;'></div><div class = 'column'><img src = 'category2/CS2.png' width = '70%;'></div></div>","null","neg","CS","CS","2","category2/CS2.png","","","","",""
"","html-keyboard-response","79","382305","0.0-6.0-6.0-0.10","wlh1d24ack","many_one","0","indirect_first","0","el07in05","0","21","1","0","3","1","","0","1","0","null","","","<div class = 'row'><div class = 'column'><img src = 'uspos/2165.bmp' width = '100%;'></div><div class = 'column'><img src = 'category4/CS2.png' width = '70%;'></div></div>","null","pos","CS","CS","4","category4/CS2.png","","","","",""
"","html-keyboard-response","80","384834","0.0-6.0-6.0-0.11","wlh1d24ack","many_one","0","indirect_first","0","el07in05","0","21","1","0","3","1","","0","1","0","null","","","<div class = 'row'><div class = 'column'><img src = 'uspos/5760.bmp' width = '100%;'></div><div class = 'column'><img src = 'category3/CS3.png' width = '70%;'></div></div>","null","pos","CS","CS","3","category3/CS3.png","","","","",""
"","html-keyboard-response","81","387366","0.0-6.0-6.0-0.12","wlh1d24ack","many_one","0","indirect_first","0","el07in05","0","21","1","0","3","1","","0","1","0","null","","","<div class = 'row'><div class = 'column'><img src = 'category2/CS7.png' width = '70%;'></div><div class = 'column'><img src = 'usneg/9340.bmp' width = '100%;'></div></div>","null","neg","CS","CS","2","category2/CS7.png","","","","",""
"","html-keyboard-response","82","389885","0.0-6.0-6.0-0.13","wlh1d24ack","many_one","0","indirect_first","0","el07in05","0","21","1","0","3","1","","0","1","0","null","","","<div class = 'row'><div class = 'column'><img src = 'category4/CS6.png' width = '70%;'></div><div class = 'column'><img src = 'uspos/1460.bmp' width = '100%;'></div></div>","null","pos","CS","CS","4","category4/CS6.png","","","","",""
"","html-keyboard-response","83","392415","0.0-6.0-6.0-0.14","wlh1d24ack","many_one","0","indirect_first","0","el07in05","0","21","1","0","3","1","","0","1","0","null","","","<div class = 'row'><div class = 'column'><img src = 'uspos/7580.bmp' width = '100%;'></div><div class = 'column'><img src = 'category3/CS6.png' width = '70%;'></div></div>","null","pos","CS","CS","3","category3/CS6.png","","","","",""
"","html-keyboard-response","84","394946","0.0-6.0-6.0-0.15","wlh1d24ack","many_one","0","indirect_first","0","el07in05","0","21","1","0","3","1","","0","1","0","null","","","<div class = 'row'><div class = 'column'><img src = 'category4/CS10.png' width = '70%;'></div><div class = 'column'><img src = 'uspos/5629.bmp' width = '100%;'></div></div>","null","pos","CS","CS","4","category4/CS10.png","","","","",""
"","html-keyboard-response","85","397475","0.0-6.0-6.0-0.16","wlh1d24ack","many_one","0","indirect_first","0","el07in05","0","21","1","0","3","1","","0","1","0","null","","","<div class = 'row'><div class = 'column'><img src = 'category3/CS5.png' width = '70%;'></div><div class = 'column'><img src = 'uspos/7325.bmp' width = '100%;'></div></div>","null","pos","CS","CS","3","category3/CS5.png","","","","",""
"","html-keyboard-response","86","400004","0.0-6.0-6.0-0.17","wlh1d24ack","many_one","0","indirect_first","0","el07in05","0","21","1","0","3","1","","0","1","0","null","","","<div class = 'row'><div class = 'column'><img src = 'category1/CS4.png' width = '70%;'></div><div class = 'column'><img src = 'usneg/2900.bmp' width = '100%;'></div></div>","null","neg","CS","CS","1","category1/CS4.png","","","","",""
"","html-keyboard-response","87","402535","0.0-6.0-6.0-0.18","wlh1d24ack","many_one","0","indirect_first","0","el07in05","0","21","1","0","3","1","","0","1","0","null","","","<div class = 'row'><div class = 'column'><img src = 'category1/CS2.png' width = '70%;'></div><div class = 'column'><img src = 'usneg/6838.bmp' width = '100%;'></div></div>","null","neg","CS","CS","1","category1/CS2.png","","","","",""
"","html-keyboard-response","88","405075","0.0-6.0-6.0-0.19","wlh1d24ack","many_one","0","indirect_first","0","el07in05","0","21","1","0","3","1","","0","1","0","null","","","<div class = 'row'><div class = 'column'><img src = 'category4/CS7.png' width = '70%;'></div><div class = 'column'><img src = 'uspos/2150.bmp' width = '100%;'></div></div>","null","pos","CS","CS","4","category4/CS7.png","","","","",""
"","html-keyboard-response","89","432853","0.0-7.0","wlh1d24ack","many_one","0","indirect_first","0","el07in05","0","21","1","0","3","1","","0","1","0","27265","","","<p>Sie sehen nun die chinesischen Zeichen nur ganz kurz. Danach sehen Sie die jeweilige Aussprache der Zeichen als Silbe auf dem Bildschrim. Ihre Aufgabe ist es, für jede Silbe anzugeben, ob diese etwas angenehmes, oder unangenehmes bedeuten könnte. Verlassen Sie sich hier vor allem auf Ihre Intuition.<br><br>Die Zeichen werden nur zur Orientierung dargestellt, beachten Sie sie deshalb nicht. Konzentrieren Sie sich vor allem auf die Silben. <br>Reagieren Sie mit folgenden zwei Tasten: <br><br><b>'D' </b> wenn die Silbe etwas <b>unangenehmes</b> bedeuten könnte. <br><b>'K'</b> wenn die Silbe etwas <b>angenehmes</b> bedeuten könnte. <br><br>Bitte legen Sie nun den Zeigefinger der linken Hand auf die Taste 'D' und den Zeigefinger der rechten Hand auf die Taste 'K'. <br>Reagieren Sie auf jede Silbe so schnell wie möglich. Uns interessiert Ihre spontane Reaktion. <br> <br> <br>Drücken Sie 'D' oder 'K', um die nächste Aufgabe zu starten. </p>","68","","","","","","","","","",""
"","html-keyboard-response","90","435885","0.0-8.0-0.0","wlh1d24ack","many_one","0","indirect_first","0","el07in05","0","21","1","0","3","1","","0","1","0","null","","","<div style=""font-size:60px;"">+</div>","null","","","","","","","","","",""
"","html-keyboard-response","91","435992","0.0-8.0-1.0","wlh1d24ack","many_one","0","indirect_first","0","el07in05","0","21","1","0","3","1","","0","1","0","null","","","<img src = 'category1/CS8.png' width = '100%;'>","null","","","","","","","","","",""
"","html-keyboard-response","92","436258","0.0-8.0-2.0","wlh1d24ack","many_one","0","indirect_first","0","el07in05","0","21","1","0","3","1","","0","1","0","null","","","<img src = 'targets/20.png' width = '100%;'>","null","","","","","","","","","",""
"","html-keyboard-response","93","437992","0.0-8.0-3.0","wlh1d24ack","many_one","0","indirect_first","0","el07in05","0","21","1","0","3","1","","0","1","0","1732","","","<img src = 'targets/mask.png' width = '100%;'>","75","neg","CS","CS","1","category1/CS8.png","targets/20.png","1","indirect","0",""
"","html-keyboard-response","94","439524","0.0-8.0-0.1","wlh1d24ack","many_one","0","indirect_first","0","el07in05","0","21","1","0","3","1","","0","1","0","null","","","<div style=""font-size:60px;"">+</div>","null","","","","","","","","","",""
"","html-keyboard-response","95","439632","0.0-8.0-1.1","wlh1d24ack","many_one","0","indirect_first","0","el07in05","0","21","1","0","3","1","","0","1","0","null","","","<img src = 'category3/CS6.png' width = '100%;'>","null","","","","","","","","","",""
"","html-keyboard-response","96","439898","0.0-8.0-2.1","wlh1d24ack","many_one","0","indirect_first","0","el07in05","0","21","1","0","3","1","","0","1","0","null","","","<img src = 'targets/12.png' width = '100%;'>","null","","","","","","","","","",""
"","html-keyboard-response","97","441113","0.0-8.0-3.1","wlh1d24ack","many_one","0","indirect_first","0","el07in05","0","21","1","0","3","1","","0","1","0","1212","","","<img src = 'targets/mask.png' width = '100%;'>","68","pos","CS","CS","3","category3/CS6.png","targets/12.png","0","indirect","1",""
"","html-keyboard-response","98","442634","0.0-8.0-0.2","wlh1d24ack","many_one","0","indirect_first","0","el07in05","0","21","1","0","3","1","","0","1","0","null","","","<div style=""font-size:60px;"">+</div>","null","","","","","","","","","",""
"","html-keyboard-response","99","442742","0.0-8.0-1.2","wlh1d24ack","many_one","0","indirect_first","0","el07in05","0","21","1","0","3","1","","0","1","0","null","","","<img src = 'category3/CS7.png' width = '100%;'>","null","","","","","","","","","",""
"","html-keyboard-response","100","443008","0.0-8.0-2.2","wlh1d24ack","many_one","0","indirect_first","0","el07in05","0","21","1","0","3","1","","0","1","0","null","","","<img src = 'targets/2.png' width = '100%;'>","null","","","","","","","","","",""
"","html-keyboard-response","101","444202","0.0-8.0-3.2","wlh1d24ack","many_one","0","indirect_first","0","el07in05","0","21","1","0","3","1","","0","1","0","1192","","","<img src = 'targets/mask.png' width = '100%;'>","68","pos","CS","CS","3","category3/CS7.png","targets/2.png","0","indirect","2",""
"","html-keyboard-response","102","445724","0.0-8.0-0.3","wlh1d24ack","many_one","0","indirect_first","0","el07in05","0","21","1","0","3","1","","0","1","0","null","","","<div style=""font-size:60px;"">+</div>","null","","","","","","","","","",""
"","html-keyboard-response","103","445832","0.0-8.0-1.3","wlh1d24ack","many_one","0","indirect_first","0","el07in05","0","21","1","0","3","1","","0","1","0","null","","","<img src = 'category4/CS10.png' width = '100%;'>","null","","","","","","","","","",""
"","html-keyboard-response","104","446099","0.0-8.0-2.3","wlh1d24ack","many_one","0","indirect_first","0","el07in05","0","21","1","0","3","1","","0","1","0","null","","","<img src = 'targets/45.png' width = '100%;'>","null","","","","","","","","","",""
"","html-keyboard-response","105","447152","0.0-8.0-3.3","wlh1d24ack","many_one","0","indirect_first","0","el07in05","0","21","1","0","3","1","","0","1","0","1052","","","<img src = 'targets/mask.png' width = '100%;'>","68","pos","CS","CS","4","category4/CS10.png","targets/45.png","0","indirect","3",""
"","html-keyboard-response","106","448664","0.0-8.0-0.4","wlh1d24ack","many_one","0","indirect_first","0","el07in05","0","21","1","0","3","1","","0","1","0","null","","","<div style=""font-size:60px;"">+</div>","null","","","","","","","","","",""
"","html-keyboard-response","107","448772","0.0-8.0-1.4","wlh1d24ack","many_one","0","indirect_first","0","el07in05","0","21","1","0","3","1","","0","1","0","null","","","<img src = 'category1/CS9.png' width = '100%;'>","null","","","","","","","","","",""
"","html-keyboard-response","108","449039","0.0-8.0-2.4","wlh1d24ack","many_one","0","indirect_first","0","el07in05","0","21","1","0","3","1","","0","1","0","null","","","<img src = 'targets/48.png' width = '100%;'>","null","","","","","","","","","",""
"","html-keyboard-response","109","451242","0.0-8.0-3.4","wlh1d24ack","many_one","0","indirect_first","0","el07in05","0","21","1","0","3","1","","0","1","0","2201","","","<img src = 'targets/mask.png' width = '100%;'>","75","neg","CS","CS","1","category1/CS9.png","targets/48.png","1","indirect","4",""
"","html-keyboard-response","110","452765","0.0-8.0-0.5","wlh1d24ack","many_one","0","indirect_first","0","el07in05","0","21","1","0","3","1","","0","1","0","null","","","<div style=""font-size:60px;"">+</div>","null","","","","","","","","","",""
"","html-keyboard-response","111","452872","0.0-8.0-1.5","wlh1d24ack","many_one","0","indirect_first","0","el07in05","0","21","1","0","3","1","","0","1","0","null","","","<img src = 'category4/CS7.png' width = '100%;'>","null","","","","","","","","","",""
"","html-keyboard-response","112","453139","0.0-8.0-2.5","wlh1d24ack","many_one","0","indirect_first","0","el07in05","0","21","1","0","3","1","","0","1","0","null","","","<img src = 'targets/34.png' width = '100%;'>","null","","","","","","","","","",""
"","html-keyboard-response","113","454282","0.0-8.0-3.5","wlh1d24ack","many_one","0","indirect_first","0","el07in05","0","21","1","0","3","1","","0","1","0","1142","","","<img src = 'targets/mask.png' width = '100%;'>","75","pos","CS","CS","4","category4/CS7.png","targets/34.png","1","indirect","5",""
"","html-keyboard-response","114","455804","0.0-8.0-0.6","wlh1d24ack","many_one","0","indirect_first","0","el07in05","0","21","1","0","3","1","","0","1","0","null","","","<div style=""font-size:60px;"">+</div>","null","","","","","","","","","",""
"","html-keyboard-response","115","455912","0.0-8.0-1.6","wlh1d24ack","many_one","0","indirect_first","0","el07in05","0","21","1","0","3","1","","0","1","0","null","","","<img src = 'category1/CS2.png' width = '100%;'>","null","","","","","","","","","",""
"","html-keyboard-response","116","456177","0.0-8.0-2.6","wlh1d24ack","many_one","0","indirect_first","0","el07in05","0","21","1","0","3","1","","0","1","0","null","","","<img src = 'targets/11.png' width = '100%;'>","null","","","","","","","","","",""
"","html-keyboard-response","117","457031","0.0-8.0-3.6","wlh1d24ack","many_one","0","indirect_first","0","el07in05","0","21","1","0","3","1","","0","1","0","852","","","<img src = 'targets/mask.png' width = '100%;'>","68","neg","CS","CS","1","category1/CS2.png","targets/11.png","0","indirect","6",""
"","html-keyboard-response","118","458554","0.0-8.0-0.7","wlh1d24ack","many_one","0","indirect_first","0","el07in05","0","21","1","0","3","1","","0","1","0","null","","","<div style=""font-size:60px;"">+</div>","null","","","","","","","","","",""
"","html-keyboard-response","119","458662","0.0-8.0-1.7","wlh1d24ack","many_one","0","indirect_first","0","el07in05","0","21","1","0","3","1","","0","1","0","null","","","<img src = 'category3/CS5.png' width = '100%;'>","null","","","","","","","","","",""
"","html-keyboard-response","120","458929","0.0-8.0-2.7","wlh1d24ack","many_one","0","indirect_first","0","el07in05","0","21","1","0","3","1","","0","1","0","null","","","<img src = 'targets/10.png' width = '100%;'>","null","","","","","","","","","",""
"","html-keyboard-response","121","461462","0.0-8.0-3.7","wlh1d24ack","many_one","0","indirect_first","0","el07in05","0","21","1","0","3","1","","0","1","0","2532","","","<img src = 'targets/mask.png' width = '100%;'>","68","pos","CS","CS","3","category3/CS5.png","targets/10.png","0","indirect","7",""
"","html-keyboard-response","122","462985","0.0-8.0-0.8","wlh1d24ack","many_one","0","indirect_first","0","el07in05","0","21","1","0","3","1","","0","1","0","null","","","<div style=""font-size:60px;"">+</div>","null","","","","","","","","","",""
"","html-keyboard-response","123","463092","0.0-8.0-1.8","wlh1d24ack","many_one","0","indirect_first","0","el07in05","0","21","1","0","3","1","","0","1","0","null","","","<img src = 'category2/CS9.png' width = '100%;'>","null","","","","","","","","","",""
"","html-keyboard-response","124","463355","0.0-8.0-2.8","wlh1d24ack","many_one","0","indirect_first","0","el07in05","0","21","1","0","3","1","","0","1","0","null","","","<img src = 'targets/30.png' width = '100%;'>","null","","","","","","","","","",""
"","html-keyboard-response","125","464343","0.0-8.0-3.8","wlh1d24ack","many_one","0","indirect_first","0","el07in05","0","21","1","0","3","1","","0","1","0","985","","","<img src = 'targets/mask.png' width = '100%;'>","75","neg","GS","GSold","2","category2/CS9.png","targets/30.png","1","indirect","8",""
"","html-keyboard-response","126","465875","0.0-8.0-0.9","wlh1d24ack","many_one","0","indirect_first","0","el07in05","0","21","1","0","3","1","","0","1","0","null","","","<div style=""font-size:60px;"">+</div>","null","","","","","","","","","",""
"","html-keyboard-response","127","465982","0.0-8.0-1.9","wlh1d24ack","many_one","0","indirect_first","0","el07in05","0","21","1","0","3","1","","0","1","0","null","","","<img src = 'category2/CS10.png' width = '100%;'>","null","","","","","","","","","",""
"","html-keyboard-response","128","466248","0.0-8.0-2.9","wlh1d24ack","many_one","0","indirect_first","0","el07in05","0","21","1","0","3","1","","0","1","0","null","","","<img src = 'targets/3.png' width = '100%;'>","null","","","","","","","","","",""
"","html-keyboard-response","129","467153","0.0-8.0-3.9","wlh1d24ack","many_one","0","indirect_first","0","el07in05","0","21","1","0","3","1","","0","1","0","902","","","<img src = 'targets/mask.png' width = '100%;'>","75","neg","CS","CS","2","category2/CS10.png","targets/3.png","1","indirect","9",""
"","html-keyboard-response","130","468665","0.0-8.0-0.10","wlh1d24ack","many_one","0","indirect_first","0","el07in05","0","21","1","0","3","1","","0","1","0","null","","","<div style=""font-size:60px;"">+</div>","null","","","","","","","","","",""
"","html-keyboard-response","131","468772","0.0-8.0-1.10","wlh1d24ack","many_one","0","indirect_first","0","el07in05","0","21","1","0","3","1","","0","1","0","null","","","<img src = 'category4/CS6.png' width = '100%;'>","null","","","","","","","","","",""
"","html-keyboard-response","132","469039","0.0-8.0-2.10","wlh1d24ack","many_one","0","indirect_first","0","el07in05","0","21","1","0","3","1","","0","1","0","null","","","<img src = 'targets/22.png' width = '100%;'>","null","","","","","","","","","",""
"","html-keyboard-response","133","470302","0.0-8.0-3.10","wlh1d24ack","many_one","0","indirect_first","0","el07in05","0","21","1","0","3","1","","0","1","0","1261","","","<img src = 'targets/mask.png' width = '100%;'>","75","pos","CS","CS","4","category4/CS6.png","targets/22.png","1","indirect","10",""
"","html-keyboard-response","134","471825","0.0-8.0-0.11","wlh1d24ack","many_one","0","indirect_first","0","el07in05","0","21","1","0","3","1","","0","1","0","null","","","<div style=""font-size:60px;"">+</div>","null","","","","","","","","","",""
"","html-keyboard-response","135","471931","0.0-8.0-1.11","wlh1d24ack","many_one","0","indirect_first","0","el07in05","0","21","1","0","3","1","","0","1","0","null","","","<img src = 'category2/CS4.png' width = '100%;'>","null","","","","","","","","","",""
"","html-keyboard-response","136","472197","0.0-8.0-2.11","wlh1d24ack","many_one","0","indirect_first","0","el07in05","0","21","1","0","3","1","","0","1","0","null","","","<img src = 'targets/1.png' width = '100%;'>","null","","","","","","","","","",""
"","html-keyboard-response","137","474082","0.0-8.0-3.11","wlh1d24ack","many_one","0","indirect_first","0","el07in05","0","21","1","0","3","1","","0","1","0","1883","","","<img src = 'targets/mask.png' width = '100%;'>","75","neg","GS","GSold","2","category2/CS4.png","targets/1.png","1","indirect","11",""
"","html-keyboard-response","138","475605","0.0-8.0-0.12","wlh1d24ack","many_one","0","indirect_first","0","el07in05","0","21","1","0","3","1","","0","1","0","null","","","<div style=""font-size:60px;"">+</div>","null","","","","","","","","","",""
"","html-keyboard-response","139","475711","0.0-8.0-1.12","wlh1d24ack","many_one","0","indirect_first","0","el07in05","0","21","1","0","3","1","","0","1","0","null","","","<img src = 'category3/CS3.png' width = '100%;'>","null","","","","","","","","","",""
"","html-keyboard-response","140","475978","0.0-8.0-2.12","wlh1d24ack","many_one","0","indirect_first","0","el07in05","0","21","1","0","3","1","","0","1","0","null","","","<img src = 'targets/29.png' width = '100%;'>","null","","","","","","","","","",""
"","html-keyboard-response","141","476913","0.0-8.0-3.12","wlh1d24ack","many_one","0","indirect_first","0","el07in05","0","21","1","0","3","1","","0","1","0","934","","","<img src = 'targets/mask.png' width = '100%;'>","68","pos","CS","CS","3","category3/CS3.png","targets/29.png","0","indirect","12",""
"","html-keyboard-response","142","478435","0.0-8.0-0.13","wlh1d24ack","many_one","0","indirect_first","0","el07in05","0","21","1","0","3","1","","0","1","0","null","","","<div style=""font-size:60px;"">+</div>","null","","","","","","","","","",""
"","html-keyboard-response","143","478542","0.0-8.0-1.13","wlh1d24ack","many_one","0","indirect_first","0","el07in05","0","21","1","0","3","1","","0","1","0","null","","","<img src = 'category2/CS2.png' width = '100%;'>","null","","","","","","","","","",""
"","html-keyboard-response","144","478809","0.0-8.0-2.13","wlh1d24ack","many_one","0","indirect_first","0","el07in05","0","21","1","0","3","1","","0","1","0","null","","","<img src = 'targets/17.png' width = '100%;'>","null","","","","","","","","","",""
"","html-keyboard-response","145","479744","0.0-8.0-3.13","wlh1d24ack","many_one","0","indirect_first","0","el07in05","0","21","1","0","3","1","","0","1","0","932","","","<img src = 'targets/mask.png' width = '100%;'>","68","neg","CS","CS","2","category2/CS2.png","targets/17.png","0","indirect","13",""
"","html-keyboard-response","146","481275","0.0-8.0-0.14","wlh1d24ack","many_one","0","indirect_first","0","el07in05","0","21","1","0","3","1","","0","1","0","null","","","<div style=""font-size:60px;"">+</div>","null","","","","","","","","","",""
"","html-keyboard-response","147","481382","0.0-8.0-1.14","wlh1d24ack","many_one","0","indirect_first","0","el07in05","0","21","1","0","3","1","","0","1","0","null","","","<img src = 'category2/CS1.png' width = '100%;'>","null","","","","","","","","","",""
"","html-keyboard-response","148","481648","0.0-8.0-2.14","wlh1d24ack","many_one","0","indirect_first","0","el07in05","0","21","1","0","3","1","","0","1","0","null","","","<img src = 'targets/43.png' width = '100%;'>","null","","","","","","","","","",""
"","html-keyboard-response","149","482343","0.0-8.0-3.14","wlh1d24ack","many_one","0","indirect_first","0","el07in05","0","21","1","0","3","1","","0","1","0","695","","","<img src = 'targets/mask.png' width = '100%;'>","68","neg","CS","CS","2","category2/CS1.png","targets/43.png","0","indirect","14",""
"","html-keyboard-response","150","483865","0.0-8.0-0.15","wlh1d24ack","many_one","0","indirect_first","0","el07in05","0","21","1","0","3","1","","0","1","0","null","","","<div style=""font-size:60px;"">+</div>","null","","","","","","","","","",""
"","html-keyboard-response","151","483972","0.0-8.0-1.15","wlh1d24ack","many_one","0","indirect_first","0","el07in05","0","21","1","0","3","1","","0","1","0","null","","","<img src = 'category4/CS4.png' width = '100%;'>","null","","","","","","","","","",""
"","html-keyboard-response","152","484238","0.0-8.0-2.15","wlh1d24ack","many_one","0","indirect_first","0","el07in05","0","21","1","0","3","1","","0","1","0","null","","","<img src = 'targets/6.png' width = '100%;'>","null","","","","","","","","","",""
"","html-keyboard-response","153","484873","0.0-8.0-3.15","wlh1d24ack","many_one","0","indirect_first","0","el07in05","0","21","1","0","3","1","","0","1","0","633","","","<img src = 'targets/mask.png' width = '100%;'>","75","pos","CS","CS","4","category4/CS4.png","targets/6.png","1","indirect","15",""
"","html-keyboard-response","154","486394","0.0-8.0-0.16","wlh1d24ack","many_one","0","indirect_first","0","el07in05","0","21","1","0","3","1","","0","1","0","null","","","<div style=""font-size:60px;"">+</div>","null","","","","","","","","","",""
"","html-keyboard-response","155","486502","0.0-8.0-1.16","wlh1d24ack","many_one","0","indirect_first","0","el07in05","0","21","1","0","3","1","","0","1","0","null","","","<img src = 'category3/CS10.png' width = '100%;'>","null","","","","","","","","","",""
"","html-keyboard-response","156","486768","0.0-8.0-2.16","wlh1d24ack","many_one","0","indirect_first","0","el07in05","0","21","1","0","3","1","","0","1","0","null","","","<img src = 'targets/33.png' width = '100%;'>","null","","","","","","","","","",""
"","html-keyboard-response","157","487914","0.0-8.0-3.16","wlh1d24ack","many_one","0","indirect_first","0","el07in05","0","21","1","0","3","1","","0","1","0","1143","","","<img src = 'targets/mask.png' width = '100%;'>","68","pos","CS","CS","3","category3/CS10.png","targets/33.png","0","indirect","16",""
"","html-keyboard-response","158","489435","0.0-8.0-0.17","wlh1d24ack","many_one","0","indirect_first","0","el07in05","0","21","1","0","3","1","","0","1","0","null","","","<div style=""font-size:60px;"">+</div>","null","","","","","","","","","",""
"","html-keyboard-response","159","489542","0.0-8.0-1.17","wlh1d24ack","many_one","0","indirect_first","0","el07in05","0","21","1","0","3","1","","0","1","0","null","","","<img src = 'category1/CS3.png' width = '100%;'>","null","","","","","","","","","",""
"","html-keyboard-response","160","489809","0.0-8.0-2.17","wlh1d24ack","many_one","0","indirect_first","0","el07in05","0","21","1","0","3","1","","0","1","0","null","","","<img src = 'targets/28.png' width = '100%;'>","null","","","","","","","","","",""
"","html-keyboard-response","161","490343","0.0-8.0-3.17","wlh1d24ack","many_one","0","indirect_first","0","el07in05","0","21","1","0","3","1","","0","1","0","533","","","<img src = 'targets/mask.png' width = '100%;'>","75","neg","CS","CS","1","category1/CS3.png","targets/28.png","1","indirect","17",""
"","html-keyboard-response","162","491854","0.0-8.0-0.18","wlh1d24ack","many_one","0","indirect_first","0","el07in05","0","21","1","0","3","1","","0","1","0","null","","","<div style=""font-size:60px;"">+</div>","null","","","","","","","","","",""
"","html-keyboard-response","163","491962","0.0-8.0-1.18","wlh1d24ack","many_one","0","indirect_first","0","el07in05","0","21","1","0","3","1","","0","1","0","null","","","<img src = 'category2/CS6.png' width = '100%;'>","null","","","","","","","","","",""
"","html-keyboard-response","164","492229","0.0-8.0-2.18","wlh1d24ack","many_one","0","indirect_first","0","el07in05","0","21","1","0","3","1","","0","1","0","null","","","<img src = 'targets/24.png' width = '100%;'>","null","","","","","","","","","",""
"","html-keyboard-response","165","493063","0.0-8.0-3.18","wlh1d24ack","many_one","0","indirect_first","0","el07in05","0","21","1","0","3","1","","0","1","0","833","","","<img src = 'targets/mask.png' width = '100%;'>","68","neg","CS","CS","2","category2/CS6.png","targets/24.png","0","indirect","18",""
"","html-keyboard-response","166","494574","0.0-8.0-0.19","wlh1d24ack","many_one","0","indirect_first","0","el07in05","0","21","1","0","3","1","","0","1","0","null","","","<div style=""font-size:60px;"">+</div>","null","","","","","","","","","",""
"","html-keyboard-response","167","494682","0.0-8.0-1.19","wlh1d24ack","many_one","0","indirect_first","0","el07in05","0","21","1","0","3","1","","0","1","0","null","","","<img src = 'category1/CS4.png' width = '100%;'>","null","","","","","","","","","",""
"","html-keyboard-response","168","494949","0.0-8.0-2.19","wlh1d24ack","many_one","0","indirect_first","0","el07in05","0","21","1","0","3","1","","0","1","0","null","","","<img src = 'targets/36.png' width = '100%;'>","null","","","","","","","","","",""
"","html-keyboard-response","169","495483","0.0-8.0-3.19","wlh1d24ack","many_one","0","indirect_first","0","el07in05","0","21","1","0","3","1","","0","1","0","533","","","<img src = 'targets/mask.png' width = '100%;'>","75","neg","CS","CS","1","category1/CS4.png","targets/36.png","1","indirect","19",""
"","html-keyboard-response","170","497004","0.0-8.0-0.20","wlh1d24ack","many_one","0","indirect_first","0","el07in05","0","21","1","0","3","1","","0","1","0","null","","","<div style=""font-size:60px;"">+</div>","null","","","","","","","","","",""
"","html-keyboard-response","171","497112","0.0-8.0-1.20","wlh1d24ack","many_one","0","indirect_first","0","el07in05","0","21","1","0","3","1","","0","1","0","null","","","<img src = 'category3/CS1.png' width = '100%;'>","null","","","","","","","","","",""
"","html-keyboard-response","172","497378","0.0-8.0-2.20","wlh1d24ack","many_one","0","indirect_first","0","el07in05","0","21","1","0","3","1","","0","1","0","null","","","<img src = 'targets/46.png' width = '100%;'>","null","","","","","","","","","",""
"","html-keyboard-response","173","498532","0.0-8.0-3.20","wlh1d24ack","many_one","0","indirect_first","0","el07in05","0","21","1","0","3","1","","0","1","0","1152","","","<img src = 'targets/mask.png' width = '100%;'>","75","pos","GS","GSold","3","category3/CS1.png","targets/46.png","1","indirect","20",""
"","html-keyboard-response","174","500055","0.0-8.0-0.21","wlh1d24ack","many_one","0","indirect_first","0","el07in05","0","21","1","0","3","1","","0","1","0","null","","","<div style=""font-size:60px;"">+</div>","null","","","","","","","","","",""
"","html-keyboard-response","175","500162","0.0-8.0-1.21","wlh1d24ack","many_one","0","indirect_first","0","el07in05","0","21","1","0","3","1","","0","1","0","null","","","<img src = 'category2/CS7.png' width = '100%;'>","null","","","","","","","","","",""
"","html-keyboard-response","176","500428","0.0-8.0-2.21","wlh1d24ack","many_one","0","indirect_first","0","el07in05","0","21","1","0","3","1","","0","1","0","null","","","<img src = 'targets/18.png' width = '100%;'>","null","","","","","","","","","",""
"","html-keyboard-response","177","502113","0.0-8.0-3.21","wlh1d24ack","many_one","0","indirect_first","0","el07in05","0","21","1","0","3","1","","0","1","0","1684","","","<img src = 'targets/mask.png' width = '100%;'>","68","neg","CS","CS","2","category2/CS7.png","targets/18.png","0","indirect","21",""
"","html-keyboard-response","178","503645","0.0-8.0-0.22","wlh1d24ack","many_one","0","indirect_first","0","el07in05","0","21","1","0","3","1","","0","1","0","null","","","<div style=""font-size:60px;"">+</div>","null","","","","","","","","","",""
"","html-keyboard-response","179","503752","0.0-8.0-1.22","wlh1d24ack","many_one","0","indirect_first","0","el07in05","0","21","1","0","3","1","","0","1","0","null","","","<img src = 'category4/CS2.png' width = '100%;'>","null","","","","","","","","","",""
"","html-keyboard-response","180","504018","0.0-8.0-2.22","wlh1d24ack","many_one","0","indirect_first","0","el07in05","0","21","1","0","3","1","","0","1","0","null","","","<img src = 'targets/35.png' width = '100%;'>","null","","","","","","","","","",""
"","html-keyboard-response","181","505003","0.0-8.0-3.22","wlh1d24ack","many_one","0","indirect_first","0","el07in05","0","21","1","0","3","1","","0","1","0","984","","","<img src = 'targets/mask.png' width = '100%;'>","75","pos","CS","CS","4","category4/CS2.png","targets/35.png","1","indirect","22",""
"","html-keyboard-response","182","506534","0.0-8.0-0.23","wlh1d24ack","many_one","0","indirect_first","0","el07in05","0","21","1","0","3","1","","0","1","0","null","","","<div style=""font-size:60px;"">+</div>","null","","","","","","","","","",""
"","html-keyboard-response","183","506640","0.0-8.0-1.23","wlh1d24ack","many_one","0","indirect_first","0","el07in05","0","21","1","0","3","1","","0","1","0","null","","","<img src = 'category2/CS5.png' width = '100%;'>","null","","","","","","","","","",""
"","html-keyboard-response","184","506908","0.0-8.0-2.23","wlh1d24ack","many_one","0","indirect_first","0","el07in05","0","21","1","0","3","1","","0","1","0","null","","","<img src = 'targets/15.png' width = '100%;'>","null","","","","","","","","","",""
"","html-keyboard-response","185","507484","0.0-8.0-3.23","wlh1d24ack","many_one","0","indirect_first","0","el07in05","0","21","1","0","3","1","","0","1","0","573","","","<img src = 'targets/mask.png' width = '100%;'>","75","neg","GS","GSold","2","category2/CS5.png","targets/15.png","1","indirect","23",""
"","survey-html-form","186","512260","0.0-9.0","wlh1d24ack","many_one","0","indirect_first","0","el07in05","0","21","1","0","3","1","","0","1","0","4265","","{}","","","","","","","","","","","",""
"","html-keyboard-response","187","515275","0.0-10.0-0.0","wlh1d24ack","many_one","0","indirect_first","0","el07in05","0","21","1","0","3","1","","0","1","0","null","","","<div style=""font-size:60px;"">+</div>","null","","","","","","","","","",""
"","html-keyboard-response","188","515382","0.0-10.0-1.0","wlh1d24ack","many_one","0","indirect_first","0","el07in05","0","21","1","0","3","1","","0","1","0","null","","","<img src = 'category1/CS7.png' width = '100%;'>","null","","","","","","","","","",""
"","html-keyboard-response","189","515649","0.0-10.0-2.0","wlh1d24ack","many_one","0","indirect_first","0","el07in05","0","21","1","0","3","1","","0","1","0","null","","","<img src = 'targets/26.png' width = '100%;'>","null","","","","","","","","","",""
"","html-keyboard-response","190","516774","0.0-10.0-3.0","wlh1d24ack","many_one","0","indirect_first","0","el07in05","0","21","1","0","3","1","","0","1","0","1124","","","<img src = 'targets/mask.png' width = '100%;'>","75","neg","GS","GSold","1","category1/CS7.png","targets/26.png","1","indirect","24",""
"","html-keyboard-response","191","518295","0.0-10.0-0.1","wlh1d24ack","many_one","0","indirect_first","0","el07in05","0","21","1","0","3","1","","0","1","0","null","","","<div style=""font-size:60px;"">+</div>","null","","","","","","","","","",""
"","html-keyboard-response","192","518402","0.0-10.0-1.1","wlh1d24ack","many_one","0","indirect_first","0","el07in05","0","21","1","0","3","1","","0","1","0","null","","","<img src = 'category4/CS9.png' width = '100%;'>","null","","","","","","","","","",""
"","html-keyboard-response","193","518668","0.0-10.0-2.1","wlh1d24ack","many_one","0","indirect_first","0","el07in05","0","21","1","0","3","1","","0","1","0","null","","","<img src = 'targets/5.png' width = '100%;'>","null","","","","","","","","","",""
"","html-keyboard-response","194","519714","0.0-10.0-3.1","wlh1d24ack","many_one","0","indirect_first","0","el07in05","0","21","1","0","3","1","","0","1","0","1043","","","<img src = 'targets/mask.png' width = '100%;'>","75","pos","GS","GSold","4","category4/CS9.png","targets/5.png","1","indirect","25",""
"","html-keyboard-response","195","521224","0.0-10.0-0.2","wlh1d24ack","many_one","0","indirect_first","0","el07in05","0","21","1","0","3","1","","0","1","0","null","","","<div style=""font-size:60px;"">+</div>","null","","","","","","","","","",""
"","html-keyboard-response","196","521331","0.0-10.0-1.2","wlh1d24ack","many_one","0","indirect_first","0","el07in05","0","21","1","0","3","1","","0","1","0","null","","","<img src = 'category4/CS3.png' width = '100%;'>","null","","","","","","","","","",""
"","html-keyboard-response","197","521598","0.0-10.0-2.2","wlh1d24ack","many_one","0","indirect_first","0","el07in05","0","21","1","0","3","1","","0","1","0","null","","","<img src = 'targets/14.png' width = '100%;'>","null","","","","","","","","","",""
"","html-keyboard-response","198","522484","0.0-10.0-3.2","wlh1d24ack","many_one","0","indirect_first","0","el07in05","0","21","1","0","3","1","","0","1","0","886","","","<img src = 'targets/mask.png' width = '100%;'>","68","pos","GS","GSold","4","category4/CS3.png","targets/14.png","0","indirect","26",""
"","html-keyboard-response","199","524015","0.0-10.0-0.3","wlh1d24ack","many_one","0","indirect_first","0","el07in05","0","21","1","0","3","1","","0","1","0","null","","","<div style=""font-size:60px;"">+</div>","null","","","","","","","","","",""
"","html-keyboard-response","200","524122","0.0-10.0-1.3","wlh1d24ack","many_one","0","indirect_first","0","el07in05","0","21","1","0","3","1","","0","1","0","null","","","<img src = 'category3/CS9.png' width = '100%;'>","null","","","","","","","","","",""
"","html-keyboard-response","201","524388","0.0-10.0-2.3","wlh1d24ack","many_one","0","indirect_first","0","el07in05","0","21","1","0","3","1","","0","1","0","null","","","<img src = 'targets/4.png' width = '100%;'>","null","","","","","","","","","",""
"","html-keyboard-response","202","525664","0.0-10.0-3.3","wlh1d24ack","many_one","0","indirect_first","0","el07in05","0","21","1","0","3","1","","0","1","0","1275","","","<img src = 'targets/mask.png' width = '100%;'>","68","pos","GS","GSold","3","category3/CS9.png","targets/4.png","0","indirect","27",""
"","html-keyboard-response","203","527183","0.0-10.0-0.4","wlh1d24ack","many_one","0","indirect_first","0","el07in05","0","21","1","0","3","1","","0","1","0","null","","","<div style=""font-size:60px;"">+</div>","null","","","","","","","","","",""
"","html-keyboard-response","204","527284","0.0-10.0-1.4","wlh1d24ack","many_one","0","indirect_first","0","el07in05","0","21","1","0","3","1","","0","1","0","null","","","<img src = 'category1/ma.png' width = '100%;'>","null","","","","","","","","","",""
"","html-keyboard-response","205","527557","0.0-10.0-2.4","wlh1d24ack","many_one","0","indirect_first","0","el07in05","0","21","1","0","3","1","","0","1","0","null","","","<img src = 'targets/44.png' width = '100%;'>","null","","","","","","","","","",""
"","html-keyboard-response","206","528833","0.0-10.0-3.4","wlh1d24ack","many_one","0","indirect_first","0","el07in05","0","21","1","0","3","1","","0","1","0","1275","","","<img src = 'targets/mask.png' width = '100%;'>","75","neg","GS","abstract","1","category1/ma.png","targets/44.png","1","indirect","28",""
"","html-keyboard-response","207","530356","0.0-10.0-0.5","wlh1d24ack","many_one","0","indirect_first","0","el07in05","0","21","1","0","3","1","","0","1","0","null","","","<div style=""font-size:60px;"">+</div>","null","","","","","","","","","",""
"","html-keyboard-response","208","530460","0.0-10.0-1.5","wlh1d24ack","many_one","0","indirect_first","0","el07in05","0","21","1","0","3","1","","0","1","0","null","","","<img src = 'category3/GS1.png' width = '100%;'>","null","","","","","","","","","",""
"","html-keyboard-response","209","530729","0.0-10.0-2.5","wlh1d24ack","many_one","0","indirect_first","0","el07in05","0","21","1","0","3","1","","0","1","0","null","","","<img src = 'targets/23.png' width = '100%;'>","null","","","","","","","","","",""
"","html-keyboard-response","210","531343","0.0-10.0-3.5","wlh1d24ack","many_one","0","indirect_first","0","el07in05","0","21","1","0","3","1","","0","1","0","613","","","<img src = 'targets/mask.png' width = '100%;'>","68","pos","GS","GSnew","3","category3/GS1.png","targets/23.png","0","indirect","29",""
"","html-keyboard-response","211","532864","0.0-10.0-0.6","wlh1d24ack","many_one","0","indirect_first","0","el07in05","0","21","1","0","3","1","","0","1","0","null","","","<div style=""font-size:60px;"">+</div>","null","","","","","","","","","",""
"","html-keyboard-response","212","532965","0.0-10.0-1.6","wlh1d24ack","many_one","0","indirect_first","0","el07in05","0","21","1","0","3","1","","0","1","0","null","","","<img src = 'category3/wang.png' width = '100%;'>","null","","","","","","","","","",""
"","html-keyboard-response","213","533238","0.0-10.0-2.6","wlh1d24ack","many_one","0","indirect_first","0","el07in05","0","21","1","0","3","1","","0","1","0","null","","","<img src = 'targets/19.png' width = '100%;'>","null","","","","","","","","","",""
"","html-keyboard-response","214","534425","0.0-10.0-3.6","wlh1d24ack","many_one","0","indirect_first","0","el07in05","0","21","1","0","3","1","","0","1","0","1185","","","<img src = 'targets/mask.png' width = '100%;'>","68","pos","GS","abstract","3","category3/wang.png","targets/19.png","0","indirect","30",""
"","html-keyboard-response","215","535945","0.0-10.0-0.7","wlh1d24ack","many_one","0","indirect_first","0","el07in05","0","21","1","0","3","1","","0","1","0","null","","","<div style=""font-size:60px;"">+</div>","null","","","","","","","","","",""
"","html-keyboard-response","216","536052","0.0-10.0-1.7","wlh1d24ack","many_one","0","indirect_first","0","el07in05","0","21","1","0","3","1","","0","1","0","null","","","<img src = 'category4/GS2.png' width = '100%;'>","null","","","","","","","","","",""
"","html-keyboard-response","217","536317","0.0-10.0-2.7","wlh1d24ack","many_one","0","indirect_first","0","el07in05","0","21","1","0","3","1","","0","1","0","null","","","<img src = 'targets/47.png' width = '100%;'>","null","","","","","","","","","",""
"","html-keyboard-response","218","537415","0.0-10.0-3.7","wlh1d24ack","many_one","0","indirect_first","0","el07in05","0","21","1","0","3","1","","0","1","0","1096","","","<img src = 'targets/mask.png' width = '100%;'>","68","pos","GS","GSnew","4","category4/GS2.png","targets/47.png","0","indirect","31",""
"","html-keyboard-response","219","538935","0.0-10.0-0.8","wlh1d24ack","many_one","0","indirect_first","0","el07in05","0","21","1","0","3","1","","0","1","0","null","","","<div style=""font-size:60px;"">+</div>","null","","","","","","","","","",""
"","html-keyboard-response","220","539042","0.0-10.0-1.8","wlh1d24ack","many_one","0","indirect_first","0","el07in05","0","21","1","0","3","1","","0","1","0","null","","","<img src = 'category1/GS1.png' width = '100%;'>","null","","","","","","","","","",""
"","html-keyboard-response","221","539308","0.0-10.0-2.8","wlh1d24ack","many_one","0","indirect_first","0","el07in05","0","21","1","0","3","1","","0","1","0","null","","","<img src = 'targets/39.png' width = '100%;'>","null","","","","","","","","","",""
"","html-keyboard-response","222","540024","0.0-10.0-3.8","wlh1d24ack","many_one","0","indirect_first","0","el07in05","0","21","1","0","3","1","","0","1","0","715","","","<img src = 'targets/mask.png' width = '100%;'>","68","neg","GS","GSnew","1","category1/GS1.png","targets/39.png","0","indirect","32",""
"","html-keyboard-response","223","541545","0.0-10.0-0.9","wlh1d24ack","many_one","0","indirect_first","0","el07in05","0","21","1","0","3","1","","0","1","0","null","","","<div style=""font-size:60px;"">+</div>","null","","","","","","","","","",""
"","html-keyboard-response","224","541651","0.0-10.0-1.9","wlh1d24ack","many_one","0","indirect_first","0","el07in05","0","21","1","0","3","1","","0","1","0","null","","","<img src = 'category1/GS3.png' width = '100%;'>","null","","","","","","","","","",""
"","html-keyboard-response","225","541917","0.0-10.0-2.9","wlh1d24ack","many_one","0","indirect_first","0","el07in05","0","21","1","0","3","1","","0","1","0","null","","","<img src = 'targets/27.png' width = '100%;'>","null","","","","","","","","","",""
"","html-keyboard-response","226","542534","0.0-10.0-3.9","wlh1d24ack","many_one","0","indirect_first","0","el07in05","0","21","1","0","3","1","","0","1","0","615","","","<img src = 'targets/mask.png' width = '100%;'>","68","neg","GS","GSnew","1","category1/GS3.png","targets/27.png","0","indirect","33",""
"","html-keyboard-response","227","544075","0.0-10.0-0.10","wlh1d24ack","many_one","0","indirect_first","0","el07in05","0","21","1","0","3","1","","0","1","0","null","","","<div style=""font-size:60px;"">+</div>","null","","","","","","","","","",""
"","html-keyboard-response","228","544181","0.0-10.0-1.10","wlh1d24ack","many_one","0","indirect_first","0","el07in05","0","21","1","0","3","1","","0","1","0","null","","","<img src = 'category1/CS5.png' width = '100%;'>","null","","","","","","","","","",""
"","html-keyboard-response","229","544449","0.0-10.0-2.10","wlh1d24ack","many_one","0","indirect_first","0","el07in05","0","21","1","0","3","1","","0","1","0","null","","","<img src = 'targets/32.png' width = '100%;'>","null","","","","","","","","","",""
"","html-keyboard-response","230","544994","0.0-10.0-3.10","wlh1d24ack","many_one","0","indirect_first","0","el07in05","0","21","1","0","3","1","","0","1","0","544","","","<img src = 'targets/mask.png' width = '100%;'>","75","neg","GS","GSold","1","category1/CS5.png","targets/32.png","1","indirect","34",""
"","html-keyboard-response","231","546535","0.0-10.0-0.11","wlh1d24ack","many_one","0","indirect_first","0","el07in05","0","21","1","0","3","1","","0","1","0","null","","","<div style=""font-size:60px;"">+</div>","null","","","","","","","","","",""
"","html-keyboard-response","232","546642","0.0-10.0-1.11","wlh1d24ack","many_one","0","indirect_first","0","el07in05","0","21","1","0","3","1","","0","1","0","null","","","<img src = 'category3/GS2.png' width = '100%;'>","null","","","","","","","","","",""
"","html-keyboard-response","233","546908","0.0-10.0-2.11","wlh1d24ack","many_one","0","indirect_first","0","el07in05","0","21","1","0","3","1","","0","1","0","null","","","<img src = 'targets/25.png' width = '100%;'>","null","","","","","","","","","",""
"","html-keyboard-response","234","547445","0.0-10.0-3.11","wlh1d24ack","many_one","0","indirect_first","0","el07in05","0","21","1","0","3","1","","0","1","0","535","","","<img src = 'targets/mask.png' width = '100%;'>","68","pos","GS","GSnew","3","category3/GS2.png","targets/25.png","0","indirect","35",""
"","html-keyboard-response","235","548985","0.0-10.0-0.12","wlh1d24ack","many_one","0","indirect_first","0","el07in05","0","21","1","0","3","1","","0","1","0","null","","","<div style=""font-size:60px;"">+</div>","null","","","","","","","","","",""
"","html-keyboard-response","236","549092","0.0-10.0-1.12","wlh1d24ack","many_one","0","indirect_first","0","el07in05","0","21","1","0","3","1","","0","1","0","null","","","<img src = 'category4/lin.png' width = '100%;'>","null","","","","","","","","","",""
"","html-keyboard-response","237","549359","0.0-10.0-2.12","wlh1d24ack","many_one","0","indirect_first","0","el07in05","0","21","1","0","3","1","","0","1","0","null","","","<img src = 'targets/31.png' width = '100%;'>","null","","","","","","","","","",""
"","html-keyboard-response","238","550344","0.0-10.0-3.12","wlh1d24ack","many_one","0","indirect_first","0","el07in05","0","21","1","0","3","1","","0","1","0","983","","","<img src = 'targets/mask.png' width = '100%;'>","75","pos","GS","abstract","4","category4/lin.png","targets/31.png","1","indirect","36",""
"","html-keyboard-response","239","551864","0.0-10.0-0.13","wlh1d24ack","many_one","0","indirect_first","0","el07in05","0","21","1","0","3","1","","0","1","0","null","","","<div style=""font-size:60px;"">+</div>","null","","","","","","","","","",""
"","html-keyboard-response","240","551965","0.0-10.0-1.13","wlh1d24ack","many_one","0","indirect_first","0","el07in05","0","21","1","0","3","1","","0","1","0","null","","","<img src = 'category2/men.png' width = '100%;'>","null","","","","","","","","","",""
"","html-keyboard-response","241","552238","0.0-10.0-2.13","wlh1d24ack","many_one","0","indirect_first","0","el07in05","0","21","1","0","3","1","","0","1","0","null","","","<img src = 'targets/16.png' width = '100%;'>","null","","","","","","","","","",""
"","html-keyboard-response","242","553215","0.0-10.0-3.13","wlh1d24ack","many_one","0","indirect_first","0","el07in05","0","21","1","0","3","1","","0","1","0","976","","","<img src = 'targets/mask.png' width = '100%;'>","68","neg","GS","abstract","2","category2/men.png","targets/16.png","0","indirect","37",""
"","html-keyboard-response","243","554735","0.0-10.0-0.14","wlh1d24ack","many_one","0","indirect_first","0","el07in05","0","21","1","0","3","1","","0","1","0","null","","","<div style=""font-size:60px;"">+</div>","null","","","","","","","","","",""
"","html-keyboard-response","244","554842","0.0-10.0-1.14","wlh1d24ack","many_one","0","indirect_first","0","el07in05","0","21","1","0","3","1","","0","1","0","null","","","<img src = 'category4/GS1.png' width = '100%;'>","null","","","","","","","","","",""
"","html-keyboard-response","245","555108","0.0-10.0-2.14","wlh1d24ack","many_one","0","indirect_first","0","el07in05","0","21","1","0","3","1","","0","1","0","null","","","<img src = 'targets/13.png' width = '100%;'>","null","","","","","","","","","",""
"","html-keyboard-response","246","555855","0.0-10.0-3.14","wlh1d24ack","many_one","0","indirect_first","0","el07in05","0","21","1","0","3","1","","0","1","0","746","","","<img src = 'targets/mask.png' width = '100%;'>","68","pos","GS","GSnew","4","category4/GS1.png","targets/13.png","0","indirect","38",""
"","html-keyboard-response","247","557384","0.0-10.0-0.15","wlh1d24ack","many_one","0","indirect_first","0","el07in05","0","21","1","0","3","1","","0","1","0","null","","","<div style=""font-size:60px;"">+</div>","null","","","","","","","","","",""
"","html-keyboard-response","248","557492","0.0-10.0-1.15","wlh1d24ack","many_one","0","indirect_first","0","el07in05","0","21","1","0","3","1","","0","1","0","null","","","<img src = 'category2/GS1.png' width = '100%;'>","null","","","","","","","","","",""
"","html-keyboard-response","249","557758","0.0-10.0-2.15","wlh1d24ack","many_one","0","indirect_first","0","el07in05","0","21","1","0","3","1","","0","1","0","null","","","<img src = 'targets/38.png' width = '100%;'>","null","","","","","","","","","",""
"","html-keyboard-response","250","558315","0.0-10.0-3.15","wlh1d24ack","many_one","0","indirect_first","0","el07in05","0","21","1","0","3","1","","0","1","0","556","","","<img src = 'targets/mask.png' width = '100%;'>","75","neg","GS","GSnew","2","category2/GS1.png","targets/38.png","1","indirect","39",""
"","html-keyboard-response","251","559844","0.0-10.0-0.16","wlh1d24ack","many_one","0","indirect_first","0","el07in05","0","21","1","0","3","1","","0","1","0","null","","","<div style=""font-size:60px;"">+</div>","null","","","","","","","","","",""
"","html-keyboard-response","252","559952","0.0-10.0-1.16","wlh1d24ack","many_one","0","indirect_first","0","el07in05","0","21","1","0","3","1","","0","1","0","null","","","<img src = 'category1/CS1.png' width = '100%;'>","null","","","","","","","","","",""
"","html-keyboard-response","253","560219","0.0-10.0-2.16","wlh1d24ack","many_one","0","indirect_first","0","el07in05","0","21","1","0","3","1","","0","1","0","null","","","<img src = 'targets/42.png' width = '100%;'>","null","","","","","","","","","",""
"","html-keyboard-response","254","560625","0.0-10.0-3.16","wlh1d24ack","many_one","0","indirect_first","0","el07in05","0","21","1","0","3","1","","0","1","0","405","","","<img src = 'targets/mask.png' width = '100%;'>","68","neg","GS","GSold","1","category1/CS1.png","targets/42.png","0","indirect","40",""
"","html-keyboard-response","255","562144","0.0-10.0-0.17","wlh1d24ack","many_one","0","indirect_first","0","el07in05","0","21","1","0","3","1","","0","1","0","null","","","<div style=""font-size:60px;"">+</div>","null","","","","","","","","","",""
"","html-keyboard-response","256","562251","0.0-10.0-1.17","wlh1d24ack","many_one","0","indirect_first","0","el07in05","0","21","1","0","3","1","","0","1","0","null","","","<img src = 'category4/GS3.png' width = '100%;'>","null","","","","","","","","","",""
"","html-keyboard-response","257","562518","0.0-10.0-2.17","wlh1d24ack","many_one","0","indirect_first","0","el07in05","0","21","1","0","3","1","","0","1","0","null","","","<img src = 'targets/37.png' width = '100%;'>","null","","","","","","","","","",""
"","html-keyboard-response","258","563075","0.0-10.0-3.17","wlh1d24ack","many_one","0","indirect_first","0","el07in05","0","21","1","0","3","1","","0","1","0","556","","","<img src = 'targets/mask.png' width = '100%;'>","68","pos","GS","GSnew","4","category4/GS3.png","targets/37.png","0","indirect","41",""
"","html-keyboard-response","259","564605","0.0-10.0-0.18","wlh1d24ack","many_one","0","indirect_first","0","el07in05","0","21","1","0","3","1","","0","1","0","null","","","<div style=""font-size:60px;"">+</div>","null","","","","","","","","","",""
"","html-keyboard-response","260","564712","0.0-10.0-1.18","wlh1d24ack","many_one","0","indirect_first","0","el07in05","0","21","1","0","3","1","","0","1","0","null","","","<img src = 'category3/CS4.png' width = '100%;'>","null","","","","","","","","","",""
"","html-keyboard-response","261","564979","0.0-10.0-2.18","wlh1d24ack","many_one","0","indirect_first","0","el07in05","0","21","1","0","3","1","","0","1","0","null","","","<img src = 'targets/7.png' width = '100%;'>","null","","","","","","","","","",""
"","html-keyboard-response","262","565386","0.0-10.0-3.18","wlh1d24ack","many_one","0","indirect_first","0","el07in05","0","21","1","0","3","1","","0","1","0","405","","","<img src = 'targets/mask.png' width = '100%;'>","75","pos","GS","GSold","3","category3/CS4.png","targets/7.png","1","indirect","42",""
"","html-keyboard-response","263","566904","0.0-10.0-0.19","wlh1d24ack","many_one","0","indirect_first","0","el07in05","0","21","1","0","3","1","","0","1","0","null","","","<div style=""font-size:60px;"">+</div>","null","","","","","","","","","",""
"","html-keyboard-response","264","567011","0.0-10.0-1.19","wlh1d24ack","many_one","0","indirect_first","0","el07in05","0","21","1","0","3","1","","0","1","0","null","","","<img src = 'category2/GS2.png' width = '100%;'>","null","","","","","","","","","",""
"","html-keyboard-response","265","567275","0.0-10.0-2.19","wlh1d24ack","many_one","0","indirect_first","0","el07in05","0","21","1","0","3","1","","0","1","0","null","","","<img src = 'targets/8.png' width = '100%;'>","null","","","","","","","","","",""
"","html-keyboard-response","266","567876","0.0-10.0-3.19","wlh1d24ack","many_one","0","indirect_first","0","el07in05","0","21","1","0","3","1","","0","1","0","600","","","<img src = 'targets/mask.png' width = '100%;'>","68","neg","GS","GSnew","2","category2/GS2.png","targets/8.png","0","indirect","43",""
"","html-keyboard-response","267","569405","0.0-10.0-0.20","wlh1d24ack","many_one","0","indirect_first","0","el07in05","0","21","1","0","3","1","","0","1","0","null","","","<div style=""font-size:60px;"">+</div>","null","","","","","","","","","",""
"","html-keyboard-response","268","569512","0.0-10.0-1.20","wlh1d24ack","many_one","0","indirect_first","0","el07in05","0","21","1","0","3","1","","0","1","0","null","","","<img src = 'category2/GS3.png' width = '100%;'>","null","","","","","","","","","",""
"","html-keyboard-response","269","569778","0.0-10.0-2.20","wlh1d24ack","many_one","0","indirect_first","0","el07in05","0","21","1","0","3","1","","0","1","0","null","","","<img src = 'targets/40.png' width = '100%;'>","null","","","","","","","","","",""
"","html-keyboard-response","270","570676","0.0-10.0-3.20","wlh1d24ack","many_one","0","indirect_first","0","el07in05","0","21","1","0","3","1","","0","1","0","895","","","<img src = 'targets/mask.png' width = '100%;'>","68","neg","GS","GSnew","2","category2/GS3.png","targets/40.png","0","indirect","44",""
"","html-keyboard-response","271","572202","0.0-10.0-0.21","wlh1d24ack","many_one","0","indirect_first","0","el07in05","0","21","1","0","3","1","","0","1","0","null","","","<div style=""font-size:60px;"">+</div>","null","","","","","","","","","",""
"","html-keyboard-response","272","572305","0.0-10.0-1.21","wlh1d24ack","many_one","0","indirect_first","0","el07in05","0","21","1","0","3","1","","0","1","0","null","","","<img src = 'category1/GS2.png' width = '100%;'>","null","","","","","","","","","",""
"","html-keyboard-response","273","572576","0.0-10.0-2.21","wlh1d24ack","many_one","0","indirect_first","0","el07in05","0","21","1","0","3","1","","0","1","0","null","","","<img src = 'targets/21.png' width = '100%;'>","null","","","","","","","","","",""
"","html-keyboard-response","274","573176","0.0-10.0-3.21","wlh1d24ack","many_one","0","indirect_first","0","el07in05","0","21","1","0","3","1","","0","1","0","598","","","<img src = 'targets/mask.png' width = '100%;'>","68","neg","GS","GSnew","1","category1/GS2.png","targets/21.png","0","indirect","45",""
"","html-keyboard-response","275","574715","0.0-10.0-0.22","wlh1d24ack","many_one","0","indirect_first","0","el07in05","0","21","1","0","3","1","","0","1","0","null","","","<div style=""font-size:60px;"">+</div>","null","","","","","","","","","",""
"","html-keyboard-response","276","574822","0.0-10.0-1.22","wlh1d24ack","many_one","0","indirect_first","0","el07in05","0","21","1","0","3","1","","0","1","0","null","","","<img src = 'category3/GS3.png' width = '100%;'>","null","","","","","","","","","",""
"","html-keyboard-response","277","575088","0.0-10.0-2.22","wlh1d24ack","many_one","0","indirect_first","0","el07in05","0","21","1","0","3","1","","0","1","0","null","","","<img src = 'targets/9.png' width = '100%;'>","null","","","","","","","","","",""
"","html-keyboard-response","278","575486","0.0-10.0-3.22","wlh1d24ack","many_one","0","indirect_first","0","el07in05","0","21","1","0","3","1","","0","1","0","397","","","<img src = 'targets/mask.png' width = '100%;'>","75","pos","GS","GSnew","3","category3/GS3.png","targets/9.png","1","indirect","46",""
"","html-keyboard-response","279","577013","0.0-10.0-0.23","wlh1d24ack","many_one","0","indirect_first","0","el07in05","0","21","1","0","3","1","","0","1","0","null","","","<div style=""font-size:60px;"">+</div>","null","","","","","","","","","",""
"","html-keyboard-response","280","577117","0.0-10.0-1.23","wlh1d24ack","many_one","0","indirect_first","0","el07in05","0","21","1","0","3","1","","0","1","0","null","","","<img src = 'category4/CS5.png' width = '100%;'>","null","","","","","","","","","",""
"","html-keyboard-response","281","577386","0.0-10.0-2.23","wlh1d24ack","many_one","0","indirect_first","0","el07in05","0","21","1","0","3","1","","0","1","0","null","","","<img src = 'targets/41.png' width = '100%;'>","null","","","","","","","","","",""
"","html-keyboard-response","282","577885","0.0-10.0-3.23","wlh1d24ack","many_one","0","indirect_first","0","el07in05","0","21","1","0","3","1","","0","1","0","497","","","<img src = 'targets/mask.png' width = '100%;'>","68","pos","GS","GSold","4","category4/CS5.png","targets/41.png","0","indirect","47",""
"","survey-html-form","283","587530","0.0-11.0","wlh1d24ack","many_one","0","indirect_first","0","el07in05","0","21","1","0","3","1","","0","1","0","9125","","{}","","","","","","","","","","","",""
"","image-slider-response","284","595445","0.0-12.0-0.0","wlh1d24ack","many_one","0","indirect_first","0","el07in05","0","21","1","0","3","1","","0","1","0","5900","","","","","neg","GS","GSnew","2","category2/GS3.png","targets/40.png","","direct","","100"
"","image-slider-response","285","598461","0.0-12.0-0.1","wlh1d24ack","many_one","0","indirect_first","0","el07in05","0","21","1","0","3","1","","0","1","0","3011","","","","","pos","GS","GSnew","4","category4/GS3.png","targets/37.png","","direct","","100"
"","image-slider-response","286","601250","0.0-12.0-0.2","wlh1d24ack","many_one","0","indirect_first","0","el07in05","0","21","1","0","3","1","","0","1","0","2781","","","","","pos","CS","CS","3","category3/CS5.png","targets/10.png","","direct","","19"
"","image-slider-response","287","604555","0.0-12.0-0.3","wlh1d24ack","many_one","0","indirect_first","0","el07in05","0","21","1","0","3","1","","0","1","0","3301","","","","","neg","GS","GSnew","2","category2/GS1.png","targets/38.png","","direct","","-100"
"","image-slider-response","288","607787","0.0-12.0-0.4","wlh1d24ack","many_one","0","indirect_first","0","el07in05","0","21","1","0","3","1","","0","1","0","3226","","","","","neg","GS","GSold","1","category1/CS1.png","targets/42.png","","direct","","100"
"","image-slider-response","289","610962","0.0-12.0-0.5","wlh1d24ack","many_one","0","indirect_first","0","el07in05","0","21","1","0","3","1","","0","1","0","3168","","","","","neg","CS","CS","1","category1/CS4.png","targets/36.png","","direct","","-100"
"","image-slider-response","290","613765","0.0-12.0-0.6","wlh1d24ack","many_one","0","indirect_first","0","el07in05","0","21","1","0","3","1","","0","1","0","2796","","","","","neg","GS","GSnew","1","category1/GS1.png","targets/39.png","","direct","","-34"
"","image-slider-response","291","618637","0.0-12.0-0.7","wlh1d24ack","many_one","0","indirect_first","0","el07in05","0","21","1","0","3","1","","0","1","0","4867","","","","","neg","CS","CS","2","category2/CS7.png","targets/18.png","","direct","","100"
"","image-slider-response","292","621728","0.0-12.0-0.8","wlh1d24ack","many_one","0","indirect_first","0","el07in05","0","21","1","0","3","1","","0","1","0","3084","","","","","pos","GS","GSnew","3","category3/GS1.png","targets/23.png","","direct","","100"
"","image-slider-response","293","624366","0.0-12.0-0.9","wlh1d24ack","many_one","0","indirect_first","0","el07in05","0","21","1","0","3","1","","0","1","0","2633","","","","","neg","GS","abstract","2","category2/men.png","targets/16.png","","direct","","100"
"","image-slider-response","294","629399","0.0-12.0-0.10","wlh1d24ack","many_one","0","indirect_first","0","el07in05","0","21","1","0","3","1","","0","1","0","5027","","","","","neg","GS","GSold","2","category2/CS4.png","targets/1.png","","direct","","-100"
"","image-slider-response","295","631930","0.0-12.0-0.11","wlh1d24ack","many_one","0","indirect_first","0","el07in05","0","21","1","0","3","1","","0","1","0","2527","","","","","pos","GS","GSnew","4","category4/GS2.png","targets/47.png","","direct","","100"
"","image-slider-response","296","635070","0.0-12.0-0.12","wlh1d24ack","many_one","0","indirect_first","0","el07in05","0","21","1","0","3","1","","0","1","0","3133","","","","","neg","GS","GSnew","2","category2/GS2.png","targets/8.png","","direct","","-46"
"","image-slider-response","297","637292","0.0-12.0-0.13","wlh1d24ack","many_one","0","indirect_first","0","el07in05","0","21","1","0","3","1","","0","1","0","2215","","","","","neg","CS","CS","2","category2/CS6.png","targets/24.png","","direct","","100"
"","image-slider-response","298","639646","0.0-12.0-0.14","wlh1d24ack","many_one","0","indirect_first","0","el07in05","0","21","1","0","3","1","","0","1","0","2346","","","","","pos","GS","GSold","3","category3/CS4.png","targets/7.png","","direct","","-58"
"","image-slider-response","299","641930","0.0-12.0-0.15","wlh1d24ack","many_one","0","indirect_first","0","el07in05","0","21","1","0","3","1","","0","1","0","2279","","","","","pos","GS","GSold","3","category3/CS1.png","targets/46.png","","direct","","53"
"","image-slider-response","300","644649","0.0-12.0-0.16","wlh1d24ack","many_one","0","indirect_first","0","el07in05","0","21","1","0","3","1","","0","1","0","2713","","","","","neg","GS","GSold","1","category1/CS7.png","targets/26.png","","direct","","-61"
"","image-slider-response","301","647271","0.0-12.0-0.17","wlh1d24ack","many_one","0","indirect_first","0","el07in05","0","21","1","0","3","1","","0","1","0","2617","","","","","pos","CS","CS","4","category4/CS4.png","targets/6.png","","direct","","-100"
"","image-slider-response","302","649859","0.0-12.0-0.18","wlh1d24ack","many_one","0","indirect_first","0","el07in05","0","21","1","0","3","1","","0","1","0","2583","","","","","pos","GS","GSold","4","category4/CS9.png","targets/5.png","","direct","","-100"
"","image-slider-response","303","652344","0.0-12.0-0.19","wlh1d24ack","many_one","0","indirect_first","0","el07in05","0","21","1","0","3","1","","0","1","0","2479","","","","","neg","GS","GSnew","1","category1/GS2.png","targets/21.png","","direct","","100"
"","image-slider-response","304","654711","0.0-12.0-0.20","wlh1d24ack","many_one","0","indirect_first","0","el07in05","0","21","1","0","3","1","","0","1","0","2360","","","","","pos","GS","GSold","4","category4/CS5.png","targets/41.png","","direct","","100"
"","image-slider-response","305","657057","0.0-12.0-0.21","wlh1d24ack","many_one","0","indirect_first","0","el07in05","0","21","1","0","3","1","","0","1","0","2338","","","","","neg","CS","CS","1","category1/CS8.png","targets/20.png","","direct","","100"
"","image-slider-response","306","659397","0.0-12.0-0.22","wlh1d24ack","many_one","0","indirect_first","0","el07in05","0","21","1","0","3","1","","0","1","0","2333","","","","","pos","GS","abstract","3","category3/wang.png","targets/19.png","","direct","","-56"
"","image-slider-response","307","661778","0.0-12.0-0.23","wlh1d24ack","many_one","0","indirect_first","0","el07in05","0","21","1","0","3","1","","0","1","0","2374","","","","","pos","GS","GSold","3","category3/CS9.png","targets/4.png","","direct","","98"
"","image-slider-response","308","664164","0.0-12.0-0.24","wlh1d24ack","many_one","0","indirect_first","0","el07in05","0","21","1","0","3","1","","0","1","0","2381","","","","","neg","GS","GSold","2","category2/CS5.png","targets/15.png","","direct","","-49"
"","image-slider-response","309","669169","0.0-12.0-0.25","wlh1d24ack","many_one","0","indirect_first","0","el07in05","0","21","1","0","3","1","","0","1","0","4999","","","","","pos","CS","CS","3","category3/CS3.png","targets/29.png","","direct","","45"
"","image-slider-response","310","672008","0.0-12.0-0.26","wlh1d24ack","many_one","0","indirect_first","0","el07in05","0","21","1","0","3","1","","0","1","0","2834","","","","","pos","GS","GSnew","3","category3/GS2.png","targets/25.png","","direct","","100"
"","image-slider-response","311","675404","0.0-12.0-0.27","wlh1d24ack","many_one","0","indirect_first","0","el07in05","0","21","1","0","3","1","","0","1","0","3394","","","","","pos","CS","CS","4","category4/CS7.png","targets/34.png","","direct","","-100"
"","image-slider-response","312","680466","0.0-12.0-0.28","wlh1d24ack","many_one","0","indirect_first","0","el07in05","0","21","1","0","3","1","","0","1","0","5057","","","","","neg","GS","GSold","1","category1/CS5.png","targets/32.png","","direct","","-54"
"","image-slider-response","313","682964","0.0-12.0-0.29","wlh1d24ack","many_one","0","indirect_first","0","el07in05","0","21","1","0","3","1","","0","1","0","2492","","","","","pos","GS","GSnew","4","category4/GS1.png","targets/13.png","","direct","","27"
"","image-slider-response","314","685158","0.0-12.0-0.30","wlh1d24ack","many_one","0","indirect_first","0","el07in05","0","21","1","0","3","1","","0","1","0","2188","","","","","neg","CS","CS","1","category1/CS9.png","targets/48.png","","direct","","21"
"","image-slider-response","315","690396","0.0-12.0-0.31","wlh1d24ack","many_one","0","indirect_first","0","el07in05","0","21","1","0","3","1","","0","1","0","5233","","","","","neg","GS","GSold","2","category2/CS9.png","targets/30.png","","direct","","39"
"","image-slider-response","316","693942","0.0-12.0-0.32","wlh1d24ack","many_one","0","indirect_first","0","el07in05","0","21","1","0","3","1","","0","1","0","3542","","","","","neg","CS","CS","2","category2/CS1.png","targets/43.png","","direct","","100"
"","image-slider-response","317","697035","0.0-12.0-0.33","wlh1d24ack","many_one","0","indirect_first","0","el07in05","0","21","1","0","3","1","","0","1","0","3086","","","","","neg","CS","CS","1","category1/CS3.png","targets/28.png","","direct","","100"
"","image-slider-response","318","700230","0.0-12.0-0.34","wlh1d24ack","many_one","0","indirect_first","0","el07in05","0","21","1","0","3","1","","0","1","0","3188","","","","","pos","CS","CS","4","category4/CS6.png","targets/22.png","","direct","","100"
"","image-slider-response","319","702693","0.0-12.0-0.35","wlh1d24ack","many_one","0","indirect_first","0","el07in05","0","21","1","0","3","1","","0","1","0","2457","","","","","pos","GS","GSnew","3","category3/GS3.png","targets/9.png","","direct","","-51"
"","image-slider-response","320","706144","0.0-12.0-0.36","wlh1d24ack","many_one","0","indirect_first","0","el07in05","0","21","1","0","3","1","","0","1","0","3445","","","","","neg","CS","CS","2","category2/CS10.png","targets/3.png","","direct","","-100"
"","image-slider-response","321","709400","0.0-12.0-0.37","wlh1d24ack","many_one","0","indirect_first","0","el07in05","0","21","1","0","3","1","","0","1","0","3249","","","","","pos","CS","CS","4","category4/CS10.png","targets/45.png","","direct","","-63"
"","image-slider-response","322","712735","0.0-12.0-0.38","wlh1d24ack","many_one","0","indirect_first","0","el07in05","0","21","1","0","3","1","","0","1","0","3327","","","","","pos","CS","CS","3","category3/CS7.png","targets/2.png","","direct","","100"
"","image-slider-response","323","717226","0.0-12.0-0.39","wlh1d24ack","many_one","0","indirect_first","0","el07in05","0","21","1","0","3","1","","0","1","0","4485","","","","","pos","CS","CS","3","category3/CS10.png","targets/33.png","","direct","","-54"
"","image-slider-response","324","723257","0.0-12.0-0.40","wlh1d24ack","many_one","0","indirect_first","0","el07in05","0","21","1","0","3","1","","0","1","0","6026","","","","","neg","GS","GSnew","1","category1/GS3.png","targets/27.png","","direct","","100"
"","image-slider-response","325","725934","0.0-12.0-0.41","wlh1d24ack","many_one","0","indirect_first","0","el07in05","0","21","1","0","3","1","","0","1","0","2671","","","","","pos","CS","CS","3","category3/CS6.png","targets/12.png","","direct","","54"
"","image-slider-response","326","730614","0.0-12.0-0.42","wlh1d24ack","many_one","0","indirect_first","0","el07in05","0","21","1","0","3","1","","0","1","0","4673","","","","","neg","CS","CS","2","category2/CS2.png","targets/17.png","","direct","","-35"
"","image-slider-response","327","733167","0.0-12.0-0.43","wlh1d24ack","many_one","0","indirect_first","0","el07in05","0","21","1","0","3","1","","0","1","0","2547","","","","","pos","GS","abstract","4","category4/lin.png","targets/31.png","","direct","","100"
"","image-slider-response","328","735850","0.0-12.0-0.44","wlh1d24ack","many_one","0","indirect_first","0","el07in05","0","21","1","0","3","1","","0","1","0","2678","","","","","pos","CS","CS","4","category4/CS2.png","targets/35.png","","direct","","-100"
"","image-slider-response","329","738377","0.0-12.0-0.45","wlh1d24ack","many_one","0","indirect_first","0","el07in05","0","21","1","0","3","1","","0","1","0","2518","","","","","neg","GS","abstract","1","category1/ma.png","targets/44.png","","direct","","100"
